Time,inertial-6253.76535:estCompensatedAccelX,inertial-6253.76535:estCompensatedAccelX:valid,inertial-6253.76535:estCompensatedAccelY,inertial-6253.76535:estCompensatedAccelY:valid,inertial-6253.76535:estCompensatedAccelZ,inertial-6253.76535:estCompensatedAccelZ:valid,inertial-6253.76535:estAngularRateX,inertial-6253.76535:estAngularRateX:valid,inertial-6253.76535:estAngularRateY,inertial-6253.76535:estAngularRateY:valid,inertial-6253.76535:estAngularRateZ,inertial-6253.76535:estAngularRateZ:valid,inertial-6253.76535:estRoll,inertial-6253.76535:estRoll:valid,inertial-6253.76535:estPitch,inertial-6253.76535:estPitch:valid,inertial-6253.76535:estYaw,inertial-6253.76535:estYaw:valid
0,-4.757198334,1,-2.139681101,1,-8.297223091,1,-0.001319999,1,0.00751221,1,0.007450303,1,0.247294083,1,-0.549930215,1,-1.869396091,1
0.004004608,-4.757462025,1,-2.16481328,1,-8.316695213,1,-0.006894988,1,0.00369148,1,0.002213192,1,0.2472772747278214,1,-0.549922109,1,-1.869380474,1
0.008005376,-4.772191525,1,-2.143300533,1,-8.330069542,1,-0.002396701,1,0.004753866,1,0.003789242,1,0.2472507953643799,1,-0.549902558,1,-1.869364142,1
0.012002304,-4.77477169,1,-2.051136732,1,-8.338061333,1,0.00227322,1,0.00392395,1,0.006416442,1,0.2472351640462875,1,-0.549896181,1,-1.8693434,1
0.016000768,-4.781956196,1,-2.027859926,1,-8.365218163,1,-0.002793476,1,0.002902513,1,0.003397391,1,0.2472243010997772,1,-0.549880028,1,-1.869327068,1
0.020001536,-4.769811153,1,-2.058164835,1,-8.350516319,1,-6.48E-05,1,0.004270342,1,-0.000330012,1,0.2472181916236877,1,-0.549874663,1,-1.86931181,1
0.023998208,-4.740729809,1,-2.102651119,1,-8.339278221,1,0.004870192,1,0.001239336,1,0.00327988,1,0.2472278922796249,1,-0.549868643,1,-1.869309425,1
0.027997185,-4.740289688,1,-2.113825083,1,-8.321009636,1,0.004338271,1,0.00113821,1,-0.000425951,1,0.2472399026155472,1,-0.549864531,1,-1.869306087,1
0.031997953,-4.731276989,1,-2.14521265,1,-8.358101845,1,0.003788139,1,-0.000939757,1,-0.000575748,1,0.2472517490386963,1,-0.549855828,1,-1.86930728,1
0.03599488,-4.75439024,1,-2.148812532,1,-8.348982811,1,0.00211291,1,-0.00094501,1,0.001900954,1,0.2472527772188187,1,-0.549866736,1,-1.869295835,1
0.039993599,-4.765995026,1,-2.147253513,1,-8.346718788,1,0.003763263,1,0.001036205,1,0.003695367,1,0.2472649067640305,1,-0.549864352,1,-1.869297624,1
0.043994367,-4.758132935,1,-2.111123085,1,-8.313591957,1,0.000449666,1,0.001156731,1,0.001622434,1,0.2472710758447647,1,-0.549862385,1,-1.869282007,1
0.047991294,-4.74788332,1,-2.158700943,1,-8.322769165,1,0.001113772,1,-0.002925967,1,0.002548567,1,0.2472768574953079,1,-0.549871683,1,-1.869271755,1
0.05198976,-4.74366045,1,-2.133103848,1,-8.323374748,1,0.003252159,1,-0.004197845,1,0.003234068,1,0.2472836971282959,1,-0.549881518,1,-1.869269371,1
0.055990271,-4.729949951,1,-2.125010967,1,-8.347303391,1,0.002353557,1,-0.003036387,1,0.003017937,1,0.2472860217094421,1,-0.549897134,1,-1.869264007,1
0.059986945,-4.755155563,1,-2.147472858,1,-8.349184036,1,0.003378253,1,-0.0057775,1,0.003954716,1,0.2472794055938721,1,-0.549914002,1,-1.869247675,1
0.063985661,-4.741551876,1,-2.166808605,1,-8.310440063,1,-0.000519736,1,-0.005677924,1,0.003475636,1,0.2472714781761169,1,-0.549930394,1,-1.869232893,1
0.067986175,-4.780932903,1,-2.192748785,1,-8.334486961,1,0.003073084,1,-0.002582906,1,0.004043608,1,0.2472630143165588,1,-0.549949229,1,-1.869216204,1
0.071982846,-4.784715176,1,-2.160161972,1,-8.311812401,1,-0.001918972,1,-0.002559613,1,0.001320439,1,0.2472457587718964,1,-0.549970031,1,-1.869197369,1
0.075981312,-4.74807024,1,-2.146176815,1,-8.303977966,1,-0.002095101,1,-0.00047034,1,0.004617061,1,0.2472342401742935,1,-0.549986064,1,-1.869180441,1
0.079981565,-4.776312351,1,-2.140445471,1,-8.324069977,1,-0.006240513,1,-0.005713844,1,0.004452554,1,0.2472119629383087,1,-0.549994767,1,-1.869160891,1
0.083978243,-4.76751852,1,-2.147815466,1,-8.307880402,1,-0.001032742,1,-0.003981712,1,0.004351092,1,0.2471860945224762,1,-0.550014257,1,-1.869140148,1
0.087976702,-4.76600647,1,-2.104477644,1,-8.299773216,1,-0.001977309,1,0.001161279,1,0.003720188,1,0.2471559792757034,1,-0.550033391,1,-1.869114399,1
0.09197747,-4.75558567,1,-2.128285646,1,-8.323917389,1,-0.002893873,1,-0.001253842,1,0.006536913,1,0.2471285909414291,1,-0.550041497,1,-1.86909306,1
0.095974147,-4.754523754,1,-2.13887167,1,-8.308456421,1,-0.003873141,1,0.00171502,1,0.004870696,1,0.2471049278974533,1,-0.550047696,1,-1.869063377,1
0.099972606,-4.722733498,1,-2.139758825,1,-8.345671654,1,-0.0022713,1,-0.003442916,1,0.002820443,1,0.2470744401216507,1,-0.550060809,1,-1.869036198,1
0.10397312,-4.7542243,1,-2.116078377,1,-8.319203377,1,-0.005931003,1,0.000547714,1,0.010996974,1,0.2470498532056808,1,-0.55007112,1,-1.869011998,1
0.107969791,-4.762155533,1,-2.110848904,1,-8.329149246,1,-0.001147279,1,-0.003445031,1,0.003179805,1,0.2469862997531891,1,-0.549006104,1,-1.869345188,1
0.111968257,-4.76477766,1,-2.129438162,1,-8.315998077,1,-0.004673876,1,-0.002061462,1,0.004929765,1,0.2469635456800461,1,-0.549018681,1,-1.869319558,1
0.115969025,-4.754848003,1,-2.093526363,1,-8.319691658,1,0.000753126,1,-0.001318529,1,0.007482388,1,0.2469418942928314,1,-0.549031138,1,-1.869294405,1
0.119965695,-4.759973049,1,-2.109436989,1,-8.346226692,1,0.00088697,1,-0.004465107,1,0.006151043,1,0.2469276785850525,1,-0.549046695,1,-1.869270563,1
0.123970307,-4.741639614,1,-2.097988844,1,-8.314095497,1,-0.001917588,1,-0.005076999,1,0.005738005,1,0.2469195872545242,1,-0.549068213,1,-1.869254827,1
0.127971068,-4.710342884,1,-2.101706982,1,-8.358581543,1,0.000789255,1,-0.004251367,1,0.007305827,1,0.2469082027673721,1,-0.549087465,1,-1.869231105,1
0.131967738,-4.721594334,1,-2.131123304,1,-8.354065895,1,0.001707114,1,-0.008744756,1,0.00326243,1,0.2469044178724289,1,-0.549121618,1,-1.869211197,1
0.135966465,-4.735454559,1,-2.126424074,1,-8.367925644,1,0.003516763,1,-0.00723016,1,0.005386627,1,0.246909574,1,-0.549153686,1,-1.869195461,1
0.13996698,-4.702105999,1,-2.116057158,1,-8.320087433,1,0.002705324,1,-0.010411678,1,0.006669282,1,0.2469137012958527,1,-0.549196124,1,-1.869184017,1
0.14396365,-4.718085289,1,-2.143522263,1,-8.362136841,1,0.006145963,1,-0.013323524,1,-0.000236359,1,0.2469166964292526,1,-0.549242735,1,-1.86917305,1
0.147962362,-4.746225357,1,-2.117160082,1,-8.339231491,1,0.001647364,1,-0.011238043,1,0.003510003,1,0.2469301521778107,1,-0.549297333,1,-1.869164109,1
0.151963398,-4.760054588,1,-2.13724184,1,-8.366312981,1,0.001628835,1,-0.015308788,1,0.007626784,1,0.2469358295202255,1,-0.549353719,1,-1.869155407,1
0.155960575,-4.784118176,1,-2.167910814,1,-8.370640755,1,0.004531841,1,-0.011376178,1,0.006978578,1,0.2469407618045807,1,-0.549409747,1,-1.869139433,1
0.159959301,-4.725636005,1,-2.123095274,1,-8.351259232,1,0.004134717,1,-0.013003065,1,0.006255738,1,0.2469489425420761,1,-0.549465358,1,-1.869130015,1
0.163960069,-4.77327013,1,-2.18013978,1,-8.338340759,1,-0.001221532,1,-0.016306715,1,0.00845189,1,0.2469401359558105,1,-0.549532712,1,-1.869110227,1
0.167956993,-4.761338711,1,-2.173898458,1,-8.333307266,1,0.003340874,1,-0.012858129,1,0.005211589,1,0.2469291239976883,1,-0.549593031,1,-1.869092226,1
0.171955451,-4.759419918,1,-2.167805195,1,-8.329824448,1,0.000308709,1,-0.01517041,1,0.009663269,1,0.2469223886728287,1,-0.549653947,1,-1.869072795,1
0.175956219,-4.746883392,1,-2.126149178,1,-8.297206879,1,-0.001685713,1,-0.013658734,1,0.00645177,1,0.2468987256288528,1,-0.549720228,1,-1.869049668,1
0.17995289,-4.781380653,1,-2.149599791,1,-8.32439518,1,-0.005134518,1,-0.01523305,1,0.008622833,1,0.2468833774328232,1,-0.549786568,1,-1.869031429,1
0.183951363,-4.795010567,1,-2.11049819,1,-8.298797607,1,-0.002556223,1,-0.013392111,1,0.007137669,1,0.2468589246273041,1,-0.549843371,1,-1.86900425,1
0.187952131,-4.786721706,1,-2.132211685,1,-8.280478477,1,-0.000717592,1,-0.011351584,1,0.010774391,1,0.2468333393335342,1,-0.549907088,1,-1.868973732,1
0.191949055,-4.778049469,1,-2.119782448,1,-8.287739754,1,-0.002303049,1,-0.011374733,1,0.009105301,1,0.2468017935752869,1,-0.549958646,1,-1.868939638,1
0.195947513,-4.774445534,1,-2.08389473,1,-8.321522713,1,-0.000603469,1,-0.009117501,1,0.00932762,1,0.2467775046825409,1,-0.550009131,1,-1.868903399,1
0.199948281,-4.768345833,1,-2.097925663,1,-8.349302292,1,-0.004996196,1,-0.01257101,1,0.013920872,1,0.2467474043369293,1,-0.550070286,1,-1.868861318,1
0.203944966,-4.818682194,1,-2.083318472,1,-8.331799507,1,-0.001361209,1,-0.009904574,1,0.011913648,1,0.246716782,1,-0.550117671,1,-1.868819237,1
0.207943931,-4.797146797,1,-2.055253744,1,-8.300139427,1,-0.000351076,1,-0.007302846,1,0.01173632,1,0.2466975301504135,1,-0.55016762,1,-1.868788958,1
0.211944699,-4.769474506,1,-2.070006847,1,-8.311914444,1,-0.003238979,1,-0.00773148,1,0.010170761,1,0.246672049,1,-0.550205827,1,-1.868751287,1
0.21594137,-4.801403046,1,-2.111123562,1,-8.283589363,1,-0.000835657,1,-0.010190184,1,0.005593391,1,0.2466585338115692,1,-0.55025506,1,-1.868726373,1
0.219940096,-4.791032791,1,-2.078877926,1,-8.319913864,1,0.001183389,1,-0.011742653,1,0.008382648,1,0.2466479539871216,1,-0.550302684,1,-1.868697286,1
0.223940864,-4.781575203,1,-2.07458663,1,-8.304656982,1,0.002057111,1,-0.010296514,1,0.007487412,1,0.2466419190168381,1,-0.55034548,1,-1.868673205,1
0.227937534,-4.776563644,1,-2.110013962,1,-8.33337307,1,0.004712895,1,-0.004820341,1,0.008203318,1,0.2466431111097336,1,-0.550378919,1,-1.868648887,1
0.231936261,-4.761903763,1,-2.126724005,1,-8.326814651,1,0.009228567,1,-0.009026832,1,0.005926597,1,0.2466500103473663,1,-0.550415099,1,-1.868632674,1
0.235937029,-4.755989075,1,-2.08048296,1,-8.328495979,1,0.001890582,1,-0.008375341,1,0.005350754,1,0.2466621845960617,1,-0.550457418,1,-1.868620753,1
0.239933953,-4.78651619,1,-2.112814188,1,-8.299901009,1,0.000835831,1,-0.004473449,1,0.007393498,1,0.2466646581888199,1,-0.550482988,1,-1.868602157,1
0.243938819,-4.775305271,1,-2.093903065,1,-8.306085587,1,0.001467112,1,-0.006970264,1,0.006867314,1,0.2466614842414856,1,-0.550523937,1,-1.868585467,1
0.247939587,-4.782701015,1,-2.109665632,1,-8.322381973,1,0.006251681,1,-0.007138812,1,0.003312523,1,0.2466624975204468,1,-0.550558746,1,-1.868570924,1
0.251936764,-4.764315128,1,-2.093690395,1,-8.319019318,1,0.004101352,1,-0.007793892,1,0.005030141,1,0.246667281,1,-0.550592363,1,-1.868556023,1
0.25593549,-4.775966644,1,-2.129589319,1,-8.316357613,1,0.001550119,1,-0.004655497,1,0.006839925,1,0.2466679066419601,1,-0.55062151,1,-1.868536234,1
0.259936005,-4.761903763,1,-2.093028545,1,-8.298441887,1,0.002249196,1,-0.007530804,1,0.006754805,1,0.2466712,1,-0.550647497,1,-1.868523836,1
0.263932675,-4.777607441,1,-2.108892202,1,-8.32734108,1,0.005029257,1,-0.003410575,1,0.003978927,1,0.2466785311698914,1,-0.550669909,1,-1.868508339,1
0.267931134,-4.755836964,1,-2.111646175,1,-8.32604599,1,0.002852062,1,-0.004070046,1,0.002569128,1,0.2466865330934525,1,-0.550690651,1,-1.868502736,1
0.271931916,-4.789400578,1,-2.114008665,1,-8.368611336,1,-0.0009886,1,-0.006296737,1,0.004711895,1,0.2466920018196106,1,-0.550715685,1,-1.868493319,1
0.275928825,-4.80027914,1,-2.137133598,1,-8.319957733,1,0.000807925,1,-0.002160796,1,0.003418772,1,0.2466969341039658,1,-0.550733209,1,-1.868480206,1
0.279927284,-4.770041466,1,-2.144126415,1,-8.318567276,1,0.007501594,1,-0.001432248,1,0.005310613,1,0.2467008978128433,1,-0.550757885,1,-1.868467808,1
0.283928066,-4.788669586,1,-2.116887808,1,-8.326332092,1,-0.001177096,1,-0.004849185,1,0.003635589,1,0.2467013746500015,1,-0.550780654,1,-1.868450046,1
0.287924737,-4.743261337,1,-2.129986525,1,-8.336240768,1,0.002078118,1,-0.004964366,1,0.008236894,1,0.2466990500688553,1,-0.550813437,1,-1.868429899,1
0.291923195,-4.746504307,1,-2.164038658,1,-8.327007294,1,0.003385365,1,-0.007298031,1,0.005208422,1,0.2466964721679688,1,-0.550845802,1,-1.868408799,1
0.295924217,-4.781306267,1,-2.154787064,1,-8.318382263,1,-0.002809037,1,-0.007757253,1,0.008531302,1,0.2466919124126434,1,-0.550884247,1,-1.868388772,1
0.299921155,-4.796874046,1,-2.149502039,1,-8.334073067,1,0.00011693,1,-0.006704105,1,0.006021097,1,0.2466763108968735,1,-0.550913572,1,-1.868362427,1
0.303919882,-4.757518291,1,-2.103678942,1,-8.312737465,1,-0.000135899,1,-0.005256126,1,0.00847023,1,0.2466587871313095,1,-0.550948739,1,-1.868339658,1
0.307920396,-4.767475605,1,-2.084611893,1,-8.296460152,1,0.00226484,1,-0.007695518,1,0.00832795,1,0.2466513216495514,1,-0.550975442,1,-1.868314028,1
0.311916798,-4.817465782,1,-2.121824503,1,-8.312462807,1,0.000144116,1,-0.006990436,1,0.005620709,1,0.2466508001089096,1,-0.551004052,1,-1.868295193,1
0.315915257,-4.783420563,1,-2.086569786,1,-8.315823555,1,0.002618139,1,-0.006901698,1,0.006893819,1,0.2466366738080978,1,-0.551036,1,-1.868273497,1
0.319915771,-4.760272503,1,-2.116081953,1,-8.314853668,1,0.00231475,1,-0.007552314,1,0.003007284,1,0.2466312944889069,1,-0.551061153,1,-1.868256927,1
0.32391271,-4.786792278,1,-2.115638256,1,-8.349252701,1,-0.000766637,1,-0.004603659,1,0.004991247,1,0.2466239333152771,1,-0.551090181,1,-1.868242264,1
0.327911437,-4.753638268,1,-2.055626392,1,-8.333164215,1,0.00425578,1,-0.003336002,1,0.007546521,1,0.2466166913509369,1,-0.551119745,1,-1.868216038,1
0.33191219,-4.759431839,1,-2.102968216,1,-8.340547562,1,0.00359909,1,-0.001787101,1,0.002632788,1,0.2466268837451935,1,-0.551138639,1,-1.868205786,1
0.335909128,-4.773095131,1,-2.085809708,1,-8.322319984,1,0.005512295,1,-0.007253001,1,0.005061055,1,0.2466304749250412,1,-0.551164865,1,-1.868191004,1
0.339907587,-4.75134182,1,-2.106874466,1,-8.327969551,1,0.001823687,1,-0.006239053,1,0.004833731,1,0.2466413527727127,1,-0.551187634,1,-1.868170381,1
0.34390834,-4.816303253,1,-2.103457928,1,-8.317984581,1,0.003832559,1,-0.004720453,1,0.006980771,1,0.2466445714235306,1,-0.551217318,1,-1.868155956,1
0.347905278,-4.738246918,1,-2.096502304,1,-8.307798386,1,0.003774663,1,-0.005138388,1,0.002231986,1,0.2466488480567932,1,-0.551234484,1,-1.868138433,1
0.351904243,-4.759096622,1,-2.118496895,1,-8.289885521,1,0.00542288,1,-0.003610576,1,0.005353603,1,0.2466620206832886,1,-0.551256537,1,-1.868132234,1
0.355905294,-4.804903507,1,-2.097323656,1,-8.289199829,1,0.004973336,1,-0.005156394,1,0.001903563,1,0.246770367,1,-0.550175786,1,-1.8678478,1
0.359902203,-4.793916225,1,-2.13074255,1,-8.30312252,1,0.003553803,1,-0.004958535,1,0.000925147,1,0.2466275095939636,1,-0.550235391,1,-1.868524432,1
0.363906831,-4.81607151,1,-2.110881329,1,-8.324062347,1,0.003989348,1,-0.003135412,1,0.002447889,1,0.2466461062431335,1,-0.550249457,1,-1.868523121,1
0.367907852,-4.769656658,1,-2.091234922,1,-8.268137932,1,0.000713354,1,-2.78E-05,1,0.003168822,1,0.2466515749692917,1,-0.550260842,1,-1.868517518,1
0.371904761,-4.767272472,1,-2.095798731,1,-8.315446854,1,0.004108308,1,-0.001233056,1,0.000843821,1,0.246656135,1,-0.550273418,1,-1.868504405,1
0.375903755,-4.767758369,1,-2.138611794,1,-8.314074516,1,0.001253228,1,-0.002528048,1,-0.000883387,1,0.2466640025377274,1,-0.550278902,1,-1.868504763,1
0.379904509,-4.791501522,1,-2.152330875,1,-8.306225777,1,0.00581415,1,0.001637578,1,0.002600794,1,0.2466736882925034,1,-0.550288022,1,-1.868497252,1
0.383901179,-4.815723896,1,-2.125901937,1,-8.300783157,1,-0.001258989,1,-0.000789513,1,0.000849467,1,0.2466757446527481,1,-0.550295711,1,-1.868489742,1
0.387899905,-4.774505138,1,-2.165410995,1,-8.29961586,1,0.001351729,1,-0.000355722,1,0.000640701,1,0.2466807663440704,1,-0.550293982,1,-1.868492961,1
0.391900659,-4.75189209,1,-2.144690037,1,-8.333018303,1,0.001713661,1,0.003394994,1,0.003131068,1,0.2466799467802048,1,-0.550296009,1,-1.868486762,1
0.395897359,-4.755562305,1,-2.107873917,1,-8.316358566,1,0.001356832,1,-0.001520964,1,0.002250635,1,0.246674508,1,-0.550301015,1,-1.868477225,1
0.399896055,-4.768093109,1,-2.120983839,1,-8.323246956,1,-0.001908359,1,-0.001756463,1,0.004232884,1,0.2466679662466049,1,-0.550306857,1,-1.868458748,1
0.403896838,-4.760694504,1,-2.13681674,1,-8.294236183,1,-0.001061269,1,0.001013152,1,0.001284938,1,0.2466624677181244,1,-0.550313234,1,-1.86844945,1
0.407893509,-4.78212595,1,-2.122318029,1,-8.314188004,1,0.002275532,1,-0.002932525,1,0.003463425,1,0.2466636896133423,1,-0.550323904,1,-1.868442893,1
0.411892235,-4.77251339,1,-2.089303255,1,-8.310650826,1,0.000370021,1,-0.000655039,1,0.006532975,1,0.2466559857130051,1,-0.550333858,1,-1.868418455,1
0.41589275,-4.791407585,1,-2.061838627,1,-8.326473236,1,0.004214538,1,-0.001326331,1,0.001840907,1,0.2466557323932648,1,-0.550357282,1,-1.868408203,1
0.41988942,-4.774896145,1,-2.093070507,1,-8.280502319,1,0.002141698,1,-0.0021479,1,0.001872058,1,0.2466647922992706,1,-0.550362706,1,-1.868396044,1
0.423888385,-4.771381378,1,-2.086201906,1,-8.320889473,1,0.004079419,1,-0.002524818,1,0.004847672,1,0.2466733157634735,1,-0.55037117,1,-1.868393183,1
0.4278889,-4.794361115,1,-2.129485846,1,-8.325471878,1,0.003690812,1,-0.004209085,1,-0.001352597,1,0.2466847002506256,1,-0.550385654,1,-1.868397474,1
0.43188557,-4.768410683,1,-2.148102045,1,-8.326820374,1,0.003333301,1,-0.006336503,1,0.003797227,1,0.2466965317726135,1,-0.550399899,1,-1.868391156,1
0.435884297,-4.7913661,1,-2.142306328,1,-8.284220695,1,0.005058196,1,-0.003354668,1,0.001851928,1,0.2467017769813538,1,-0.550414264,1,-1.868378401,1
0.43988505,-4.767688751,1,-2.139477253,1,-8.292333603,1,0.002300248,1,4.119460936635733e-05,1,0.004572143,1,0.2467134296894073,1,-0.550425291,1,-1.868369699,1
0.44388172,-4.772675037,1,-2.118091345,1,-8.325509071,1,0.004177507,1,-0.001724342,1,0.001416856,1,0.2467253059148788,1,-0.550428867,1,-1.868365765,1
0.447880447,-4.795842171,1,-2.079873562,1,-8.307905197,1,0.001929862,1,-0.00437096,1,0.004915196,1,0.2467242777347565,1,-0.550438225,1,-1.868359327,1
0.45188123,-4.800597668,1,-2.127201557,1,-8.320108414,1,0.006334182,1,-0.002639906,1,0.002060863,1,0.2467283010482788,1,-0.550454617,1,-1.868343949,1
0.455878139,-4.778977871,1,-2.129809141,1,-8.308344841,1,0.004849989,1,-0.004313184,1,0.001577503,1,0.2467442452907562,1,-0.550466418,1,-1.86834836,1
0.459876865,-4.769833088,1,-2.141133308,1,-8.305056572,1,0.005939301,1,-0.00343077,1,-0.00098375,1,0.2467544078826904,1,-0.550476253,1,-1.868345976,1
0.463877618,-4.77009964,1,-2.148147583,1,-8.316576004,1,0.00301128,1,-0.006400014,1,0.002110074,1,0.2467674314975739,1,-0.550497174,1,-1.8683424,1
0.467874557,-4.766123772,1,-2.120657921,1,-8.312545776,1,0.002682546,1,-0.00212778,1,0.004180259,1,0.2467788308858871,1,-0.550505221,1,-1.868335009,1
0.471873522,-4.803398132,1,-2.137963295,1,-8.304502487,1,0.003448197,1,-0.000680112,1,0.002774256,1,0.2467862516641617,1,-0.550516963,1,-1.868329167,1
0.475874305,-4.788784504,1,-2.134343624,1,-8.272262573,1,0.006838012,1,-0.004412369,1,0.002781462,1,0.2468010634183884,1,-0.550532162,1,-1.868330717,1
0.479871243,-4.785356522,1,-2.114281416,1,-8.314188957,1,-0.000660557,1,0.000956058,1,0.001108738,1,0.2468051314353943,1,-0.550536454,1,-1.868319392,1
0.483876109,-4.789588928,1,-2.138358355,1,-8.312164307,1,0.004664598,1,-0.002457602,1,0.003009882,1,0.2468084692955017,1,-0.550548553,1,-1.868314624,1
0.487877131,-4.810480595,1,-2.144789934,1,-8.311683655,1,0.00267012,1,-0.001599792,1,0.001279258,1,0.2468137741088867,1,-0.550559938,1,-1.868310571,1
0.491874039,-4.73007679,1,-2.130264997,1,-8.3273983,1,-0.000127358,1,0.001532125,1,-0.000459395,1,0.2468132376670837,1,-0.550557435,1,-1.868303418,1
0.495872766,-4.784440517,1,-2.123962402,1,-8.288051605,1,0.000753819,1,-0.001651232,1,0.003267746,1,0.2468163967132568,1,-0.550563395,1,-1.868297338,1
0.499873281,-4.777841568,1,-2.109416008,1,-8.297747612,1,0.002217054,1,-0.002632172,1,0.001358906,1,0.2468101978302002,1,-0.550572038,1,-1.868283153,1
0.503870189,-4.764881611,1,-2.139323473,1,-8.326724052,1,-0.000336702,1,-0.005033193,1,0.003615759,1,0.2468093484640121,1,-0.550576329,1,-1.868275762,1
0.507868946,-4.748523712,1,-2.127315283,1,-8.331467628,1,0.004470899,1,2.048708847723901e-05,1,0.000587719,1,0.2468124628067017,1,-0.550583422,1,-1.868268013,1
0.511869431,-4.814229965,1,-2.076653957,1,-8.329688072,1,0.004190029,1,-0.004052002,1,0.000202314,1,0.2468302696943283,1,-0.550594091,1,-1.868270516,1
0.515866339,-4.744519234,1,-2.138724566,1,-8.346775055,1,0.005734508,1,-0.003419549,1,0.004026422,1,0.246842086,1,-0.550606966,1,-1.868267894,1
0.519865096,-4.740826607,1,-2.138027668,1,-8.334640503,1,-0.000456313,1,-0.001690428,1,0.001887836,1,0.2468489855527878,1,-0.550623238,1,-1.868251085,1
0.523865581,-4.75833416,1,-2.146726847,1,-8.342380524,1,0.001682076,1,-0.006315156,1,0.001950999,1,0.2468458116054535,1,-0.550638616,1,-1.868238688,1
0.527862549,-4.754505157,1,-2.167661428,1,-8.322707176,1,0.002043318,1,-0.006279344,1,0.004591298,1,0.2468581348657608,1,-0.550656676,1,-1.868235111,1
0.531861007,-4.753448486,1,-2.176469564,1,-8.319519043,1,-0.001403004,1,-0.006004379,1,0.00619957,1,0.2468584924936295,1,-0.550680041,1,-1.86822176,1
0.535861731,-4.756124496,1,-2.140790939,1,-8.345741272,1,0.001517952,1,-0.003493179,1,0.005385583,1,0.2468524128198624,1,-0.550707757,1,-1.868203044,1
0.53985846,-4.770463943,1,-2.126018047,1,-8.308006287,1,0.001606457,1,-0.003782718,1,0.002013511,1,0.2468506842851639,1,-0.550732017,1,-1.868189692,1
0.543857157,-4.783446789,1,-2.127834082,1,-8.318865776,1,0.000319606,1,-0.006918167,1,0.005134666,1,0.2468446046113968,1,-0.550754011,1,-1.868166685,1
0.54785794,-4.783026695,1,-2.111865282,1,-8.300652504,1,0.000476821,1,-0.00234423,1,0.002884837,1,0.2468460500240326,1,-0.55077076,1,-1.868155718,1
0.551854849,-4.800396442,1,-2.130883217,1,-8.309051514,1,0.00066463,1,-0.005166092,1,0.007078073,1,0.2468307912349701,1,-0.550785601,1,-1.868136406,1
0.555853546,-4.782709122,1,-2.137638092,1,-8.307031631,1,-0.000486089,1,-0.001789379,1,0.003550176,1,0.2468302994966507,1,-0.550811291,1,-1.868112803,1
0.559854329,-4.781592846,1,-2.1257658,1,-8.312587738,1,-0.000498668,1,-0.006574142,1,0.004180243,1,0.2468229681253433,1,-0.550827682,1,-1.868100762,1
0.563850999,-4.759286404,1,-2.12237215,1,-8.278430939,1,0.001085529,1,-0.002725785,1,0.005766987,1,0.2468153238296509,1,-0.55085057,1,-1.868082404,1
0.567849755,-4.788075447,1,-2.117901087,1,-8.31444931,1,-0.001400161,1,0.001223002,1,0.006074933,1,0.2468012273311615,1,-0.550865531,1,-1.868061304,1
0.571850479,-4.790179253,1,-2.110325813,1,-8.298931122,1,0.002748956,1,-0.000754238,1,0.005255024,1,0.2467913180589676,1,-0.550875604,1,-1.868036628,1
0.575847149,-4.800851822,1,-2.114249229,1,-8.310175896,1,0.001823147,1,-0.003130593,1,0.001508701,1,0.246788964,1,-0.550887942,1,-1.868017197,1
0.579845905,-4.760984898,1,-2.092855692,1,-8.335679054,1,0.001115903,1,0.00160365,1,0.006952214,1,0.2467798292636871,1,-0.550887465,1,-1.86800015,1
0.58384639,-4.795007229,1,-2.118573666,1,-8.288975716,1,0.001218742,1,-0.003262966,1,0.002924953,1,0.2467724680900574,1,-0.55089438,1,-1.867973685,1
0.587843299,-4.762647152,1,-2.148325443,1,-8.324930191,1,0.002543034,1,-0.00242945,1,0.002071024,1,0.2467655837535858,1,-0.550904453,1,-1.867956281,1
0.591842055,-4.739851475,1,-2.114061356,1,-8.311339378,1,0.001314443,1,-0.001790485,1,0.002425732,1,0.2467757165431976,1,-0.550908327,1,-1.86794138,1
0.59584254,-4.790887833,1,-2.113927126,1,-8.305000305,1,0.002040164,1,0.00215957,1,-0.001089854,1,0.2467614561319351,1,-0.550907433,1,-1.867925763,1
0.599839509,-4.778504372,1,-2.109630823,1,-8.373064041,1,0.004731646,1,-0.00292964,1,0.004026387,1,0.2467696666717529,1,-0.550902963,1,-1.867921829,1
0.603844345,-4.783685684,1,-2.127274752,1,-8.315245628,1,0.000948012,1,-0.001427924,1,0.003868313,1,0.246775895,1,-0.550910056,1,-1.867903471,1
0.607845128,-4.737701416,1,-2.115902662,1,-8.327628136,1,0.003262908,1,-0.002851843,1,0.004332733,1,0.2467442899942398,1,-0.549890399,1,-1.868286133,1
0.611842036,-4.766056538,1,-2.130679131,1,-8.335151672,1,0.005085357,1,-0.001839647,1,0.004990472,1,0.2467584162950516,1,-0.549895465,1,-1.868273258,1
0.615841031,-4.798187256,1,-2.119799376,1,-8.310168266,1,0.004579139,1,-0.001777143,1,0.000221247,1,0.2467703968286514,1,-0.549903572,1,-1.86826098,1
0.619842052,-4.796707153,1,-2.149516106,1,-8.332056999,1,0.003128329,1,0.002029371,1,0.001973662,1,0.2467801123857498,1,-0.549910486,1,-1.868254304,1
0.623838961,-4.776896477,1,-2.121375322,1,-8.314916611,1,0.003509215,1,0.001096705,1,-0.000758895,1,0.2467944025993347,1,-0.549913883,1,-1.868245244,1
0.62783742,-4.778975487,1,-2.132482529,1,-8.309567451,1,0.003677181,1,-0.001138544,1,0.001752793,1,0.2467933893203735,1,-0.549919784,1,-1.86823535,1
0.631838202,-4.788211346,1,-2.119084597,1,-8.305796623,1,0.002832861,1,0.000303914,1,0.00309087,1,0.2468119263648987,1,-0.549918473,1,-1.868221283,1
0.635835111,-4.799250126,1,-2.127584696,1,-8.279820442,1,0.005947762,1,-0.004253659,1,0.002624807,1,0.2468171417713165,1,-0.549922585,1,-1.868212223,1
0.639833868,-4.788616657,1,-2.129262447,1,-8.295388222,1,-0.002309626,1,0.001543883,1,0.004811054,1,0.2468272149562836,1,-0.54992348,1,-1.868202925,1
0.643834651,-4.794458866,1,-2.146555662,1,-8.27220726,1,0.003218089,1,0.001176346,1,0.003608544,1,0.2468225955963135,1,-0.549925864,1,-1.868178248,1
0.647831321,-4.788547039,1,-2.132929325,1,-8.288359642,1,0.002158493,1,-0.001160495,1,0.003986696,1,0.2468211650848389,1,-0.549923182,1,-1.868160009,1
0.651830018,-4.785558224,1,-2.14320755,1,-8.299448013,1,0.003444506,1,-0.002325289,1,0.00236432,1,0.2468229085206985,1,-0.5499295,1,-1.868137598,1
0.655830801,-4.752340317,1,-2.161617756,1,-8.309355736,1,0.002255265,1,-0.000294961,1,0.004614498,1,0.2468260526657104,1,-0.549930155,1,-1.868124485,1
0.659827471,-4.760762691,1,-2.192974091,1,-8.300984383,1,0.001067068,1,0.002951925,1,0.004167841,1,0.246814027,1,-0.549929857,1,-1.868094921,1
0.663826168,-4.783341408,1,-2.153037071,1,-8.283362389,1,-0.002184706,1,0.000120016,1,0.005310911,1,0.2468011379241943,1,-0.549924076,1,-1.86806953,1
0.667826951,-4.80325222,1,-2.153110266,1,-8.33498764,1,-0.001803208,1,0.004297082,1,0.003413702,1,0.2467849850654602,1,-0.549923062,1,-1.868048191,1
0.671823859,-4.775083542,1,-2.110169172,1,-8.342414856,1,-0.000436872,1,0.001796428,1,0.006238069,1,0.2467671483755112,1,-0.549917579,1,-1.868024707,1
0.675822616,-4.777729034,1,-2.119165182,1,-8.337063789,1,-0.001835616,1,-0.001454111,1,0.005788648,1,0.2467543184757233,1,-0.54991889,1,-1.867998838,1
0.679823101,-4.781267166,1,-2.118348837,1,-8.305092812,1,0.000716931,1,0.00184562,1,0.005755352,1,0.2467465251684189,1,-0.549911678,1,-1.867977262,1
0.683820009,-4.797272205,1,-2.087018013,1,-8.332330704,1,-0.001881713,1,0.0027743,1,0.004954178,1,0.2467329353094101,1,-0.549913228,1,-1.867954731,1
0.687818766,-4.782473087,1,-2.108126402,1,-8.323984146,1,-0.001375654,1,0.002533499,1,0.006085462,1,0.2467165291309357,1,-0.549917579,1,-1.867928982,1
0.691819549,-4.776154518,1,-2.130667448,1,-8.330661774,1,0.000404863,1,0.000802199,1,0.004393927,1,0.2467054277658463,1,-0.549912989,1,-1.867908359,1
0.695816457,-4.752539158,1,-2.118836403,1,-8.343759537,1,-0.001226769,1,0.001451895,1,0.001487953,1,0.246697262,1,-0.549914598,1,-1.867887259,1
0.699814916,-4.754909992,1,-2.08731699,1,-8.33959198,1,0.005297515,1,-0.000313303,1,0.003405549,1,0.2466900199651718,1,-0.549914598,1,-1.86786902,1
0.703815937,-4.733344078,1,-2.134636164,1,-8.330086708,1,0.002478622,1,-0.000895288,1,0.001617185,1,0.2466995418071747,1,-0.549919188,1,-1.867864132,1
0.707812846,-4.78390646,1,-2.10929656,1,-8.318973541,1,0.004512479,1,-0.0023877,1,0.001680113,1,0.2467008978128433,1,-0.549924433,1,-1.867848277,1
0.711811602,-4.746387959,1,-2.130751371,1,-8.333872795,1,-0.000654736,1,-0.001647595,1,0.004971092,1,0.2467085868120193,1,-0.549940109,1,-1.867840052,1
0.715812325,-4.743873119,1,-2.107429028,1,-8.297261238,1,0.003638321,1,-0.002957524,1,0.004754827,1,0.2467039525508881,1,-0.549951494,1,-1.867825508,1
0.719809294,-4.766530514,1,-2.11532402,1,-8.349168777,1,0.002098602,1,-0.003946651,1,0.004897385,1,0.2467066943645477,1,-0.549966455,1,-1.867812395,1
0.72381413,-4.737758636,1,-2.155906916,1,-8.31435585,1,-0.002028101,1,-0.00433187,1,0.00674262,1,0.246703103,1,-0.549984038,1,-1.867792845,1
0.727815449,-4.75140667,1,-2.140588999,1,-8.311242104,1,0.005103706,1,-0.004498236,1,0.003484805,1,0.2467049360275269,1,-0.549999952,1,-1.867773175,1
0.731812596,-4.762212753,1,-2.122561455,1,-8.316930771,1,0.000999538,1,-0.002699977,1,0.00454758,1,0.2467117011547089,1,-0.550016046,1,-1.867759585,1
0.735811353,-4.755978107,1,-2.155303717,1,-8.34903717,1,0.00280067,1,-0.002587469,1,0.003113688,1,0.2467048615217209,1,-0.550037444,1,-1.867737532,1
0.739812076,-4.794280052,1,-2.157746315,1,-8.330255508,1,-7.31E-05,1,-0.003070297,1,0.00702456,1,0.2467094510793686,1,-0.550058842,1,-1.867725015,1
0.743809044,-4.762794018,1,-2.107114077,1,-8.350281715,1,0.001363589,1,-0.002773543,1,0.007009597,1,0.2467054724693298,1,-0.550082326,1,-1.867703915,1
0.74780798,-4.798316002,1,-2.13738656,1,-8.349328995,1,-0.000823146,1,-0.00468054,1,0.0059461,1,0.2466953694820404,1,-0.550103426,1,-1.867680073,1
0.751809001,-4.800189495,1,-2.121088266,1,-8.319063187,1,0.001284669,1,-0.00476815,1,0.005598108,1,0.2466876953840256,1,-0.550130963,1,-1.867654562,1
0.755806208,-4.751451969,1,-2.149758101,1,-8.312297821,1,0.002937303,1,-0.008118607,1,0.006466679,1,0.2466811239719391,1,-0.550159752,1,-1.867644668,1
0.759805202,-4.768049717,1,-2.15720129,1,-8.342572212,1,-0.001934565,1,-0.005203198,1,0.00777864,1,0.2466766238212585,1,-0.550184429,1,-1.867623806,1
0.763805926,-4.808955669,1,-2.137488842,1,-8.320683479,1,0.000494965,1,-0.00749852,1,0.002093697,1,0.2466632723808289,1,-0.550212324,1,-1.867601514,1
0.767803133,-4.756604195,1,-2.136878014,1,-8.324180603,1,-0.002282271,1,-0.007454149,1,0.007361159,1,0.2466575801372528,1,-0.55023855,1,-1.86758697,1
0.771801829,-4.768287182,1,-2.124162197,1,-8.297493935,1,0.00353831,1,-0.003242266,1,0.007458151,1,0.2466430217027664,1,-0.550266743,1,-1.867559552,1
0.775802374,-4.772744179,1,-2.149837732,1,-8.321053505,1,-0.003269045,1,-0.00505681,1,0.008396233,1,0.2466237097978592,1,-0.55029881,1,-1.867527127,1
0.779799283,-4.75285387,1,-2.120720148,1,-8.309140205,1,-0.002415703,1,-0.009032958,1,0.006928086,1,0.2465997785329819,1,-0.550332904,1,-1.867499828,1
0.783798277,-4.770193577,1,-2.142581701,1,-8.320977211,1,-0.00197829,1,-0.006507743,1,0.006394178,1,0.2465864717960358,1,-0.550365329,1,-1.867477059,1
0.78779906,-4.788572311,1,-2.129441977,1,-8.298409462,1,-0.00096144,1,-0.005633842,1,0.004940431,1,0.246567965,1,-0.55039835,1,-1.86744976,1
0.791795969,-4.773940086,1,-2.125941038,1,-8.321543694,1,-0.000707588,1,-0.005415792,1,0.006694742,1,0.2465516775846481,1,-0.550425112,1,-1.867420435,1
0.795794666,-4.741877079,1,-2.139072895,1,-8.315531731,1,-0.001211249,1,-0.004453658,1,0.007564838,1,0.2465339452028275,1,-0.550461948,1,-1.867396593,1
0.799795449,-4.766309738,1,-2.124026775,1,-8.287396431,1,0.000223789,1,-0.00469902,1,0.00898713,1,0.2465169876813889,1,-0.550489008,1,-1.867373705,1
0.803792357,-4.777034283,1,-2.080100536,1,-8.314088821,1,0.002392257,1,-0.005803551,1,0.007900609,1,0.246501699,1,-0.550522387,1,-1.867343187,1
0.807791352,-4.749484539,1,-2.097181082,1,-8.31842804,1,0.001516366,1,-0.005495795,1,0.005371413,1,0.2464888095855713,1,-0.550547898,1,-1.867314458,1
0.811792135,-4.781430244,1,-2.106960773,1,-8.328996658,1,-0.00105287,1,-0.004918868,1,0.007917238,1,0.2464787811040878,1,-0.550575435,1,-1.867295742,1
0.815788805,-4.797800064,1,-2.084961653,1,-8.281381607,1,0.001265667,1,-0.006161225,1,0.008026952,1,0.2464697510004044,1,-0.550601721,1,-1.867269516,1
0.819787502,-4.754848957,1,-2.076490402,1,-8.325438499,1,0.004555407,1,-0.007205536,1,0.004371957,1,0.2464666068553925,1,-0.550631762,1,-1.867251277,1
0.823788524,-4.810436249,1,-2.131169558,1,-8.322081566,1,-0.001614893,1,-0.004353049,1,0.0041715,1,0.2464618533849716,1,-0.550665736,1,-1.867234111,1
0.827785492,-4.757063389,1,-2.083506584,1,-8.335576057,1,0.002947775,1,-0.005721365,1,0.003401482,1,0.2464611232280731,1,-0.550693989,1,-1.867218137,1
0.831784427,-4.777963638,1,-2.070803165,1,-8.299149513,1,0.002552213,1,-0.009304162,1,0.002597748,1,0.2464612275362015,1,-0.550723732,1,-1.867205381,1
0.83578521,-4.735083103,1,-2.103354931,1,-8.316046715,1,0.003289272,1,-0.006942444,1,0.004347473,1,0.2464683353900909,1,-0.550758183,1,-1.867198825,1
0.839782119,-4.753625393,1,-2.112074614,1,-8.318769455,1,0.00551046,1,-0.006529526,1,0.002406926,1,0.2464754730463028,1,-0.550796032,1,-1.867183685,1
0.843787014,-4.753792286,1,-2.113206387,1,-8.321193695,1,0.002323799,1,-0.008302351,1,0.00158403,1,0.2464882135391235,1,-0.550830364,1,-1.867180705,1
0.847788036,-4.747199059,1,-2.163246393,1,-8.332047462,1,0.002759571,1,-0.004634868,1,0.007112722,1,0.246496171,1,-0.550868928,1,-1.867172956,1
0.851785243,-4.758607864,1,-2.158321142,1,-8.314861298,1,0.003696715,1,-0.008005948,1,0.005139458,1,0.2465042471885681,1,-0.550898135,1,-1.86715889,1
0.855783939,-4.780646801,1,-2.136519432,1,-8.302564621,1,-0.000415335,1,-0.01006323,1,0.003956657,1,0.2466164827346802,1,-0.549866498,1,-1.866856337,1
0.859784722,-4.78637886,1,-2.145573616,1,-8.283566475,1,0.001449517,1,-0.008780457,1,0.003884242,1,0.246464342,1,-0.549941659,1,-1.867519617,1
0.863781869,-4.808730125,1,-2.108232498,1,-8.323541641,1,-0.0026624,1,-0.010140806,1,0.005167539,1,0.2464682757854462,1,-0.549975157,1,-1.867509842,1
0.867781103,-4.790767193,1,-2.128823996,1,-8.306491852,1,0.002248107,1,-0.004194054,1,0.005695232,1,0.2464614510536194,1,-0.550008237,1,-1.867499113,1
0.871782124,-4.768116951,1,-2.116925955,1,-8.292619705,1,0.000186446,1,-0.008041014,1,0.002266623,1,0.2464520782232285,1,-0.550043344,1,-1.867480278,1
0.875779569,-4.791036129,1,-2.162791729,1,-8.316345215,1,-0.000369733,1,-0.005648963,1,0.009467612,1,0.2464358806610107,1,-0.55007571,1,-1.867464304,1
0.879778326,-4.764975548,1,-2.119713306,1,-8.31131649,1,-0.004916908,1,-0.006086684,1,0.00348181,1,0.246416375,1,-0.550100207,1,-1.867446303,1
0.883779347,-4.803501129,1,-2.128967285,1,-8.307068825,1,-0.004672876,1,-0.004529612,1,0.008018485,1,0.2463967204093933,1,-0.550117016,1,-1.867424369,1
0.887776494,-4.79054594,1,-2.141148329,1,-8.287022591,1,-0.001367843,1,-0.004253014,1,0.006679343,1,0.2463719695806503,1,-0.550134182,1,-1.867399573,1
0.89177525,-4.786984444,1,-2.10044384,1,-8.288764954,1,-0.001579299,1,-0.00429183,1,0.004993288,1,0.2463602423667908,1,-0.550152779,1,-1.867371082,1
0.895775974,-4.798249245,1,-2.110667229,1,-8.301662445,1,-0.002469286,1,-0.002199758,1,0.009108017,1,0.2463248372077942,1,-0.550173879,1,-1.867337227,1
0.899772644,-4.779170036,1,-2.090775967,1,-8.318000793,1,-0.00125,1,-0.003251367,1,0.00318381,1,0.2463098615407944,1,-0.550182045,1,-1.867313743,1
0.903771162,-4.795489311,1,-2.05452466,1,-8.294271469,1,-0.00310226,1,-6.32E-05,1,0.002756665,1,0.2462939918041229,1,-0.550194085,1,-1.867295861,1
0.907772183,-4.777969837,1,-2.099730968,1,-8.3248806,1,0.001092153,1,-0.003366652,1,0.004566165,1,0.2462844550609589,1,-0.550204873,1,-1.867278337,1
0.911769092,-4.761677742,1,-2.088761091,1,-8.312308311,1,-0.000674349,1,-0.003802744,1,0.004423508,1,0.2462703138589859,1,-0.550220728,1,-1.867257953,1
0.915768087,-4.772826195,1,-2.110830069,1,-8.325071335,1,0.000927139,1,-0.001669787,1,0.002737629,1,0.2462697476148605,1,-0.550234616,1,-1.867247701,1
0.91976881,-4.77074194,1,-2.099345922,1,-8.330818176,1,0.0014657,1,-0.001945432,1,0.006152259,1,0.2462629824876785,1,-0.550249696,1,-1.86722064,1
0.923765481,-4.765703201,1,-2.114483118,1,-8.325593948,1,0.00069023,1,-0.000497067,1,0.002989146,1,0.2462616860866547,1,-0.550258398,1,-1.867203355,1
0.927764475,-4.786734104,1,-2.100046396,1,-8.33305645,1,0.00414001,1,-0.005359722,1,0.002677458,1,0.2462592124938965,1,-0.550272703,1,-1.867192268,1
0.931765258,-4.776648045,1,-2.131402493,1,-8.33711338,1,0.000684127,1,-0.003610886,1,0.006869246,1,0.2462624460458755,1,-0.550290108,1,-1.867175221,1
0.935762167,-4.773928642,1,-2.114495754,1,-8.317250252,1,0.0034216,1,-0.00601517,1,0.005708191,1,0.2462654411792755,1,-0.550318658,1,-1.867164016,1
0.939760923,-4.801953793,1,-2.119881392,1,-8.330155373,1,0.000442246,1,-0.004918245,1,0.005217678,1,0.246268168,1,-0.550342858,1,-1.867141724,1
0.943761647,-4.763164043,1,-2.110097408,1,-8.325737953,1,0.005090389,1,-0.004576963,1,0.001422641,1,0.2462742626667023,1,-0.550362408,1,-1.867126226,1
0.947758615,-4.766177177,1,-2.129892826,1,-8.339780807,1,0.003712176,1,-0.004589702,1,0.00627428,1,0.2462872564792633,1,-0.550382853,1,-1.867117524,1
0.951757312,-4.776815891,1,-2.142390728,1,-8.316638947,1,0.001541136,1,-0.006322947,1,0.005943136,1,0.2462838292121887,1,-0.550414324,1,-1.867098331,1
0.955758095,-4.754779816,1,-2.130439758,1,-8.313850403,1,0.004910364,1,-0.01129087,1,0.00441107,1,0.2462855875492096,1,-0.550449312,1,-1.867080331,1
0.959755003,-4.767901421,1,-2.125560284,1,-8.325283051,1,0.002629475,1,-0.008097375,1,0.005334776,1,0.2462934553623199,1,-0.55048281,1,-1.867063761,1
0.963759899,-4.772828102,1,-2.116235018,1,-8.273551941,1,0.003686255,1,-0.008082337,1,0.006514375,1,0.2462874203920364,1,-0.550513983,1,-1.867045641,1
0.967761159,-4.793983459,1,-2.118365765,1,-8.293187141,1,0.003151071,1,-0.008523547,1,0.004047695,1,0.2462952733039856,1,-0.550539672,1,-1.867034197,1
0.971758366,-4.755556107,1,-2.147725821,1,-8.294222832,1,-0.001600395,1,-0.006271267,1,0.005023106,1,0.2462950795888901,1,-0.550562382,1,-1.867022514,1
0.975757062,-4.786288738,1,-2.13581872,1,-8.325997353,1,0.002622062,1,-0.004548925,1,0.003011071,1,0.2462904900312424,1,-0.550586164,1,-1.867006183,1
0.979758084,-4.805947304,1,-2.153859615,1,-8.335832596,1,0.002025975,1,-0.003417489,1,0.008369274,1,0.2462954968214035,1,-0.550609529,1,-1.867000222,1
0.983754992,-4.790464401,1,-2.132540941,1,-8.28898716,1,0.002243148,1,-0.003977872,1,0.002401122,1,0.2462899684906006,1,-0.550625443,1,-1.866972685,1
0.987753749,-4.753474236,1,-2.118442297,1,-8.305310249,1,0.000350999,1,-0.006231762,1,0.004750331,1,0.2462801188230515,1,-0.550646484,1,-1.866952777,1
0.99175477,-4.792920589,1,-2.145481825,1,-8.298356056,1,-0.001553311,1,-0.005550304,1,0.003107093,1,0.2462700605392456,1,-0.550674736,1,-1.866934061,1
0.995751917,-4.795531273,1,-2.114801884,1,-8.358831406,1,0.002293186,1,-0.004488846,1,0.002441728,1,0.2462646514177322,1,-0.550691783,1,-1.866921186,1
0.999751151,-4.765525818,1,-2.111754179,1,-8.336853981,1,0.003495658,1,-0.004931867,1,0.010270665,1,0.2462566345930099,1,-0.550718009,1,-1.866898537,1
1.00375247,-4.796208382,1,-2.115152597,1,-8.32481575,1,-0.002984826,1,-0.005325126,1,0.005144072,1,0.2462364137172699,1,-0.550747514,1,-1.866870165,1
1.007749677,-4.768866539,1,-2.154737711,1,-8.338340759,1,0.001162759,1,-0.007776225,1,0.005540508,1,0.2462371289730072,1,-0.550770998,1,-1.866860628,1
1.011748552,-4.776851654,1,-2.1316576,1,-8.323022842,1,-0.005438845,1,-0.01048101,1,0.007403655,1,0.2462160289287567,1,-0.550804079,1,-1.866832852,1
1.015749335,-4.774260521,1,-2.106848717,1,-8.317617416,1,0.002192359,1,-0.004212032,1,0.008032184,1,0.2462012320756912,1,-0.550835133,1,-1.866813898,1
1.019746065,-4.806396961,1,-2.09488678,1,-8.318605423,1,-0.001980393,1,-0.003360498,1,0.003476619,1,0.2461943775415421,1,-0.550855935,1,-1.86679101,1
1.02374506,-4.789077759,1,-2.057519674,1,-8.311920166,1,-0.000381621,1,-0.003976003,1,0.004165509,1,0.2461868971586227,1,-0.550884366,1,-1.866779208,1
1.027745843,-4.801903725,1,-2.109123945,1,-8.342180252,1,0.002686036,1,-0.003001556,1,0.004338664,1,0.24619022,1,-0.550905526,1,-1.866766691,1
1.031742692,-4.787789345,1,-2.104587555,1,-8.301685333,1,0.003154136,1,-0.008096896,1,0.002751492,1,0.2461846619844437,1,-0.550929606,1,-1.866747379,1
1.035741448,-4.792684555,1,-2.121502399,1,-8.317952156,1,0.002012851,1,-0.005386572,1,0.002922153,1,0.246190608,1,-0.550952137,1,-1.866737604,1
1.039741993,-4.77948904,1,-2.139004946,1,-8.303569794,1,0.001556578,1,-0.002798826,1,0.003671312,1,0.2461966127157211,1,-0.550972402,1,-1.866732359,1
1.043738842,-4.769856453,1,-2.124545336,1,-8.33658123,1,0.00307029,1,-0.003458057,1,0.003871532,1,0.2462013810873032,1,-0.550985932,1,-1.866716981,1
1.047737837,-4.79564476,1,-2.112232447,1,-8.336068153,1,0.003095344,1,-0.005255193,1,0.003281504,1,0.2462053447961807,1,-0.551006913,1,-1.866698265,1
1.05173862,-4.772630215,1,-2.147958279,1,-8.314799309,1,0.003822395,1,-0.001890113,1,0.004617315,1,0.2462043464183807,1,-0.551028609,1,-1.866682291,1
1.055735588,-4.76539135,1,-2.114318371,1,-8.320354462,1,0.003362908,1,-0.008624316,1,0.006251696,1,0.2462100386619568,1,-0.551051974,1,-1.86667192,1
1.059734225,-4.794737339,1,-2.096490383,1,-8.3116045,1,0.003806721,1,-0.00719508,1,0.002981372,1,0.2462132424116135,1,-0.551080287,1,-1.866652966,1
1.063735008,-4.767823696,1,-2.086060047,1,-8.313185692,1,0.005492256,1,-0.006640896,1,0.00545331,1,0.2462254017591476,1,-0.55110842,1,-1.866646647,1
1.067731977,-4.766141891,1,-2.141835928,1,-8.320513725,1,0.003002556,1,-0.009943223,1,0.006196263,1,0.2462370693683624,1,-0.551143289,1,-1.866636157,1
1.071730733,-4.765254021,1,-2.139256477,1,-8.300553322,1,0.001866266,1,-0.005447875,1,0.001479408,1,0.2462368458509445,1,-0.551176727,1,-1.866624713,1
1.075731754,-4.783516407,1,-2.1539855,1,-8.32565403,1,0.003448213,1,-0.00691407,1,0.003115711,1,0.2462468147277832,1,-0.551204622,1,-1.86661768,1
1.079728842,-4.750328541,1,-2.129178286,1,-8.300494194,1,0.002984056,1,-0.002513304,1,0.005451941,1,0.2462479770183563,1,-0.551237166,1,-1.866596937,1
1.083727837,-4.767062664,1,-2.116641998,1,-8.312537193,1,0.000537864,1,-0.009122249,1,0.00535086,1,0.246239647,1,-0.551262319,1,-1.866573453,1
1.087735057,-4.804501534,1,-2.138386726,1,-8.295057297,1,0.003020576,1,-0.004387823,1,0.006813799,1,0.2462387979030609,1,-0.5512954,1,-1.866554976,1
1.091738105,-4.787610054,1,-2.113427401,1,-8.291259766,1,0.001744362,1,-0.006902387,1,0.002643416,1,0.2462325394153595,1,-0.551323295,1,-1.866537094,1
1.095737576,-4.779259205,1,-2.107588768,1,-8.319301605,1,0.000362782,1,-0.006288805,1,0.006790203,1,0.246224582,1,-0.551353097,1,-1.866512179,1
1.099738598,-4.794633389,1,-2.137776375,1,-8.310216904,1,0.002933617,1,-0.002632755,1,0.006715153,1,0.2462143152952194,1,-0.551374376,1,-1.866492629,1
1.103735805,-4.783623695,1,-2.168958664,1,-8.311039925,1,-0.003176105,1,-0.002147586,1,0.004767561,1,0.2462045550346375,1,-0.551393151,1,-1.866473675,1
1.107735038,-4.777289391,1,-2.124744892,1,-8.289165497,1,-0.000224047,1,-0.000794454,1,0.004146081,1,0.2461555153131485,1,-0.550379813,1,-1.866850376,1
1.111736059,-4.792983055,1,-2.107105255,1,-8.290495872,1,0.001336167,1,-0.00399374,1,0.00539172,1,0.246145099,1,-0.550395191,1,-1.866824746,1
1.115733266,-4.777728558,1,-2.130801201,1,-8.301488876,1,-0.001078213,1,-0.003774016,1,0.004874721,1,0.2461301684379578,1,-0.550422549,1,-1.866804242,1
1.119732261,-4.795274734,1,-2.12806797,1,-8.301714897,1,0.001351057,1,-0.003843324,1,0.006368435,1,0.2461132854223251,1,-0.550435901,1,-1.866784215,1
1.123733521,-4.793539047,1,-2.123179913,1,-8.326231003,1,-0.002831474,1,-0.003587984,1,0.004980443,1,0.2460931390523911,1,-0.550454378,1,-1.866763949,1
1.127731204,-4.787012577,1,-2.101406336,1,-8.327633858,1,-0.00219869,1,-0.004080384,1,0.003826327,1,0.2460794895887375,1,-0.550474763,1,-1.866735935,1
1.13172996,-4.777356625,1,-2.07689786,1,-8.303606033,1,0.002810928,1,0.000146258,1,0.006225806,1,0.246075913,1,-0.550486267,1,-1.866720796,1
1.135730743,-4.779537201,1,-2.088161707,1,-8.304703712,1,-0.002549235,1,-0.004330897,1,0.003623896,1,0.2460698634386063,1,-0.550503612,1,-1.866705418,1
1.139727592,-4.771034241,1,-2.115392447,1,-8.331110954,1,-0.000335776,1,-0.003005111,1,0.009163138,1,0.2460607886314392,1,-0.550519586,1,-1.866682768,1
1.143726349,-4.783233166,1,-2.098394394,1,-8.320717812,1,-0.000820591,1,-0.008231931,1,0.003911522,1,0.2460520714521408,1,-0.550544083,1,-1.866668463,1
1.147727132,-4.821264744,1,-2.131712914,1,-8.321024895,1,0.006630025,1,-0.004334432,1,0.006428909,1,0.2460505664348602,1,-0.550566852,1,-1.866645813,1
1.151723981,-4.788243771,1,-2.165949106,1,-8.297194481,1,-0.00081724,1,-0.003863819,1,0.006005965,1,0.2460493445396423,1,-0.550589263,1,-1.866627574,1
1.155722976,-4.788666248,1,-2.141104698,1,-8.337536812,1,0.001070408,1,-0.006047423,1,0.005929713,1,0.246041477,1,-0.550613284,1,-1.866612434,1
1.159723759,-4.790877342,1,-2.131271124,1,-8.313753128,1,0.00033958,1,-0.00372265,1,0.008783498,1,0.2460338175296783,1,-0.550632477,1,-1.866586804,1
1.163720489,-4.789574146,1,-2.117500067,1,-8.317487717,1,-0.00353117,1,-0.004583471,1,0.001534056,1,0.246015802,1,-0.550659597,1,-1.866559505,1
1.167719483,-4.753363132,1,-2.14034009,1,-8.322545052,1,2.877367660403252e-05,1,-0.004448694,1,0.006359978,1,0.24600473,1,-0.550693691,1,-1.866543293,1
1.171720505,-4.782339573,1,-2.129251242,1,-8.302549362,1,-0.002504823,1,-0.004982669,1,0.004993726,1,0.2459856122732162,1,-0.550711155,1,-1.866518974,1
1.175717592,-4.809216976,1,-2.106357098,1,-8.315486908,1,-0.001847781,1,-0.005493588,1,0.003528756,1,0.2459758073091507,1,-0.550741732,1,-1.866500974,1
1.179716587,-4.793192387,1,-2.096427441,1,-8.284603119,1,-0.003276986,1,-0.002318729,1,0.006740464,1,0.2459611892700195,1,-0.550765216,1,-1.866483808,1
1.18371737,-4.765644073,1,-2.131313086,1,-8.282999992,1,-0.001561821,1,-0.001102266,1,0.00644481,1,0.2459420561790466,1,-0.550788045,1,-1.866460681,1
1.187714338,-4.744163513,1,-2.134601593,1,-8.288958549,1,-0.001440594,1,-0.004734046,1,0.004312308,1,0.2459319531917572,1,-0.550800562,1,-1.866440535,1
1.191713333,-4.817574024,1,-2.137880802,1,-8.311947823,1,-0.000242687,1,-0.005045061,1,0.004713786,1,0.2459218949079514,1,-0.550825298,1,-1.866424441,1
1.195714355,-4.77503109,1,-2.106274843,1,-8.276950836,1,0.000817899,1,-0.004958561,1,0.005094817,1,0.245906651,1,-0.550845802,1,-1.866400003,1
1.199711442,-4.77657032,1,-2.104486942,1,-8.290052414,1,-0.001078785,1,-0.005439573,1,0.004596635,1,0.2458955645561218,1,-0.550866306,1,-1.866385221,1
1.203710437,-4.778650284,1,-2.113045931,1,-8.296771049,1,-0.00220718,1,-0.0029178,1,0.002836934,1,0.245888963,1,-0.550880551,1,-1.866367221,1
1.207717419,-4.774276257,1,-2.109838724,1,-8.33152771,1,0.001811676,1,-0.003546754,1,0.006660738,1,0.2458780109882355,1,-0.550888062,1,-1.866344571,1
1.211720467,-4.797694206,1,-2.100952864,1,-8.295563698,1,0.003150325,1,-0.002607721,1,0.002969327,1,0.2458648830652237,1,-0.550910413,1,-1.86631763,1
1.2157197,-4.809104443,1,-2.104097843,1,-8.308826447,1,-0.002170691,1,-0.002992838,1,0.004388985,1,0.2458567023277283,1,-0.550924003,1,-1.866308928,1
1.219720483,-4.758080959,1,-2.091846704,1,-8.308853149,1,0.002497624,1,-0.004971332,1,0.001840983,1,0.2458498924970627,1,-0.550936103,1,-1.866288185,1
1.22371769,-4.782635212,1,-2.126297712,1,-8.321060181,1,-0.000279917,1,-0.004364036,1,0.00593797,1,0.2458498179912567,1,-0.550952315,1,-1.866276622,1
1.227716565,-4.786731243,1,-2.105956316,1,-8.335708618,1,-0.001558907,1,0.0004991,1,0.00639058,1,0.2458382844924927,1,-0.550968647,1,-1.866254807,1
1.231717348,-4.771271706,1,-2.103776932,1,-8.322794914,1,4.970154259353876e-05,1,-0.004358697,1,0.002457711,1,0.2458270639181137,1,-0.550982416,1,-1.866239429,1
1.235714555,-4.786579132,1,-2.087980986,1,-8.297954559,1,0.000760581,1,-0.000629506,1,0.006079623,1,0.2458198070526123,1,-0.550997555,1,-1.866221547,1
1.239714026,-4.786066532,1,-2.112350702,1,-8.317811012,1,0.000594999,1,-0.002848247,1,0.000807608,1,0.2458155006170273,1,-0.551000476,1,-1.866209984,1
1.243715048,-4.824754238,1,-2.140541792,1,-8.310249329,1,0.002643249,1,-0.002975343,1,0.003253245,1,0.2458198070526123,1,-0.551017404,1,-1.866194963,1
1.247712255,-4.774579048,1,-2.137848377,1,-8.308933258,1,0.0037261,1,-0.003608692,1,0.005070574,1,0.2458251863718033,1,-0.551036477,1,-1.866179705,1
1.251711011,-4.79258728,1,-2.130752087,1,-8.301693916,1,2.597225829958916e-05,1,-0.00325878,1,0.00437264,1,0.2458232641220093,1,-0.551050544,1,-1.866170645,1
1.255712032,-4.785321236,1,-2.126921415,1,-8.308818817,1,0.00292212,1,-0.004351723,1,0.003887583,1,0.2458206862211227,1,-0.551065445,1,-1.866157651,1
1.259708881,-4.797323227,1,-2.133690596,1,-8.322717667,1,0.000159602,1,-0.001027852,1,0.00740532,1,0.2458250820636749,1,-0.55108285,1,-1.866141438,1
1.263707638,-4.75775528,1,-2.166817427,1,-8.297376633,1,0.000742652,1,-0.006319355,1,0.005549714,1,0.2458149045705795,1,-0.551103115,1,-1.866115093,1
1.267708421,-4.760039806,1,-2.114925385,1,-8.317060471,1,-4.49E-05,1,-0.003872543,1,0.006408121,1,0.245806098,1,-0.551121414,1,-1.866095543,1
1.271705031,-4.794613361,1,-2.1121521,1,-8.313700676,1,0.000334604,1,-0.003682159,1,0.005590483,1,0.2457956671714783,1,-0.551145434,1,-1.866076946,1
1.275704026,-4.778619766,1,-2.119077921,1,-8.314928055,1,-0.001834919,1,-0.002802062,1,0.003349,1,0.2457807660102844,1,-0.551175594,1,-1.86605525,1
1.279704809,-4.811061382,1,-2.079433203,1,-8.30952549,1,-0.004985273,1,-0.006430445,1,0.008034864,1,0.2457666844129562,1,-0.551208138,1,-1.866030931,1
1.283701777,-4.850939274,1,-2.08417654,1,-8.289567947,1,0.000140291,1,-0.006043533,1,0.005705483,1,0.2457436770200729,1,-0.55123049,1,-1.866010904,1
1.287701011,-4.798715115,1,-2.081512213,1,-8.283186913,1,0.002531633,1,-0.003339047,1,0.004181546,1,0.2457410097122192,1,-0.551253855,1,-1.866000891,1
1.291701794,-4.804820061,1,-2.113443851,1,-8.315665245,1,1.216435339301825e-05,1,-0.002080396,1,0.004314721,1,0.245738223,1,-0.551275611,1,-1.865989923,1
1.295699,-4.77318716,1,-2.112981319,1,-8.314414024,1,0.001970502,1,-0.003157648,1,0.009126193,1,0.2457364499568939,1,-0.551292658,1,-1.865974903,1
1.299697876,-4.79901123,1,-2.108561754,1,-8.301460266,1,0.001981291,1,-0.004291546,1,0.001666876,1,0.2457367032766342,1,-0.551302373,1,-1.865957379,1
1.303699255,-4.76933527,1,-2.103780031,1,-8.282699585,1,0.00490954,1,-0.004722939,1,0.005887606,1,0.2457474321126938,1,-0.551323414,1,-1.865953684,1
1.307696939,-4.782616138,1,-2.123112917,1,-8.307352066,1,0.00083954,1,-0.002144163,1,0.003053236,1,0.2457570433616638,1,-0.551338017,1,-1.865936279,1
1.311695814,-4.794592857,1,-2.13776207,1,-8.313035965,1,0.003442954,1,-0.003001366,1,0.002879137,1,0.2457675337791443,1,-0.551350713,1,-1.865933537,1
1.315696597,-4.771043777,1,-2.134786129,1,-8.312087059,1,0.001623438,1,-0.005113069,1,0.003988247,1,0.2457792609930038,1,-0.551367879,1,-1.86592555,1
1.319693804,-4.765160561,1,-2.143993378,1,-8.309236526,1,0.003209301,1,-0.003986197,1,0.00318134,1,0.245786116,1,-0.551386356,1,-1.865916491,1
1.32369256,-4.754413128,1,-2.117095232,1,-8.347196579,1,0.007381022,1,-0.004274498,1,0.00259559,1,0.2457960397005081,1,-0.551396251,1,-1.865906596,1
1.327699661,-4.741271496,1,-2.134999514,1,-8.288919449,1,0.005005735,1,-0.006219755,1,0.003747832,1,0.2458003461360931,1,-0.551417053,1,-1.865890265,1
1.331703067,-4.752819538,1,-2.105263233,1,-8.304824829,1,0.005242711,1,-0.001834131,1,0.007462507,1,0.2457998245954514,1,-0.551437676,1,-1.865871906,1
1.3357023,-4.817834854,1,-2.13529563,1,-8.333078384,1,0.00171827,1,-0.003080977,1,0.006530769,1,0.2458056062459946,1,-0.551453233,1,-1.86584878,1
1.33970356,-4.792313576,1,-2.158889055,1,-8.29278183,1,0.003762075,1,-0.007822839,1,-0.000304251,1,0.2458108514547348,1,-0.551480293,1,-1.865837097,1
1.343700767,-4.7718153,1,-2.151505232,1,-8.333128929,1,0.005013295,1,-0.004772478,1,0.007239986,1,0.2458114176988602,1,-0.551499605,1,-1.865821362,1
1.347699404,-4.785665989,1,-2.129702091,1,-8.326357841,1,0.002258836,1,-0.002135444,1,0.002725807,1,0.2458170056343079,1,-0.551518679,1,-1.865805984,1
1.351700187,-4.808011532,1,-2.146523952,1,-8.309646606,1,0.004968715,1,-0.004593883,1,0.006930852,1,0.2458187639713287,1,-0.551540911,1,-1.865795732,1
1.355697155,-4.80001688,1,-2.11925602,1,-8.303343773,1,0.002615234,1,-0.005208886,1,0.00108552,1,0.2459357678890228,1,-0.550510645,1,-1.865504503,1
1.35969615,-4.787156105,1,-2.136098623,1,-8.306276321,1,0.002519713,1,-0.00593796,1,0.007267356,1,0.2457867115736008,1,-0.550566494,1,-1.866154075,1
1.363697171,-4.811961174,1,-2.141838074,1,-8.287727356,1,0.000384229,1,-0.001894158,1,0.004073948,1,0.2457803338766098,1,-0.550587773,1,-1.866137862,1
1.367694139,-4.770283699,1,-2.132507801,1,-8.310250282,1,-0.000928715,1,-0.002175228,1,0.001805728,1,0.24576436,1,-0.550595224,1,-1.866113901,1
1.371693015,-4.780479908,1,-2.136782885,1,-8.327733994,1,-0.002394859,1,-0.002614833,1,0.003327308,1,0.2457589656114578,1,-0.550607622,1,-1.866101265,1
1.375693798,-4.762155533,1,-2.108304501,1,-8.300946236,1,-0.00042673,1,-0.000304478,1,0.003040606,1,0.2457461357116699,1,-0.55061847,1,-1.86607933,1
1.379690766,-4.779996395,1,-2.113105059,1,-8.324174881,1,0.000862661,1,-0.003649677,1,0.005504547,1,0.2457338720560074,1,-0.550630867,1,-1.866061211,1
1.383689523,-4.788211346,1,-2.129516363,1,-8.323774338,1,0.002634257,1,0.000528888,1,0.004543761,1,0.2457251697778702,1,-0.550639689,1,-1.866040468,1
1.387690187,-4.784074306,1,-2.096442461,1,-8.328372002,1,0.000123157,1,0.001278296,1,0.004407378,1,0.2457227855920792,1,-0.550647855,1,-1.866025567,1
1.391687155,-4.794304848,1,-2.135505438,1,-8.345640182,1,-0.001744626,1,-0.001558291,1,0.003647712,1,0.2457132935523987,1,-0.550659835,1,-1.866002321,1
1.395685911,-4.793802261,1,-2.097328186,1,-8.296492577,1,0.004549462,1,-0.005768102,1,0.004504432,1,0.2457122504711151,1,-0.550671339,1,-1.865987778,1
1.399686694,-4.821046829,1,-2.086950302,1,-8.32984066,1,0.00025762,1,-0.001507276,1,0.002036344,1,0.2457142621278763,1,-0.550690055,1,-1.865973234,1
1.403683543,-4.786364079,1,-2.100558043,1,-8.305267334,1,0.003599955,1,-0.001755948,1,0.003177582,1,0.2457247078418732,1,-0.550698638,1,-1.865963101,1
1.4076823,-4.819962978,1,-2.098295689,1,-8.316195488,1,0.002260821,1,-0.000848165,1,0.002935643,1,0.2457265555858612,1,-0.550706923,1,-1.865955234,1
1.411683083,-4.77069521,1,-2.116430521,1,-8.314601898,1,0.004324824,1,-0.003029934,1,0.003126672,1,0.245732307,1,-0.550722718,1,-1.865944386,1
1.415680051,-4.790886879,1,-2.13973093,1,-8.303128242,1,0.002290809,1,-0.003565041,1,0.007506412,1,0.2457393407821655,1,-0.550733328,1,-1.865930915,1
1.419678688,-4.807995796,1,-2.117149353,1,-8.297607422,1,0.001637291,1,-0.002619728,1,-0.000583215,1,0.2457511723041534,1,-0.550752878,1,-1.865916729,1
1.423679709,-4.796925545,1,-2.112905264,1,-8.314342499,1,0.00128949,1,-0.000910404,1,0.002465978,1,0.2457556277513504,1,-0.550757051,1,-1.865913153,1
1.427676916,-4.818092823,1,-2.089993238,1,-8.294780731,1,0.001844657,1,-0.002382701,1,0.001414569,1,0.2457535862922668,1,-0.550770164,1,-1.865898371,1
1.431675673,-4.804532051,1,-2.106550217,1,-8.278774261,1,0.001515074,1,-0.004771888,1,0.00206161,1,0.2457544952630997,1,-0.550788999,1,-1.86589551,1
1.435676694,-4.772341251,1,-2.116583824,1,-8.321068764,1,0.000616267,1,-0.002081671,1,0.002609816,1,0.2457561641931534,1,-0.550802648,1,-1.86588192,1
1.439673543,-4.801690578,1,-2.145608902,1,-8.305728912,1,0.005809009,1,-0.000972862,1,0.002681475,1,0.2457671314477921,1,-0.550817728,1,-1.865877509,1
1.443672299,-4.781639576,1,-2.129661322,1,-8.297707558,1,0.001271516,1,-0.002122638,1,0.004408897,1,0.2457656264305115,1,-0.550825477,1,-1.865859151,1
1.447679281,-4.785048008,1,-2.173235416,1,-8.294371605,1,0.000759981,1,-0.000222378,1,0.004619808,1,0.2457732856273651,1,-0.550837219,1,-1.865848899,1
1.451682329,-4.760635376,1,-2.166804075,1,-8.338895798,1,0.003991791,1,-0.003802037,1,0.000880221,1,0.245775431,1,-0.550845563,1,-1.86583662,1
1.455681562,-4.804967403,1,-2.15131855,1,-8.308623314,1,0.000197997,1,-0.000331661,1,0.002289044,1,0.245777503,1,-0.550864458,1,-1.865826607,1
1.459682345,-4.786701679,1,-2.118407726,1,-8.32973671,1,0.001539793,1,-0.004342563,1,0.004748023,1,0.2457750588655472,1,-0.550880432,1,-1.865811586,1
1.463679194,-4.803159714,1,-2.126061916,1,-8.315911293,1,0.000263704,1,-0.001861139,1,0.00170165,1,0.2457760870456696,1,-0.55089438,1,-1.865797877,1
1.467678428,-4.789205074,1,-2.135052443,1,-8.324022293,1,0.003494291,1,-0.001348227,1,0.005353239,1,0.2457802295684814,1,-0.55090934,1,-1.865788698,1
1.471679449,-4.792391777,1,-2.111168385,1,-8.320309639,1,-0.001479757,1,-0.005987995,1,0.00545653,1,0.2457740753889084,1,-0.550919771,1,-1.865761518,1
1.475676656,-4.788031101,1,-2.137020588,1,-8.312738419,1,0.002977923,1,-0.000825241,1,0.001519512,1,0.2457727491855621,1,-0.550940156,1,-1.86574626,1
1.479675651,-4.805408955,1,-2.100222826,1,-8.322648048,1,0.005389458,1,-0.004805772,1,0.002629962,1,0.2457816898822784,1,-0.550961018,1,-1.865737438,1
1.483676672,-4.786506653,1,-2.121649981,1,-8.291088104,1,0.004155851,1,-0.003339619,1,0.002236582,1,0.2457883805036545,1,-0.550973177,1,-1.865719318,1
1.487674117,-4.798663616,1,-2.144430876,1,-8.314738274,1,0.005052559,1,-0.002478792,1,0.006504145,1,0.2457968294620514,1,-0.55098927,1,-1.865709662,1
1.491673112,-4.760493279,1,-2.131538391,1,-8.31957531,1,0.000550965,1,-0.003478047,1,0.005438153,1,0.2458022683858871,1,-0.551008403,1,-1.865693808,1
1.495673656,-4.791203976,1,-2.10289669,1,-8.291656494,1,0.000718872,1,-0.004834453,1,0.006094322,1,0.2458095848560333,1,-0.551028192,1,-1.865689278,1
1.499670506,-4.814617157,1,-2.09229207,1,-8.295952797,1,0.003944577,1,-0.005112304,1,0.004196774,1,0.2458086758852005,1,-0.551057577,1,-1.865674496,1
1.503669262,-4.806803703,1,-2.0732131,1,-8.29432869,1,0.001358822,1,-0.006329544,1,0.001672264,1,0.2458185106515884,1,-0.551074684,1,-1.865663409,1
1.507670045,-4.790535927,1,-2.115400553,1,-8.316883087,1,0.008841462,1,-0.00592992,1,0.001791704,1,0.2458324730396271,1,-0.551097274,1,-1.865655422,1
1.511666894,-4.778316021,1,-2.116496563,1,-8.335244179,1,0.003794574,1,-0.004299243,1,0.001519293,1,0.2458531856536865,1,-0.55111903,1,-1.865651965,1
1.51566565,-4.77905798,1,-2.171535254,1,-8.334750175,1,0.005701034,1,-0.005698626,1,0.004287703,1,0.2458733022212982,1,-0.551143944,1,-1.865646958,1
1.519666672,-4.788067818,1,-2.174352646,1,-8.340125084,1,0.008451977,1,-0.005005367,1,-0.001817719,1,0.2458863109350204,1,-0.551165521,1,-1.865632892,1
1.523663878,-4.796492577,1,-2.144230604,1,-8.318129539,1,-0.000136803,1,-0.006350757,1,0.003817906,1,0.2458992004394531,1,-0.551188767,1,-1.865629435,1
1.527662635,-4.794853687,1,-2.168805838,1,-8.295085907,1,0.004127869,1,-0.007239946,1,0.003738723,1,0.2459072768688202,1,-0.551222622,1,-1.865615726,1
1.531663656,-4.791126251,1,-2.12823987,1,-8.308303833,1,0.002651632,1,-0.004675434,1,0.004749345,1,0.2459118068218231,1,-0.551251471,1,-1.865606904,1
1.535660505,-4.805486679,1,-2.127519369,1,-8.329440117,1,0.003065975,1,-0.007733579,1,0.004528794,1,0.2459125071763992,1,-0.551275432,1,-1.865592957,1
1.5396595,-4.774221897,1,-2.148407936,1,-8.298313141,1,2.661370672285557e-05,1,-0.006563658,1,0.002752499,1,0.2459190636873245,1,-0.551292658,1,-1.865589142,1
1.543660522,-4.814445972,1,-2.169157267,1,-8.328585625,1,0.00142762,1,-0.001669216,1,0.007228759,1,0.2459131628274918,1,-0.551319778,1,-1.86557281,1
1.54765749,-4.79013443,1,-2.129762411,1,-8.310716629,1,-0.000104361,1,-0.003909079,1,0.004633768,1,0.2459019720554352,1,-0.55134207,1,-1.865555286,1
1.551656485,-4.788918018,1,-2.131398439,1,-8.28855896,1,0.002197174,1,-0.000870789,1,0.006527965,1,0.2458959668874741,1,-0.551364303,1,-1.86553514,1
1.555657744,-4.786715031,1,-2.12565732,1,-8.291519165,1,-0.003419798,1,-0.003859249,1,0.007150408,1,0.2458789348602295,1,-0.551389456,1,-1.865514278,1
1.55965519,-4.788426399,1,-2.13606739,1,-8.311732292,1,-0.002951892,1,-0.003531416,1,0.005957548,1,0.2458598762750626,1,-0.551410615,1,-1.865493655,1
1.563654184,-4.836377621,1,-2.111720324,1,-8.294548035,1,0.005336459,1,-0.006054584,1,0.002997406,1,0.2458513379096985,1,-0.551433504,1,-1.865476251,1
1.567661047,-4.791487694,1,-2.110369921,1,-8.288679123,1,-0.000656762,1,-0.003965672,1,0.008512006,1,0.2458386421203613,1,-0.551452219,1,-1.865455866,1
1.571664333,-4.80060482,1,-2.095987082,1,-8.29235363,1,-6.59E-05,1,-0.004363272,1,0.002591102,1,0.2458306849002838,1,-0.551473856,1,-1.865442872,1
1.575663567,-4.801839828,1,-2.109419346,1,-8.279557228,1,0.000310299,1,-0.003231353,1,0.004285784,1,0.245821089,1,-0.551493347,1,-1.865424037,1
1.579664588,-4.799722672,1,-2.109748125,1,-8.292618752,1,0.002133681,1,-0.003141441,1,0.002962511,1,0.2458162009716034,1,-0.551516294,1,-1.865410089,1
1.583661795,-4.808731079,1,-2.134999275,1,-8.321675301,1,0.000641362,1,-0.006017195,1,0.006572871,1,0.2458064556121826,1,-0.551539302,1,-1.865391374,1
1.587660789,-4.766357899,1,-2.144195318,1,-8.306435585,1,0.002974538,1,-0.002674411,1,0.002104657,1,0.2458032369613647,1,-0.551561594,1,-1.865382075,1
1.591661572,-4.770976543,1,-2.129424572,1,-8.314272881,1,-0.002032673,1,-0.0013861,1,0.007395536,1,0.2458047866821289,1,-0.551576078,1,-1.865365505,1
1.595658779,-4.794776917,1,-2.117984295,1,-8.332057953,1,-0.001504595,1,-0.005249046,1,0.004397959,1,0.2457935661077499,1,-0.551585793,1,-1.86534369,1
1.599657774,-4.79611969,1,-2.120457888,1,-8.333501816,1,0.000953274,1,-0.008595984,1,0.003871362,1,0.2457965463399887,1,-0.551618695,1,-1.865331888,1
1.603659034,-4.76148653,1,-2.109357357,1,-8.321479797,1,0.000201342,1,-0.006586009,1,0.00718819,1,0.2457854151725769,1,-0.551638663,1,-1.865306616,1
1.60765624,-4.77121973,1,-2.136370182,1,-8.300420761,1,0.003504783,1,-0.006084272,1,0.005163855,1,0.2457718104124069,1,-0.550671101,1,-1.865688324,1
1.611654878,-4.779880047,1,-2.140847445,1,-8.317479134,1,-0.000109245,1,-0.007018154,1,0.007561742,1,0.2457702457904816,1,-0.550706744,1,-1.865666509,1
1.615655899,-4.779116631,1,-2.120127916,1,-8.294400215,1,0.000693,1,-0.00569028,1,0.003826543,1,0.245763361,1,-0.55073303,1,-1.865652323,1
1.619652867,-4.761655807,1,-2.125242949,1,-8.31653595,1,0.000151901,1,-0.006318803,1,0.002888586,1,0.2457641810178757,1,-0.550763607,1,-1.86563921,1
1.623651624,-4.800229549,1,-2.128918409,1,-8.319911957,1,0.004064709,1,-0.008361092,1,0.004905653,1,0.2457653135061264,1,-0.550789177,1,-1.865623355,1
1.627652645,-4.808539391,1,-2.145743608,1,-8.312870026,1,0.001639923,1,-0.00819576,1,-0.001665481,1,0.2457752674818039,1,-0.550826728,1,-1.865620375,1
1.631649494,-4.785299778,1,-2.112358093,1,-8.3171978,1,0.006498368,1,-0.006694162,1,0.005924624,1,0.2457799464464188,1,-0.550857306,1,-1.865604997,1
1.635648489,-4.796571732,1,-2.128171444,1,-8.318850517,1,0.003864954,1,-0.007600241,1,0.003314132,1,0.2457927763462067,1,-0.550892234,1,-1.865597963,1
1.63964951,-4.788399696,1,-2.099251032,1,-8.33770752,1,0.000230451,1,-0.008511228,1,0.005467312,1,0.2457981258630753,1,-0.550927579,1,-1.865580082,1
1.643646479,-4.848249912,1,-2.125250816,1,-8.293579102,1,0.003015629,1,-0.009785545,1,0.001387542,1,0.2458149939775467,1,-0.550955534,1,-1.865573406,1
1.64764595,-4.779064655,1,-2.135561466,1,-8.345225334,1,0.007765304,1,-0.007359101,1,0.002576408,1,0.2458287328481674,1,-0.550995886,1,-1.865564227,1
1.651646972,-4.801559925,1,-2.09312129,1,-8.291748047,1,0.00573114,1,-0.005980548,1,0.002911284,1,0.2458480298519135,1,-0.551027715,1,-1.865556121,1
1.65564394,-4.796433926,1,-2.107275009,1,-8.292156219,1,0.004509843,1,-0.007854201,1,0.003402957,1,0.245874435,1,-0.551056325,1,-1.865552902,1
1.659642577,-4.783313274,1,-2.130460262,1,-8.288677216,1,0.005375788,1,-0.005110366,1,0.001142508,1,0.2458959370851517,1,-0.551089287,1,-1.865546227,1
1.66364336,-4.815685749,1,-2.124233961,1,-8.289496422,1,0.005766765,1,-0.008103908,1,0.005024156,1,0.2459127157926559,1,-0.551114202,1,-1.865546465,1
1.667640567,-4.782572269,1,-2.11076498,1,-8.291378021,1,0.007721079,1,-0.002252119,1,0.00354463,1,0.2459445297718048,1,-0.551139414,1,-1.865549088,1
1.671639562,-4.789576054,1,-2.122014523,1,-8.292542458,1,0.006814044,1,-0.007287122,1,0.002129631,1,0.2459679841995239,1,-0.551158071,1,-1.865545154,1
1.675640345,-4.786660671,1,-2.097290277,1,-8.309885025,1,0.006639418,1,-0.006140008,1,-0.00081159,1,0.2459903955459595,1,-0.551177621,1,-1.865546584,1
1.679637551,-4.777531147,1,-2.09672761,1,-8.313783646,1,0.005955991,1,-0.003270473,1,0.000404504,1,0.2460185885429382,1,-0.551202476,1,-1.865550995,1
1.683636427,-4.768684387,1,-2.133825541,1,-8.314666748,1,0.005940965,1,-0.006167611,1,0.001424723,1,0.2460493147373199,1,-0.551225424,1,-1.865546107,1
1.687643409,-4.774131775,1,-2.130583286,1,-8.31009388,1,0.004430566,1,-0.005010141,1,-0.00036795,1,0.2460726946592331,1,-0.551245332,1,-1.865553856,1
1.691646457,-4.820224762,1,-2.131626129,1,-8.299264908,1,0.004609755,1,-0.005342736,1,0.003932161,1,0.2460936307907104,1,-0.55126369,1,-1.865556121,1
1.69564569,-4.782231808,1,-2.142184973,1,-8.315706253,1,0.006984527,1,-0.005378435,1,0.00331967,1,0.2461125254631042,1,-0.551282942,1,-1.865547895,1
1.699646711,-4.821646214,1,-2.129737854,1,-8.293434143,1,0.002131906,1,-0.005006512,1,-0.001484861,1,0.2461251467466354,1,-0.551301003,1,-1.865547776,1
1.703643918,-4.818540096,1,-2.140043736,1,-8.299285889,1,0.003999811,1,-0.002463823,1,-0.000107044,1,0.2461360245943069,1,-0.551316679,1,-1.865543246,1
1.707642674,-4.781009674,1,-2.149734497,1,-8.296401978,1,0.004168621,1,-0.003593268,1,-0.000203606,1,0.2461552321910858,1,-0.551334023,1,-1.865544677,1
1.711643696,-4.795109272,1,-2.14804101,1,-8.28128624,1,0.004346622,1,0.000800546,1,-0.001922208,1,0.2461696267127991,1,-0.551346302,1,-1.8655442,1
1.715640545,-4.807588577,1,-2.121469259,1,-8.314538002,1,0.003258298,1,-0.004472293,1,0.006151143,1,0.2461759150028229,1,-0.551366091,1,-1.865533948,1
1.719639301,-4.804537773,1,-2.12199378,1,-8.28550148,1,0.000174115,1,-0.002671586,1,0.002937813,1,0.2461920082569122,1,-0.551375031,1,-1.865534663,1
1.723640323,-4.830911636,1,-2.141534567,1,-8.29846096,1,0.003372168,1,-0.005929129,1,0.004721695,1,0.246189684,1,-0.551394522,1,-1.865518808,1
1.727637291,-4.796082497,1,-2.104046106,1,-8.288308144,1,0.004029907,1,-0.00112773,1,0.003494821,1,0.2462018579244614,1,-0.551412165,1,-1.86551249,1
1.731636167,-4.807128906,1,-2.11260891,1,-8.288710594,1,0.001196859,1,0.000571022,1,0.003319809,1,0.2462087422609329,1,-0.551425397,1,-1.865507603,1
1.735637307,-4.818394184,1,-2.10464716,1,-8.307348251,1,0.004638453,1,-0.003781172,1,-0.000624277,1,0.246223584,1,-0.551433504,1,-1.865502119,1
1.739634156,-4.81009531,1,-2.079949617,1,-8.282934189,1,0.005862035,1,-0.002624215,1,-0.00402605,1,0.2462325096130371,1,-0.551442683,1,-1.86550045,1
1.743633151,-4.7959795,1,-2.0858953,1,-8.287602425,1,0.00249981,1,-0.00219603,1,0.002062532,1,0.246247262,1,-0.551446021,1,-1.865498662,1
1.747634172,-4.80712986,1,-2.109494925,1,-8.300973892,1,0.008062921,1,-0.000454911,1,-0.002095204,1,0.2462686747312546,1,-0.551445901,1,-1.865501046,1
1.751631618,-4.808007717,1,-2.102851391,1,-8.290680885,1,0.005507345,1,0.000742986,1,0.000720302,1,0.2462890148162842,1,-0.551445305,1,-1.865495682,1
1.755630851,-4.807423115,1,-2.122558832,1,-8.326622963,1,0.007571463,1,0.000678175,1,0.000195091,1,0.2463128268718719,1,-0.551448941,1,-1.865500689,1
1.759631634,-4.797399521,1,-2.092779875,1,-8.326119423,1,0.00597227,1,0.000347779,1,-0.002318809,1,0.2463425099849701,1,-0.551446378,1,-1.865508676,1
1.76362884,-4.780535698,1,-2.12243557,1,-8.250134468,1,0.003578722,1,-0.000693672,1,-6.69E-06,1,0.2463616579771042,1,-0.551441193,1,-1.865504384,1
1.767627478,-4.779915333,1,-2.118865013,1,-8.278296471,1,0.008002624,1,0.00099024,1,-0.002306733,1,0.2463910579681396,1,-0.551435947,1,-1.865516543,1
1.771628261,-4.797894955,1,-2.11538291,1,-8.274501801,1,0.005755384,1,0.004061807,1,-0.003267862,1,0.2464184165000916,1,-0.551423669,1,-1.865522385,1
1.775625229,-4.7866292,1,-2.10986495,1,-8.277133942,1,0.004104278,1,0.004262491,1,-0.001565015,1,0.2464481145143509,1,-0.551407933,1,-1.865529299,1
1.779623985,-4.776557922,1,-2.106645107,1,-8.278183937,1,0.007771181,1,0.002394684,1,-0.003693799,1,0.2464786469936371,1,-0.55139631,1,-1.865539551,1
1.783625245,-4.796521187,1,-2.082257509,1,-8.288397789,1,0.004027291,1,0.008008842,1,-0.003755507,1,0.246508464,1,-0.551375508,1,-1.865546942,1
1.787622452,-4.817093372,1,-2.115602255,1,-8.295106888,1,0.009214398,1,0.003033999,1,-0.001533701,1,0.2465369254350662,1,-0.551347375,1,-1.865551233,1
1.791621327,-4.8128438,1,-2.138499975,1,-8.305642128,1,0.007966941,1,0.004127103,1,-0.002749505,1,0.246576652,1,-0.551326036,1,-1.865556955,1
1.795622349,-4.821193695,1,-2.101493597,1,-8.28562355,1,0.011632408,1,0.005475072,1,-0.003413423,1,0.2466214150190353,1,-0.551299393,1,-1.86557436,1
1.799619555,-4.825422764,1,-2.11507535,1,-8.319785118,1,0.007113367,1,0.003600701,1,0.000547537,1,0.2466617971658707,1,-0.55127883,1,-1.865578055,1
1.803618312,-4.804684639,1,-2.119309187,1,-8.327976227,1,0.010869972,1,0.008260804,1,0.000263269,1,0.246706948,1,-0.551246166,1,-1.865586042,1
1.807625413,-4.819137573,1,-2.101584911,1,-8.307944298,1,0.01008629,1,0.007157397,1,-0.003917049,1,0.2467506974935532,1,-0.551211655,1,-1.865589499,1
1.811628819,-4.787866592,1,-2.12431407,1,-8.331998825,1,0.009555146,1,0.010860489,1,-0.004068992,1,0.2467998713254929,1,-0.551175952,1,-1.865595818,1
1.81562829,-4.824186802,1,-2.069345951,1,-8.33200264,1,0.01239471,1,0.00277897,1,-0.007355565,1,0.246852383,1,-0.551142573,1,-1.865612745,1
1.81962955,-4.821027756,1,-2.085862637,1,-8.27687645,1,0.014070353,1,0.00746295,1,-0.003966901,1,0.2469069957733154,1,-0.551106393,1,-1.865632534,1
1.823626757,-4.783596516,1,-2.086689711,1,-8.33072567,1,0.016116207,1,0.006097236,1,-0.006452856,1,0.2469654679298401,1,-0.551073194,1,-1.865651011,1
1.827625751,-4.80637455,1,-2.10454154,1,-8.297716141,1,0.012549596,1,0.00829525,1,-0.007225597,1,0.2470307201147079,1,-0.551031172,1,-1.865664721,1
1.831626773,-4.80734539,1,-2.103081942,1,-8.32329464,1,0.019506814,1,0.015238667,1,-0.006417574,1,0.2471030056476593,1,-0.550984979,1,-1.865686417,1
1.83562398,-4.808553696,1,-2.122988939,1,-8.315364838,1,0.01393127,1,0.005453056,1,-0.010545474,1,0.2471828460693359,1,-0.550938785,1,-1.865712523,1
1.839622855,-4.82926321,1,-2.141692638,1,-8.306088448,1,0.018168977,1,0.011579352,1,-0.008976823,1,0.2472696900367737,1,-0.550887823,1,-1.865745187,1
1.843623638,-4.797100067,1,-2.120463848,1,-8.291835785,1,0.018481856,1,0.010328705,1,-0.010736921,1,0.2473604530096054,1,-0.550844491,1,-1.865778208,1
1.847620845,-4.831169128,1,-2.183573961,1,-8.299096107,1,0.014598361,1,0.010734195,1,-0.006357748,1,0.2474359720945358,1,-0.550794959,1,-1.865795851,1
1.851619601,-4.752179146,1,-2.156797171,1,-8.318388939,1,0.019888273,1,0.013811735,1,-0.008178209,1,0.2475174814462662,1,-0.550742745,1,-1.865814686,1
1.855620384,-4.759506226,1,-2.146856546,1,-8.314409256,1,0.015385029,1,0.008490522,1,-0.011559973,1,0.2477051615715027,1,-0.549690723,1,-1.865612864,1
1.859617591,-4.785338402,1,-2.160426855,1,-8.295511246,1,0.016119888,1,0.011774582,1,-0.008073531,1,0.2476468831300735,1,-0.549676538,1,-1.866288662,1
1.863616467,-4.805209637,1,-2.141289949,1,-8.287229538,1,0.017615566,1,0.011367712,1,-0.009202057,1,0.2477163672447205,1,-0.549627423,1,-1.866300344,1
1.867617249,-4.792698383,1,-2.144521475,1,-8.300157547,1,0.016779773,1,0.015609356,1,-0.007444232,1,0.2477858662605286,1,-0.549561143,1,-1.866317272,1
1.871614218,-4.764562607,1,-2.144052029,1,-8.297146797,1,0.014998252,1,0.013490781,1,-0.005204325,1,0.2478571087121964,1,-0.549493015,1,-1.866325021,1
1.875612974,-4.784669399,1,-2.151435852,1,-8.297670364,1,0.017677333,1,0.018812019,1,-0.004467896,1,0.2479260712862015,1,-0.549427271,1,-1.866335034,1
1.879613996,-4.780770779,1,-2.102741241,1,-8.292316437,1,0.014628377,1,0.015111505,1,-0.005969728,1,0.2479871213436127,1,-0.549354434,1,-1.866338253,1
1.883610845,-4.77097559,1,-2.115186691,1,-8.294463158,1,0.017149033,1,0.020334106,1,-0.004347925,1,0.2480559051036835,1,-0.54928267,1,-1.866346478,1
1.887609601,-4.810143471,1,-2.119568348,1,-8.2700634,1,0.014899338,1,0.020163123,1,-0.005820928,1,0.2481191605329514,1,-0.549202263,1,-1.86635232,1
1.891610622,-4.780208111,1,-2.128876209,1,-8.262446404,1,0.018825896,1,0.017189723,1,-0.004320781,1,0.2481862604618073,1,-0.549125552,1,-1.866354942,1
1.895607591,-4.790053844,1,-2.183135509,1,-8.299728394,1,0.016653417,1,0.02274619,1,-0.004088246,1,0.2482509016990662,1,-0.54904151,1,-1.866349578,1
1.899606228,-4.785238266,1,-2.200192928,1,-8.212163925,1,0.013538125,1,0.019674707,1,-0.00698276,1,0.2483058124780655,1,-0.548955619,1,-1.866348386,1
1.903607249,-4.824007034,1,-2.115379572,1,-8.297415733,1,0.01610304,1,0.020984456,1,-0.008937306,1,0.248370349,1,-0.548866749,1,-1.866361618,1
1.907604218,-4.767760277,1,-2.097611427,1,-8.295731544,1,0.015103035,1,0.024762727,1,-0.004544736,1,0.2484263330698013,1,-0.548771977,1,-1.866359472,1
1.911603212,-4.803220272,1,-2.132948637,1,-8.355413437,1,0.016634677,1,0.023290221,1,-0.005924724,1,0.2484820187091827,1,-0.548672676,1,-1.866350174,1
1.915604234,-4.843791485,1,-2.065823555,1,-8.335681915,1,0.019509161,1,0.027486075,1,-0.005972343,1,0.2485582530498505,1,-0.548577249,1,-1.866350651,1
1.919601202,-4.771623135,1,-2.136757135,1,-8.258947372,1,0.016192349,1,0.024315912,1,-0.004211435,1,0.2486236691474915,1,-0.548474371,1,-1.866339803,1
1.923600078,-4.741435051,1,-2.201988459,1,-8.307207108,1,0.019814311,1,0.021905743,1,-0.005013826,1,0.2487001568078995,1,-0.548374832,1,-1.866331458,1
1.927607059,-4.73790741,1,-2.172741413,1,-8.351902008,1,0.021054206,1,0.023349021,1,-0.007947748,1,0.2487824559211731,1,-0.548278749,1,-1.866330743,1
1.931610107,-4.799965382,1,-2.109445333,1,-8.316177368,1,0.020478727,1,0.01991643,1,-0.00469392,1,0.248863474,1,-0.548188865,1,-1.866321683,1
1.935609341,-4.765713215,1,-2.196427822,1,-8.334296227,1,0.020782305,1,0.022347033,1,-0.004763313,1,0.2489436119794846,1,-0.54809767,1,-1.866319776,1
1.939610362,-4.763030529,1,-2.221171141,1,-8.317075729,1,0.017595679,1,0.016476557,1,-0.004640762,1,0.2490263432264328,1,-0.548018754,1,-1.866321445,1
1.943607569,-4.741767406,1,-2.194595575,1,-8.375030518,1,0.020261304,1,0.019105088,1,-0.003613883,1,0.2491000592708588,1,-0.54794383,1,-1.866326213,1
1.947606564,-4.764640331,1,-2.189848661,1,-8.352368355,1,0.019076571,1,0.018844362,1,-0.001203289,1,0.2491713762283325,1,-0.547869921,1,-1.866326809,1
1.951607585,-4.716776371,1,-2.206089973,1,-8.346553802,1,0.015100935,1,0.014766873,1,-0.00248932,1,0.2492317110300064,1,-0.547799647,1,-1.866312861,1
1.95560503,-4.702696323,1,-2.253055096,1,-8.366747856,1,0.015909843,1,0.017068569,1,-0.0015381,1,0.2492956221103668,1,-0.547735333,1,-1.866308689,1
1.959604025,-4.786130905,1,-2.275049448,1,-8.344875336,1,0.010973299,1,0.015099024,1,0.002066187,1,0.2493399679660797,1,-0.547679722,1,-1.866292,1
1.963605046,-4.75298357,1,-2.206710339,1,-8.270748138,1,0.012781461,1,0.011574275,1,-0.00083617,1,0.2493749707937241,1,-0.547630191,1,-1.866281271,1
1.967601895,-4.692602158,1,-2.176784277,1,-8.336996078,1,0.010350652,1,0.009344802,1,0.002908331,1,0.2494035810232162,1,-0.547587097,1,-1.86626339,1
1.97160089,-4.752569675,1,-2.169573784,1,-8.323898315,1,0.00618778,1,0.011173666,1,-0.001372868,1,0.249432698,1,-0.547544897,1,-1.86625123,1
1.975601912,-4.739609718,1,-2.192875862,1,-8.295856476,1,0.007752332,1,0.005706369,1,-3.27E-05,1,0.2494498938322067,1,-0.547512233,1,-1.866236806,1
1.979599118,-4.689088345,1,-2.236852169,1,-8.285329819,1,0.006170162,1,0.009958087,1,-0.003259692,1,0.2494796365499496,1,-0.547483087,1,-1.866233349,1
1.983597875,-4.703668594,1,-2.2584517,1,-8.354917526,1,0.007300557,1,0.009082351,1,-0.001532327,1,0.2495079338550568,1,-0.547451138,1,-1.866231203,1
1.987598896,-4.788918972,1,-2.160063744,1,-8.368855476,1,0.004500172,1,0.005141933,1,0.004637417,1,0.2495167851448059,1,-0.547425807,1,-1.866210938,1
1.991595745,-4.775035381,1,-2.180203438,1,-8.282391548,1,0.002007877,1,0.006294488,1,0.000113538,1,0.2495153695344925,1,-0.547403932,1,-1.866192698,1
1.99559474,-4.75718689,1,-2.195933104,1,-8.282430649,1,0.002081824,1,0.007000617,1,0.001272305,1,0.2495173215866089,1,-0.547379375,1,-1.866174221,1
1.999595761,-4.762307167,1,-2.183040857,1,-8.29672718,1,-0.000949822,1,0.006601938,1,0.005471428,1,0.2495079934597015,1,-0.547354579,1,-1.866150618,1
2.00359273,-4.790216446,1,-2.16582346,1,-8.280513763,1,-0.000717935,1,0.008462153,1,0.007592194,1,0.2494957745075226,1,-0.547330737,1,-1.866117477,1
2.007591724,-4.814982414,1,-2.186487675,1,-8.29888916,1,-0.002637188,1,0.008656095,1,0.001754893,1,0.249473512,1,-0.547294676,1,-1.866084814,1
2.011592627,-4.742706299,1,-2.179893255,1,-8.248717308,1,-0.004665529,1,0.01292141,1,0.006723978,1,0.2494493573904037,1,-0.547262013,1,-1.866052151,1
2.015589952,-4.745138168,1,-2.190286875,1,-8.312638283,1,-0.002593091,1,0.011222466,1,0.004190711,1,0.2494143694639206,1,-0.547227323,1,-1.866016626,1
2.019588947,-4.753131866,1,-2.190415859,1,-8.320602417,1,-0.00235837,1,0.01241146,1,0.003202911,1,0.2493818253278732,1,-0.547185063,1,-1.865972996,1
2.023589611,-4.740348339,1,-2.211165428,1,-8.306239128,1,-0.002610747,1,0.010843051,1,0.008224178,1,0.2493439167737961,1,-0.547145426,1,-1.865939498,1
2.027586699,-4.73230505,1,-2.206381083,1,-8.313149452,1,-0.004633388,1,0.010929629,1,0.005223511,1,0.2493016868829727,1,-0.547111332,1,-1.865901828,1
2.031585693,-4.743495941,1,-2.169981718,1,-8.324181557,1,-0.005126061,1,0.0137939,1,0.007926202,1,0.249255896,1,-0.547067463,1,-1.865852118,1
2.035586834,-4.755074024,1,-2.129447222,1,-8.319694519,1,-0.004512974,1,0.013146057,1,0.006726179,1,0.2492138296365738,1,-0.547023535,1,-1.865800858,1
2.039583921,-4.748546124,1,-2.127510309,1,-8.289388657,1,-0.006728883,1,0.012741107,1,0.003588143,1,0.2491719126701355,1,-0.5469836,1,-1.865759969,1
2.043582916,-4.757866859,1,-2.140022278,1,-8.344960213,1,-0.002202379,1,0.011244144,1,0.005611961,1,0.2491342723369598,1,-0.546945393,1,-1.865724802,1
2.047584057,-4.778278351,1,-2.174073935,1,-8.323076248,1,-0.004913072,1,0.008365267,1,0.00926155,1,0.2490943819284439,1,-0.546900034,1,-1.865676284,1
2.051587105,-4.74926281,1,-2.199131489,1,-8.298244476,1,-0.004171078,1,0.013636266,1,0.007883807,1,0.2490588426589966,1,-0.546861708,1,-1.865635991,1
2.055586338,-4.766665459,1,-2.203282356,1,-8.297703743,1,-0.002857531,1,0.010340594,1,0.005757834,1,0.2490274459123611,1,-0.546817899,1,-1.86559236,1
2.05958724,-4.776910305,1,-2.154942751,1,-8.28852272,1,-0.000226863,1,0.016781118,1,0.00492774,1,0.2489900439977646,1,-0.546768606,1,-1.865546703,1
2.063584566,-4.756584644,1,-2.096949816,1,-8.28047657,1,-0.006661612,1,0.016028915,1,0.004300159,1,0.2489485591650009,1,-0.546716928,1,-1.865505457,1
2.067583561,-4.746790886,1,-2.093052149,1,-8.30266571,1,-0.003283183,1,0.016875874,1,0.004518209,1,0.2489164918661118,1,-0.546648264,1,-1.865466952,1
2.071584702,-4.781384945,1,-2.181000948,1,-8.311077118,1,0.000184871,1,0.021506559,1,0.004409391,1,0.2488841861486435,1,-0.546579599,1,-1.865421653,1
2.075582266,-4.71310854,1,-2.158991337,1,-8.325311661,1,-0.003701701,1,0.020605668,1,0.004034228,1,0.2488542050123215,1,-0.546508133,1,-1.865383506,1
2.079581022,-4.716863632,1,-2.19225359,1,-8.280237198,1,-0.005428623,1,0.018745691,1,0.00796149,1,0.2488195598125458,1,-0.546435773,1,-1.865337849,1
2.083581686,-4.79292345,1,-2.184125662,1,-8.288301468,1,-0.003329679,1,0.021959562,1,0.001894314,1,0.2487838119268417,1,-0.54636389,1,-1.865291834,1
2.087578535,-4.755517006,1,-2.144974709,1,-8.268839836,1,-0.005761337,1,0.020450253,1,0.004225206,1,0.2487427145242691,1,-0.546283305,1,-1.865255952,1
2.09157753,-4.741157532,1,-2.0339396,1,-8.319182396,1,-0.002763407,1,0.027430218,1,0.003799312,1,0.2487127333879471,1,-0.546200871,1,-1.865215063,1
2.095578671,-4.749349594,1,-2.035529375,1,-8.300377846,1,-0.002056339,1,0.020084321,1,0.000111786,1,0.2486899197101593,1,-0.546118081,1,-1.8651793,1
2.09957552,-4.771433353,1,-2.132749319,1,-8.297185898,1,0.001177522,1,0.025621802,1,-0.003760918,1,0.2486719936132431,1,-0.546027601,1,-1.865157485,1
2.103574514,-4.721212387,1,-2.070092916,1,-8.326550484,1,0.001660493,1,0.025109161,1,-0.001900695,1,0.2486749142408371,1,-0.545927346,1,-1.865140915,1
2.107575893,-4.739677906,1,-2.073759079,1,-8.345956802,1,0.007833999,1,0.022440869,1,0.004622495,1,0.2487059980630875,1,-0.544846714,1,-1.865488529,1
2.111572981,-4.7356987,1,-2.062485695,1,-8.308989525,1,0.009580849,1,0.020225817,1,-0.001973645,1,0.2487149089574814,1,-0.54475534,1,-1.865458369,1
2.115571737,-4.707846642,1,-2.142399549,1,-8.321723938,1,0.006408049,1,0.025219001,1,-0.003966081,1,0.2487396895885468,1,-0.544658899,1,-1.865434766,1
2.119572639,-4.764535904,1,-2.167245388,1,-8.28217411,1,0.012005758,1,0.027061133,1,-0.002601737,1,0.2487622946500778,1,-0.544555366,1,-1.865422249,1
2.123569965,-4.743862629,1,-2.213454008,1,-8.30428791,1,0.004773407,1,0.028135451,1,0.000905906,1,0.248786598,1,-0.544448435,1,-1.865394115,1
2.12756896,-4.715461731,1,-2.177684307,1,-8.331283569,1,0.006961165,1,0.028357299,1,-0.002610478,1,0.2488018870353699,1,-0.544331849,1,-1.865369558,1
2.131569624,-4.689629078,1,-2.120505333,1,-8.357795715,1,0.00685688,1,0.029958731,1,0.000771434,1,0.2488106042146683,1,-0.544217467,1,-1.865339875,1
2.13556695,-4.71434927,1,-2.130024433,1,-8.347318649,1,0.004687656,1,0.025684936,1,-0.002328059,1,0.2488246113061905,1,-0.54410857,1,-1.865310192,1
2.139565706,-4.782199383,1,-2.217498779,1,-8.310884476,1,0.001427773,1,0.029573506,1,-0.00217824,1,0.2488306909799576,1,-0.54399395,1,-1.865289211,1
2.143566847,-4.784393787,1,-2.21408534,1,-8.263780594,1,-0.00083757,1,0.032244343,1,-0.002986985,1,0.2488172650337219,1,-0.543871641,1,-1.865265131,1
2.147563934,-4.730782509,1,-2.138309479,1,-8.281347275,1,-0.0012684,1,0.037603125,1,-0.000820824,1,0.2487921416759491,1,-0.543731749,1,-1.865228057,1
2.151562691,-4.681408405,1,-2.069190264,1,-8.302633286,1,-0.001850233,1,0.032543488,1,-0.000793059,1,0.2487652897834778,1,-0.543593526,1,-1.865187168,1
2.15556407,-4.774139404,1,-2.11169982,1,-8.34140873,1,0.003793365,1,0.03402843,1,0.001122883,1,0.2487480342388153,1,-0.543475091,1,-1.865143657,1
2.159561396,-4.723314762,1,-2.153545141,1,-8.338307381,1,0.000852247,1,0.030438809,1,-6.75E-05,1,0.2487320303916931,1,-0.543344259,1,-1.865109324,1
2.16356039,-4.759371758,1,-2.182148695,1,-8.326080322,1,0.004546883,1,0.032694824,1,-3.75E-05,1,0.2487253397703171,1,-0.543218374,1,-1.865073562,1
2.167561531,-4.78226757,1,-2.192985773,1,-8.362502098,1,0.000992317,1,0.03351067,1,-0.000133249,1,0.2487180382013321,1,-0.543093026,1,-1.865034938,1
2.171564579,-4.722276688,1,-2.173169136,1,-8.351893425,1,0.000759019,1,0.039636984,1,0.000798113,1,0.2487093955278397,1,-0.542954206,1,-1.865000486,1
2.175564051,-4.679421425,1,-2.132872343,1,-8.334968567,1,0.003268331,1,0.035418678,1,0.004900374,1,0.2487002909183502,1,-0.542818367,1,-1.864954591,1
2.179564714,-4.736199379,1,-2.124054909,1,-8.382223129,1,0.002780126,1,0.030704636,1,0.003201304,1,0.2486832439899445,1,-0.542695105,1,-1.864911675,1
2.183561802,-4.704663754,1,-2.173592329,1,-8.355676651,1,0.003791559,1,0.032383434,1,0.000977734,1,0.2486806213855743,1,-0.542570412,1,-1.864866972,1
2.187560797,-4.758200645,1,-2.140508652,1,-8.322010994,1,0.004372843,1,0.031074118,1,-0.001114467,1,0.2486808151006699,1,-0.542440534,1,-1.864833593,1
2.191561699,-4.79211092,1,-2.157674074,1,-8.346940994,1,0.008820908,1,0.030599944,1,0.000761426,1,0.2486837357282639,1,-0.542322934,1,-1.864796877,1
2.195559025,-4.702519417,1,-2.219807148,1,-8.364354134,1,0.004223296,1,0.03177502,1,-0.003681544,1,0.2486883401870728,1,-0.542199373,1,-1.864753842,1
2.199557781,-4.668997288,1,-2.21427846,1,-8.384799004,1,0.005542111,1,0.028953489,1,0.004373064,1,0.2486922442913055,1,-0.542085469,1,-1.864717484,1
2.203558922,-4.651109219,1,-2.161088705,1,-8.37036705,1,0.007999728,1,0.027451221,1,0.003883408,1,0.2486935406923294,1,-0.541983187,1,-1.864667892,1
2.207556009,-4.701870918,1,-2.168486834,1,-8.346346855,1,0.005098892,1,0.024016954,1,0.003005161,1,0.2486896067857742,1,-0.541886568,1,-1.86462152,1
2.211554766,-4.76343441,1,-2.257021189,1,-8.331580162,1,-0.000834091,1,0.022815693,1,0.004837092,1,0.2486878633499146,1,-0.541796207,1,-1.864581704,1
2.215555668,-4.711714745,1,-2.235583305,1,-8.335573196,1,0.003591101,1,0.023668585,1,0.00401688,1,0.2486758679151535,1,-0.541702867,1,-1.864530325,1
2.219552755,-4.665696621,1,-2.235010386,1,-8.408827782,1,0.004084141,1,0.021387462,1,0.007993782,1,0.2486519366502762,1,-0.541617572,1,-1.864468575,1
2.22355175,-4.635568619,1,-2.138728142,1,-8.381102562,1,0.005258318,1,0.023594515,1,0.011184945,1,0.2486337870359421,1,-0.541538119,1,-1.864403009,1
2.227552652,-4.65583086,1,-2.146542072,1,-8.371358871,1,0.003550143,1,0.016669292,1,0.010662705,1,0.2486119717359543,1,-0.541469336,1,-1.864337564,1
2.231549978,-4.7202878,1,-2.233612061,1,-8.342327118,1,0.003394037,1,0.018534638,1,0.006706056,1,0.2485844641923904,1,-0.5414114,1,-1.864272356,1
2.235548735,-4.69126606,1,-2.305710793,1,-8.352583885,1,-0.002379988,1,0.016597727,1,0.00942086,1,0.2485440373420715,1,-0.541350305,1,-1.864211798,1
2.239549637,-4.684527397,1,-2.288380146,1,-8.384410858,1,-0.006753145,1,0.014063812,1,0.016615506,1,0.248490497,1,-0.541297436,1,-1.864132881,1
2.243546724,-4.641294003,1,-2.200285196,1,-8.412931442,1,-0.004980704,1,0.014258602,1,0.016157666,1,0.2484278231859207,1,-0.541258514,1,-1.864055991,1
2.247545719,-4.649215221,1,-2.11622262,1,-8.402112007,1,-0.004005231,1,0.006382167,1,0.012976558,1,0.2483745068311691,1,-0.541232944,1,-1.863969564,1
2.251546621,-4.689037323,1,-2.119230032,1,-8.385364532,1,-0.000920176,1,0.004335645,1,0.016520977,1,0.2483180463314056,1,-0.541218638,1,-1.863898993,1
2.25554347,-4.713917255,1,-2.09575057,1,-8.402701378,1,-0.001843905,1,0.006440124,1,0.010656363,1,0.2482682317495346,1,-0.541210651,1,-1.863829255,1
2.259542227,-4.753548145,1,-2.094684601,1,-8.397409439,1,0.000791819,1,0.002400444,1,0.007487892,1,0.2482463717460632,1,-0.541208327,1,-1.863776922,1
2.263543606,-4.626070976,1,-2.149359465,1,-8.361899376,1,0.002204389,1,0.002107661,1,0.013189055,1,0.2482351213693619,1,-0.541208863,1,-1.863729358,1
2.267540693,-4.649822712,1,-2.126088381,1,-8.417879105,1,0.00562681,1,-0.003501809,1,0.007306638,1,0.2482216358184814,1,-0.541226804,1,-1.863677382,1
2.271539688,-4.628756046,1,-2.10726428,1,-8.411645889,1,0.004634968,1,-0.006939672,1,0.009894429,1,0.248229444,1,-0.541262686,1,-1.863645554,1
2.275540829,-4.686727047,1,-2.146000624,1,-8.383265495,1,0.007405033,1,-0.008523016,1,0.009138681,1,0.2482378035783768,1,-0.541293204,1,-1.86361599,1
2.279537678,-4.71370554,1,-2.257082462,1,-8.354243279,1,0.005743446,1,-0.010471213,1,0.009406804,1,0.2482502162456512,1,-0.541341543,1,-1.863579631,1
2.283536911,-4.6241045,1,-2.232823372,1,-8.333935738,1,0.004841732,1,-0.010978351,1,0.009333284,1,0.2482605129480362,1,-0.541388333,1,-1.863549829,1
2.287537813,-4.67782259,1,-2.242017031,1,-8.373596191,1,0.005376189,1,-0.012834206,1,0.016838629,1,0.2482492625713348,1,-0.541454554,1,-1.86350596,1
2.291541338,-4.680675507,1,-2.189481735,1,-8.366705894,1,0.003224202,1,-0.016211713,1,0.01257115,1,0.2482448816299438,1,-0.541524112,1,-1.863462925,1
2.295540571,-4.672912121,1,-2.179383755,1,-8.365334511,1,0.004524888,1,-0.015493326,1,0.012247981,1,0.2482362240552902,1,-0.541600704,1,-1.863417029,1
2.299541473,-4.644142151,1,-2.24336195,1,-8.35440731,1,0.000391654,1,-0.019037973,1,0.018194403,1,0.2482211589813232,1,-0.541681051,1,-1.86337316,1
2.303539038,-4.718914032,1,-2.280967236,1,-8.351626396,1,-0.004730271,1,-0.018947348,1,0.018730558,1,0.2481840848922729,1,-0.541774392,1,-1.863307476,1
2.307538271,-4.680471897,1,-2.318779945,1,-8.3440485,1,-0.004018498,1,-0.018929727,1,0.018245749,1,0.2481352835893631,1,-0.541867495,1,-1.863241792,1
2.311539412,-4.710814953,1,-2.254360437,1,-8.325796127,1,-0.009179125,1,-0.017912656,1,0.019830655,1,0.2480793446302414,1,-0.541958332,1,-1.863177538,1
2.315536976,-4.655158997,1,-2.203283072,1,-8.294942856,1,-0.011585101,1,-0.021780858,1,0.022632353,1,0.2480000257492065,1,-0.54205668,1,-1.86310339,1
2.319535971,-4.713980198,1,-2.10435009,1,-8.361872673,1,-0.009178723,1,-0.019689849,1,0.019573845,1,0.2479200959205627,1,-0.542156339,1,-1.863017917,1
2.323537111,-4.691933632,1,-2.117311716,1,-8.343715668,1,-0.010072296,1,-0.019941818,1,0.021519864,1,0.2478439807891846,1,-0.542257905,1,-1.862941742,1
2.327534676,-4.664214134,1,-2.124545097,1,-8.32847023,1,-0.013519467,1,-0.022233812,1,0.024861064,1,0.2477583885192871,1,-0.542364299,1,-1.862854481,1
2.33153367,-4.722123623,1,-2.101728201,1,-8.384926796,1,-0.010079807,1,-0.0248332,1,0.02146155,1,0.247674897,1,-0.542479396,1,-1.86277163,1
2.335534573,-4.676116467,1,-2.142221212,1,-8.340811729,1,-0.007563152,1,-0.023844853,1,0.024915501,1,0.2476110756397247,1,-0.542596936,1,-1.862695932,1
2.33953166,-4.691523552,1,-2.204461813,1,-8.384052277,1,-0.006411504,1,-0.026971621,1,0.02372157,1,0.2475404888391495,1,-0.542719364,1,-1.862619042,1
2.343530655,-4.744241714,1,-2.148735762,1,-8.370589256,1,-0.005784569,1,-0.024565227,1,0.02128002,1,0.247479036,1,-0.542833269,1,-1.862542152,1
2.347532034,-4.691598892,1,-2.195966482,1,-8.361657143,1,-0.007987647,1,-0.022554088,1,0.030732622,1,0.2474088668823242,1,-0.542955577,1,-1.862459421,1
2.351529121,-4.671247959,1,-2.150552988,1,-8.401397705,1,-0.006909113,1,-0.028387815,1,0.024662569,1,0.2473393678665161,1,-0.543088734,1,-1.862378955,1
2.355528116,-4.662619114,1,-2.161913157,1,-8.429730415,1,-0.00728576,1,-0.031953081,1,0.028404174,1,0.2474366128444672,1,-0.542157292,1,-1.862007856,1
2.359529257,-4.738510609,1,-2.134918451,1,-8.387148857,1,-0.006672474,1,-0.032438647,1,0.025964973,1,0.2472250610589981,1,-0.5423522,1,-1.862558126,1
2.363526106,-4.72892952,1,-2.222952366,1,-8.367559433,1,-0.004115106,1,-0.037844695,1,0.027929803,1,0.2471688091754913,1,-0.542519093,1,-1.862478971,1
2.367525101,-4.741096973,1,-2.219417334,1,-8.378786087,1,-0.007271904,1,-0.035041608,1,0.027894776,1,0.247108132,1,-0.542691469,1,-1.862389445,1
2.371526241,-4.698045254,1,-2.271431923,1,-8.362560272,1,-0.005747752,1,-0.039876781,1,0.031235322,1,0.2470333427190781,1,-0.542873025,1,-1.862309217,1
2.37552309,-4.698831558,1,-2.218731642,1,-8.392286301,1,-0.010365003,1,-0.040680401,1,0.030613944,1,0.2469533532857895,1,-0.543055594,1,-1.862222075,1
2.379522085,-4.671372414,1,-2.185811996,1,-8.381456375,1,-0.011567068,1,-0.043414578,1,0.037596148,1,0.2468587756156921,1,-0.543255448,1,-1.862114787,1
2.383522987,-4.692091465,1,-2.21233511,1,-8.375041962,1,-0.013975936,1,-0.049107663,1,0.036880832,1,0.2467633187770844,1,-0.543462813,1,-1.862008333,1
2.387520313,-4.76168108,1,-2.211953163,1,-8.366746902,1,-0.009450124,1,-0.048714217,1,0.038873069,1,0.2466614246368408,1,-0.543686271,1,-1.861898541,1
2.391519547,-4.70846796,1,-2.177244425,1,-8.388168335,1,-0.013305963,1,-0.048637558,1,0.03489089,1,0.2465633749961853,1,-0.543908298,1,-1.861781359,1
2.395520449,-4.715496063,1,-2.23331809,1,-8.367025375,1,-0.015378099,1,-0.052926585,1,0.042390745,1,0.2464490532875061,1,-0.54414475,1,-1.861656189,1
2.399517775,-4.684179306,1,-2.132140398,1,-8.406713486,1,-0.008300632,1,-0.057516795,1,0.046374306,1,0.2463287711143494,1,-0.544409871,1,-1.861521721,1
2.403516769,-4.710175991,1,-2.162803411,1,-8.410865784,1,-0.008317829,1,-0.061337728,1,0.045747425,1,0.2462132722139359,1,-0.544686496,1,-1.861382484,1
2.407517672,-4.714499474,1,-2.163320541,1,-8.3787117,1,-0.012191716,1,-0.064995863,1,0.049210086,1,0.24609898,1,-0.544976294,1,-1.861245155,1
2.411520958,-4.69896698,1,-2.115215778,1,-8.417701721,1,-0.012176769,1,-0.06851384,1,0.050093301,1,0.2459849268198013,1,-0.545286834,1,-1.861105561,1
2.415520191,-4.684760094,1,-2.11141324,1,-8.42432785,1,-0.008653917,1,-0.074786574,1,0.051656127,1,0.2458679974079132,1,-0.545616448,1,-1.860962033,1
2.41952157,-4.661813736,1,-2.084860802,1,-8.438360214,1,-0.007566776,1,-0.078046657,1,0.050306112,1,0.2457581758499146,1,-0.545958757,1,-1.860821247,1
2.423518896,-4.679121017,1,-2.113642454,1,-8.441979408,1,-0.004564156,1,-0.086096115,1,0.049592037,1,0.2456629425287247,1,-0.546323657,1,-1.86068511,1
2.427517891,-4.668930054,1,-2.052788496,1,-8.466274261,1,0.001795004,1,-0.090102769,1,0.050162558,1,0.2455877512693405,1,-0.546711087,1,-1.860556841,1
2.431519508,-4.577209949,1,-2.333229303,1,-8.43249321,1,-0.002621615,1,-0.100218982,1,0.05346508,1,0.245528519,1,-0.54713434,1,-1.860431314,1
2.435517073,-4.627026081,1,-2.236767054,1,-8.428431511,1,0.001235223,1,-0.108148128,1,0.054285675,1,0.2454419434070587,1,-0.547594368,1,-1.860284686,1
2.439516068,-4.587975979,1,-2.231024265,1,-8.498128891,1,-0.000208593,1,-0.118806526,1,0.05810488,1,0.2453651577234268,1,-0.548083961,1,-1.860154033,1
2.443517447,-4.577444553,1,-2.136808634,1,-8.585463524,1,0.001677586,1,-0.125132382,1,0.059196189,1,0.2453046888113022,1,-0.548612237,1,-1.860033393,1
2.447514534,-4.57205534,1,-2.257107258,1,-8.570336342,1,-0.001193543,1,-0.13423121,1,0.061291456,1,0.2452421188354492,1,-0.549172819,1,-1.859912872,1
2.451513767,-4.507198811,1,-2.274800539,1,-8.633158684,1,0.000500886,1,-0.149489701,1,0.06446714,1,0.2451744824647903,1,-0.549784899,1,-1.85978353,1
2.455514908,-4.510791779,1,-2.419072628,1,-8.715943336,1,0.008482179,1,-0.167501807,1,0.07041721,1,0.2451194822788239,1,-0.550463498,1,-1.859650731,1
2.459511757,-4.498426437,1,-2.382105827,1,-8.700670242,1,0.000292061,1,-0.181690425,1,0.079840258,1,0.2450645416975021,1,-0.551214576,1,-1.859506726,1
2.46351099,-4.499512672,1,-2.400386572,1,-8.754145622,1,0.002406653,1,-0.199190408,1,0.080051951,1,0.2449908256530762,1,-0.55203414,1,-1.859354854,1
2.467512131,-4.451901436,1,-2.403675318,1,-8.860015869,1,0.002940099,1,-0.226097137,1,0.090033792,1,0.2449192255735397,1,-0.552935362,1,-1.859195471,1
2.47150898,-4.492140293,1,-2.482593536,1,-8.834025383,1,-0.000784239,1,-0.247063667,1,0.095765337,1,0.2448438704013824,1,-0.55394572,1,-1.859037876,1
2.475507975,-4.455609322,1,-2.324911594,1,-8.902932167,1,-0.003246098,1,-0.275791705,1,0.1024853959679604,1,0.2447570115327835,1,-0.555061281,1,-1.858880639,1
2.479508877,-4.251471043,1,-2.198718548,1,-8.979137421,1,0.008278075,1,-0.302129149,1,0.1150170266628265,1,0.2446765750646591,1,-0.556288064,1,-1.858711243,1
2.483506203,-4.452087402,1,-2.320648432,1,-8.917963028,1,0.000152373,1,-0.333488166,1,0.1218973845243454,1,0.2446092516183853,1,-0.557636917,1,-1.858547449,1
2.487505198,-4.524175644,1,-2.098845005,1,-9.054881096,1,0.022349285,1,-0.361089945,1,0.1300017088651657,1,0.2445465922355652,1,-0.559103727,1,-1.858367682,1
2.4915061,-4.231384754,1,-1.656976938,1,-9.306534767,1,0.067105882,1,-0.397566855,1,0.1238425448536873,1,0.2446317374706268,1,-0.56070745,1,-1.858208179,1
2.495503426,-4.462429523,1,-1.72201252,1,-9.211047173,1,0.090606891,1,-0.4413203,1,0.1191932857036591,1,0.2449100613594055,1,-0.562461793,1,-1.858130932,1
2.49950242,-4.421230316,1,-1.61137712,1,-9.438199997,1,0.1084345281124115,1,-0.473832667,1,0.1226999536156654,1,0.2452801764011383,1,-0.564356327,1,-1.858095884,1
2.503503561,-4.210788727,1,-1.908789277,1,-9.616908073,1,0.1445080637931824,1,-0.521858037,1,0.1213464587926865,1,0.2458103150129318,1,-0.566407263,1,-1.858106613,1
2.507500887,-3.80360961,1,-2.101621866,1,-9.984980583,1,0.1602868735790253,1,-0.594485819,1,0.1335982382297516,1,0.2464417219161987,1,-0.568696976,1,-1.858159304,1
2.511499882,-3.783228874,1,-2.117795706,1,-10.29730034,1,0.2030145078897476,1,-0.669460595,1,0.13714838,1,0.2472275644540787,1,-0.571269631,1,-1.858261347,1
2.515501261,-3.511482239,1,-2.47600174,1,-10.71528435,1,0.1906515508890152,1,-0.766990244,1,0.1444359719753265,1,0.2481287717819214,1,-0.574177623,1,-1.858459473,1
2.519499063,-3.130130291,1,-2.075251102,1,-11.26774883,1,0.2054626047611237,1,-0.90089047,1,0.156167746,1,0.2490546554327011,1,-0.57754916,1,-1.85874331,1
2.523498058,-2.887902498,1,-1.734872341,1,-11.64430809,1,0.2813682854175568,1,-1.046883225,1,0.1828892081975937,1,0.25020963,1,-0.58147794,1,-1.859107137,1
2.52749896,-2.506914616,1,-2.730714321,1,-12.44037628,1,0.3290408551692963,1,-1.250653267,1,0.2404555976390839,1,0.2516831159591675,1,-0.58612752,1,-1.8595016,1
2.53150177,-2.254878283,1,-4.559125423,1,-12.4047451,1,0.2915465533733368,1,-1.48112309,1,0.3295380771160126,1,0.25311625,1,-0.591686308,1,-1.859827638,1
2.535501003,-2.163074017,1,-5.743346691,1,-11.888587,1,0.2848660349845886,1,-1.703690171,1,0.4620121419429779,1,0.2543057501316071,1,-0.598255217,1,-1.859930754,1
2.539502382,-2.259017944,1,-6.827391148,1,-10.51914787,1,0.3577049076557159,1,-1.835897088,1,0.6371688842773438,1,0.255354106,1,-0.60567379,1,-1.859528542,1
2.54349947,-3.747802734,1,-6.764218807,1,-10.42726612,1,0.458070695,1,-1.898788095,1,0.8204489946365356,1,0.2563466727733612,1,-0.613646865,1,-1.858400345,1
2.547498703,-5.509841442,1,-5.37206316,1,-10.44834328,1,0.5324287414550781,1,-1.924687386,1,0.9241904616355896,1,0.2572835981845856,1,-0.621966243,1,-1.85658896,1
2.551500082,-6.203151703,1,-5.954414368,1,-11.25083828,1,0.5151085257530212,1,-1.928821206,1,0.9644035696983337,1,0.2582158744335175,1,-0.630368531,1,-1.854527354,1
2.555497169,-6.216002464,1,-7.050178051,1,-10.80014706,1,0.3774120807647705,1,-1.948115587,1,0.9690401554107666,1,0.2586654424667358,1,-0.638845325,1,-1.852317333,1
2.559496403,-4.348751068,1,-6.876675606,1,-11.05590439,1,0.2514775097370148,1,-1.994206309,1,0.958908737,1,0.2586526274681091,1,-0.647448182,1,-1.850192308,1
2.563497543,-5.074745655,1,-7.391719818,1,-11.40484142,1,0.079559915,1,-2.07028389,1,1.004466891288757,1,0.2580333948135376,1,-0.656317472,1,-1.848044634,1
2.567494869,-6.635853291,1,-7.149220467,1,-11.35028553,1,-0.06822253,1,-2.117488623,1,1.061927914619446,1,0.2565725147724152,1,-0.665478587,1,-1.845672011,1
2.571493864,-7.497385979,1,-6.586002827,1,-11.95987511,1,-0.175906911,1,-2.122665405,1,1.108509182929993,1,0.2544450163841248,1,-0.674778581,1,-1.843039513,1
2.575495005,-6.898902893,1,-6.277393818,1,-11.23256111,1,-0.258822292,1,-2.11785531,1,1.189045786857605,1,0.2517051696777344,1,-0.684141636,1,-1.840064049,1
2.579492331,-7.167294979,1,-7.033098698,1,-10.71069622,1,-0.412018418,1,-2.151840687,1,1.31196928,1,0.2481198459863663,1,-0.693639219,1,-1.836518764,1
2.583491564,-6.847993851,1,-6.580817699,1,-10.39265728,1,-0.561539233,1,-2.175090075,1,1.380284905433655,1,0.2435343116521835,1,-0.703355908,1,-1.832415938,1
2.587492466,-7.890403748,1,-6.472656727,1,-11.21029472,1,-0.667157471,1,-2.14645052,1,1.408186197280884,1,0.2382183521986008,1,-0.713084638,1,-1.828016043,1
2.591489553,-9.34680748,1,-7.589777946,1,-11.33147812,1,-0.811680555,1,-2.09087801,1,1.482393741607666,1,0.2321168333292007,1,-0.72268188,1,-1.823193669,1
2.59548831,-8.663841248,1,-8.666755676,1,-11.04360676,1,-1.077717304,1,-2.014470339,1,1.576714277267456,1,0.2247034907341003,1,-0.732055545,1,-1.81768012,1
2.599489212,-7.126699924,1,-8.322305679,1,-10.81459522,1,-1.358500242,1,-1.98987639,1,1.613420605659485,1,0.2157643586397171,1,-0.741255283,1,-1.811635852,1
2.603486538,-8.030690193,1,-6.971684933,1,-10.77973175,1,-1.563619375,1,-1.942772985,1,1.666930556297302,1,0.2055118978023529,1,-0.750336766,1,-1.805165052,1
2.607485533,-13.60939598,1,-2.753103971,1,-12.20052147,1,-1.61737442,1,-1.721746802,1,1.633014678955078,1,0.1942898631095886,1,-0.758944988,1,-1.798880696,1
2.611486435,-13.73252392,1,-0.953281224,1,-13.7550211,1,-1.439335823,1,-1.332167625,1,1.519027709960938,1,0.183289647,1,-0.766128302,1,-1.79189074,1
2.615483761,-11.78742695,1,-1.824005246,1,-14.22270012,1,-1.160291195,1,-0.98142463,1,1.411970019340515,1,0.1733087301254272,1,-0.77170366,1,-1.78501904,1
2.619482279,-8.540243149,1,-3.296602488,1,-13.71869373,1,-0.952824354,1,-0.67522198,1,1.309222698,1,0.1644085943698883,1,-0.775882244,1,-1.778291941,1
2.623483419,-5.622392654,1,-4.389787197,1,-12.82483482,1,-0.854877651,1,-0.464870155,1,1.212937355041504,1,0.1562864482402802,1,-0.778906167,1,-1.771831632,1
2.627480507,-4.376973629,1,-5.007911682,1,-12.51303864,1,-0.811694264,1,-0.341807902,1,1.169496417045593,1,0.148558035,1,-0.781207025,1,-1.765573025,1
2.63147974,-2.766949892,1,-5.965225697,1,-12.0584774,1,-0.834743083,1,-0.265426517,1,1.169929981231689,1,0.1408553272485733,1,-0.783072591,1,-1.759297132,1
2.635480881,-1.724039078,1,-6.369487762,1,-11.48519039,1,-0.913266003,1,-0.215709716,1,1.164334893226624,1,0.1328947395086288,1,-0.784650505,1,-1.752951622,1
2.639477968,-0.832552433,1,-6.33314085,1,-11.07067394,1,-0.999035776,1,-0.187614009,1,1.157866477966309,1,0.124581903,1,-0.786049247,1,-1.746597648,1
2.643477201,-0.451053053,1,-6.264320374,1,-10.74080467,1,-1.09078145,1,-0.157947361,1,1.138904094696045,1,0.1159019619226456,1,-0.787282586,1,-1.740251899,1
2.647478342,-0.176968023,1,-5.917820454,1,-10.69825363,1,-1.15975678,1,-0.107321545,1,1.115100741386414,1,0.1069470345973969,1,-0.788307428,1,-1.733983159,1
2.651481152,0.014101385,1,-5.521973133,1,-10.72525024,1,-1.190781951,1,-0.054993395,1,1.075325489044189,1,0.097878702,1,-0.789081335,1,-1.727835178,1
2.655480385,0.3252377212047577,1,-5.024794579,1,-10.7637167,1,-1.188884377,1,0.019731993,1,1.014548182487488,1,0.088921078,1,-0.789544821,1,-1.721936464,1
2.659481287,0.6663524508476257,1,-4.46685648,1,-10.73961926,1,-1.137812972,1,0.098342545,1,0.9506514668464661,1,0.080283962,1,-0.78964746,1,-1.716347933,1
2.663478851,0.9957249760627747,1,-3.944660902,1,-10.70621204,1,-1.051871538,1,0.1825975775718689,1,0.8664999604225159,1,0.072205596,1,-0.78936708,1,-1.711139798,1
2.667478085,1.342095732688904,1,-3.61978364,1,-10.58604717,1,-0.929867387,1,0.283563644,1,0.7867487668991089,1,0.064846456,1,-0.788663387,1,-1.70636344,1
2.671479225,1.807387948036194,1,-3.433792114,1,-10.47646427,1,-0.796322882,1,0.3698947727680206,1,0.6989716291427612,1,0.058333565,1,-0.787544847,1,-1.702041268,1
2.675476789,2.237072944641113,1,-3.40728116,1,-10.4046936,1,-0.653260529,1,0.4535365700721741,1,0.6146460771560669,1,0.052718125,1,-0.786038458,1,-1.69820261,1
2.679475784,2.648863077163696,1,-3.434975624,1,-10.25231934,1,-0.529570699,1,0.5190050005912781,1,0.5274344086647034,1,0.047973372,1,-0.784204841,1,-1.694833279,1
2.683476925,3.009048223495483,1,-3.541991472,1,-10.14297771,1,-0.413114518,1,0.5837252736091614,1,0.4397912323474884,1,0.044077232,1,-0.78208518,1,-1.691961884,1
2.687474251,3.222681283950806,1,-3.74815774,1,-10.05917168,1,-0.313544124,1,0.6353020668029785,1,0.3535429537296295,1,0.040948927,1,-0.779711366,1,-1.689569235,1
2.691473246,3.383887291,1,-3.9305439,1,-9.91535759,1,-0.243778169,1,0.6802582740783691,1,0.2670711278915405,1,0.038529754,1,-0.777129054,1,-1.687693119,1
2.695474148,3.437494993209839,1,-4.011214733,1,-9.826656342,1,-0.198639169,1,0.7263470888137817,1,0.1846432685852051,1,0.03665971,1,-0.774354517,1,-1.686286211,1
2.699471474,3.417431831359863,1,-4.01889801,1,-9.762946129,1,-0.17359446,1,0.7645227909088135,1,0.087448671,1,0.03528719,1,-0.771396279,1,-1.685384631,1
2.70347023,3.330538988113403,1,-4.002924919,1,-9.685137749,1,-0.146206573,1,0.8039114475250244,1,-0.00340821,1,0.03438022,1,-0.768269956,1,-1.68499434,1
2.707471371,3.321835756,1,-3.89101243,1,-9.620621681,1,-0.133393884,1,0.847900391,1,-0.092554465,1,0.033901446,1,-0.764958143,1,-1.685098529,1
2.71146822,3.327466011047363,1,-3.802470922,1,-9.59710598,1,-0.112741932,1,0.8877737522125244,1,-0.176160261,1,0.033812504,1,-0.761473238,1,-1.685676575,1
2.715467453,3.291504144668579,1,-3.633019924,1,-9.558027267,1,-0.09365005,1,0.9178823828697205,1,-0.260973066,1,0.034117125,1,-0.757821977,1,-1.686716318,1
2.719468594,3.225904941558838,1,-3.440371275,1,-9.554667473,1,-0.0770602,1,0.9548258781433105,1,-0.344769865,1,0.034796871,1,-0.754028916,1,-1.688215971,1
2.723465443,3.157662868499756,1,-3.169368029,1,-9.547502518,1,-0.049548469,1,0.9810172319412231,1,-0.425456941,1,0.035857461,1,-0.750101805,1,-1.690128207,1
2.727464437,3.077833414077759,1,-2.879012823,1,-9.585090637,1,-0.018874586,1,1.012938857078552,1,-0.505425453,1,0.037304297,1,-0.746046722,1,-1.692468047,1
2.731465578,2.941155433654785,1,-2.794591665,1,-9.598412514,1,0.004910377,1,1.037807464599609,1,-0.586158216,1,0.039135888,1,-0.741870642,1,-1.695215702,1
2.735462427,2.763509035110474,1,-2.740825176,1,-9.689190865,1,0.025234701,1,1.064242959022522,1,-0.669573963,1,0.041339166,1,-0.737563729,1,-1.698385477,1
2.739461422,2.507647752761841,1,-2.781659842,1,-9.723379135,1,0.040711019,1,1.096654534339905,1,-0.746512115,1,0.04387876,1,-0.73312819,1,-1.701957703,1
2.743462324,2.208340883255005,1,-2.764837265,1,-9.838000298,1,0.057447411,1,1.136694073677063,1,-0.819287121,1,0.046695333,1,-0.728536367,1,-1.705886364,1
2.74745965,1.878344058990479,1,-2.754962921,1,-9.874756813,1,0.064984597,1,1.175276875495911,1,-0.896163762,1,0.049791284,1,-0.72375524,1,-1.710184813,1
2.751458883,1.418005943,1,-2.588679552,1,-9.957588196,1,0.067347795,1,1.226950526237488,1,-0.975268781,1,0.053123821,1,-0.718762517,1,-1.714829087,1
2.755459785,0.9631291627883911,1,-2.435747385,1,-10.05068016,1,0.075289242,1,1.291654586791992,1,-1.057584167,1,0.056706283,1,-0.713509321,1,-1.71984458,1
2.75945735,0.5745829939842224,1,-2.297425032,1,-10.09259129,1,0.085024968,1,1.363124370574951,1,-1.138647318,1,0.060520831,1,-0.707956672,1,-1.725214362,1
2.763456345,0.1516165137290955,1,-2.054942131,1,-10.1507225,1,0.1097124516963959,1,1.442488193511963,1,-1.212213397,1,0.064601712,1,-0.70206064,1,-1.730912924,1
2.767457724,-0.20968166,1,-1.870547891,1,-10.21496105,1,0.141471192,1,1.529453158378601,1,-1.28312552,1,0.068945788,1,-0.695793152,1,-1.736892939,1
2.77146101,-0.624457896,1,-1.669448137,1,-10.25689697,1,0.1791215986013412,1,1.622864723205566,1,-1.351684809,1,0.0735792,1,-0.689123034,1,-1.74314487,1
2.77546072,-1.062692165,1,-1.586671948,1,-10.1958971,1,0.2256074547767639,1,1.720369458198547,1,-1.41224432,1,0.078494459,1,-0.6820333,1,-1.749621272,1
2.779461861,-1.4084723,1,-1.561226726,1,-10.12084579,1,0.2741909623146057,1,1.821354866027832,1,-1.467315197,1,0.0836583,1,-0.674502492,1,-1.756263256,1
2.783459425,-1.629938364,1,-1.563707709,1,-10.00575256,1,0.3074332773685455,1,1.919076323509216,1,-1.512842417,1,0.089021258,1,-0.666537583,1,-1.763023496,1
2.78745842,-1.853407145,1,-1.658633709,1,-9.941124916,1,0.3355574905872345,1,2.009598494,1,-1.547198415,1,0.094500467,1,-0.658159137,1,-1.769851565,1
2.79145956,-1.975848913,1,-1.649743676,1,-9.754914284,1,0.36408478,1,2.092857122421265,1,-1.56617403,1,0.1000395640730858,1,-0.649390578,1,-1.776662946,1
2.795456886,-2.137135744,1,-1.530825615,1,-9.651402473,1,0.3923280239105225,1,2.163756608963013,1,-1.575219393,1,0.1055927202105522,1,-0.640274048,1,-1.783394217,1
2.799455643,-2.342414856,1,-1.45707202,1,-9.542304993,1,0.4162327647209167,1,2.230514526367188,1,-1.571914673,1,0.1111176684498787,1,-0.630854309,1,-1.789988041,1
2.803457022,-2.52598691,1,-1.334996581,1,-9.404053688,1,0.4495518505573273,1,2.299311161,1,-1.564658999,1,0.1166139990091324,1,-0.621129274,1,-1.796416044,1
2.807454348,-2.731107712,1,-1.301760793,1,-9.255717278,1,0.4825031161308289,1,2.355324983596802,1,-1.551244259,1,0.1220864877104759,1,-0.611150086,1,-1.802650452,1
2.811453342,-2.885657549,1,-1.280071378,1,-9.127072334,1,0.5223671197891235,1,2.400885820388794,1,-1.535665274,1,0.1275169998407364,1,-0.600952446,1,-1.808653116,1
2.815454483,-3.091521025,1,-1.315662146,1,-9.012337685,1,0.5607898831367493,1,2.444769620895386,1,-1.512142777,1,0.1329273730516434,1,-0.590541601,1,-1.814429641,1
2.819451332,-3.304512501,1,-1.335282922,1,-8.876477242,1,0.5915050506591797,1,2.482549905776978,1,-1.487517953,1,0.1382890641689301,1,-0.579964161,1,-1.819957972,1
2.823450565,-3.363749504,1,-1.332924724,1,-8.768362045,1,0.6262732744216919,1,2.506644248962402,1,-1.469231486,1,0.1436084061861038,1,-0.569251955,1,-1.825257421,1
2.827451944,-3.521584749,1,-1.290680885,1,-8.698032379,1,0.6596055030822754,1,2.527338027954102,1,-1.452506423,1,0.1488995552062988,1,-0.558435023,1,-1.830352664,1
2.83144927,-3.642589569,1,-1.295443177,1,-8.577523232,1,0.6881536841392517,1,2.535284042358398,1,-1.436335683,1,0.154171422,1,-0.547554255,1,-1.835261822,1
2.835448265,-3.852596998,1,-1.33213079,1,-8.510778427,1,0.7249806523323059,1,2.544616460800171,1,-1.429879546,1,0.1594535410404205,1,-0.536619663,1,-1.840016603,1
2.839449406,-4.046198368,1,-1.375487685,1,-8.460348129,1,0.7561555504798889,1,2.548739910125732,1,-1.423550606,1,0.1647486090660095,1,-0.525643826,1,-1.84464097,1
2.843446493,-4.259226799,1,-1.441841602,1,-8.342457771,1,0.7919918298721313,1,2.54835844,1,-1.421205521,1,0.1700866669416428,1,-0.514646113,1,-1.849146128,1
2.847445726,-4.496298313,1,-1.513295054,1,-8.260770798,1,0.8182442188262939,1,2.543238401412964,1,-1.418199301,1,0.1754505932331085,1,-0.50363946,1,-1.853552222,1
2.851446867,-4.698824883,1,-1.551560402,1,-8.150243759,1,0.8427325487136841,1,2.546871423721313,1,-1.427662134,1,0.180845708,1,-0.492614597,1,-1.857878566,1
2.855444193,-4.892296314,1,-1.554637909,1,-8.090531349,1,0.8710543513298035,1,2.542888164520264,1,-1.436924696,1,0.1862756013870239,1,-0.481559426,1,-1.862149835,1
2.859443188,-4.975269318,1,-1.621681452,1,-8.04031086,1,0.8943732380867004,1,2.536400556564331,1,-1.450168729,1,0.1943069398403168,1,-0.455644667,1,-1.863802671,1
2.863444567,-5.093820572,1,-1.706995368,1,-8.020277023,1,0.909106433,1,2.525192975997925,1,-1.466029525,1,0.199729249,1,-0.444570363,1,-1.867965698,1
2.867441893,-5.190641403,1,-1.784281135,1,-7.937074184,1,0.9228020310401917,1,2.513342380523682,1,-1.489527106,1,0.2051634341478348,1,-0.433510691,1,-1.872129083,1
2.871440887,-5.24870348,1,-1.835256457,1,-7.907150745,1,0.9246400594711304,1,2.491199493408203,1,-1.513786077,1,0.2105921357870102,1,-0.422474891,1,-1.876312971,1
2.875442266,-5.310556412,1,-1.872077823,1,-7.876600742,1,0.9211015105247498,1,2.463369846343994,1,-1.542785406,1,0.215999648,1,-0.411492229,1,-1.880550742,1
2.879439354,-5.387577057,1,-2.035323143,1,-7.81311512,1,0.9086911082267761,1,2.432281017303467,1,-1.566805959,1,0.2213632166385651,1,-0.400579393,1,-1.88484931,1
2.883438349,-5.560931206,1,-2.16203022,1,-7.771109581,1,0.8948060274124146,1,2.396491289138794,1,-1.59452641,1,0.2266516834497452,1,-0.38975659,1,-1.889212728,1
2.887440205,-5.674658775,1,-2.325562477,1,-7.744998932,1,0.8769018054008484,1,2.358896493911743,1,-1.61670804,1,0.2318601161241531,1,-0.37903595,1,-1.893627286,1
2.891443253,-6.006308556,1,-2.478319168,1,-7.779630184,1,0.8621953129768372,1,2.322477340698242,1,-1.63869381,1,0.2369636744260788,1,-0.368409753,1,-1.898089051,1
2.895442486,-6.324389458,1,-2.532399178,1,-7.799862385,1,0.844180703,1,2.297996997833252,1,-1.656877041,1,0.2419785261154175,1,-0.357874811,1,-1.902586699,1
2.899443388,-6.621160984,1,-2.372147322,1,-8.015151024,1,0.8306766152381897,1,2.268539428710938,1,-1.674859285,1,0.2469005435705185,1,-0.347406119,1,-1.907126546,1
2.903440475,-7.037552357,1,-2.223009586,1,-8.142554283,1,0.8296264410018921,1,2.242300510406494,1,-1.704926372,1,0.2517557144165039,1,-0.336994708,1,-1.911717772,1
2.907439947,-7.526767254,1,-1.943578005,1,-8.206838608,1,0.8424645066261292,1,2.230368137359619,1,-1.733017921,1,0.2566086649894714,1,-0.326603532,1,-1.916383147,1
2.911441088,-8.031489372,1,-1.692793727,1,-8.34762764,1,0.8730327486991882,1,2.241571187973022,1,-1.760719061,1,0.2615187466144562,1,-0.316165417,1,-1.921086073,1
2.915438414,-8.478680611,1,-1.539839029,1,-8.451489449,1,0.9108944535255432,1,2.264654874801636,1,-1.786777854,1,0.2665159106254578,1,-0.305617571,1,-1.925810695,1
2.919437408,-8.773011208,1,-1.440793276,1,-8.459101677,1,0.9501127004623413,1,2.303970336914063,1,-1.796701074,1,0.2716209590435028,1,-0.294913113,1,-1.93050313,1
2.923438311,-8.908106804,1,-1.257582188,1,-8.471871376,1,0.9861496686935425,1,2.344192266464233,1,-1.790487051,1,0.2768017053604126,1,-0.284023702,1,-1.935087562,1
2.927435875,-8.807917595,1,-1.043554664,1,-8.37810421,1,1.02267313,1,2.376245737075806,1,-1.762069106,1,0.2820345163345337,1,-0.272986591,1,-1.93949008,1
2.931435108,-8.707167625,1,-0.726096809,1,-8.251328468,1,1.065237283706665,1,2.398986577987671,1,-1.724497557,1,0.2873032689094543,1,-0.261854738,1,-1.943647623,1
2.93543601,-8.514241219,1,-0.641754568,1,-8.035762787,1,1.117844462394714,1,2.409398317337036,1,-1.656844258,1,0.2926455736160278,1,-0.250707954,1,-1.94750464,1
2.939433098,-8.389225006,1,-0.609377623,1,-7.856852055,1,1.163608551025391,1,2.407762289047241,1,-1.575844049,1,0.298054427,1,-0.239604294,1,-1.950986385,1
2.943432093,-8.097523689,1,-0.588071465,1,-7.718766689,1,1.208904027938843,1,2.388712644577026,1,-1.480626822,1,0.303512305,1,-0.228624731,1,-1.954064727,1
2.947433233,-7.700887203,1,-0.454959571,1,-7.651900291,1,1.243862033,1,2.346427917480469,1,-1.376528025,1,0.3090012073516846,1,-0.217853695,1,-1.956714272,1
2.951430321,-7.489160538,1,-0.160054326,1,-7.642908096,1,1.270478844642639,1,2.296553134918213,1,-1.277790427,1,0.3145097494125366,1,-0.20738858,1,-1.958972096,1
2.955429077,-7.655612946,1,-0.094755076,1,-7.472307205,1,1.28663969,1,2.236634016036987,1,-1.197836041,1,0.3200139403343201,1,-0.197231859,1,-1.960884094,1
2.959430218,-7.818173409,1,-0.257740319,1,-7.405195236,1,1.279955744743347,1,2.188672542572021,1,-1.118628621,1,0.3254562616348267,1,-0.187365204,1,-1.962490797,1
2.963427305,-7.801745415,1,-0.532534063,1,-7.34001112,1,1.251638293266296,1,2.134238481521606,1,-1.043517113,1,0.330768883,1,-0.177786887,1,-1.963827252,1
2.9674263,-7.888001919,1,-0.74660033,1,-7.273915291,1,1.190599083900452,1,2.081414222717285,1,-0.975740373,1,0.3358272910118103,1,-0.168492898,1,-1.964897037,1
2.971427679,-7.988967419,1,-0.77964884,1,-7.286166668,1,1.117462396621704,1,2.027956962585449,1,-0.922625721,1,0.3405862748622894,1,-0.159481034,1,-1.965753675,1
2.975425005,-8.075637817,1,-0.673587978,1,-7.30492115,1,1.039336919784546,1,1.975625276565552,1,-0.866883218,1,0.3449965119361877,1,-0.150739089,1,-1.966441631,1
2.979424,-8.108433723,1,-0.596276999,1,-7.230233669,1,0.9679397940635681,1,1.918210506439209,1,-0.822810948,1,0.3490899205207825,1,-0.14226006,1,-1.966975212,1
2.983425379,-8.174675941,1,-0.583747149,1,-7.085916996,1,0.8992509245872498,1,1.868893265724182,1,-0.781447291,1,0.352878213,1,-0.134040296,1,-1.967389822,1
2.987422466,-8.244446754,1,-0.620294929,1,-6.865592957,1,0.8362953066825867,1,1.811387538909912,1,-0.733781099,1,0.3563797175884247,1,-0.126082212,1,-1.967684388,1
2.9914217,-8.125572205,1,-0.54504317,1,-6.616270542,1,0.7832008600234985,1,1.759357094764709,1,-0.686238408,1,0.3596379160881042,1,-0.118387461,1,-1.967848301,1
2.995422602,-7.961291313,1,-0.450670034,1,-6.361571789,1,0.7494783401489258,1,1.685911536216736,1,-0.630179226,1,0.3627080321311951,1,-0.111009784,1,-1.967878222,1
2.999419928,-7.79474926,1,-0.340807021,1,-6.029233456,1,0.7222089767456055,1,1.602881432,1,-0.566363335,1,0.3656377196311951,1,-0.104006849,1,-1.967769384,1
3.003419161,-7.608870029,1,-0.252412289,1,-5.776881218,1,0.7192783355712891,1,1.499784469604492,1,-0.497639,1,0.3684949278831482,1,-0.097432576,1,-1.9675318,1
3.007420778,-7.546078682,1,-0.178415462,1,-5.465715408,1,0.726198673,1,1.393983125686646,1,-0.42577216,1,0.3713484406471252,1,-0.091361552,1,-1.967151046,1
3.011423826,-7.589925289,1,-0.098818906,1,-5.171102524,1,0.7428591847419739,1,1.276471614837646,1,-0.347148508,1,0.3742380738258362,1,-0.085819647,1,-1.966638207,1
3.015423298,-7.536377907,1,-0.166923106,1,-4.95166111,1,0.7615509033203125,1,1.157896041870117,1,-0.277016968,1,0.3771966695785522,1,-0.080830283,1,-1.966006637,1
3.019424438,-7.553378105,1,-0.458218187,1,-4.769235134,1,0.7676694393157959,1,1.032562255859375,1,-0.206161156,1,0.38019383,1,-0.076398432,1,-1.965281129,1
3.023422003,-7.833607197,1,-0.330969095,1,-4.76599884,1,0.7692317366600037,1,0.9059956073760986,1,-0.145884335,1,0.383208692,1,-0.072535738,1,-1.964491725,1
3.027421236,-7.943511486,1,-0.509658456,1,-4.730448246,1,0.7657740712165833,1,0.7888994812965393,1,-0.087907955,1,0.3862197995185852,1,-0.06922216,1,-1.963640809,1
3.031422377,-8.096529007,1,-0.490006268,1,-4.776968479,1,0.7393883466720581,1,0.6677702069282532,1,-0.045365322,1,0.3891743421554565,1,-0.066425703,1,-1.962786436,1
3.035419941,-8.349471092,1,-0.469441265,1,-4.826091766,1,0.7127256989479065,1,0.5570493340492249,1,-0.015497532,1,0.3920287489891052,1,-0.064117186,1,-1.961962342,1
3.039419174,-8.560027122,1,-0.549543262,1,-4.83389616,1,0.667407751,1,0.4618259966373444,1,0.001200614,1,0.394746333,1,-0.062222641,1,-1.961208105,1
3.043420553,-8.525891304,1,-0.625566781,1,-4.825577736,1,0.6104873418807983,1,0.3697194159030914,1,0.014021483,1,0.3972645998001099,1,-0.06069776,1,-1.960533857,1
3.047418594,-8.480193138,1,-0.714727342,1,-4.875967979,1,0.5320760607719421,1,0.2750723958015442,1,0.012466164,1,0.39952752,1,-0.059523806,1,-1.959985852,1
3.051417589,-8.43802166,1,-0.778787613,1,-4.776656628,1,0.4447440207004547,1,0.1667608171701431,1,0.019380178,1,0.4014672338962555,1,-0.058733504,1,-1.959567547,1
3.055419445,-8.37191391,1,-0.854430676,1,-4.628755093,1,0.3430731296539307,1,0.057468489,1,0.021335639,1,0.4030354917049408,1,-0.058347948,1,-1.959305048,1
3.059417248,-8.413643837,1,-0.866765916,1,-4.496106148,1,0.2401991039514542,1,-0.064910449,1,0.028867222,1,0.4041991531848907,1,-0.058404893,1,-1.959222913,1
3.063416243,-8.530200005,1,-0.852394164,1,-4.341800213,1,0.1369204670190811,1,-0.19126527,1,0.038097296,1,0.4049520492553711,1,-0.058927242,1,-1.959294319,1
3.067417622,-8.658843994,1,-0.885823309,1,-4.213498116,1,0.041017905,1,-0.315532833,1,0.054953057,1,0.4053172767162323,1,-0.059933331,1,-1.959519863,1
3.071414709,-8.735414505,1,-0.852306485,1,-4.134242058,1,-0.053675622,1,-0.439828843,1,0.06948448,1,0.4053090214729309,1,-0.061416458,1,-1.959886909,1
3.075413704,-8.86825943,1,-0.887297869,1,-4.077286243,1,-0.130875215,1,-0.56419301,1,0.085697353,1,0.4049688279628754,1,-0.063383885,1,-1.960393786,1
3.079414845,-8.983327866,1,-0.950314403,1,-4.088093758,1,-0.195580631,1,-0.691268086,1,0.1079012304544449,1,0.4043519794940948,1,-0.065846458,1,-1.961032152,1
3.083411694,-9.184940338,1,-0.974676311,1,-4.170367718,1,-0.240699425,1,-0.809374869,1,0.1261169612407684,1,0.4035277962684631,1,-0.068782136,1,-1.961785197,1
3.087410688,-9.545665741,1,-1.104446769,1,-4.2791996,1,-0.278636247,1,-0.909074068,1,0.1397490501403809,1,0.4025423526763916,1,-0.072155811,1,-1.962650061,1
3.091411829,-9.904573441,1,-1.209465265,1,-4.288592339,1,-0.308230042,1,-1.002890468,1,0.1542080789804459,1,0.4014300107955933,1,-0.075906977,1,-1.963602662,1
3.095408916,-10.15118027,1,-1.383458257,1,-4.300025463,1,-0.32938984,1,-1.075067878,1,0.1711412966251373,1,0.4002285599708557,1,-0.079994656,1,-1.964627147,1
3.09940815,-10.35006523,1,-1.630116701,1,-4.293866158,1,-0.350759953,1,-1.143051744,1,0.1888352185487747,1,0.3989553153514862,1,-0.084361292,1,-1.965705872,1
3.103409052,-10.45059395,1,-1.885522127,1,-4.327661514,1,-0.361566275,1,-1.206788421,1,0.2059344351291656,1,0.397634745,1,-0.08899308,1,-1.966813564,1
3.107406616,-7.378890514,1,-3.131933451,1,-8.482338905,1,-0.41867125,1,-1.298371077,1,0.2421941608190536,1,0.396074504,1,-0.093980826,1,-1.96901226,1
3.111406088,26.17298508,1,0.024025176,1,-16.88427925,1,0.090152532,1,-1.632495522,1,0.5275068879127502,1,0.3951087594032288,1,-0.09986762,1,-1.969784379,1
3.11540699,9.629965782165527,1,-4.821885109,1,-18.18907356,1,0.1067800000309944,1,-2.057765961,1,0.5631589293479919,1,0.396123856,1,-0.107586436,1,-1.970589042,1
3.119404554,5.482978820800781,1,-13.09494305,1,-19.73744011,1,-0.704816759,1,-1.583380222,1,0.3975613415241241,1,0.3948906064033508,1,-0.115258023,1,-1.971713424,1
3.123404026,12.82234382629395,1,-17.05059433,1,-17.32015991,1,-0.66471535,1,-1.358686805,1,0.474290133,1,0.3921735286712646,1,-0.121099181,1,-1.972375035,1
3.127405167,15.04627799987793,1,-16.22310066,1,-12.87781906,1,-0.863044202,1,-1.545813322,1,0.8343791365623474,1,0.389127791,1,-0.127479702,1,-1.972184181,1
3.131402254,15.42798137664795,1,-12.47098351,1,-11.32251072,1,-1.102095723,1,-1.860904455,1,1.126380085945129,1,0.3850986957550049,1,-0.135217801,1,-1.971045852,1
3.135407686,11.72126007080078,1,-9.36929512,1,-9.995162964,1,-1.376256943,1,-2.393563509,1,1.342471241950989,1,0.3798468708992004,1,-0.144950375,1,-1.96964097,1
3.139409304,8.852082252502441,1,-5.102031231,1,-8.773225784,1,-1.346505642,1,-2.966622353,1,1.545459866523743,1,0.3741584420204163,1,-0.15707235,1,-1.968170643,1
3.143407106,5.740104198455811,1,-2.760625601,1,-9.04651165,1,-1.279204726,1,-3.580601692,1,1.529245018959045,1,0.3687338531017303,1,-0.171526968,1,-1.96713841,1
3.14740634,0.490000457,1,-1.233715653,1,-8.95291996,1,-1.132520318,1,-4.065931797,1,1.441924452781677,1,0.363905132,1,-0.187988341,1,-1.967060804,1
