Time,inertial-6253.76535:estCompensatedAccelX,inertial-6253.76535:estCompensatedAccelX:valid,inertial-6253.76535:estCompensatedAccelY,inertial-6253.76535:estCompensatedAccelY:valid,inertial-6253.76535:estCompensatedAccelZ,inertial-6253.76535:estCompensatedAccelZ:valid,inertial-6253.76535:estAngularRateX,inertial-6253.76535:estAngularRateX:valid,inertial-6253.76535:estAngularRateY,inertial-6253.76535:estAngularRateY:valid,inertial-6253.76535:estAngularRateZ,inertial-6253.76535:estAngularRateZ:valid,inertial-6253.76535:estRoll,inertial-6253.76535:estRoll:valid,inertial-6253.76535:estPitch,inertial-6253.76535:estPitch:valid,inertial-6253.76535:estYaw,inertial-6253.76535:estYaw:valid
0,-5.188446999,1,-2.08523035,1,-8.082486153,1,0.004832082,1,-0.000795222,1,-0.002863344,1,0.2274443358182907,1,-0.592570245,1,2.178452491760254,1
0.003999488,-5.166380405,1,-2.10618639,1,-8.110274315,1,0.003331886,1,-0.000756096,1,0.004050915,1,0.2274650186300278,1,-0.592577338,1,2.178458452224731,1
0.008001024,-5.214381218,1,-2.059619427,1,-8.105857849,1,0.006872541,1,-0.000438044,1,0.004044245,1,0.2274763584136963,1,-0.592583835,1,2.178479433059692,1
0.011998464,-5.243132114,1,-2.042423964,1,-8.084824562,1,0.003858916,1,-0.00230248,1,0.004086164,1,0.2274923771619797,1,-0.592582881,1,2.178487539291382,1
0.015997952,-5.219921589,1,-2.024622917,1,-8.067296982,1,0.003027672,1,-0.00334293,1,0.000371748,1,0.2275146245956421,1,-0.592597544,1,2.178489446640015,1
0.019999487,-5.217827797,1,-2.067481756,1,-8.097695351,1,0.005895101,1,-0.002261223,1,0.000478976,1,0.2275287806987762,1,-0.59261024,1,2.178498745,1
0.023997439,-5.169699669,1,-2.033481598,1,-8.088589668,1,0.005883288,1,-0.004637074,1,-0.000314623,1,0.2275552749633789,1,-0.592633367,1,2.178504467010498,1
0.027996927,-5.239691257,1,-2.043087244,1,-8.109541893,1,0.005175013,1,-0.007172368,1,0.001038603,1,0.2275726646184921,1,-0.592660189,1,2.178505659103394,1
0.031998463,-5.180054665,1,-2.057448626,1,-8.063498497,1,0.005638826,1,-0.007526767,1,0.006139251,1,0.2275972813367844,1,-0.5926916,1,2.178507804870605,1
0.035996161,-5.16513586,1,-2.041273117,1,-8.101046562,1,0.007803367,1,-0.009759829,1,0.000253535,1,0.2276210933923721,1,-0.592728674,1,2.178509473800659,1
0.040002048,-5.199528694,1,-2.063483,1,-8.067022324,1,0.006422862,1,-0.010426714,1,0.002860434,1,0.227642298,1,-0.592765987,1,2.178516626358032,1
0.044003841,-5.227685452,1,-2.097833395,1,-8.05592823,1,0.005015146,1,-0.010064017,1,0.00429948,1,0.2276643365621567,1,-0.592805624,1,2.178520917892456,1
0.048001792,-5.217690468,1,-2.092154741,1,-8.050926208,1,0.004441186,1,-0.00656122,1,0.004190059,1,0.2276794761419296,1,-0.592843115,1,2.178530216217041,1
0.052001279,-5.191345215,1,-2.046704531,1,-8.065207481,1,0.002889243,1,-0.009590431,1,0.00704514,1,0.2276844084262848,1,-0.592887342,1,2.178538799285889,1
0.056002561,-5.195526123,1,-2.084993362,1,-8.046150208,1,-0.000827327,1,-0.009615108,1,0.001908606,1,0.2276875972747803,1,-0.592929244,1,2.178546905517578,1
0.060000256,-5.210848808,1,-2.043465376,1,-8.048955917,1,0.002360737,1,-0.009124333,1,0.005339016,1,0.2276874333620071,1,-0.592974603,1,2.178556442260742,1
0.063999742,-5.191468716,1,-2.091678858,1,-8.04955101,1,0.004571985,1,-0.010208659,1,0.008466075,1,0.2276846468448639,1,-0.593013644,1,2.178581714630127,1
0.068001539,-5.199219227,1,-2.077744246,1,-8.040927887,1,0.001439459,1,-0.010958223,1,0.00758423,1,0.2276823818683624,1,-0.593065739,1,2.178605794906616,1
0.071999229,-5.170331001,1,-2.052942991,1,-8.093935013,1,0.000598117,1,-0.013225825,1,0.004415153,1,0.2276794612407684,1,-0.59311229,1,2.178625822067261,1
0.075998724,-5.159946918,1,-2.046125174,1,-8.088519096,1,0.001566517,1,-0.016431972,1,0.008498354,1,0.2276763319969177,1,-0.593170404,1,2.178637981414795,1
0.080000766,-5.182271481,1,-2.081878424,1,-8.108147621,1,0.003365081,1,-0.014319483,1,0.007366894,1,0.2276709675788879,1,-0.593235075,1,2.178664684295654,1
0.083998978,-5.188822746,1,-2.120752096,1,-8.085502625,1,0.002056748,1,-0.019818593,1,0.007432997,1,0.2276727706193924,1,-0.593310237,1,2.178674697875977,1
0.087998211,-5.239475727,1,-2.085723162,1,-8.062667847,1,0.001168615,1,-0.011216894,1,0.009045439,1,0.2276683300733566,1,-0.593378425,1,2.178687810897827,1
0.092,-5.224014759,1,-2.123647928,1,-8.054405212,1,-0.002282239,1,-0.015897915,1,0.006203961,1,0.2276511490345001,1,-0.593440711,1,2.178707838058472,1
0.095997699,-5.2026577,1,-2.075943232,1,-8.056262016,1,0.000896922,1,-0.018094776,1,0.009038368,1,0.2276293486356735,1,-0.593509555,1,2.178727865219116,1
0.099997953,-5.252002239,1,-2.066546679,1,-8.068776131,1,-3.96E-05,1,-0.019200817,1,0.008449838,1,0.2276148349046707,1,-0.59358418,1,2.178750276565552,1
0.103999488,-5.240094185,1,-2.039344549,1,-8.052761078,1,0.000512525,1,-0.014305044,1,0.006181605,1,0.2275868803262711,1,-0.593650818,1,2.178782463,1
0.107997186,-5.237154484,1,-2.035904646,1,-8.054512978,1,0.002474042,1,-0.014702957,1,0.008980112,1,0.2275709062814713,1,-0.593711615,1,2.178808689117432,1
0.111996673,-5.237368584,1,-2.032414913,1,-8.024503708,1,1.188210444524884e-05,1,-0.017684145,1,0.007973577,1,0.22755459,1,-0.593777597,1,2.178827763,1
0.115998209,-5.226545334,1,-2.017382145,1,-8.059500694,1,-0.000775153,1,-0.017150113,1,0.008883825,1,0.2275422513484955,1,-0.593847752,1,2.178844690322876,1
0.119995646,-5.244421005,1,-1.992450476,1,-8.025998116,1,0.002500572,1,-0.010803673,1,0.007744637,1,0.2275306582450867,1,-0.593914926,1,2.178870916366577,1
0.123995133,-5.206165314,1,-1.996500373,1,-8.045413017,1,0.002648273,1,-0.016074691,1,0.00446871,1,0.2275244444608688,1,-0.593971312,1,2.178891181945801,1
0.127996668,-5.205889702,1,-2.019860268,1,-8.074926376,1,0.003764939,1,-0.019172834,1,0.009684121,1,0.2275310307741165,1,-0.594048858,1,2.178900003433228,1
0.131994367,-5.186506271,1,-2.065972805,1,-8.074707031,1,0.004267806,1,-0.017658899,1,0.003531405,1,0.2275478541851044,1,-0.594126642,1,2.178905248641968,1
0.136000007,-5.147296906,1,-2.072317123,1,-8.13458252,1,0.001249179,1,-0.017007245,1,0.003059495,1,0.2275540679693222,1,-0.594201803,1,2.178913831710815,1
0.140001535,-5.174729347,1,-2.08685565,1,-8.192414284,1,0.007328229,1,-0.015903618,1,0.003245057,1,0.2275746017694473,1,-0.594274521,1,2.178913831710815,1
0.143999234,-5.08235836,1,-2.110942602,1,-8.092421532,1,0.001882372,1,-0.017343948,1,0.013482863,1,0.2275854349136353,1,-0.594345629,1,2.178931951522827,1
0.147998974,-5.140851498,1,-2.142093658,1,-8.090384483,1,-0.002236543,1,-0.024587438,1,0.012860589,1,0.2275609076023102,1,-0.594440877,1,2.178969144821167,1
0.152000517,-5.25863266,1,-2.1755445,1,-8.085163116,1,-0.004954071,1,-0.023355136,1,0.016851541,1,0.2275285124778748,1,-0.594551384,1,2.179013967514038,1
0.155998215,-5.175740242,1,-2.126839638,1,-8.058783531,1,-0.012315581,1,-0.023180304,1,0.02543084,1,0.2274591326713562,1,-0.594659448,1,2.179081678390503,1
0.159997702,-5.238519669,1,-2.147378445,1,-8.075874329,1,-0.010869881,1,-0.024764083,1,0.023805704,1,0.2273712605237961,1,-0.594773829,1,2.179167032241821,1
0.163999483,-5.214334488,1,-2.095319748,1,-8.071227074,1,-0.009208017,1,-0.024595311,1,0.027494371,1,0.22726886,1,-0.59488982,1,2.179264307022095,1
0.167997181,-5.237156391,1,-2.091705561,1,-8.09265995,1,-0.012685764,1,-0.024487615,1,0.027128052,1,0.2271574139595032,1,-0.59500277,1,2.179369211196899,1
0.171996668,-5.22603941,1,-2.103397131,1,-8.052309036,1,-0.016152712,1,-0.024661914,1,0.029375976,1,0.2270220965147018,1,-0.595117629,1,2.179485082626343,1
0.175998211,-5.283316135,1,-2.088136435,1,-8.046988487,1,-0.011582789,1,-0.022354264,1,0.031361423,1,0.2269048094749451,1,-0.59523958,1,2.179592370986938,1
0.179995909,-5.244334698,1,-2.054387808,1,-8.059745789,1,-0.016521396,1,-0.023851544,1,0.030245576,1,0.2267754375934601,1,-0.595352411,1,2.179718971252441,1
0.183995143,-5.2981143,1,-2.030866623,1,-8.066205978,1,-0.015376639,1,-0.024511008,1,0.032972928,1,0.2272036820650101,1,-0.594506443,1,2.179792404174805,1
0.187996671,-5.264406681,1,-2.046759129,1,-8.042272568,1,-0.014865331,1,-0.02289984,1,0.028792303,1,0.2271402329206467,1,-0.594682455,1,2.179580211639404,1
0.191994369,-5.245455742,1,-2.014841557,1,-8.017877579,1,-0.016212491,1,-0.029091859,1,0.029452026,1,0.2270063608884811,1,-0.594804287,1,2.179699182510376,1
0.195994362,-5.226687431,1,-2.010688782,1,-8.060269356,1,-0.014469484,1,-0.024291964,1,0.032464921,1,0.2268805652856827,1,-0.594927609,1,2.179820775985718,1
0.199996665,-5.232903004,1,-2.038457155,1,-8.042592049,1,-0.010416177,1,-0.029227534,1,0.031335078,1,0.2267595827579498,1,-0.595058203,1,2.179938554763794,1
0.203994885,-5.2406497,1,-2.018546104,1,-8.045208931,1,-0.016659461,1,-0.027599098,1,0.034938771,1,0.2266344875097275,1,-0.595188975,1,2.180063724517822,1
0.207994372,-5.205444336,1,-2.031410933,1,-8.01680851,1,-0.012195191,1,-0.024949569,1,0.031226469,1,0.2265066355466843,1,-0.595322907,1,2.180195569992065,1
0.2119959,-5.227881432,1,-2.044447422,1,-8.032087326,1,-0.010786079,1,-0.026481939,1,0.032174196,1,0.2263892889022827,1,-0.59546268,1,2.180316686630249,1
0.215993345,-5.213646889,1,-2.05022645,1,-8.031721115,1,-0.009448001,1,-0.02700928,1,0.0357235,1,0.2262737154960632,1,-0.595595896,1,2.180449247360229,1
0.219993085,-5.236393929,1,-2.084591866,1,-8.021352768,1,-0.014212108,1,-0.02627792,1,0.038240045,1,0.2261401116847992,1,-0.595731497,1,2.180593729019165,1
0.223994628,-5.228637218,1,-2.082950592,1,-8.009764671,1,-0.014691813,1,-0.022947365,1,0.033694018,1,0.2260126173496246,1,-0.59586525,1,2.180729389190674,1
0.227992326,-5.278069496,1,-2.093797684,1,-8.025205612,1,-0.014398185,1,-0.025998436,1,0.039261322,1,0.2258758097887039,1,-0.595996797,1,2.180878639221191,1
0.231997952,-5.284522057,1,-2.058147669,1,-8.084482193,1,-0.014780618,1,-0.026213771,1,0.036752276,1,0.2257367670536041,1,-0.596132696,1,2.181032657623291,1
0.235999495,-5.247124195,1,-2.051099777,1,-8.065606117,1,-0.016426494,1,-0.02283415,1,0.038656555,1,0.2255938202142715,1,-0.59626168,1,2.181175231933594,1
0.239997447,-5.255099297,1,-2.004767179,1,-8.040503502,1,-0.014754704,1,-0.022404917,1,0.035826482,1,0.225448951,1,-0.596383095,1,2.181323528289795,1
0.243996933,-5.265709877,1,-1.97250545,1,-8.026185036,1,-0.013474848,1,-0.023867624,1,0.031895146,1,0.225322887,1,-0.596501648,1,2.181459903717041,1
0.247998461,-5.305408478,1,-1.966258883,1,-8.026502609,1,-0.013201407,1,-0.024665356,1,0.032356046,1,0.2251982092857361,1,-0.596625566,1,2.181591033935547,1
0.25199616,-5.304859161,1,-2.020294428,1,-8.035041809,1,-0.007165213,1,-0.020903356,1,0.030387601,1,0.2250832617282867,1,-0.596734643,1,2.181713342666626,1
0.255996168,-5.23982954,1,-1.967560887,1,-8.039284706,1,-0.009794876,1,-0.023112625,1,0.029873708,1,0.2249874770641327,1,-0.596851528,1,2.181828976,1
0.259997696,-5.228816509,1,-1.970008612,1,-8.055047035,1,-0.006596511,1,-0.019975692,1,0.029775279,1,0.2248895019292831,1,-0.59695822,1,2.181938648223877,1
0.263995379,-5.279582977,1,-1.995080471,1,-8.010198593,1,-0.005302217,1,-0.020501683,1,0.02919961,1,0.2248028367757797,1,-0.597073078,1,2.182052612304688,1
0.267994881,-5.255238056,1,-1.993433237,1,-8.052524567,1,-0.006906346,1,-0.02002495,1,0.025693676,1,0.2247236371040344,1,-0.597183347,1,2.182147026062012,1
0.271996409,-5.312860012,1,-1.984196663,1,-8.026100159,1,-0.007651891,1,-0.017510977,1,0.022825971,1,0.2246413826942444,1,-0.597280741,1,2.182245731,1
0.275994122,-5.324522972,1,-1.943958282,1,-8.0020895,1,-0.00170419,1,-0.016205095,1,0.022280628,1,0.2245735377073288,1,-0.597370446,1,2.182335138320923,1
0.279993594,-5.310255051,1,-1.922903776,1,-7.97882843,1,-0.003370378,1,-0.017280534,1,0.021446405,1,0.2245211154222488,1,-0.5974527,1,2.182410955429077,1
0.283995122,-5.311085701,1,-1.944149137,1,-8.010961533,1,-0.000480704,1,-0.013427303,1,0.019355455,1,0.2244767099618912,1,-0.597524583,1,2.182485342025757,1
0.287992567,-5.25719595,1,-1.873128295,1,-7.997343063,1,0.003570501,1,-0.013861152,1,0.012913826,1,0.2244437038898468,1,-0.597584963,1,2.182546854019165,1
0.291992068,-5.29631567,1,-1.888998508,1,-8.047898293,1,0.003891157,1,-0.011344622,1,0.009562402,1,0.2244333177804947,1,-0.597643316,1,2.182592391967773,1
0.295993596,-5.286215782,1,-1.873882055,1,-8.019089699,1,0.003980343,1,-0.010440739,1,0.007572973,1,0.2244352400302887,1,-0.597689152,1,2.182627678,1
0.299991041,-5.290742874,1,-1.896079898,1,-8.009008408,1,0.01276831,1,-0.012897698,1,0.006344639,1,0.2244562357664108,1,-0.597744942,1,2.182641744613647,1
0.303990543,-5.319485188,1,-1.91829288,1,-8.019390106,1,0.01424828,1,-0.012508383,1,-0.001742397,1,0.2244977355003357,1,-0.597786129,1,2.182641983032227,1
0.307992071,-5.274335384,1,-1.906492233,1,-8.000782967,1,0.015516622,1,-0.006984503,1,0.001296983,1,0.2245588600635529,1,-0.59782052,1,2.182629823684692,1
0.311989516,-5.271916866,1,-1.93506217,1,-7.980372429,1,0.012126887,1,-0.009799717,1,-0.004634973,1,0.2246345579624176,1,-0.597848117,1,2.182610273361206,1
0.315988988,-5.257403851,1,-1.947045207,1,-8.042836189,1,0.019852396,1,-0.012167225,1,-0.002207192,1,0.2247194945812225,1,-0.597880006,1,2.182572126,1
0.319990516,-5.21306324,1,-2.044251919,1,-8.04295063,1,0.018094609,1,-0.011489224,1,-0.00644464,1,0.2248165607452393,1,-0.597919583,1,2.182542324066162,1
0.323988229,-5.255834579,1,-2.02248311,1,-8.050877571,1,0.018927885,1,-0.013597534,1,-0.004261361,1,0.2249080985784531,1,-0.597958088,1,2.182510137557983,1
0.327987701,-5.229646683,1,-2.096247196,1,-8.066414833,1,0.015962284,1,-0.009088071,1,-0.002531339,1,0.2249965071678162,1,-0.598004818,1,2.182473182678223,1
0.331995398,-5.286871433,1,-2.059740067,1,-8.069225311,1,0.013080104,1,-0.012909248,1,-0.002059914,1,0.2250665277242661,1,-0.598044753,1,2.182457208633423,1
0.335999221,-5.234118938,1,-2.079209566,1,-8.070206642,1,0.016124822,1,-0.008761865,1,-0.000598765,1,0.2251347750425339,1,-0.598079145,1,2.182440757751465,1
0.33999899,-5.264218807,1,-2.053115129,1,-8.031233788,1,0.011271265,1,-0.010442716,1,0.003229973,1,0.2251942008733749,1,-0.598126769,1,2.182434320449829,1
0.34400025,-5.28930521,1,-2.036893129,1,-8.05081749,1,0.01461606,1,-0.012036941,1,-0.001182949,1,0.2252474427223206,1,-0.598166883,1,2.182424068450928,1
0.347997963,-5.276533604,1,-2.010738373,1,-8.055328369,1,0.01454509,1,-0.014024717,1,-1.29E-07,1,0.2253058254718781,1,-0.598213375,1,2.182410955429077,1
0.351997703,-5.282922268,1,-1.991341233,1,-8.072020531,1,0.016260859,1,-0.007405797,1,-5.60E-05,1,0.2253694236278534,1,-0.598257005,1,2.182394742965698,1
0.3559995,-5.269847393,1,-1.961146593,1,-8.042082787,1,0.014880002,1,-0.01104238,1,-0.002993035,1,0.2254436165094376,1,-0.5982939,1,2.182372093200684,1
0.359997183,-5.28694725,1,-1.977462888,1,-7.973366737,1,0.016210863,1,-0.006554769,1,-0.004995558,1,0.2255145460367203,1,-0.598327935,1,2.182348728179932,1
0.363996685,-5.281873226,1,-1.979174733,1,-8.0592556,1,0.016506948,1,-0.015859431,1,-0.006349431,1,0.2256039083003998,1,-0.598361194,1,2.182321310043335,1
0.367998451,-5.334119797,1,-2.016104221,1,-8.010868073,1,0.016839508,1,-0.010833666,1,-0.005158322,1,0.2256948798894882,1,-0.598395765,1,2.182279586791992,1
0.371996164,-5.288470268,1,-2.015708923,1,-8.00539875,1,0.017984193,1,-0.00793375,1,-0.01016634,1,0.2257973700761795,1,-0.598418117,1,2.182230234146118,1
0.375995636,-5.263998032,1,-2.070336103,1,-7.986837387,1,0.021264233,1,-0.006986412,1,-0.008351488,1,0.225890115,1,-0.598446071,1,2.182186365127563,1
0.379997194,-5.285170078,1,-2.041580439,1,-8.031463623,1,0.013900061,1,-0.007261438,1,-0.010287433,1,0.2259942591190338,1,-0.59847039,1,2.182137250900269,1
0.383994609,-5.223753452,1,-2.01704073,1,-8.011752129,1,0.018406462,1,-0.008262428,1,-0.005687881,1,0.2260847687721252,1,-0.598491848,1,2.182090044021606,1
0.387994111,-5.251673222,1,-1.953185201,1,-8.000923157,1,0.016204776,1,-0.010699763,1,-0.015050365,1,0.2261885851621628,1,-0.598510742,1,2.182032346725464,1
0.391995639,-5.22772789,1,-1.989036679,1,-8.031984329,1,0.019891782,1,-0.012416488,1,-0.008817951,1,0.2263002693653107,1,-0.598535776,1,2.181966543197632,1
0.395993084,-5.259685516,1,-1.958908677,1,-8.077355385,1,0.022239063,1,-0.015136207,1,-0.010802694,1,0.2264222204685211,1,-0.598574519,1,2.181902885437012,1
0.399992585,-5.246616364,1,-1.967103601,1,-8.050445557,1,0.022558836,1,-0.011968299,1,-0.011355266,1,0.2265509068965912,1,-0.598611414,1,2.181837320327759,1
0.403994113,-5.286415577,1,-2.014595032,1,-8.081050873,1,0.024890138,1,-0.013377083,1,-0.013197866,1,0.2266891449689865,1,-0.598648012,1,2.181756019592285,1
0.407991797,-5.28395462,1,-2.04659009,1,-8.024425507,1,0.026081035,1,-0.010184153,1,-0.011107418,1,0.2268304526805878,1,-0.598688722,1,2.181681632995605,1
0.411991298,-5.276283741,1,-2.035378933,1,-8.056668282,1,0.021665692,1,-0.013703447,1,-0.014387271,1,0.2269715219736099,1,-0.598728359,1,2.181610584259033,1
0.415992826,-5.235422611,1,-2.023582458,1,-8.03509903,1,0.027162742,1,-0.012370932,1,-0.013692185,1,0.2271157652139664,1,-0.598766565,1,2.181532144546509,1
0.41999054,-5.272913933,1,-2.028749704,1,-8.006259918,1,0.026236586,1,-0.014231306,1,-0.014418783,1,0.2272665202617645,1,-0.59879756,1,2.181448459625244,1
0.423990011,-5.316194057,1,-2.014648676,1,-8.008799553,1,0.027050262,1,-0.01354459,1,-0.014854711,1,0.2274128198623657,1,-0.598828852,1,2.18137002,1
0.42799744,-5.314783096,1,-2.039735317,1,-7.997043133,1,0.027617812,1,-0.007014003,1,-0.015381153,1,0.227570578,1,-0.598855615,1,2.181283473968506,1
0.432001024,-5.289157391,1,-2.054131985,1,-8.001390457,1,0.027006842,1,-0.007083528,1,-0.016980277,1,0.2277268022298813,1,-0.598864436,1,2.181202888,1
0.436000764,-5.286239624,1,-2.023373604,1,-8.002593994,1,0.024506213,1,-0.004809993,1,-0.013562736,1,0.2283886820077896,1,-0.598069727,1,2.180713891983032,1
0.440002292,-5.280584812,1,-2.033730745,1,-7.998141289,1,0.026454559,1,-0.008033255,1,-0.018303031,1,0.2285407781600952,1,-0.598074257,1,2.180634498596191,1
0.444000006,-5.292672157,1,-2.003098726,1,-8.002573013,1,0.02547081,1,0.001098946,1,-0.016465317,1,0.2286934107542038,1,-0.598074615,1,2.180550098419189,1
0.447999477,-5.251448631,1,-2.02295804,1,-7.993450165,1,0.027651206,1,-0.001706026,1,-0.015968081,1,0.2288560718297958,1,-0.598066807,1,2.180464983,1
0.452001035,-5.266336441,1,-2.01338768,1,-7.986962318,1,0.030654415,1,-0.006380705,1,-0.016057568,1,0.2290101796388626,1,-0.598066628,1,2.180378437042236,1
0.455998719,-5.245269775,1,-2.067401409,1,-8.013733864,1,0.026989467,1,-0.000771272,1,-0.014588159,1,0.2291631549596786,1,-0.598058999,1,2.180298805236816,1
0.45999822,-5.220895767,1,-2.056783438,1,-8.013538361,1,0.030522168,1,-0.005346988,1,-0.014475906,1,0.2293214499950409,1,-0.598056316,1,2.180224895477295,1
0.463999987,-5.240029812,1,-2.105292559,1,-8.005614281,1,0.026020741,1,-0.002745168,1,-0.011390521,1,0.2294625043869019,1,-0.598062754,1,2.180161714553833,1
0.4679977,-5.268444061,1,-2.137943268,1,-8.029940605,1,0.02545118,1,-0.004842835,1,-0.015999105,1,0.2296048253774643,1,-0.59806478,1,2.180092096328735,1
0.471997172,-5.298791885,1,-2.142182827,1,-8.000797272,1,0.01910883,1,-8.71E-06,1,-0.009399843,1,0.2297284454107285,1,-0.598065674,1,2.180034637451172,1
0.475998968,-5.31758976,1,-2.160577536,1,-8.016459465,1,0.019849209,1,-0.000592623,1,-0.005830762,1,0.2298334687948227,1,-0.598058105,1,2.179991245269775,1
0.479996681,-5.247479439,1,-2.164030075,1,-8.023349762,1,0.016927728,1,0.001961729,1,-0.007951788,1,0.2299193739891052,1,-0.598053932,1,2.179963350296021,1
0.483996421,-5.217974186,1,-2.197117805,1,-7.996547699,1,0.010602878,1,0.000961385,1,-0.003901415,1,0.2299909144639969,1,-0.598047018,1,2.179937362670898,1
0.487997949,-5.278045177,1,-2.14793849,1,-8.010402679,1,0.007550917,1,0.007903773,1,-0.003950353,1,0.2300346791744232,1,-0.598028302,1,2.179927349090576,1
0.491995662,-5.328166485,1,-2.115283012,1,-8.012332916,1,0.009463603,1,0.004707601,1,0.001688799,1,0.2300617247819901,1,-0.598002672,1,2.179933547973633,1
0.495995134,-5.298535824,1,-2.112293243,1,-8.018946648,1,0.006587953,1,0.00780325,1,0.002233425,1,0.2300826013088226,1,-0.597976565,1,2.179942131,1
0.499996662,-5.284985542,1,-2.143972158,1,-8.036241531,1,0.00241894,1,0.009625959,1,0.002808205,1,0.2300932854413986,1,-0.597939789,1,2.179961681365967,1
0.503994107,-5.24865675,1,-2.119666815,1,-7.988904953,1,0.00062779,1,0.012944605,1,0.007039812,1,0.2300907075405121,1,-0.597903073,1,2.179984808,1
0.507993579,-5.263200283,1,-2.103439093,1,-8.016798019,1,0.000570439,1,0.012391429,1,0.002577512,1,0.2300755083560944,1,-0.597863615,1,2.180017709732056,1
0.511995137,-5.273178101,1,-2.082353592,1,-7.984413624,1,0.002707605,1,0.013076293,1,0.003233826,1,0.2300610840320587,1,-0.59781754,1,2.180046796798706,1
0.51599282,-5.278611183,1,-2.056537867,1,-8.024808884,1,-0.00297969,1,0.008685757,1,0.00748331,1,0.2300404608249664,1,-0.597780883,1,2.180088043212891,1
0.519993067,-5.254403114,1,-2.090970755,1,-8.032913208,1,-0.004661181,1,0.010857761,1,0.010376649,1,0.230013296,1,-0.597754419,1,2.180125237,1
0.524000525,-5.261612415,1,-2.073812246,1,-8.020439148,1,-0.001426501,1,0.010273729,1,0.007634195,1,0.2299790680408478,1,-0.597722411,1,2.180176973342896,1
0.528004348,-5.261173725,1,-2.114790201,1,-8.001935005,1,-0.005967314,1,0.009952748,1,0.012161527,1,0.229927197,1,-0.597688079,1,2.180225372314453,1
0.532004356,-5.284852982,1,-2.104969978,1,-8.001203537,1,-0.002270038,1,0.006989069,1,0.011132988,1,0.229871392,1,-0.597658873,1,2.180288314819336,1
0.536005914,-5.259214878,1,-2.08605814,1,-8.018258095,1,-0.008420306,1,0.009187979,1,0.012635143,1,0.2298155725002289,1,-0.597629845,1,2.180347919464111,1
0.540003598,-5.280314922,1,-2.049722433,1,-8.010503769,1,-0.004321474,1,0.009566461,1,0.011854837,1,0.2297535836696625,1,-0.597597539,1,2.180415630340576,1
0.544003069,-5.266866684,1,-2.069741488,1,-8.028944969,1,-0.009152876,1,0.016238717,1,0.013660001,1,0.2296827733516693,1,-0.597561896,1,2.180478572845459,1
0.548004627,-5.208576202,1,-2.098018885,1,-8.029695511,1,-0.006486397,1,0.014006778,1,0.013098611,1,0.2296111732721329,1,-0.597519398,1,2.180561304092407,1
0.552002311,-5.205795288,1,-2.104676485,1,-8.038347244,1,-0.005856753,1,0.010899891,1,0.014165017,1,0.2295402884483337,1,-0.597489536,1,2.180634260177612,1
0.556001544,-5.225273609,1,-2.113826275,1,-8.069869041,1,-0.010776594,1,0.014261262,1,0.011225006,1,0.2294577062129974,1,-0.59744978,1,2.180713415145874,1
0.560003042,-5.238448143,1,-2.075855255,1,-8.089772224,1,-0.010840029,1,0.00942039,1,0.01715734,1,0.2293800711631775,1,-0.59741807,1,2.180779933929443,1
0.564000785,-5.257572174,1,-2.072752476,1,-8.086600304,1,-0.011092367,1,0.010192905,1,0.017162098,1,0.2292901128530502,1,-0.59739095,1,2.180862188339233,1
0.568000019,-5.22465992,1,-2.031386375,1,-8.089741707,1,-0.008462271,1,0.008938056,1,0.012971047,1,0.229204461,1,-0.597374439,1,2.180940151,1
0.572001517,-5.259213448,1,-2.068395376,1,-8.118402481,1,-0.009787747,1,0.002633359,1,0.013896156,1,0.2291164547204971,1,-0.597371399,1,2.181016445159912,1
0.575998962,-5.21689558,1,-2.014297962,1,-8.112687111,1,-0.007665617,1,-0.001627417,1,0.015978877,1,0.2290409803390503,1,-0.597372234,1,2.181079387664795,1
0.579998732,-5.218914986,1,-2.051376581,1,-8.10909462,1,-0.006061314,1,-0.002236434,1,0.011722315,1,0.2289760261774063,1,-0.597389579,1,2.181138038635254,1
0.58400023,-5.239216328,1,-1.9592309,1,-8.105654716,1,-0.004981757,1,-0.006092315,1,0.013161207,1,0.2289166450500488,1,-0.597412884,1,2.181198835372925,1
0.587997675,-5.212851524,1,-1.99156034,1,-8.115528107,1,-0.003813782,1,-0.009225729,1,0.013098231,1,0.2288718521595001,1,-0.597448111,1,2.181248426437378,1
0.591997445,-5.217915535,1,-2.039288521,1,-8.119883537,1,-0.004705875,1,-0.013505891,1,0.015414725,1,0.228821725,1,-0.597499967,1,2.181296110153198,1
0.595999002,-5.200336456,1,-2.10575676,1,-8.096852303,1,-0.005292024,1,-0.014968042,1,0.012341119,1,0.228778675,1,-0.597569108,1,2.181343555450439,1
0.599996388,-5.243927956,1,-2.14418745,1,-8.101092339,1,-0.004278476,1,-0.016640892,1,0.012997879,1,0.2287316620349884,1,-0.597645104,1,2.181386709213257,1
0.603995919,-5.223282814,1,-2.093093157,1,-8.09207058,1,-0.003194226,1,-0.025016528,1,0.015313272,1,0.2286891043186188,1,-0.597744346,1,2.181429862976074,1
0.607997417,-5.257813454,1,-2.066858768,1,-8.080731392,1,-0.005879876,1,-0.024515379,1,0.015107621,1,0.2286337614059448,1,-0.597842395,1,2.181485891342163,1
0.611995161,-5.305529118,1,-2.066781044,1,-8.103339195,1,-0.007788458,1,-0.025211295,1,0.013232531,1,0.2285913825035095,1,-0.597950816,1,2.181518793106079,1
0.615994871,-5.266337872,1,-2.071985483,1,-8.080677986,1,-0.010656624,1,-0.027600972,1,0.016154598,1,0.2285343408584595,1,-0.59805733,1,2.181557893753052,1
0.619996428,-5.280495644,1,-2.064339399,1,-8.031517029,1,-0.005560113,1,-0.028911456,1,0.014988107,1,0.2284756004810333,1,-0.598189175,1,2.181603432,1
0.624000013,-5.281850815,1,-2.034338474,1,-8.031172752,1,-0.009386664,1,-0.027613025,1,0.018975522,1,0.2284118235111237,1,-0.598319054,1,2.181654930114746,1
0.627999723,-5.265878677,1,-2.050036669,1,-8.035463333,1,-0.009128525,1,-0.030519534,1,0.018600579,1,0.2283428162336349,1,-0.598450243,1,2.181713342666626,1
0.632001281,-5.296730995,1,-2.059016705,1,-8.054059982,1,-0.013210126,1,-0.026964096,1,0.019853259,1,0.2282713353633881,1,-0.598579705,1,2.181775569915771,1
0.635998964,-5.25633812,1,-2.07673502,1,-8.01293087,1,-0.008304702,1,-0.030431872,1,0.021775156,1,0.2281875163316727,1,-0.598705292,1,2.181841135025024,1
0.639998436,-5.253764153,1,-2.057080984,1,-8.008960724,1,-0.011692698,1,-0.0322113,1,0.021195153,1,0.2281106263399124,1,-0.598834991,1,2.181903362,1
0.643999994,-5.283234119,1,-2.046928167,1,-8.034482002,1,-0.009068508,1,-0.027599471,1,0.021527562,1,0.228025347,1,-0.5989604,1,2.181980609893799,1
0.647997439,-5.240305901,1,-2.080724955,1,-8.02923584,1,-0.00999908,1,-0.026538908,1,0.02326145,1,0.2279377281665802,1,-0.599096119,1,2.182060956954956,1
0.651996672,-5.293728828,1,-2.152927399,1,-8.07626915,1,-0.011447255,1,-0.030787464,1,0.025864145,1,0.2278558909893036,1,-0.599232852,1,2.182130336761475,1
0.65599823,-5.229205608,1,-2.147075653,1,-8.066077232,1,-0.015241505,1,-0.028600039,1,0.026199158,1,0.2277545779943466,1,-0.599370539,1,2.182220458984375,1
0.659995675,-5.232861996,1,-2.180175066,1,-8.054431915,1,-0.016131202,1,-0.032335527,1,0.022841603,1,0.2276424467563629,1,-0.599514723,1,2.182307720184326,1
0.663994908,-5.242706776,1,-2.162600994,1,-8.086881638,1,-0.019517139,1,-0.034543615,1,0.030930206,1,0.2275122106075287,1,-0.599663913,1,2.182408094406128,1
0.667996645,-5.243848324,1,-2.11085844,1,-8.118824005,1,-0.01946556,1,-0.036223449,1,0.029276956,1,0.2273821383714676,1,-0.599831283,1,2.182512760162354,1
0.671994388,-5.254441738,1,-2.06187892,1,-8.125348091,1,-0.01903859,1,-0.040395502,1,0.029292025,1,0.2272488921880722,1,-0.60001272,1,2.182612419128418,1
0.67599386,-5.23947382,1,-2.02051878,1,-8.074388504,1,-0.019222923,1,-0.039191332,1,0.031851009,1,0.2271087467670441,1,-0.600192904,1,2.182711124420166,1
0.679995418,-5.261280537,1,-1.948310971,1,-8.096037865,1,-0.014426771,1,-0.050446983,1,0.030299503,1,0.2269869446754456,1,-0.600389898,1,2.182804346084595,1
0.683992803,-5.257883072,1,-1.919239759,1,-8.10488987,1,-0.014696429,1,-0.049824923,1,0.025668327,1,0.227462575,1,-0.599635839,1,2.182853698730469,1
0.687992573,-5.256937504,1,-1.920646787,1,-8.09039402,1,-0.009372524,1,-0.051397368,1,0.027691035,1,0.2274381071329117,1,-0.599905372,1,2.182594776153564,1
0.691994131,-5.290447712,1,-1.903992057,1,-8.073659897,1,-0.005820383,1,-0.056806322,1,0.02203133,1,0.227375403,1,-0.600135684,1,2.182649374008179,1
0.695991576,-5.271827221,1,-1.885528564,1,-8.072495461,1,-4.56E-05,1,-0.0545098,1,0.022535414,1,0.2273348420858383,1,-0.600371182,1,2.182700395584106,1
0.699991047,-5.295553684,1,-1.936799407,1,-8.041702271,1,0.000515461,1,-0.058069468,1,0.020914381,1,0.2273151129484177,1,-0.600613117,1,2.182738780975342,1
0.703992605,-5.285190105,1,-1.944863915,1,-8.041399002,1,0.008450618,1,-0.058461521,1,0.017280694,1,0.2273025661706924,1,-0.600851655,1,2.182775974273682,1
0.707990289,-5.302728653,1,-1.983756065,1,-8.005825043,1,0.008012927,1,-0.055831753,1,0.018606815,1,0.2273203134536743,1,-0.601098657,1,2.182804346084595,1
0.71198976,-5.292415142,1,-1.995962977,1,-7.976963043,1,0.011874544,1,-0.058063578,1,0.022263968,1,0.2273410260677338,1,-0.601345837,1,2.182840109,1
0.715991557,-5.298095226,1,-1.998005986,1,-8.025967598,1,0.01360892,1,-0.055341125,1,0.019296058,1,0.2273724228143692,1,-0.601586103,1,2.182877063751221,1
0.719995379,-5.351008892,1,-2.041636944,1,-8.014863968,1,0.013727283,1,-0.058684275,1,0.017054351,1,0.2274120151996613,1,-0.601821721,1,2.182898521,1
0.723995149,-5.298452854,1,-2.09211874,1,-7.961868763,1,0.012943759,1,-0.053645,1,0.01963879,1,0.2274522334337234,1,-0.602046669,1,2.182921886444092,1
0.727996647,-5.327527523,1,-2.118891954,1,-7.977716446,1,0.013548652,1,-0.050766975,1,0.020283343,1,0.227473721,1,-0.602264345,1,2.182962179,1
0.73199439,-5.330227852,1,-2.089008093,1,-7.991481304,1,0.006217703,1,-0.046819869,1,0.019154627,1,0.2274858504533768,1,-0.602471411,1,2.183000326156616,1
0.735993862,-5.358167648,1,-2.076574326,1,-7.974896431,1,0.007524658,1,-0.046928287,1,0.019424204,1,0.2274960875511169,1,-0.602671206,1,2.183034896850586,1
0.73999542,-5.333451748,1,-2.032481194,1,-7.983770847,1,0.002965957,1,-0.041773718,1,0.019291179,1,0.2274833172559738,1,-0.602859676,1,2.183083772659302,1
0.743993104,-5.308557987,1,-2.037203074,1,-7.932320595,1,0.00711937,1,-0.042643264,1,0.015418819,1,0.2274696528911591,1,-0.603039265,1,2.183121681213379,1
0.747992337,-5.327374458,1,-1.986392498,1,-7.956463337,1,0.004404108,1,-0.035081089,1,0.017149292,1,0.2274684756994247,1,-0.603203177,1,2.183165550231934,1
0.751993835,-5.379752636,1,-1.968959689,1,-7.92871666,1,0.002328173,1,-0.034555282,1,0.018720707,1,0.2274604588747025,1,-0.603354871,1,2.183205604553223,1
0.75599128,-5.361406326,1,-1.95751071,1,-7.898001671,1,0.007072979,1,-0.031029543,1,0.014594269,1,0.2274611294269562,1,-0.603490889,1,2.183248281478882,1
0.759990811,-5.337663651,1,-1.953072429,1,-7.923815727,1,0.005207655,1,-0.02771965,1,0.016231095,1,0.2274626791477203,1,-0.603619814,1,2.183278799057007,1
0.76399231,-5.350507259,1,-1.915569186,1,-7.926407814,1,0.007160124,1,-0.023284119,1,0.010105095,1,0.2274807244539261,1,-0.603729546,1,2.183300018310547,1
0.767989755,-5.328976631,1,-1.824276805,1,-7.974927902,1,0.01245801,1,-0.02481262,1,0.008870939,1,0.2275061309337616,1,-0.603835583,1,2.183323383331299,1
0.771989524,-5.30300045,1,-1.948696733,1,-7.903785229,1,0.014923807,1,-0.022413034,1,0.006568406,1,0.2275630831718445,1,-0.603934526,1,2.183334112167358,1
0.775991023,-5.33842659,1,-1.923455238,1,-7.92467165,1,0.018688604,1,-0.017764494,1,0.0008503,1,0.2276177406311035,1,-0.604018629,1,2.183326959609985,1
0.779988766,-5.310207844,1,-1.935034156,1,-7.919912815,1,0.010410351,1,-0.016488496,1,0.000452288,1,0.2276751548051834,1,-0.604091048,1,2.183308601379395,1
0.783988237,-5.339339256,1,-1.971414685,1,-7.963192463,1,0.010614807,1,-0.014136722,1,-0.00152583,1,0.2277337163686752,1,-0.604152739,1,2.183293342590332,1
0.787989736,-5.286026001,1,-2.033285379,1,-7.968219757,1,0.009897736,1,-0.011121038,1,-0.002548522,1,0.2277918010950089,1,-0.6042009,1,2.183279514312744,1
0.791987181,-5.279078484,1,-2.105187178,1,-8.000118256,1,0.00672274,1,-0.015158525,1,0.003375841,1,0.2278387695550919,1,-0.604261637,1,2.183266162872314,1
0.795986712,-5.304095268,1,-2.1326015,1,-8.003433228,1,0.004903965,1,-0.012473917,1,0.001837294,1,0.2278625965118408,1,-0.604323149,1,2.183262586593628,1
0.79998821,-5.277195454,1,-2.173275709,1,-7.986774445,1,0.001046649,1,-0.009315722,1,0.003354021,1,0.2278818488121033,1,-0.604369462,1,2.183269023895264,1
0.803985894,-5.299847126,1,-2.114630461,1,-8.009114265,1,0.004772837,1,-0.011103234,1,0.006681277,1,0.2278861403465271,1,-0.604418576,1,2.183279991149902,1
0.807985425,-5.31276989,1,-2.099905252,1,-8.002971649,1,-0.00094581,1,-0.013161515,1,0.007444152,1,0.2278663218021393,1,-0.604461372,1,2.183309555053711,1
0.811986685,-5.302027225,1,-2.057312489,1,-8.0066185,1,-0.000708442,1,-0.009473667,1,0.0127065,1,0.2278474718332291,1,-0.604513824,1,2.183331251144409,1
0.815984368,-5.353921413,1,-2.075445652,1,-8.015087128,1,-0.001509969,1,-0.00901966,1,0.008359886,1,0.2278075516223907,1,-0.604558051,1,2.183374404907227,1
0.819990277,-5.357712269,1,-2.1256814,1,-8.015213013,1,-0.004327954,1,-0.010051099,1,0.007321678,1,0.22777921,1,-0.604605138,1,2.183408022,1
0.823992074,-5.35131216,1,-2.099059582,1,-7.9922328,1,-0.004115577,1,-0.014763323,1,0.015227909,1,0.2277442365884781,1,-0.604661822,1,2.183452844619751,1
0.827989995,-5.341037273,1,-2.075181484,1,-8.0390625,1,-0.003672733,1,-0.014730107,1,0.011126769,1,0.2277066558599472,1,-0.604719818,1,2.183491706848145,1
0.831989527,-5.344626904,1,-2.025827169,1,-8.049312592,1,-0.003656654,1,-0.013003791,1,0.01255864,1,0.2276708483695984,1,-0.604780197,1,2.183527708053589,1
0.835991025,-5.30137682,1,-2.000980854,1,-8.040523529,1,-0.004963614,1,-0.013548513,1,0.013614502,1,0.2276313602924347,1,-0.604846716,1,2.183568477630615,1
0.839988708,-5.309724808,1,-2.011397839,1,-8.055187225,1,0.000627992,1,-0.019859679,1,0.009817837,1,0.2275965362787247,1,-0.6049245,1,2.183608293533325,1
0.843987942,-5.262815475,1,-2.016689777,1,-8.099854469,1,0.000982524,1,-0.019177878,1,0.01241936,1,0.2275790870189667,1,-0.60500741,1,2.183642148971558,1
0.847989738,-5.281168461,1,-2.072566509,1,-8.109472275,1,0.004791413,1,-0.028014807,1,0.011924815,1,0.2275735586881638,1,-0.605112672,1,2.183667421340942,1
0.851987481,-5.273846626,1,-2.057783365,1,-8.129417419,1,0.002091838,1,-0.030970577,1,0.009652606,1,0.2275709211826324,1,-0.605224967,1,2.183694124221802,1
0.855986714,-5.251678467,1,-2.062566757,1,-8.143428802,1,0.003185601,1,-0.034182005,1,0.011164115,1,0.2275742441415787,1,-0.605363846,1,2.183719158172607,1
0.859988213,-5.267261028,1,-2.05576539,1,-8.116635323,1,0.005991952,1,-0.035258841,1,0.018950267,1,0.2275724858045578,1,-0.605521142,1,2.183748245239258,1
0.863985658,-5.24685955,1,-2.099761248,1,-8.078947067,1,0.003613219,1,-0.047652945,1,0.019183248,1,0.2275775074958801,1,-0.605698347,1,2.183785915374756,1
0.867985129,-5.253038406,1,-2.113665819,1,-8.125004768,1,0.008784694,1,-0.043325517,1,0.020142969,1,0.2275715917348862,1,-0.605893672,1,2.183836698532104,1
0.871986926,-5.278398991,1,-2.06035018,1,-8.108763695,1,0.003763337,1,-0.053059164,1,0.023779379,1,0.2275678515434265,1,-0.606106699,1,2.183880329,1
0.875984669,-5.297238827,1,-2.038657904,1,-8.076903343,1,0.008297773,1,-0.054772869,1,0.024936194,1,0.2275580018758774,1,-0.60633415,1,2.183935880661011,1
0.879984379,-5.305934906,1,-2.013401508,1,-8.078294754,1,0.010464761,1,-0.057883743,1,0.02447778,1,0.2275663763284683,1,-0.606577992,1,2.183988332748413,1
0.883985937,-5.328957558,1,-1.94902885,1,-8.018280029,1,0.012288152,1,-0.060089886,1,0.0240913,1,0.2275737076997757,1,-0.606832206,1,2.184041261672974,1
0.887983382,-5.352543831,1,-1.938099384,1,-8.009893417,1,0.015842734,1,-0.062571213,1,0.02368621,1,0.2275992035865784,1,-0.607090056,1,2.184083223342896,1
0.891982853,-5.380951405,1,-1.913042307,1,-7.99545908,1,0.015794531,1,-0.059514303,1,0.021823598,1,0.2276392430067062,1,-0.607352614,1,2.184119701385498,1
0.895984411,-5.357789516,1,-1.905617118,1,-8.006369591,1,0.016647168,1,-0.061283678,1,0.015604361,1,0.2276964783668518,1,-0.607604384,1,2.184141397476196,1
0.899982095,-5.345333099,1,-1.900412083,1,-7.984628677,1,0.023017894,1,-0.06156493,1,0.014028472,1,0.2277690023183823,1,-0.607859433,1,2.184148788452148,1
0.903981566,-5.347078323,1,-1.94178164,1,-7.961930275,1,0.021633079,1,-0.061990041,1,0.017081046,1,0.2278583198785782,1,-0.608112395,1,2.184156656265259,1
0.907983124,-5.363063812,1,-1.964725494,1,-7.987641335,1,0.022186171,1,-0.06208954,1,0.013333859,1,0.2279508709907532,1,-0.608368039,1,2.184151887893677,1
0.911980808,-5.344071388,1,-1.999779463,1,-7.982133389,1,0.025793321,1,-0.061680324,1,0.013216864,1,0.2280491143465042,1,-0.608624518,1,2.184143781661987,1
0.915986419,-5.335592747,1,-2.020721674,1,-7.963809013,1,0.024100263,1,-0.060103938,1,0.011492845,1,0.2281500399112701,1,-0.60886687,1,2.184139490127563,1
0.919987977,-5.370252609,1,-2.099772692,1,-7.94982481,1,0.025783192,1,-0.059306931,1,0.018002616,1,0.2282459139823914,1,-0.609106839,1,2.184143304824829,1
0.92398566,-5.413020611,1,-2.054550648,1,-7.906899452,1,0.024726862,1,-0.053466544,1,0.011987286,1,0.2283466160297394,1,-0.609340727,1,2.184146404266357,1
0.92798543,-5.399363995,1,-2.047808886,1,-7.8875494,1,0.022291653,1,-0.052299015,1,0.00908173,1,0.2284419238567352,1,-0.609558702,1,2.184141397476196,1
0.931987226,-5.36603117,1,-2.006115675,1,-7.87940979,1,0.021404276,1,-0.046760134,1,0.013310578,1,0.2285243272781372,1,-0.609753907,1,2.184145689,1
0.935985148,-5.371743202,1,-2.00251174,1,-7.910265923,1,0.021391422,1,-0.04262387,1,0.011716045,1,0.2291249185800552,1,-0.609085679,1,2.183750867843628,1
0.93998462,-5.424416065,1,-1.969355345,1,-7.895121098,1,0.020446813,1,-0.034868527,1,0.009441317,1,0.229198232,1,-0.609252453,1,2.183757066726685,1
0.943986177,-5.392285347,1,-1.935994625,1,-7.901133537,1,0.018273963,1,-0.035005081,1,0.009920812,1,0.2292690277099609,1,-0.609397173,1,2.183759450912476,1
0.947983861,-5.389173031,1,-1.932055116,1,-7.928044319,1,0.022077521,1,-0.032118026,1,0.005053838,1,0.2293535470962524,1,-0.609535038,1,2.183753490447998,1
0.951983094,-5.426960945,1,-1.995667458,1,-7.904356956,1,0.021408906,1,-0.032765932,1,0.003205948,1,0.2294517606496811,1,-0.609662533,1,2.183727025985718,1
0.955984652,-5.391859055,1,-1.975896478,1,-7.908189297,1,0.019710448,1,-0.029394628,1,0.002515005,1,0.2295456826686859,1,-0.60978961,1,2.183700799942017,1
0.959982097,-5.40315485,1,-2.028836489,1,-7.937820435,1,0.024075087,1,-0.026555574,1,0.000355936,1,0.2296402007341385,1,-0.609900832,1,2.183676481246948,1
0.963981569,-5.390404224,1,-2.053972483,1,-7.923286915,1,0.01513542,1,-0.028125959,1,-0.002371358,1,0.2297389656305313,1,-0.610001445,1,2.183657884597778,1
0.967983127,-5.381498337,1,-2.032320499,1,-7.902311802,1,0.018978402,1,-0.02342231,1,0.001735419,1,0.2298322916030884,1,-0.610100925,1,2.183617830276489,1
0.971980572,-5.423944473,1,-2.034596443,1,-7.916604519,1,0.014607114,1,-0.02216929,1,0.000154241,1,0.2299152910709381,1,-0.61019516,1,2.183592557907104,1
0.975980282,-5.382189274,1,-2.060320854,1,-7.920190334,1,0.014874047,1,-0.021150619,1,0.001803787,1,0.229993999,1,-0.610286236,1,2.183568716049194,1
0.97998184,-5.363308907,1,-2.05644989,1,-7.943657875,1,0.013661949,1,-0.020155555,1,-0.001497837,1,0.2300733625888824,1,-0.610367894,1,2.183541297912598,1
0.983979523,-5.382648945,1,-2.039627075,1,-7.892504692,1,0.011881257,1,-0.019773629,1,-0.000836097,1,0.2301330864429474,1,-0.61044544,1,2.183517694473267,1
0.987979293,-5.406257629,1,-2.041349888,1,-7.915386677,1,0.012627516,1,-0.016862141,1,0.002071474,1,0.2301876991987228,1,-0.61051476,1,2.183503866195679,1
0.991980791,-5.412736416,1,-2.06469202,1,-7.90433073,1,0.011306773,1,-0.01611568,1,0.002914294,1,0.2302363365888596,1,-0.610582471,1,2.183496713638306,1
0.995978773,-5.404069424,1,-2.067712307,1,-7.877656937,1,0.00764248,1,-0.012262537,1,0.004127011,1,0.230265811,1,-0.610637784,1,2.183495044708252,1
0.999978483,-5.408721924,1,-2.127001047,1,-7.861941814,1,0.004313013,1,-0.007206624,1,0.00623712,1,0.2302846163511276,1,-0.61067903,1,2.183510541915894,1
1.003979802,-5.39951086,1,-2.116432667,1,-7.880877495,1,0.004182781,1,-0.006734395,1,0.008724109,1,0.2302831709384918,1,-0.610711098,1,2.183531284332275,1
1.007977486,-5.362587452,1,-2.092698097,1,-7.875403881,1,-0.000328352,1,-0.000405037,1,0.009463835,1,0.2302704304456711,1,-0.610728681,1,2.183568000793457,1
1.011982799,-5.415513039,1,-2.11751771,1,-7.882113934,1,-0.005233354,1,0.004414446,1,0.008483931,1,0.2302398532629013,1,-0.610726714,1,2.183604479,1
1.015984416,-5.389492989,1,-2.043830156,1,-7.847531319,1,-0.001600367,1,0.005412768,1,0.010411668,1,0.2301866710186005,1,-0.610717416,1,2.183659553527832,1
1.0199821,-5.399775505,1,-2.06414938,1,-7.866104603,1,-0.008153028,1,0.011988828,1,0.011234443,1,0.2301209270954132,1,-0.610693574,1,2.183718919754028,1
1.023981571,-5.38270092,1,-2.095063448,1,-7.845907211,1,-0.00891233,1,0.018697651,1,0.009840024,1,0.2300414443016052,1,-0.610649705,1,2.183790445327759,1
1.027983069,-5.374683857,1,-2.059529781,1,-7.891696453,1,-0.008775332,1,0.019718753,1,0.006786762,1,0.2299545407295227,1,-0.610583961,1,2.183862209320068,1
1.031980753,-5.369628429,1,-2.099126577,1,-7.884998322,1,-0.018016107,1,0.02157056,1,0.011114204,1,0.2298538833856583,1,-0.610514283,1,2.183935880661011,1
1.035980344,-5.368510723,1,-2.112488747,1,-7.928535938,1,-0.018522408,1,0.029012954,1,0.014426886,1,0.2297338247299194,1,-0.610431492,1,2.184025764465332,1
1.03998208,-5.285832882,1,-2.075234175,1,-7.946104527,1,-0.019804347,1,0.030182198,1,0.015318164,1,0.2295984029769897,1,-0.610345483,1,2.184126138687134,1
1.043979764,-5.332064629,1,-2.089291096,1,-7.971177578,1,-0.020802237,1,0.02412631,1,0.016666837,1,0.2294471859931946,1,-0.6102525,1,2.184228897094727,1
1.047979236,-5.348313332,1,-2.042028427,1,-7.97416687,1,-0.023476323,1,0.025833776,1,0.015693987,1,0.2292967438697815,1,-0.610166132,1,2.184339761734009,1
1.051980853,-5.357963085,1,-2.050831079,1,-7.964285851,1,-0.021396795,1,0.023825828,1,0.016551759,1,0.229153499,1,-0.610082448,1,2.184448242,1
1.055978298,-5.356325626,1,-2.01508522,1,-7.968696594,1,-0.023326235,1,0.022995075,1,0.01866788,1,0.229013979,1,-0.610001147,1,2.184553861618042,1
1.05997777,-5.354940891,1,-2.014509678,1,-7.970687389,1,-0.018987142,1,0.023601316,1,0.014030916,1,0.2288710176944733,1,-0.609925866,1,2.184647798538208,1
1.063979268,-5.304633617,1,-1.933466792,1,-8.01222229,1,-0.020357909,1,0.019725719,1,0.013930424,1,0.2287458628416061,1,-0.60985899,1,2.184740543365479,1
1.067976713,-5.328392982,1,-1.889417529,1,-8.017745972,1,-0.017370118,1,0.017060939,1,0.016228657,1,0.2286235839128494,1,-0.609798908,1,2.184829711914063,1
1.071976185,-5.299964905,1,-1.903092146,1,-8.055469513,1,-0.013227021,1,0.012850372,1,0.009381951,1,0.2285241782665253,1,-0.60974896,1,2.184913873672485,1
1.075977683,-5.35211134,1,-1.909798384,1,-8.054821968,1,-0.010420999,1,0.008580003,1,0.008007632,1,0.2284540683031082,1,-0.609707594,1,2.184969663619995,1
1.079975128,-5.331526279,1,-1.991685629,1,-8.046326637,1,-0.006566677,1,0.009268649,1,0.006629094,1,0.2283928841352463,1,-0.609681904,1,2.185017585754395,1
1.0839746,-5.290393829,1,-1.954181552,1,-8.045951843,1,-0.005119986,1,0.005680704,1,0.005321926,1,0.2283482551574707,1,-0.609650791,1,2.185058832168579,1
1.087976456,-5.331196308,1,-1.939716339,1,-8.005781174,1,0.001150512,1,0.005294983,1,0.006096073,1,0.2283175140619278,1,-0.609644055,1,2.185096025466919,1
1.091974378,-5.330351353,1,-1.967784882,1,-8.00994873,1,0.001077877,1,0.001212308,1,0.008039073,1,0.2283097207546234,1,-0.609641254,1,2.185119867324829,1
1.095973849,-5.308101177,1,-1.975021243,1,-8.031014442,1,0.003001788,1,-0.002058889,1,0.003785943,1,0.2283048927783966,1,-0.609658301,1,2.185137033462524,1
1.099975467,-5.33663702,1,-1.965641618,1,-8.01465416,1,0.003099803,1,-0.005379266,1,0.001278171,1,0.2283174097537994,1,-0.609680891,1,2.185144186019897,1
1.10397315,-5.336392879,1,-1.929463506,1,-8.069807053,1,0.009465209,1,-0.012578294,1,0.003799126,1,0.2283338904380798,1,-0.609713256,1,2.185156822,1
1.107972622,-5.314786434,1,-1.973706722,1,-8.02163887,1,0.00881335,1,-0.009559329,1,-0.005207322,1,0.2283735573291779,1,-0.609754443,1,2.185149431228638,1
1.111980081,-5.310012341,1,-1.977171421,1,-7.979320049,1,0.01219637,1,-0.010126368,1,-0.002670796,1,0.2284196317195892,1,-0.609799922,1,2.185131549835205,1
1.115983605,-5.332032204,1,-1.9580369,1,-8.009515762,1,0.013343337,1,-0.014385088,1,-0.000525062,1,0.2284823805093765,1,-0.609846354,1,2.185112953186035,1
1.119983315,-5.351765156,1,-1.975148797,1,-7.972846508,1,0.012886401,1,-0.01271999,1,-0.001712159,1,0.2285511344671249,1,-0.609903514,1,2.185086488723755,1
1.123985171,-5.366743565,1,-1.994079113,1,-7.999728203,1,0.014091188,1,-0.012460853,1,-0.003679673,1,0.2286278605461121,1,-0.609949529,1,2.185055255889893,1
1.127982855,-5.333859444,1,-1.982405186,1,-7.946666718,1,0.018178638,1,-0.015335872,1,-0.003419841,1,0.2287077307701111,1,-0.609997392,1,2.185028553009033,1
1.131982088,-5.374615669,1,-2.02562809,1,-7.948880672,1,0.010890125,1,-0.011660626,1,-0.003552313,1,0.2287851423025131,1,-0.610044301,1,2.184989691,1
1.135983586,-5.365095615,1,-2.043563843,1,-7.920866489,1,0.017318593,1,-0.008235415,1,-0.003592224,1,0.2288578152656555,1,-0.610085905,1,2.184957027435303,1
1.13998127,-5.38027668,1,-2.017052412,1,-7.899997234,1,0.012364224,1,-0.010311496,1,-0.004645852,1,0.2289350628852844,1,-0.610113919,1,2.184929132461548,1
1.143981099,-5.415454388,1,-2.035195827,1,-7.9170928,1,0.00972378,1,-0.004384407,1,-0.000730842,1,0.2289883494377136,1,-0.610136151,1,2.184911489486694,1
1.147982836,-5.400476933,1,-2.064378023,1,-7.898119926,1,0.007792274,1,-0.001164313,1,-0.002909928,1,0.2290337532758713,1,-0.610147119,1,2.184898138046265,1
1.151980519,-5.404107571,1,-2.051706076,1,-7.868108749,1,0.007061563,1,-3.15E-05,1,-0.001506959,1,0.2290710806846619,1,-0.610144079,1,2.184892177581787,1
1.155979991,-5.409810543,1,-2.093989611,1,-7.852114201,1,0.004586498,1,0.004041847,1,0.000554324,1,0.2290894538164139,1,-0.610136807,1,2.184895277023315,1
1.159981608,-5.399588585,1,-2.061036348,1,-7.91822052,1,0.000884074,1,0.009093477,1,0.005989423,1,0.2291001528501511,1,-0.610113204,1,2.184906005859375,1
1.163979292,-5.386882305,1,-2.067064285,1,-7.905395508,1,0.002919797,1,0.009674428,1,0.005158425,1,0.229085237,1,-0.610085785,1,2.184932470321655,1
1.167978764,-5.355717659,1,-2.119568825,1,-7.895382881,1,-0.001093685,1,0.01273861,1,0.003126079,1,0.2290735393762589,1,-0.610045791,1,2.184955596923828,1
1.171980262,-5.388439178,1,-2.106721163,1,-7.922137737,1,-0.005058133,1,0.015491454,1,0.008853934,1,0.229043722,1,-0.609996974,1,2.184996366500854,1
1.175977707,-5.397326469,1,-2.118202209,1,-7.912861824,1,-0.003512286,1,0.0153381,1,0.010166809,1,0.2289906740188599,1,-0.609942317,1,2.185059547424316,1
1.179983377,-5.335154057,1,-2.111523151,1,-7.913370132,1,-0.010027854,1,0.014254973,1,0.008760316,1,0.2289349734783173,1,-0.609884739,1,2.185118198394775,1
1.183984876,-5.339081764,1,-2.119287729,1,-7.925544262,1,-0.008308925,1,0.01941759,1,0.008778659,1,0.229356974,1,-0.608992279,1,2.185158729553223,1
1.187982559,-5.387412548,1,-2.11045289,1,-7.941669464,1,-0.013138761,1,0.020597285,1,0.013757464,1,0.2293314188718796,1,-0.608976424,1,2.184910774230957,1
1.191982031,-5.347661018,1,-2.108548164,1,-7.96848011,1,-0.014115013,1,0.016837792,1,0.014192068,1,0.2292291522026062,1,-0.608908296,1,2.184996843338013,1
1.195983648,-5.351059437,1,-2.084237337,1,-7.976246834,1,-0.016229387,1,0.022277733,1,0.012095161,1,0.2291168421506882,1,-0.608838439,1,2.185079574584961,1
1.19998157,-5.343806267,1,-2.056576252,1,-8.012429237,1,-0.014522634,1,0.018215589,1,0.016840389,1,0.2290009707212448,1,-0.608779907,1,2.185182094573975,1
1.203981042,-5.377307892,1,-2.055930376,1,-8.003631592,1,-0.016093062,1,0.016316975,1,0.016443359,1,0.2288836240768433,1,-0.608723581,1,2.185272216796875,1
1.207988501,-5.356611729,1,-1.986008048,1,-8.016652107,1,-0.016147371,1,0.014595705,1,0.013924436,1,0.2287643104791641,1,-0.608666599,1,2.185368061065674,1
1.211992264,-5.365267754,1,-1.982160568,1,-8.016750336,1,-0.013570475,1,0.019541096,1,0.014103171,1,0.2286428362131119,1,-0.608614385,1,2.185461759567261,1
1.215992093,-5.324840069,1,-1.941265464,1,-8.005702019,1,-0.011984535,1,0.017380632,1,0.016466051,1,0.2285406738519669,1,-0.608564138,1,2.185550212860107,1
1.219993591,-5.35840559,1,-1.942745209,1,-7.993291855,1,-0.007256962,1,0.014496588,1,0.009143089,1,0.2284448444843292,1,-0.608517945,1,2.185631036758423,1
1.223991036,-5.329354763,1,-1.918588281,1,-7.99034214,1,-0.008323381,1,0.010644523,1,0.009931994,1,0.2283748686313629,1,-0.60847795,1,2.185704469680786,1
1.227990508,-5.312491417,1,-1.961640954,1,-7.988126755,1,-0.0075548,1,0.008919552,1,0.01105273,1,0.228314072,1,-0.608440936,1,2.185764074325562,1
1.231992006,-5.342255592,1,-1.950057864,1,-7.992705822,1,-0.00538038,1,0.013922066,1,0.007615822,1,0.2282568663358688,1,-0.608401239,1,2.185818910598755,1
1.235989451,-5.322025776,1,-1.955157995,1,-7.979367256,1,-0.001050899,1,0.0084164,1,0.009919355,1,0.2282119542360306,1,-0.608374417,1,2.185876369476318,1
1.239988685,-5.319831848,1,-1.944970965,1,-7.993372917,1,-0.00233696,1,0.008682461,1,0.005414695,1,0.2281736880540848,1,-0.60834372,1,2.185925960540771,1
1.243990541,-5.326129913,1,-1.948295593,1,-7.972943306,1,-0.000401825,1,0.007963579,1,0.009696412,1,0.2281381785869598,1,-0.608309746,1,2.185975551605225,1
1.247988224,-5.365880966,1,-1.983376145,1,-7.960808277,1,-0.004707677,1,0.011625972,1,0.007113012,1,0.2281066477298737,1,-0.608271182,1,2.186024427,1
1.251987934,-5.341003418,1,-1.948382497,1,-7.985029221,1,0.003073717,1,0.009542891,1,0.006837387,1,0.2280721813440323,1,-0.608232677,1,2.186071634292603,1
1.255989552,-5.354404449,1,-1.967049122,1,-7.987129211,1,0.001400864,1,0.01402102,1,0.00719718,1,0.2280584573745728,1,-0.608189762,1,2.186108350753784,1
1.259986997,-5.326701164,1,-2.024175406,1,-8.007181168,1,0.001111357,1,0.010321898,1,0.00732412,1,0.2280364483594894,1,-0.608135819,1,2.186154365539551,1
1.263986707,-5.32854557,1,-2.041939259,1,-8.047766685,1,0.001078113,1,0.014925708,1,0.003432097,1,0.2280143797397614,1,-0.608092606,1,2.186199903488159,1
1.267988443,-5.357288837,1,-2.123701096,1,-7.989833832,1,0.000456443,1,0.012186572,1,0.005627825,1,0.2280031144618988,1,-0.608049512,1,2.186243295669556,1
1.271986127,-5.354435444,1,-2.09531641,1,-7.974341869,1,-0.000347175,1,0.013468842,1,0.00787426,1,0.2279688268899918,1,-0.608007669,1,2.186296224594116,1
1.275985718,-5.338499546,1,-2.076900721,1,-8.001193047,1,-0.00178006,1,0.016259244,1,0.008599395,1,0.2279255539178848,1,-0.607957959,1,2.186354160308838,1
1.279987216,-5.352887154,1,-2.064935446,1,-7.974759102,1,-0.004922228,1,0.014350885,1,0.011945332,1,0.2278796285390854,1,-0.60790962,1,2.186415433883667,1
1.2839849,-5.381785393,1,-2.064448595,1,-7.977372646,1,-0.002515405,1,0.019796647,1,0.009664975,1,0.227824941,1,-0.607850611,1,2.186487197875977,1
1.287984371,-5.402674675,1,-2.047490597,1,-7.993271351,1,-0.006847561,1,0.012714918,1,0.011105267,1,0.2277638763189316,1,-0.607797682,1,2.186555862426758,1
1.291985869,-5.397554398,1,-2.028217554,1,-7.991888046,1,-0.007977415,1,0.019220173,1,0.008976097,1,0.2276953309774399,1,-0.607740998,1,2.186631679534912,1
1.295983672,-5.341290951,1,-2.026137829,1,-7.985860825,1,-0.008270445,1,0.02022074,1,0.0118209,1,0.2276271730661392,1,-0.607678652,1,2.186697959899902,1
1.299983144,-5.352559566,1,-1.998989701,1,-7.981842995,1,-0.010153771,1,0.02045182,1,0.011172225,1,0.2275509387254715,1,-0.607614636,1,2.186765432357788,1
1.303991079,-5.336225986,1,-1.987115145,1,-7.999062061,1,-0.008293072,1,0.014546567,1,0.012155743,1,0.227488637,1,-0.60755986,1,2.186829566955566,1
1.307995439,-5.340929031,1,-1.99042809,1,-7.981836319,1,-0.00857091,1,0.012051955,1,0.01173744,1,0.2274188101291656,1,-0.60751915,1,2.186896085739136,1
1.311995625,-5.301927567,1,-1.959342003,1,-7.997226715,1,-0.006895059,1,0.012508366,1,0.00810912,1,0.2273597717285156,1,-0.607474625,1,2.186956405639648,1
1.315997481,-5.310242176,1,-1.975145578,1,-8.00286293,1,-0.006041387,1,0.011703955,1,0.011766399,1,0.2273055911064148,1,-0.607433259,1,2.187011241912842,1
1.319995165,-5.319335938,1,-1.979129076,1,-8.002809525,1,-0.003449105,1,0.011962894,1,0.007186064,1,0.2272559106349945,1,-0.607396781,1,2.187068700790405,1
1.323994637,-5.361451626,1,-1.955429435,1,-8.015345573,1,-0.003074615,1,0.012372765,1,0.010717453,1,0.2272089421749115,1,-0.607353449,1,2.187125205993652,1
1.327996135,-5.306254387,1,-2.005815983,1,-7.985058784,1,0.001843113,1,0.010134833,1,0.00767992,1,0.2271731793880463,1,-0.607321799,1,2.187173128128052,1
1.33199358,-5.352427959,1,-2.008795023,1,-8.009068489,1,-0.001690014,1,0.010139768,1,0.009530735,1,0.2271496802568436,1,-0.607288182,1,2.187219858169556,1
1.335993052,-5.342414856,1,-2.007249832,1,-8.020195007,1,0.002005794,1,0.015076132,1,0.007650535,1,0.2271160185337067,1,-0.607260942,1,2.187270402908325,1
1.339994669,-5.32483387,1,-1.989883542,1,-7.987246513,1,-0.00265806,1,0.010801993,1,0.006958953,1,0.2270920276641846,1,-0.607222617,1,2.187315940856934,1
1.343992114,-5.346010685,1,-2.011597872,1,-7.986651421,1,-0.000573126,1,0.009610246,1,0.009020162,1,0.2270642220973969,1,-0.607193053,1,2.187369585037231,1
1.347991586,-5.345407486,1,-2.018009186,1,-8.004794121,1,-0.001442973,1,0.011993853,1,0.009012692,1,0.2270394116640091,1,-0.607152879,1,2.187419414520264,1
1.351993084,-5.350832939,1,-2.046025038,1,-8.015688896,1,-0.000307314,1,0.006846506,1,0.01099773,1,0.2270164787769318,1,-0.607119679,1,2.187460422515869,1
1.355990529,-5.327090263,1,-2.018518686,1,-8.031312943,1,0.000680113,1,0.010166775,1,0.009584226,1,0.2269911020994186,1,-0.60708946,1,2.187516212463379,1
1.359990001,-5.336632729,1,-2.010893822,1,-8.021541595,1,0.002809669,1,0.007917215,1,0.010040393,1,0.2269568890333176,1,-0.607064128,1,2.187578201293945,1
1.363991499,-5.360229492,1,-2.04813838,1,-8.006976128,1,0.000791741,1,0.009111779,1,0.007735394,1,0.2269271165132523,1,-0.607038856,1,2.187631607055664,1
1.367989302,-5.340044975,1,-2.085856915,1,-8.005087852,1,-2.53E-05,1,0.009861226,1,0.01368189,1,0.2268854379653931,1,-0.60701704,1,2.187690258026123,1
1.371988773,-5.336496353,1,-2.048406839,1,-8.00725174,1,-0.001807911,1,0.004974605,1,0.010024399,1,0.226850763,1,-0.607001245,1,2.187744141,1
1.375990272,-5.360150337,1,-2.019958973,1,-7.986491203,1,0.001142707,1,0.004498846,1,0.014400993,1,0.2268130630254745,1,-0.60699439,1,2.187799453735352,1
1.379987955,-5.344203472,1,-2.00255394,1,-8.041730881,1,-0.002537569,1,0.001875377,1,0.012527681,1,0.2267717868089676,1,-0.606990039,1,2.187857627868652,1
1.383987427,-5.337590694,1,-1.965380192,1,-7.988296032,1,-0.002538287,1,0.003991738,1,0.012010925,1,0.2267328798770905,1,-0.606994629,1,2.187911272,1
1.387989044,-5.354935169,1,-1.974976778,1,-8.007511139,1,1.691340003162622e-05,1,-0.000831341,1,0.009101528,1,0.2266996502876282,1,-0.606997311,1,2.187963008880615,1
1.391986728,-5.317019939,1,-2.014344692,1,-7.99149704,1,-0.001418138,1,-0.000407554,1,0.011316762,1,0.2266764789819717,1,-0.607002974,1,2.188010931015015,1
1.395986199,-5.368088722,1,-2.010725737,1,-8.034459114,1,0.002105601,1,0.000276576,1,0.00967137,1,0.2266512364149094,1,-0.607010722,1,2.188050031661987,1
1.399987459,-5.323030472,1,-1.9712466,1,-7.97040987,1,-0.000294916,1,-0.000367239,1,0.008416078,1,0.2266267240047455,1,-0.607017875,1,2.188096523284912,1
1.403991342,-5.369073868,1,-1.996365786,1,-7.959111214,1,0.003604081,1,7.578032091259956e-05,1,0.0075235,1,0.226609007,1,-0.607029736,1,2.188142776489258,1
1.40799129,-5.299984455,1,-1.990169883,1,-7.984687328,1,-0.000580414,1,-0.000480887,1,0.004111346,1,0.2265935093164444,1,-0.607044935,1,2.188174486160278,1
1.411993146,-5.289540768,1,-1.948181033,1,-7.981494427,1,0.002258527,1,0.000817427,1,0.008921629,1,0.2265914231538773,1,-0.607048392,1,2.188200950622559,1
1.415990829,-5.289048672,1,-1.942431688,1,-8.026747704,1,0.000882801,1,-0.00468141,1,0.001136287,1,0.2265923321247101,1,-0.607065856,1,2.188216448,1
1.419990301,-5.3017869,1,-1.92879045,1,-8.033895493,1,0.007698656,1,-0.001733282,1,0.004309915,1,0.2266083061695099,1,-0.60707891,1,2.188226938247681,1
1.423991799,-5.326604843,1,-1.992686749,1,-7.999764442,1,0.011105047,1,-0.002974031,1,0.004068821,1,0.2266313880681992,1,-0.607090056,1,2.188239097595215,1
1.427989483,-5.307553768,1,-1.979927897,1,-8.004259109,1,0.009524461,1,-0.004048154,1,-0.000335773,1,0.2266654968261719,1,-0.607103467,1,2.188242673873901,1
1.431988716,-5.314126968,1,-1.996244907,1,-7.983305931,1,0.009265313,1,-0.003776506,1,-0.002153066,1,0.2267077267169952,1,-0.607120335,1,2.188234329223633,1
1.435990214,-5.353818417,1,-2.020626068,1,-8.011366844,1,0.011808589,1,-0.005710655,1,-0.001362575,1,0.2272680699825287,1,-0.606286526,1,2.187859296798706,1
1.439987659,-5.324763298,1,-2.031998634,1,-8.011223793,1,0.012718127,1,-0.008976637,1,-0.002492069,1,0.2273192703723907,1,-0.606304884,1,2.187855958938599,1
1.44398725,-5.321434498,1,-2.026461601,1,-8.052615166,1,0.012507879,1,-0.007731252,1,-0.003237949,1,0.2273804694414139,1,-0.606330395,1,2.187842369,1
1.447988749,-5.298068047,1,-2.064730406,1,-8.057528496,1,0.010304532,1,-0.007338986,1,0.001724935,1,0.2274277806282043,1,-0.606358945,1,2.187838315963745,1
1.451986194,-5.31366539,1,-2.095299959,1,-8.005978584,1,0.007558831,1,-0.009535176,1,0.006222901,1,0.2274630069732666,1,-0.606386602,1,2.187839984893799,1
1.455985904,-5.339289665,1,-2.078554392,1,-8.014296532,1,0.006385126,1,-0.003298443,1,0.000476727,1,0.2274918109178543,1,-0.606414437,1,2.187847137451172,1
1.45998776,-5.37009716,1,-2.059303522,1,-8.023478508,1,0.007374471,1,-0.005291502,1,0.006320736,1,0.2275041341781616,1,-0.606444955,1,2.187859296798706,1
1.463985443,-5.375981808,1,-2.052832842,1,-7.973204136,1,0.004715482,1,-0.005436386,1,0.002583661,1,0.2275192886590958,1,-0.606471539,1,2.187885999679565,1
1.467985153,-5.354540348,1,-1.989213943,1,-7.987452507,1,0.009447588,1,-0.00356885,1,0.004277971,1,0.2275295406579971,1,-0.60649091,1,2.187902212142944,1
1.471986651,-5.364257813,1,-2.02206254,1,-7.983341217,1,0.004741676,1,-0.000433917,1,0.003063925,1,0.2275435775518417,1,-0.606513143,1,2.187914609909058,1
1.475984335,-5.340760231,1,-2.020879507,1,-7.966700554,1,0.003599452,1,-0.004951597,1,0.006996506,1,0.2275552302598953,1,-0.606537521,1,2.187931299209595,1
1.479983926,-5.367210388,1,-2.036625624,1,-7.972388268,1,0.007653825,1,-0.001826547,1,0.004350811,1,0.2275686264038086,1,-0.606550038,1,2.187949895858765,1
1.483985424,-5.354077816,1,-1.980986834,1,-7.948753834,1,0.002379823,1,-0.001667884,1,0.004088552,1,0.227586031,1,-0.606556296,1,2.187960624694824,1
1.487983108,-5.308214188,1,-1.944044471,1,-7.955361843,1,0.006945831,1,0.001650078,1,0.000581137,1,0.2275979071855545,1,-0.606566429,1,2.187972545623779,1
1.491982579,-5.336403847,1,-1.968236327,1,-7.991715908,1,0.006350242,1,-0.00079141,1,0.001448383,1,0.2276155054569244,1,-0.606570005,1,2.187985897064209,1
1.495983839,-5.359426022,1,-1.977902055,1,-7.991486549,1,0.010886026,1,0.000221012,1,0.000385297,1,0.2276499718427658,1,-0.60657084,1,2.187985420227051,1
1.499987245,-5.338724613,1,-1.973061204,1,-7.979898453,1,0.0091128,1,-0.002066706,1,-0.002609263,1,0.2276841551065445,1,-0.606575668,1,2.187979221343994,1
1.503986716,-5.320919991,1,-1.99756968,1,-7.980993748,1,0.011672113,1,0.002747985,1,-0.003008546,1,0.2277286648750305,1,-0.606575012,1,2.187969207763672,1
1.507988214,-5.328841686,1,-1.996274948,1,-7.96639967,1,0.006846547,1,-0.000274439,1,-0.005398894,1,0.2277730852365494,1,-0.606568217,1,2.187955379486084,1
1.511985898,-5.335802555,1,-1.992507696,1,-7.949972153,1,0.005746172,1,0.002457107,1,-0.008531915,1,0.2278149724006653,1,-0.606560707,1,2.187937259674072,1
1.51598537,-5.352534771,1,-2.003177881,1,-7.945027828,1,0.010344324,1,0.000336005,1,-0.002121385,1,0.2278497219085693,1,-0.606558979,1,2.187919378,1
1.519987226,-5.362186432,1,-2.008544922,1,-7.973978043,1,0.00471156,1,0.00250797,1,-0.001926736,1,0.2278905510902405,1,-0.606550455,1,2.187908649,1
1.523984909,-5.363337517,1,-2.0000875,1,-7.943554401,1,0.003711532,1,0.006019732,1,-0.004987126,1,0.227928489,1,-0.60653919,1,2.187887668609619,1
1.527984381,-5.396001339,1,-2.038388252,1,-7.943207741,1,0.007909147,1,0.004429363,1,-0.003386702,1,0.227952704,1,-0.606516242,1,2.187887191772461,1
1.531985879,-5.38960743,1,-2.054544687,1,-7.925290108,1,0.007421347,1,0.007233058,1,-0.00540819,1,0.2279716581106186,1,-0.606483638,1,2.187878608703613,1
1.535983562,-5.350350857,1,-2.071294546,1,-7.966100693,1,0.005387574,1,0.009985023,1,-0.000161724,1,0.2279860377311707,1,-0.606443524,1,2.187878608703613,1
1.539983153,-5.384477615,1,-2.056995392,1,-7.97475481,1,0.000335625,1,0.012826525,1,0.00179281,1,0.2280066907405853,1,-0.606395662,1,2.187877178192139,1
1.543984652,-5.348851681,1,-2.094700098,1,-7.946481705,1,-0.002096995,1,0.016496066,1,-0.00302343,1,0.2279983460903168,1,-0.606328607,1,2.187887907028198,1
1.547982097,-5.372570515,1,-2.097352505,1,-7.934949875,1,-0.004132156,1,0.017447043,1,-0.001715935,1,0.2279774248600006,1,-0.606262445,1,2.187902450561523,1
1.551981568,-5.386295319,1,-2.050218582,1,-7.912138939,1,-0.006549777,1,0.023312941,1,0.002044529,1,0.2279434055089951,1,-0.606179297,1,2.187929153442383,1
1.555983067,-5.359980106,1,-2.091284037,1,-7.935741425,1,-0.009916484,1,0.023579706,1,0.001349156,1,0.2278913855552673,1,-0.606083393,1,2.187961817,1
1.55998075,-5.390707016,1,-2.085999489,1,-7.902919769,1,-0.006567247,1,0.0281772,1,-0.001130768,1,0.227837399,1,-0.605979383,1,2.188006878,1
1.563980341,-5.369572639,1,-2.082853079,1,-7.935823441,1,-0.015307195,1,0.031606972,1,0.001236307,1,0.2277719974517822,1,-0.605866492,1,2.188041449,1
1.567982078,-5.327424526,1,-2.002439022,1,-7.960362911,1,-0.01021943,1,0.032178015,1,0.001525082,1,0.2277062833309174,1,-0.605741084,1,2.188080072402954,1
1.57198,-5.343482494,1,-2.016445637,1,-7.976967335,1,-0.014580232,1,0.031008823,1,0.003407416,1,0.2276292443275452,1,-0.605619311,1,2.188129663467407,1
1.575979471,-5.330159664,1,-1.998376727,1,-7.969637871,1,-0.00766985,1,0.032345958,1,0.0009367,1,0.2275572568178177,1,-0.60549891,1,2.188172340393066,1
1.579981089,-5.32298851,1,-1.987775445,1,-7.994039536,1,-0.010347911,1,0.037965417,1,0.000280559,1,0.2274899333715439,1,-0.605370104,1,2.188211917877197,1
1.583978772,-5.321117401,1,-1.971211195,1,-7.98304987,1,-0.004884837,1,0.03125,1,0.000428271,1,0.2274342030286789,1,-0.605232477,1,2.188253164291382,1
1.587978244,-5.285685539,1,-1.915866613,1,-7.953672409,1,-0.010334313,1,0.034941562,1,-0.003622626,1,0.2273809909820557,1,-0.605096221,1,2.188287019729614,1
1.591979504,-5.293534279,1,-1.920334458,1,-8.013792992,1,-0.006229155,1,0.034630008,1,-0.004142358,1,0.2273332923650742,1,-0.604955256,1,2.188309431,1
1.595977187,-5.293654442,1,-1.926601052,1,-8.021677971,1,-0.003820415,1,0.033841088,1,-0.005270563,1,0.227303073,1,-0.604818165,1,2.188330173492432,1
1.599982858,-5.300868034,1,-1.905312061,1,-8.033942223,1,-0.003614534,1,0.034257907,1,-0.007351264,1,0.2272816300392151,1,-0.604681492,1,2.188342332839966,1
1.603984594,-5.297198296,1,-1.897886872,1,-8.030832291,1,0.002799199,1,0.029337827,1,-0.00658808,1,0.2272773385047913,1,-0.60455811,1,2.188342571258545,1
1.607982278,-5.286725998,1,-1.886909008,1,-8.016532898,1,0.003957499,1,0.028470974,1,-0.013886546,1,0.2272944748401642,1,-0.604427397,1,2.18833065,1
1.611981869,-5.265228748,1,-1.906589866,1,-8.030836105,1,0.007310642,1,0.027602641,1,-0.013237739,1,0.227332741,1,-0.604307055,1,2.188308000564575,1
1.615983367,-5.294087887,1,-1.972884059,1,-8.052331924,1,0.011278417,1,0.026066296,1,-0.010284644,1,0.2273869663476944,1,-0.604193687,1,2.188282967,1
1.619980812,-5.267764091,1,-2.002306938,1,-8.030988693,1,0.011256358,1,0.022983814,1,-0.015696937,1,0.2274472862482071,1,-0.60408479,1,2.188252449035645,1
1.623980522,-5.290273666,1,-2.013775587,1,-8.053910255,1,0.013262039,1,0.023306802,1,-0.014423072,1,0.2275307774543762,1,-0.603979349,1,2.188205718994141,1
1.627982378,-5.295238018,1,-2.005162239,1,-8.01347065,1,0.009603471,1,0.018386737,1,-0.011278667,1,0.2276002764701843,1,-0.603875935,1,2.188166379928589,1
1.631980062,-5.297685623,1,-2.027000904,1,-8.040598869,1,0.014551835,1,0.027235342,1,-0.01982329,1,0.2276699542999268,1,-0.603779197,1,2.188123941421509,1
1.635979772,-5.325116634,1,-1.986434102,1,-8.033715248,1,0.013757138,1,0.021862086,1,-0.012724267,1,0.2277537882328033,1,-0.603670239,1,2.188071250915527,1
1.63998127,-5.295633793,1,-1.994361997,1,-7.994096279,1,0.014226398,1,0.024375085,1,-0.014855139,1,0.2278394550085068,1,-0.603574097,1,2.188021421432495,1
1.643978715,-5.279307365,1,-1.993616462,1,-8.002317429,1,0.017270764,1,0.023886632,1,-0.01946065,1,0.2279261201620102,1,-0.60346663,1,2.187974214553833,1
1.647978187,-5.284641266,1,-1.998783231,1,-7.995978355,1,0.012375028,1,0.02024933,1,-0.015690619,1,0.2280233055353165,1,-0.603361309,1,2.187917232513428,1
1.651979804,-5.339959145,1,-2.002522707,1,-7.974226475,1,0.017338771,1,0.023776436,1,-0.015535993,1,0.2281174063682556,1,-0.603261948,1,2.187865734100342,1
1.655977249,-5.29934454,1,-2.055568457,1,-8.018232346,1,0.019077467,1,0.023937175,1,-0.017768452,1,0.2282240837812424,1,-0.603153288,1,2.187803030014038,1
1.659976721,-5.323212147,1,-2.037799835,1,-8.00075531,1,0.014799365,1,0.023596942,1,-0.016677655,1,0.2283206582069397,1,-0.603043735,1,2.187747716903687,1
1.663978219,-5.324765205,1,-2.003480673,1,-7.985087872,1,0.017454365,1,0.025292804,1,-0.019649273,1,0.2284154146909714,1,-0.602920651,1,2.187695741653442,1
1.667975903,-5.316553593,1,-1.996482134,1,-7.975878716,1,0.018044593,1,0.025747491,1,-0.019178024,1,0.2285214513540268,1,-0.602802515,1,2.187637567520142,1
1.671975374,-5.328150749,1,-2.003885508,1,-7.977890491,1,0.021663224,1,0.027496995,1,-0.020239027,1,0.2286356389522552,1,-0.602671862,1,2.187575817108154,1
1.675976992,-5.266283512,1,-1.985362887,1,-8.019199371,1,0.019922445,1,0.027358042,1,-0.021732539,1,0.2287600785493851,1,-0.602540374,1,2.187506198883057,1
1.679974914,-5.212464333,1,-2.022657633,1,-8.048646927,1,0.017891347,1,0.024777498,1,-0.017433895,1,0.2288720309734344,1,-0.60242027,1,2.187440872192383,1
1.683974385,-5.21151638,1,-2.006082773,1,-8.080348015,1,0.023575785,1,0.020615432,1,-0.017246213,1,0.229431614,1,-0.601458251,1,2.187347650527954,1
1.687975645,-5.267819881,1,-2.026727676,1,-8.078425407,1,0.019794937,1,0.019866068,1,-0.013320338,1,0.2296075820922852,1,-0.601412892,1,2.186967134475708,1
1.691973329,-5.263278484,1,-2.068021297,1,-8.07697773,1,0.019393217,1,0.017379157,1,-0.015402738,1,0.2297078371047974,1,-0.601322412,1,2.186925649642944,1
1.695978761,-5.297171116,1,-2.078372717,1,-8.085961342,1,0.018561862,1,0.018566053,1,-0.015928807,1,0.2298169434070587,1,-0.601242244,1,2.186875104904175,1
1.699980497,-5.260406971,1,-2.143859386,1,-8.122641563,1,0.018219708,1,0.016926995,1,-0.01454532,1,0.2299123853445053,1,-0.601161599,1,2.186831951141357,1
1.703978181,-5.272743702,1,-2.097737312,1,-8.089349747,1,0.018710833,1,0.014553847,1,-0.010102941,1,0.2300031036138535,1,-0.601090908,1,2.186793565750122,1
1.707977772,-5.236085892,1,-2.131160021,1,-8.118004799,1,0.016745187,1,0.007291869,1,-0.007502432,1,0.2300902754068375,1,-0.601035476,1,2.186760425567627,1
1.71197927,-5.268651485,1,-2.121061802,1,-8.089216232,1,0.015821826,1,0.006042327,1,-0.010065746,1,0.2301710993051529,1,-0.600997865,1,2.186730861663818,1
1.715976715,-5.284024715,1,-2.148379326,1,-8.078709602,1,0.011099651,1,0.004250049,1,-0.005616153,1,0.2302400916814804,1,-0.600965202,1,2.186703443527222,1
1.719976425,-5.272068977,1,-2.100249767,1,-8.083717346,1,0.01059139,1,-0.000509172,1,-0.003678656,1,0.2303019911050797,1,-0.600955188,1,2.186675071716309,1
1.723978043,-5.299440384,1,-2.094302177,1,-8.10983181,1,0.009767936,1,-0.001677058,1,-0.008436241,1,0.2303654998540878,1,-0.600947082,1,2.186645746231079,1
1.727975726,-5.243054867,1,-2.049032211,1,-8.066124916,1,0.009802834,1,0.000203504,1,-0.002834158,1,0.2304226756095886,1,-0.60095036,1,2.186615943908691,1
1.731975436,-5.259706497,1,-1.995926857,1,-8.051978111,1,0.007014186,1,-0.004623943,1,-0.004897699,1,0.2304765284061432,1,-0.600952268,1,2.186588048934937,1
1.735976934,-5.250305653,1,-2.013835907,1,-8.069659233,1,0.011123605,1,-0.008533539,1,-0.006375369,1,0.2305317372083664,1,-0.60097754,1,2.186558723449707,1
1.739974618,-5.27320385,1,-2.011646271,1,-8.032323837,1,0.015382959,1,-0.006301131,1,-0.004125433,1,0.2306012362241745,1,-0.601006627,1,2.186523199081421,1
1.74397409,-5.298348427,1,-2.021114588,1,-8.032322884,1,0.011329355,1,-0.01291295,1,-0.006007055,1,0.2306718677282333,1,-0.601038992,1,2.186488628387451,1
1.747975707,-5.309856415,1,-2.009997845,1,-8.032019615,1,0.014703053,1,-0.010156235,1,-0.009012961,1,0.2307464629411697,1,-0.601078808,1,2.186446905136108,1
1.751973152,-5.273918152,1,-2.049691677,1,-8.02630043,1,0.008909982,1,-0.012698319,1,-0.005659719,1,0.2308217883110046,1,-0.601120293,1,2.186405658721924,1
1.755972624,-5.292256355,1,-2.072577477,1,-8.022452354,1,0.013998256,1,-0.011879859,1,-0.002042748,1,0.230893001,1,-0.601165056,1,2.186362504959106,1
1.759974122,-5.265849113,1,-2.056084156,1,-8.013339996,1,0.011839014,1,-0.016347699,1,-0.002526811,1,0.2309644222259521,1,-0.60121572,1,2.186326503753662,1
1.763971806,-5.248485088,1,-2.042351484,1,-8.020673752,1,0.010628522,1,-0.011637516,1,-0.002229914,1,0.2310260236263275,1,-0.601267576,1,2.186290026,1
1.767971277,-5.27145195,1,-2.077678442,1,-8.008905411,1,0.010861514,1,-0.014367566,1,-0.002382726,1,0.2310834228992462,1,-0.601315618,1,2.186265707015991,1
1.771972895,-5.305334568,1,-2.095339537,1,-8.008265495,1,0.005806371,1,-0.012540948,1,-0.001788778,1,0.2311316132545471,1,-0.60136503,1,2.186241865158081,1
1.775970817,-5.304733276,1,-2.085226059,1,-7.964925289,1,0.007787411,1,-0.012062035,1,-0.004350189,1,0.2311796098947525,1,-0.601412058,1,2.186220884,1
1.779970288,-5.273574829,1,-2.079768896,1,-8.009752274,1,0.008255257,1,-0.007166299,1,0.000566055,1,0.2312225550413132,1,-0.601445615,1,2.186202288,1
1.783971786,-5.281935215,1,-2.070733786,1,-7.97439146,1,0.004183471,1,-0.007473144,1,0.004341702,1,0.2312505096197128,1,-0.601469219,1,2.186200857162476,1
1.787969589,-5.321822643,1,-2.062708616,1,-7.987386227,1,0.00507157,1,0.001014479,1,-0.002401405,1,0.2312755584716797,1,-0.601492643,1,2.186195611953735,1
1.791969061,-5.308681488,1,-2.022451878,1,-7.984768391,1,0.004228559,1,-0.003845752,1,0.00037625,1,0.23128888,1,-0.601504385,1,2.186191558837891,1
1.795970559,-5.311243057,1,-2.007715702,1,-7.94748354,1,0.005411783,1,-0.001537989,1,0.001684064,1,0.2313098460435867,1,-0.60151279,1,2.186186075210571,1
1.799968243,-5.310837269,1,-2.039740324,1,-8.003611565,1,0.004151145,1,0.001139946,1,-0.000474223,1,0.2313259243965149,1,-0.601516604,1,2.186187505722046,1
1.803967476,-5.311434269,1,-2.016356468,1,-7.978532314,1,0.004255772,1,-0.000124719,1,-0.000594379,1,0.2313400357961655,1,-0.601511359,1,2.186182975769043,1
1.807968974,-5.307377338,1,-2.020561695,1,-7.980912685,1,0.00331547,1,-0.003439675,1,-0.003837272,1,0.2313613146543503,1,-0.601506591,1,2.186180353164673,1
1.811966777,-5.28361702,1,-2.03531003,1,-7.948860168,1,0.004671196,1,0.004222166,1,0.00296557,1,0.2313860505819321,1,-0.601502538,1,2.186170339584351,1
1.815966249,-5.268016815,1,-2.025840998,1,-7.983212948,1,0.004979208,1,-0.000948675,1,-0.005498738,1,0.2314148098230362,1,-0.601494789,1,2.186166763305664,1
1.819967747,-5.317558289,1,-2.059407949,1,-8.001194,1,0.006136111,1,0.000497187,1,-0.001447991,1,0.2314464002847672,1,-0.601486802,1,2.186156749725342,1
1.823965192,-5.289075375,1,-2.052982807,1,-8.006602287,1,0.004845236,1,0.003729399,1,-0.00342453,1,0.2314739525318146,1,-0.601479352,1,2.186149120330811,1
1.827964902,-5.281744957,1,-2.086816311,1,-8.008094788,1,0.003991775,1,0.003000614,1,0.000226084,1,0.2314985394477844,1,-0.601476312,1,2.186149835586548,1
1.831966519,-5.298609734,1,-2.064479589,1,-7.992706776,1,0.004535902,1,0.000751095,1,-0.001030341,1,0.2315188050270081,1,-0.601465464,1,2.186153888702393,1
1.835964203,-5.304018021,1,-2.095480442,1,-7.979060173,1,0.001866924,1,0.003927371,1,-0.002214353,1,0.2315257340669632,1,-0.601449072,1,2.186162472,1
1.839963913,-5.284354687,1,-2.107053041,1,-8.010051727,1,0.002456215,1,0.003568885,1,0.000291233,1,0.2315326482057571,1,-0.601432979,1,2.186159610748291,1
1.84396565,-5.284146786,1,-2.088302851,1,-7.975726128,1,0.001847842,1,0.008363997,1,-0.000296413,1,0.2315352112054825,1,-0.601412535,1,2.186171054840088,1
1.847963691,-5.304488659,1,-2.084383488,1,-7.981626034,1,0.002009855,1,0.006166981,1,0.003169831,1,0.2315346747636795,1,-0.601391673,1,2.186182975769043,1
1.851963162,-5.320774078,1,-2.039483547,1,-8.010190964,1,0.002798437,1,0.007388982,1,0.006220052,1,0.2315298318862915,1,-0.601368606,1,2.186208724975586,1
1.855964661,-5.329017162,1,-2.015989542,1,-8.003533363,1,0.002478065,1,0.004942531,1,0.001255284,1,0.2315260916948318,1,-0.601343989,1,2.186216115951538,1
1.859962344,-5.293604851,1,-2.046069384,1,-8.010653496,1,0.000494629,1,0.007094175,1,0.002816112,1,0.2315213084220886,1,-0.601326764,1,2.186235189437866,1
1.863961816,-5.287002563,1,-2.035079956,1,-7.99540472,1,-0.001234525,1,0.007621968,1,-0.002286811,1,0.2315161675214767,1,-0.601293981,1,2.186253070831299,1
1.867963433,-5.294005394,1,-2.020270109,1,-8.011725426,1,0.004574499,1,0.008264246,1,0.003616109,1,0.2315141409635544,1,-0.60126698,1,2.186271429,1
1.871961117,-5.27690649,1,-2.01443696,1,-8.004208565,1,-0.000288608,1,0.008961197,1,0.004002322,1,0.2315137535333633,1,-0.60123384,1,2.186287403106689,1
1.87596035,-5.258937836,1,-2.016271591,1,-8.033559799,1,0.006542836,1,0.011228366,1,0.001959741,1,0.2315100729465485,1,-0.601208329,1,2.186304569244385,1
1.879962087,-5.29308033,1,-2.039669752,1,-8.031142235,1,0.002315297,1,0.007790008,1,0.000566054,1,0.2315176129341125,1,-0.601175725,1,2.186320781707764,1
1.883960009,-5.262969971,1,-2.074468136,1,-8.006958008,1,0.001477167,1,0.006965316,1,0.001688101,1,0.2315113395452499,1,-0.601148307,1,2.186341524124146,1
1.887959599,-5.28949213,1,-2.099386692,1,-8.052350044,1,0.004005974,1,0.008755573,1,0.001199944,1,0.2315108478069305,1,-0.601112425,1,2.186363458633423,1
1.891967535,-5.316242695,1,-2.042138338,1,-8.017791748,1,0.001635259,1,0.01269077,1,0.000643787,1,0.2315190136432648,1,-0.601075053,1,2.186381816864014,1
1.895971298,-5.298342705,1,-2.01971674,1,-8.045398712,1,0.002028626,1,0.011228099,1,0.004870527,1,0.2315089702606201,1,-0.601033509,1,2.186403274536133,1
1.899971128,-5.284097195,1,-2.024153471,1,-8.045225143,1,-0.000906833,1,0.009355725,1,0.002805823,1,0.2315058559179306,1,-0.600993633,1,2.186431884765625,1
1.903972626,-5.267772675,1,-2.08334446,1,-8.025794029,1,0.004970952,1,0.010633718,1,0.002947223,1,0.2314979434013367,1,-0.600955188,1,2.186462402,1
1.907970309,-5.322294235,1,-2.031148911,1,-7.9946661,1,0.000689813,1,0.008558792,1,0.000255477,1,0.231490821,1,-0.600917518,1,2.186485052108765,1
1.911969781,-5.236986637,1,-2.024493933,1,-8.007330894,1,0.003894792,1,0.009698304,1,-0.000656069,1,0.2314877510070801,1,-0.600882947,1,2.186500310897827,1
1.915971279,-5.293099403,1,-2.007070541,1,-8.015265465,1,-0.000490521,1,0.010530947,1,0.001130687,1,0.2314901798963547,1,-0.600843728,1,2.186514377593994,1
1.919968724,-5.252847672,1,-2.019875526,1,-8.00269413,1,0.004536966,1,0.007302434,1,0.000548166,1,0.2314949780702591,1,-0.600799561,1,2.186527490615845,1
1.923968554,-5.270374298,1,-1.976782084,1,-8.01256752,1,0.008589051,1,0.008646624,1,-0.001955197,1,0.2315150052309036,1,-0.600763738,1,2.186538696289063,1
1.927970052,-5.304438591,1,-1.982614756,1,-8.007439613,1,0.004866474,1,0.010278559,1,-0.001402553,1,0.2315379977226257,1,-0.600729108,1,2.186540842056274,1
1.931967497,-5.311303616,1,-2.01872468,1,-8.002296448,1,0.007705406,1,0.011445751,1,-0.00451097,1,0.2315709143877029,1,-0.600673616,1,2.186539173126221,1
1.935967803,-5.266156197,1,-2.003308773,1,-7.981856823,1,0.009579572,1,0.012711002,1,-0.001769321,1,0.2321256399154663,1,-0.599774361,1,2.186188220977783,1
1.93996954,-5.265357971,1,-2.035204649,1,-7.984434605,1,0.005648957,1,0.011653297,1,-0.005916673,1,0.2321575582027435,1,-0.599723816,1,2.186184406280518,1
1.943967462,-5.267849922,1,-2.009328127,1,-8.00103569,1,0.013175903,1,0.015361431,1,-0.004797562,1,0.2321898639202118,1,-0.599666238,1,2.186182260513306,1
1.947967291,-5.310807705,1,-2.003503561,1,-7.989525318,1,0.006242064,1,0.016003998,1,-0.002377886,1,0.2322272956371307,1,-0.599603117,1,2.186184406280518,1
1.951968789,-5.350081921,1,-2.03531456,1,-7.982596397,1,0.010039921,1,0.016409183,1,-0.004956646,1,0.2322603166103363,1,-0.599532306,1,2.186184883117676,1
1.955966473,-5.292022705,1,-2.111590385,1,-7.934496403,1,0.011108701,1,0.022920355,1,-0.004039429,1,0.2322955876588821,1,-0.599450588,1,2.186179399490356,1
1.959965944,-5.294208527,1,-2.040293217,1,-7.979429722,1,0.006791649,1,0.021346139,1,-0.001205505,1,0.2323277741670609,1,-0.599363387,1,2.186186075210571,1
1.963967443,-5.314443111,1,-1.996490359,1,-7.934584618,1,0.011091852,1,0.025670551,1,-0.002910486,1,0.2323622405529022,1,-0.599269331,1,2.186190366744995,1
1.967965126,-5.278517246,1,-2.034414291,1,-7.940731525,1,0.009077118,1,0.027815688,1,-0.007914194,1,0.2323972284793854,1,-0.599160016,1,2.186197519302368,1
1.971964717,-5.303584099,1,-2.029560566,1,-7.980104923,1,0.010070696,1,0.027672978,1,-0.00281111,1,0.2324310541152954,1,-0.599042654,1,2.186201333999634,1
1.975966215,-5.301846981,1,-1.998041153,1,-7.979507923,1,0.009153775,1,0.03383714,1,-0.006649638,1,0.2324674725532532,1,-0.598920822,1,2.186206340789795,1
1.979963899,-5.271309853,1,-2.012932777,1,-8.003519058,1,0.01348185,1,0.032359861,1,-0.004937188,1,0.2325095534324646,1,-0.598786831,1,2.186208248138428,1
1.98396337,-5.256545544,1,-2.023370981,1,-7.988274574,1,0.012396848,1,0.035646047,1,-0.004051979,1,0.23255986,1,-0.598647773,1,2.186213017,1
1.987971306,-5.251512051,1,-2.062474251,1,-8.006733894,1,0.015795149,1,0.04032233,1,-0.015804345,1,0.2326111644506454,1,-0.59849143,1,2.186213017,1
1.991975188,-5.308853626,1,-1.99632287,1,-7.974563599,1,0.016868576,1,0.039001569,1,-0.006694993,1,0.2326713055372238,1,-0.598330796,1,2.186212301254272,1
1.995974898,-5.252718449,1,-2.005153656,1,-8.005029678,1,0.018406874,1,0.041047644,1,-0.008891969,1,0.2327473014593124,1,-0.598167419,1,2.186204195022583,1
1.999976397,-5.298086166,1,-1.982638478,1,-8.006546021,1,0.016756993,1,0.046315309,1,-0.01036725,1,0.2328298389911652,1,-0.597989082,1,2.186190605163574,1
2.003974199,-5.27065897,1,-1.950942516,1,-8.061950684,1,0.020381868,1,0.044898268,1,-0.013779797,1,0.2329194098711014,1,-0.59780556,1,2.186181068,1
2.007973671,-5.208046913,1,-1.931479931,1,-8.060569763,1,0.026885869,1,0.044642847,1,-0.015377375,1,0.2330202609300613,1,-0.597622573,1,2.186160802841187,1
2.01197505,-5.232120037,1,-1.877807975,1,-8.080338478,1,0.029180789,1,0.043014303,1,-0.014094471,1,0.233143687,1,-0.597433448,1,2.186136722564697,1
2.015972853,-5.244644642,1,-1.919326067,1,-8.099663734,1,0.031140352,1,0.041694228,1,-0.01709125,1,0.2332873195409775,1,-0.597260654,1,2.186101675033569,1
2.019972324,-5.244185925,1,-1.925403714,1,-8.067080498,1,0.034214132,1,0.036328159,1,-0.020379376,1,0.2334501594305038,1,-0.597097576,1,2.186047554016113,1
2.023973942,-5.276719093,1,-1.9798702,1,-8.042464256,1,0.043129977,1,0.036796108,1,-0.023093548,1,0.233627051,1,-0.596931756,1,2.185996055603027,1
2.027971268,-5.246377468,1,-1.967302442,1,-8.094511032,1,0.040715419,1,0.027515499,1,-0.0230374,1,0.2338332682847977,1,-0.5967803,1,2.185917615890503,1
2.031970739,-5.25239706,1,-1.950457096,1,-8.097524643,1,0.045588184,1,0.033043265,1,-0.026749946,1,0.2340505123138428,1,-0.596641123,1,2.185840606689453,1
2.035972357,-5.245162487,1,-1.996463299,1,-8.11136055,1,0.046602026,1,0.025697356,1,-0.025868732,1,0.2342739999294281,1,-0.596498251,1,2.185750722885132,1
2.039969683,-5.237559319,1,-2.090078115,1,-8.118002892,1,0.049953088,1,0.022330048,1,-0.027654985,1,0.2345203161239624,1,-0.596372068,1,2.185660600662231,1
2.043969631,-5.245214462,1,-2.118311882,1,-8.121284485,1,0.047439646,1,0.019678818,1,-0.02812748,1,0.2347777336835861,1,-0.596261501,1,2.185559749603271,1
2.047971249,-5.237348557,1,-2.164811373,1,-8.111966133,1,0.048506308,1,0.020536458,1,-0.026498586,1,0.2350261360406876,1,-0.596151233,1,2.185458898544312,1
2.051969528,-5.242105484,1,-2.155241966,1,-8.112183571,1,0.04699358,1,0.019731805,1,-0.023627004,1,0.2352675795555115,1,-0.596054554,1,2.18536377,1
2.055969,-5.270898819,1,-2.229584217,1,-8.088027954,1,0.044035841,1,0.015382021,1,-0.0242233,1,0.2355017066001892,1,-0.595968962,1,2.185264825820923,1
2.059970617,-5.213753223,1,-2.195699215,1,-8.062088013,1,0.042863242,1,0.017520588,1,-0.025209902,1,0.2357248365879059,1,-0.595886469,1,2.185167789459229,1
2.063968182,-5.221195698,1,-2.17752862,1,-8.059877396,1,0.037817854,1,0.014988419,1,-0.020811629,1,0.2359444499015808,1,-0.595800817,1,2.185060739517212,1
2.067967653,-5.249489307,1,-2.099241018,1,-8.070113182,1,0.039022394,1,0.017836276,1,-0.020542525,1,0.2361516803503036,1,-0.595726013,1,2.184971570968628,1
2.071969509,-5.236984253,1,-2.103359699,1,-8.056070328,1,0.032493703,1,0.01012127,1,-0.025125086,1,0.2363509982824326,1,-0.595649004,1,2.184876918792725,1
2.075967312,-5.272571087,1,-2.049570084,1,-8.052853584,1,0.041009497,1,0.016115775,1,-0.023519816,1,0.2365586161613464,1,-0.595583797,1,2.184772968292236,1
2.079966784,-5.261030197,1,-2.088454008,1,-8.081285477,1,0.035844047,1,0.007990574,1,-0.025416592,1,0.2367576062679291,1,-0.595517337,1,2.184679508209229,1
2.083968163,-5.264079571,1,-2.12084198,1,-8.057952881,1,0.039087921,1,0.010970159,1,-0.021457741,1,0.2369704246520996,1,-0.595455229,1,2.184572935,1
2.087971926,-5.288864136,1,-2.117866039,1,-8.023257256,1,0.0381639,1,0.009969434,1,-0.028498571,1,0.237192765,1,-0.595394075,1,2.184458017349243,1
2.091971397,-5.287673473,1,-2.147414446,1,-7.99823904,1,0.039181087,1,0.009312528,1,-0.026659012,1,0.2374106347560883,1,-0.595328331,1,2.184342861175537,1
2.095972776,-5.317258358,1,-2.20751977,1,-7.99334383,1,0.033662941,1,0.011446836,1,-0.027106721,1,0.2376258224248886,1,-0.595264196,1,2.184223175048828,1
2.099970579,-5.336035252,1,-2.203795195,1,-8.000828743,1,0.02960488,1,0.015770322,1,-0.027843414,1,0.2378129959106445,1,-0.595182955,1,2.184119462966919,1
2.103970051,-5.35025692,1,-2.144115925,1,-8.045790672,1,0.031956505,1,0.017802723,1,-0.024737403,1,0.2379929572343826,1,-0.595088601,1,2.184006214141846,1
2.107971907,-5.381186485,1,-2.114665508,1,-8.028349876,1,0.02498631,1,0.025545696,1,-0.027211824,1,0.2381643801927567,1,-0.594974279,1,2.183903694152832,1
2.111969471,-5.445654869,1,-2.086948156,1,-7.986825466,1,0.025728872,1,0.029063262,1,-0.028913282,1,0.2383114248514175,1,-0.594847322,1,2.183803081512451,1
2.115968943,-5.394735336,1,-2.045044422,1,-7.953882694,1,0.021764871,1,0.03722097,1,-0.030930368,1,0.2384679615497589,1,-0.594686031,1,2.183684587478638,1
2.11997056,-5.164293289,1,-1.963544965,1,-7.89628315,1,0.025855677,1,0.04097002,1,-0.037496556,1,0.238634467,1,-0.594505072,1,2.183563709259033,1
2.123967886,-5.121047497,1,-1.962728977,1,-7.979010582,1,0.036923215,1,0.040945433,1,-0.039630059,1,0.238830492,1,-0.594314396,1,2.183436155319214,1
2.127967596,-4.955142021,1,-1.981142402,1,-8.121127129,1,0.044645399,1,0.027522387,1,-0.04063224,1,0.2390760183334351,1,-0.594150841,1,2.183282852172852,1
2.131968975,-4.982426167,1,-2.059054375,1,-8.19077301,1,0.04707652,1,0.022636779,1,-0.037000276,1,0.2393567562103271,1,-0.59400773,1,2.183130264282227,1
2.135966778,-5.019744396,1,-2.152577162,1,-8.145303726,1,0.052102055,1,0.018370658,1,-0.035061449,1,0.2396369725465775,1,-0.593896389,1,2.182985782623291,1
2.139966249,-5.12269783,1,-2.261337519,1,-8.10445118,1,0.053099357,1,0.007451167,1,-0.035471294,1,0.2399242371320724,1,-0.593811274,1,2.182841062545776,1
2.143967628,-5.091208458,1,-2.27852273,1,-8.087604523,1,0.051047344,1,0.008068392,1,-0.030373098,1,0.2402208596467972,1,-0.593762696,1,2.182696342468262,1
2.14796567,-5.065233707,1,-2.197725296,1,-8.141551971,1,0.048994716,1,-0.008402259,1,-0.024092119,1,0.2404966950416565,1,-0.593740821,1,2.182566165924072,1
2.151965141,-5.000977516,1,-2.136921644,1,-8.196285248,1,0.052793756,1,-0.014504847,1,-0.020641401,1,0.2407745122909546,1,-0.593756139,1,2.182442426681519,1
2.155966759,-4.976735592,1,-2.127616405,1,-8.241189957,1,0.052879043,1,-0.022295758,1,-0.019167952,1,0.2410595715045929,1,-0.593810737,1,2.182322025299072,1
2.159964323,-5.015375614,1,-2.196971416,1,-8.21452713,1,0.05538296,1,-0.039711811,1,-0.017512696,1,0.2413495481014252,1,-0.593909562,1,2.182196855545044,1
2.163963795,-5.093464851,1,-2.278494358,1,-8.2541008,1,0.055453684,1,-0.045605376,1,-0.013563993,1,0.2416323721408844,1,-0.594055057,1,2.182078838348389,1
2.167965651,-5.125422478,1,-2.409100056,1,-8.168100357,1,0.048727084,1,-0.054900441,1,-0.011017472,1,0.2419076263904572,1,-0.594246626,1,2.181962013244629,1
2.171963453,-5.142459393,1,-2.482848406,1,-8.196917534,1,0.043017153,1,-0.064651549,1,-0.003015078,1,0.2421490401029587,1,-0.594472468,1,2.181861639022827,1
2.175962687,-5.163027763,1,-2.441509247,1,-8.197181702,1,0.031948335,1,-0.071560763,1,-0.001775195,1,0.2423514574766159,1,-0.594737828,1,2.181771755218506,1
2.179964066,-5.100856781,1,-2.320183039,1,-8.322066307,1,0.034383181,1,-0.080338873,1,0.005687418,1,0.2425282001495361,1,-0.595037818,1,2.181686401367188,1
2.18396759,-5.080286503,1,-2.223926306,1,-8.368762016,1,0.032347158,1,-0.098364808,1,0.004239176,1,0.2430670857429504,1,-0.594538331,1,2.181522607803345,1
2.187967062,-5.104708195,1,-2.194454908,1,-8.32103157,1,0.027972009,1,-0.109816961,1,0.010679758,1,0.2432868629693985,1,-0.594994843,1,2.181130647659302,1
2.191968441,-5.08972311,1,-2.255537271,1,-8.343699455,1,0.030907299,1,-0.122261904,1,0.011730096,1,0.2434508055448532,1,-0.59545368,1,2.181044101715088,1
2.195966005,-5.158542156,1,-2.266350746,1,-8.39262867,1,0.027629746,1,-0.135024816,1,0.011047447,1,0.243624359,1,-0.595975935,1,2.180939435958862,1
2.199965715,-5.058887482,1,-2.339737415,1,-8.419013023,1,0.026798425,1,-0.15760988,1,0.010013535,1,0.2437966614961624,1,-0.596556067,1,2.180811643600464,1
2.20396781,-5.068287849,1,-2.306067228,1,-8.542757034,1,0.025939789,1,-0.179076537,1,0.011515624,1,0.2439741790294647,1,-0.597224116,1,2.180675029754639,1
2.207965612,-5.101051331,1,-2.305942059,1,-8.58568573,1,0.018309625,1,-0.20213899,1,0.010919704,1,0.2441640198230743,1,-0.597977221,1,2.180516481399536,1
2.211965084,-5.034723282,1,-2.298233747,1,-8.646918297,1,0.020990327,1,-0.223898575,1,0.018110141,1,0.2443381994962692,1,-0.598816037,1,2.180333614349365,1
2.215966702,-4.917209625,1,-2.223936796,1,-8.723380089,1,0.024015011,1,-0.253222734,1,0.019391786,1,0.2445419132709503,1,-0.599758089,1,2.180132389068604,1
2.219964266,-4.499938488,1,-1.921352506,1,-9.085489273,1,0.051607054,1,-0.290886134,1,0.031679086,1,0.2448108047246933,1,-0.600827515,1,2.179919242858887,1
2.223963737,-4.61269331,1,-2.139246225,1,-9.068733215,1,0.065869376,1,-0.349077791,1,0.0307923,1,0.2452007085084915,1,-0.602104187,1,2.179686784744263,1
2.227965117,-4.90102005,1,-2.235184193,1,-8.983690262,1,0.063997135,1,-0.386205316,1,0.033241134,1,0.2456088662147522,1,-0.603560328,1,2.179402351379395,1
2.231962919,-4.04522419,1,-2.332865477,1,-9.132109642,1,0.077674627,1,-0.447116822,1,0.027742561,1,0.2460758984088898,1,-0.605181932,1,2.179075717926025,1
2.235962391,-4.138440132,1,-2.105163813,1,-9.541408539,1,0.1080311834812164,1,-0.534924984,1,0.033327959,1,0.2466943562030792,1,-0.607121468,1,2.178634166717529,1
2.239963531,-4.148419857,1,-1.939481974,1,-9.822669983,1,0.1474722474813461,1,-0.623444319,1,0.044552743,1,0.2475048899650574,1,-0.609406292,1,2.178131818771362,1
2.243961334,-3.912186623,1,-2.003156185,1,-10.05945587,1,0.1888352185487747,1,-0.710695684,1,0.070009284,1,0.2484836578369141,1,-0.612047374,1,2.177604198455811,1
2.247960806,-3.469949007,1,-2.147925615,1,-10.54482651,1,0.2303526699542999,1,-0.826532006,1,0.09334904,1,0.2496293187141418,1,-0.615097642,1,2.177056074142456,1
2.251962423,-3.195491552,1,-2.235302448,1,-10.80760098,1,0.2895305156707764,1,-0.967640698,1,0.1273011863231659,1,0.2509937882423401,1,-0.618685901,1,2.176491498947144,1
2.255960226,-3.42078805,1,-2.357590199,1,-11.17516041,1,0.4052046835422516,1,-1.112630606,1,0.1661089509725571,1,0.252718061,1,-0.622860909,1,2.175918102264404,1
2.259960175,-2.961299658,1,-3.369700432,1,-11.5661478,1,0.4124504923820496,1,-1.242408991,1,0.2192034721374512,1,0.2546840906143188,1,-0.627617776,1,2.175389766693115,1
2.263961792,-3.159281492,1,-3.31987381,1,-12.1880455,1,0.4390341639518738,1,-1.407549858,1,0.2614009380340576,1,0.2566786408424377,1,-0.632972956,1,2.174864292144775,1
2.267959595,-3.042894125,1,-3.981636763,1,-12.80799294,1,0.4411476254463196,1,-1.576322079,1,0.2974680066108704,1,0.2587937414646149,1,-0.639041007,1,2.174332618713379,1
2.271959066,-2.591288567,1,-5.004279613,1,-11.98217392,1,0.3329964578151703,1,-1.748036742,1,0.3425175547599792,1,0.2607116997241974,1,-0.645804524,1,2.173766613006592,1
2.275960684,-3.803920269,1,-4.765079975,1,-12.74579239,1,0.2483571022748947,1,-1.954711556,1,0.4060534834861755,1,0.2622111737728119,1,-0.653327107,1,2.173154354095459,1
2.27996397,-3.213337898,1,-4.273401737,1,-13.13542461,1,0.2181605696678162,1,-2.115123034,1,0.4532685875892639,1,0.2634830176830292,1,-0.661640823,1,2.172578573226929,1
2.283963442,-2.922466516,1,-4.373435974,1,-12.9901123,1,0.207037166,1,-2.320414782,1,0.5300505757331848,1,0.2646776735782623,1,-0.670720994,1,2.172038316726685,1
2.287964821,-3.220026255,1,-6.784062862,1,-14.17286873,1,0.1940199285745621,1,-2.585416079,1,0.7051214575767517,1,0.2656746804714203,1,-0.68079555,1,2.171732902526855,1
2.291962385,-3.748197079,1,-7.437065125,1,-13.79656601,1,0.049405731,1,-2.789843798,1,0.9010208249092102,1,0.2659714818000793,1,-0.692046463,1,2.172104120254517,1
2.295961857,-3.544677734,1,-8.66615963,1,-13.55143929,1,-0.07051076,1,-3.021888971,1,1.085688471794128,1,0.2652460038661957,1,-0.704292655,1,2.173141717910767,1
2.299963474,-5.628705502,1,-9.711576462,1,-13.69527531,1,-0.188607737,1,-3.18710804,1,1.311674952507019,1,0.2635740637779236,1,-0.717555106,1,2.174917697906494,1
2.3039608,-7.015957832,1,-9.532558441,1,-13.82428837,1,-0.331011474,1,-3.257582664,1,1.531153798103333,1,0.2605943381786346,1,-0.731488109,1,2.177825450897217,1
2.30796051,-6.300776958,1,-8.410978317,1,-13.33639526,1,-0.372789234,1,-3.349083662,1,1.669237732887268,1,0.2565687596797943,1,-0.745895743,1,2.181650161743164,1
2.311962128,-7.259972095,1,-7.764770508,1,-13.16921139,1,-0.270038188,1,-3.424943447,1,1.77934742,1,0.2522208392620087,1,-0.760764897,1,2.186105251312256,1
2.315959692,-9.537073135,1,-7.149899483,1,-13.3184576,1,-0.16237627,1,-3.402498245,1,1.878966927528381,1,0.2477511316537857,1,-0.775835156,1,2.19129467,1
2.319959641,-11.33514881,1,-6.615626335,1,-13.50034904,1,-0.12135946,1,-3.291785479,1,1.906047940254211,1,0.2431410700082779,1,-0.790689468,1,2.197057962417603,1
2.32396102,-10.41176987,1,-7.59228611,1,-13.05137634,1,-0.137756959,1,-3.079948664,1,1.928258538246155,1,0.2380703538656235,1,-0.804908872,1,2.203404188156128,1
2.327958822,-9.876421928,1,-8.916426659,1,-11.79349804,1,-0.231650338,1,-2.961341858,1,1.962866783,1,0.2323913276195526,1,-0.818429947,1,2.210275650024414,1
2.331958294,-10.43399143,1,-8.493450165,1,-11.70211887,1,-0.427667648,1,-2.943431854,1,2.048757314682007,1,0.2254968881607056,1,-0.831767678,1,2.217861890792847,1
2.335959911,-10.65043449,1,-8.802039146,1,-11.55086803,1,-0.632324457,1,-2.849974155,1,2.169411897659302,1,0.2171022444963455,1,-0.844932854,1,2.226325273513794,1
2.339957476,-10.4217453,1,-8.918326378,1,-11.45354557,1,-0.826272607,1,-2.711357594,1,2.280504227,1,0.2069208472967148,1,-0.857706666,1,2.235979557037354,1
2.343956947,-8.528627396,1,-9.154803276,1,-11.72759914,1,-1.020680428,1,-2.520071507,1,2.336295366287231,1,0.1950621753931046,1,-0.869822621,1,2.246693134307861,1
2.347958565,-5.782840252,1,-9.251062393,1,-12.91966534,1,-1.100566983,1,-2.238848925,1,2.381588220596313,1,0.1818578839302063,1,-0.880949497,1,2.258350372314453,1
2.351956129,-13.42280388,1,-5.713619232,1,-13.73791599,1,-1.179689527,1,-1.877184153,1,2.398369312286377,1,0.1674792915582657,1,-0.890812635,1,2.271014213562012,1
2.355955601,-16.85146332,1,-4.201461315,1,-17.47367287,1,-0.973540127,1,-1.200524211,1,2.194985628128052,1,0.1529505550861359,1,-0.898382187,1,2.283970355987549,1
2.359957695,-13.66748333,1,-4.810609341,1,-18.62682724,1,-0.641776383,1,-0.450246871,1,2.022991895675659,1,0.139820322,1,-0.902873337,1,2.296655416488647,1
2.363955736,-6.972725868,1,-5.793621063,1,-17.10624886,1,-0.467212766,1,0.1138105243444443,1,1.836600065231323,1,0.1280060857534409,1,-0.904482782,1,2.308892250061035,1
2.367955446,-3.451246023,1,-5.982786179,1,-15.20467758,1,-0.270860136,1,0.4397674798965454,1,1.670892238616943,1,0.1175071895122528,1,-0.904201567,1,2.320361137390137,1
2.371957064,-0.728999734,1,-7.029055119,1,-14.11930275,1,-0.156450093,1,0.6499477624893188,1,1.572899341583252,1,0.1082334741950035,1,-0.902755499,1,2.331149816513062,1
2.375954628,3.269202947616577,1,-8.127280235,1,-11.8799324,1,-0.11458683,1,0.7238926887512207,1,1.528286218643188,1,0.099570334,1,-0.900594592,1,2.341526031494141,1
2.379960299,5.028148174285889,1,-7.699399471,1,-10.93435478,1,-0.109836869,1,0.6840395927429199,1,1.537214994430542,1,0.091104671,1,-0.898380339,1,2.351772308349609,1
2.383962154,5.667336463928223,1,-7.503540516,1,-10.37666512,1,-0.121005066,1,0.6555753350257874,1,1.534880399703979,1,0.08267232,1,-0.8962484,1,2.361970663070679,1
2.387959719,6.241458892822266,1,-6.781400681,1,-9.958714485,1,-0.083672732,1,0.64077282,1,1.502792835235596,1,0.07442826,1,-0.894143164,1,2.371986389160156,1
2.39195919,6.120424270629883,1,-6.114922523,1,-9.968032837,1,0.014464467,1,0.6509882211685181,1,1.447135568,1,0.066741712,1,-0.891986251,1,2.381669521331787,1
2.395960808,5.840597152709961,1,-5.696081638,1,-10.18019485,1,0.1289288103580475,1,0.7118863463401794,1,1.377806067466736,1,0.059833389,1,-0.889636636,1,2.390919208526611,1
2.399958372,5.926061630249023,1,-5.319412231,1,-10.41649723,1,0.2660074532032013,1,0.8188064098358154,1,1.265915513038635,1,0.0539014,1,-0.886888742,1,2.399578809738159,1
2.403957844,6.000811100006104,1,-5.236828327,1,-10.43815422,1,0.4065475761890411,1,0.9544888734817505,1,1.134955167770386,1,0.049159206,1,-0.883606136,1,2.407438755,1
2.4079597,6.258217811584473,1,-5.078397751,1,-10.38398933,1,0.5435985326766968,1,1.108117104,1,1.003249049186707,1,0.045627084,1,-0.879684806,1,2.414470195770264,1
2.411957741,6.933598041534424,1,-4.837669849,1,-10.2048111,1,0.6723004579544067,1,1.262255668640137,1,0.8575011491775513,1,0.043332167,1,-0.875108957,1,2.420619726,1
2.415957451,7.342195987701416,1,-4.574729443,1,-10.05858612,1,0.8084622025489807,1,1.398283720016479,1,0.7164360284805298,1,0.042286836,1,-0.869929433,1,2.425860882,1
2.419959068,7.912967681884766,1,-4.246171474,1,-9.878548622,1,0.9392481446266174,1,1.525919318199158,1,0.5881092548370361,1,0.04242342,1,-0.864194393,1,2.430267095565796,1
2.423957109,8.553716659545898,1,-4.023418427,1,-9.714856148,1,1.062532186508179,1,1.634585618972778,1,0.4632300734519958,1,0.043655246,1,-0.857971132,1,2.433911323547363,1
2.42795682,8.768578529,1,-3.837701797,1,-9.627293587,1,1.190872788,1,1.710559964179993,1,0.3483317494392395,1,0.045979287,1,-0.85136652,1,2.436811685562134,1
2.431958199,8.895305633544922,1,-3.590069056,1,-9.556745529,1,1.304611563682556,1,1.773980379104614,1,0.2366573363542557,1,0.049276385,1,-0.844451785,1,2.439072370529175,1
2.435956001,8.919559478759766,1,-3.459942579,1,-9.495107651,1,1.410132289,1,1.834392905235291,1,0.1304308772087097,1,0.053607754,1,-0.837394774,1,2.43998909,1
2.439955473,8.685626029968262,1,-3.427366972,1,-9.391900063,1,1.488319396972656,1,1.883490920066833,1,0.04833125,1,0.058560822,1,-0.82999289,1,2.441127539,1
2.443956852,8.847517013549805,1,-3.296317339,1,-9.417516708,1,1.554497838020325,1,1.909718751907349,1,-0.048507806,1,0.064157628,1,-0.822406888,1,2.441801071166992,1
2.447954416,8.466446876525879,1,-3.271162748,1,-9.377401352,1,1.603439927101135,1,1.933236479759216,1,-0.123471394,1,0.070302851,1,-0.814718246,1,2.442046165466309,1
2.451953888,8.206438064575195,1,-3.206854343,1,-9.420731544,1,1.641000866889954,1,1.962506413459778,1,-0.184265196,1,0.076822966,1,-0.806897283,1,2.441982746124268,1
2.455955505,7.954448223114014,1,-3.01179719,1,-9.440283775,1,1.655572295188904,1,1.992941022,1,-0.23696883,1,0.08363162,1,-0.798948586,1,2.441675901412964,1
2.45995307,7.815542221069336,1,-2.733464956,1,-9.533308983,1,1.664507985115051,1,2.008164167404175,1,-0.279272646,1,0.090615571,1,-0.790880203,1,2.441203832626343,1
2.46395278,7.571000576019287,1,-2.559936762,1,-9.61165905,1,1.670861124992371,1,2.020076036453247,1,-0.312228858,1,0.097705506,1,-0.782745481,1,2.440614938735962,1
2.467954874,7.260828495025635,1,-2.369682074,1,-9.747385979,1,1.662158489227295,1,2.02568531,1,-0.325082004,1,0.1048106327652931,1,-0.774574518,1,2.439979076385498,1
2.471952915,6.846387386322021,1,-2.311569214,1,-9.746606827,1,1.658097147941589,1,2.030112504959106,1,-0.313287914,1,0.1118306741118431,1,-0.766372442,1,2.439422369003296,1
2.475958347,6.340157508850098,1,-2.300711632,1,-9.905981064,1,1.646170973777771,1,2.038492918014526,1,-0.29404065,1,0.1187077611684799,1,-0.758151948,1,2.439038991928101,1
2.479959965,5.739952087402344,1,-2.34168148,1,-9.951197624,1,1.626652121543884,1,2.055673360824585,1,-0.255085081,1,0.1253565400838852,1,-0.749894619,1,2.438898563,1
2.483957767,5.096346855163574,1,-2.3275249,1,-10.2294035,1,1.60835588,1,2.081974267959595,1,-0.204482481,1,0.1316904872655869,1,-0.741566956,1,2.439092636108398,1
2.487957478,4.432408809661865,1,-2.063172579,1,-10.55283642,1,1.605901479721069,1,2.11322546,1,-0.152876735,1,0.1377266049385071,1,-0.733155847,1,2.439667940139771,1
2.491959095,3.442211866378784,1,-1.532145023,1,-10.91900826,1,1.617121577262878,1,2.170449256896973,1,-0.101762488,1,0.1435568481683731,1,-0.724603891,1,2.440577507019043,1
2.495956421,2.647388935089111,1,-1.104236841,1,-11.2319088,1,1.648521304130554,1,2.243967056274414,1,-0.053426571,1,0.1492401659488678,1,-0.715824425,1,2.441866636276245,1
2.499955893,1.940307259559631,1,-0.719546556,1,-11.39889431,1,1.704933285713196,1,2.303853750228882,1,-0.015349478,1,0.1548670530319214,1,-0.706811309,1,2.443509578704834,1
2.50395751,1.312939882278442,1,-0.381360263,1,-11.68398952,1,1.775090814,1,2.361158847808838,1,0.0108079,1,0.1605885177850723,1,-0.697592914,1,2.445428609848022,1
2.507954836,0.6026109457015991,1,-0.217761338,1,-11.88301373,1,1.858512282371521,1,2.427404403686523,1,0.027055498,1,0.1664996892213821,1,-0.688158631,1,2.447553873062134,1
2.511954546,-0.075626984,1,-0.162974969,1,-12.08218956,1,1.945625066757202,1,2.492301464080811,1,0.039735086,1,0.1726561784744263,1,-0.678481221,1,2.449869394302368,1
2.515956163,-0.797373712,1,-0.081889555,1,-12.27640152,1,2.034750461578369,1,2.555819272994995,1,0.048198037,1,0.179084837,1,-0.668571234,1,2.452336311340332,1
2.519954205,-1.542733192,1,-0.001826602,1,-12.43932533,1,2.137198686599731,1,2.610261917114258,1,0.051030319,1,0.1858118325471878,1,-0.658447623,1,2.454956293106079,1
2.523953676,-2.483006001,1,-0.025829233,1,-12.64315605,1,2.237535238265991,1,2.680031061172485,1,0.057429079,1,0.1928713917732239,1,-0.648092151,1,2.457735776901245,1
2.527955294,-3.539455652,1,0.072709396,1,-12.89906883,1,2.342208147,1,2.755473852157593,1,0.0369169,1,0.2003048211336136,1,-0.637474,1,2.460613250732422,1
2.531953096,-4.775709152,1,0.1579252630472183,1,-13.07988358,1,2.444579124450684,1,2.862391948699951,1,0.007514441,1,0.2081433683633804,1,-0.626490891,1,2.463549375534058,1
2.535952568,-5.806344986,1,0.2808383405208588,1,-13.25503635,1,2.555128574371338,1,2.990668773651123,1,-0.032414731,1,0.2164114266633987,1,-0.615042627,1,2.46652627,1
2.539954185,-6.587282658,1,0.2288323938846588,1,-13.26661396,1,2.655882596969604,1,3.127318620681763,1,-0.082141913,1,0.2251210808753967,1,-0.603057504,1,2.469527483,1
2.543951988,-7.243650436,1,0.2982497215270996,1,-13.30215836,1,2.762825012207031,1,3.277214527130127,1,-0.150067747,1,0.2342851012945175,1,-0.590483427,1,2.472518444061279,1
2.54795146,-7.562820911,1,0.3908799290657043,1,-13.31135178,1,2.858642101287842,1,3.411406755447388,1,-0.223252043,1,0.2439123690128326,1,-0.577309728,1,2.475452899932861,1
2.551952839,-7.67529583,1,0.4615254998207092,1,-13.18533802,1,2.944763898849487,1,3.531520366668701,1,-0.30389443,1,0.2539671063423157,1,-0.563584924,1,2.478315830230713,1
2.555950642,-7.549618721,1,0.5755364298820496,1,-13.01832008,1,3.014698982,1,3.620100259780884,1,-0.385554731,1,0.2644349932670593,1,-0.549399436,1,2.481070518493652,1
2.559950113,-7.278988361,1,0.6937445402145386,1,-12.74759865,1,3.076631784439087,1,3.667039155960083,1,-0.460323155,1,0.2752701938152313,1,-0.534888923,1,2.483698129653931,1
2.563951969,-7.252608776,1,0.7132668495178223,1,-12.41095352,1,3.126461744308472,1,3.684521913528442,1,-0.534686685,1,0.2864236831665039,1,-0.520203173,1,2.486188411712646,1
2.567949533,-7.238063812,1,0.6997341513633728,1,-12.18133926,1,3.166836738586426,1,3.668041229248047,1,-0.600397289,1,0.2978573441505432,1,-0.505455673,1,2.488548278808594,1
2.571949482,-7.233778477,1,0.6488372683525085,1,-11.96456337,1,3.173955917358398,1,3.636973381,1,-0.658836901,1,0.3094736933708191,1,-0.490752697,1,2.490787267684937,1
2.575951338,-7.303773403,1,0.7361100912094116,1,-11.86178112,1,3.165146112442017,1,3.586954116821289,1,-0.716519356,1,0.3211793899536133,1,-0.476155013,1,2.492895126342773,1
2.579949141,-7.21149683,1,1.017509460449219,1,-11.8764677,1,3.140772819519043,1,3.506930112838745,1,-0.775656819,1,0.3329125046730042,1,-0.461757183,1,2.494850635528564,1
2.583948851,-7.178530693,1,1.274812698364258,1,-12.0044508,1,3.110077857971191,1,3.409292459487915,1,-0.835012555,1,0.3446542322635651,1,-0.447635829,1,2.496582269668579,1
2.58795023,-7.401443481,1,1.394383311271667,1,-12.1616888,1,3.052529335021973,1,3.305130481719971,1,-0.900520861,1,0.3563501238822937,1,-0.433832824,1,2.498070478439331,1
2.591947794,-7.777789593,1,1.393496036529541,1,-12.35514164,1,2.972823381,1,3.198269605636597,1,-0.95198071,1,0.3678787648677826,1,-0.420362085,1,2.499334335327148,1
2.595947266,-8.118971825,1,1.478323221206665,1,-12.43288803,1,2.859812498092651,1,3.101923942565918,1,-0.980727613,1,0.3791171312332153,1,-0.407227427,1,2.500417947769165,1
2.599948883,-8.566714287,1,1.637246847,1,-12.55399799,1,2.737125635147095,1,3.008693695068359,1,-1.009734035,1,0.3899404406547546,1,-0.394405127,1,2.501379251480103,1
2.603946209,-9.000600815,1,2.089372158050537,1,-12.62441254,1,2.613722324371338,1,2.933122873306274,1,-1.0073874,1,0.4002998769283295,1,-0.381885588,1,2.502300500869751,1
2.607945681,-9.331254959,1,2.827837944030762,1,-12.59398079,1,2.496557474136353,1,2.857714891433716,1,-0.995571017,1,0.4101729393005371,1,-0.369658113,1,2.503237962722778,1
2.611947298,-9.694461823,1,3.625675678253174,1,-12.61019707,1,2.412088871002197,1,2.783518314361572,1,-0.957015395,1,0.4195983707904816,1,-0.35776031,1,2.504277229309082,1
2.615944862,-10.40960407,1,4.305555820465088,1,-12.60781384,1,2.373594284057617,1,2.725591183,1,-0.905441165,1,0.428744912,1,-0.346191853,1,2.505483150482178,1
2.619944334,-11.15848827,1,4.525921345,1,-12.42042255,1,2.360303879,1,2.694692850112915,1,-0.826409996,1,0.4377129971981049,1,-0.334893525,1,2.506972074508667,1
2.623945951,-11.6776762,1,4.179553985595703,1,-12.06061077,1,2.338488578796387,1,2.686080932617188,1,-0.728390992,1,0.4465060830116272,1,-0.323842227,1,2.508854866027832,1
2.627943754,-12.10304546,1,3.478465319,1,-11.46788025,1,2.284032106399536,1,2.693675756454468,1,-0.604557574,1,0.4550049304962158,1,-0.313000202,1,2.511258602142334,1
2.631943226,-12.29765415,1,2.649140596389771,1,-11.22208023,1,2.183073997497559,1,2.701267957687378,1,-0.473862499,1,0.4630403220653534,1,-0.302372515,1,2.514248847961426,1
2.635944605,-12.21335506,1,3.308258295059204,1,-10.90245628,1,2.055956840515137,1,2.696255683898926,1,-0.353448004,1,0.4704789221286774,1,-0.291985273,1,2.517789602279663,1
2.639942408,-13.00211525,1,3.133509635925293,1,-10.28593445,1,1.930823922157288,1,2.699087381362915,1,-0.240019977,1,0.4773098826408386,1,-0.281849891,1,2.521821499,1
2.643941879,-13.50163937,1,2.761256456375122,1,-9.68039608,1,1.787635445594788,1,2.710214376449585,1,-0.141145214,1,0.4835172593593597,1,-0.271903634,1,2.526319026947021,1
2.647943497,-13.74610806,1,2.592552900314331,1,-8.984611511,1,1.648036718,1,2.721005678,1,-0.029375538,1,0.4890786111354828,1,-0.262140155,1,2.531277894973755,1
2.651940823,-14.05015278,1,2.704334020614624,1,-8.288943291,1,1.520758271217346,1,2.719816923141479,1,0.071837023,1,0.4940356910228729,1,-0.252586603,1,2.536674976348877,1
2.655940056,-14.20715427,1,3.101376772,1,-7.616442204,1,1.438843727111816,1,2.701406240463257,1,0.1604674309492111,1,0.4985325038433075,1,-0.243273631,1,2.542428255081177,1
2.659941673,-14.33919907,1,3.560078382492065,1,-6.989156723,1,1.394213318824768,1,2.671845436096191,1,0.2382839322090149,1,0.5027604699134827,1,-0.2342235,1,2.548455238342285,1
2.663938999,-14.25033665,1,4.030758857727051,1,-6.262522697,1,1.389654874801636,1,2.607087850570679,1,0.2894411385059357,1,0.5069121718406677,1,-0.225491524,1,2.554648399353027,1
2.667938709,-13.95825672,1,4.491943836212158,1,-5.570748806,1,1.412546515464783,1,2.519968271255493,1,0.3333904147148132,1,0.5111245512962341,1,-0.217141882,1,2.560896396636963,1
2.671946526,-13.52685547,1,4.840307712554932,1,-4.795713902,1,1.448424458503723,1,2.399521589279175,1,0.3607779741287231,1,0.5155342817306519,1,-0.209255368,1,2.567085266113281,1
2.67595005,-12.92982578,1,4.992544651031494,1,-4.074391842,1,1.495766639709473,1,2.241822242736816,1,0.3753582835197449,1,0.5202030539512634,1,-0.201905936,1,2.573089838027954,1
2.67994976,-12.33406448,1,4.907356262207031,1,-3.328413248,1,1.520412445068359,1,2.054534435272217,1,0.3832750022411346,1,0.5251120924949646,1,-0.195216998,1,2.578805685043335,1
2.683951616,-11.91854668,1,4.722671508789063,1,-2.664970636,1,1.502680540084839,1,1.824309468269348,1,0.3949156701564789,1,0.5301461815834045,1,-0.189294934,1,2.584155797958374,1
2.687949657,-11.79522896,1,4.416516780853271,1,-2.209977388,1,1.431921482086182,1,1.589107036590576,1,0.4145088493824005,1,0.5351218581199646,1,-0.184305832,1,2.588806867599487,1
2.691949129,-11.88429642,1,4.213013648986816,1,-1.779119015,1,1.313548922538757,1,1.347233533859253,1,0.4444615244865417,1,0.5397995710372925,1,-0.180137858,1,2.593360424041748,1
2.695950508,-12.15659714,1,4.034477233886719,1,-1.610770106,1,1.158981680870056,1,1.109765291213989,1,0.4671973884105682,1,0.5440182685852051,1,-0.176883817,1,2.597519397735596,1
2.699948072,-12.37959194,1,3.889496564865112,1,-1.38056159,1,0.9599515199661255,1,0.8894874453544617,1,0.495907187,1,0.5476037859916687,1,-0.174474075,1,2.601298093795776,1
2.703947544,-12.56865692,1,4.028367042541504,1,-1.279378295,1,0.7512367963790894,1,0.6886978149414063,1,0.5348378419876099,1,0.5504317879676819,1,-0.172859848,1,2.604753017425537,1
2.707949162,-12.87704277,1,4.235414505004883,1,-1.249135733,1,0.5461588501930237,1,0.4922893345355988,1,0.5678918957710266,1,0.5524797439575195,1,-0.172005713,1,2.607911348342896,1
2.711946726,-13.09019947,1,4.386506080627441,1,-1.373274803,1,0.3501645922660828,1,0.3252642750740051,1,0.6133925914764404,1,0.5537585020065308,1,-0.171856582,1,2.610821008682251,1
2.715946198,-13.31825542,1,4.575773716,1,-1.558204532,1,0.1678778976202011,1,0.1721359491348267,1,0.6701781749725342,1,0.5543226003646851,1,-0.172361135,1,2.613555192947388,1
2.719947815,-13.47362328,1,4.620822429656982,1,-1.682515502,1,0.015619695,1,0.033487521,1,0.7344533205032349,1,0.5542303323745728,1,-0.173492521,1,2.616201400756836,1
2.723945618,-13.49586678,1,4.663086891174316,1,-1.875440359,1,-0.116477437,1,-0.090114377,1,0.8225303888320923,1,0.5535679459571838,1,-0.175223753,1,2.618834495544434,1
2.727945328,-13.34398556,1,4.544706821,1,-2.079291582,1,-0.237544447,1,-0.209569275,1,0.9062875509262085,1,0.5523863434791565,1,-0.177549034,1,2.621500730514526,1
2.731946707,-13.26339722,1,4.382355213165283,1,-2.268471479,1,-0.340120643,1,-0.326826781,1,1.003167986869812,1,0.5507438182830811,1,-0.180467099,1,2.624232292175293,1
2.73594451,-13.34317589,1,4.073384761810303,1,-2.452630758,1,-0.425593734,1,-0.433801234,1,1.106085181236267,1,0.5486935973167419,1,-0.18397297,1,2.627087831497192,1
2.739943981,-13.55728722,1,3.620703458786011,1,-2.61589551,1,-0.508412063,1,-0.526588082,1,1.215037465,1,0.5462632775306702,1,-0.188033953,1,2.630099534988403,1
2.74394536,-13.89108276,1,3.229221582,1,-2.829010248,1,-0.590577424,1,-0.607733727,1,1.316958069801331,1,0.5434576272964478,1,-0.192604989,1,2.633308410644531,1
2.747943163,-14.13528633,1,2.914432287216187,1,-2.998986006,1,-0.662822127,1,-0.670731723,1,1.412506341934204,1,0.5402736067771912,1,-0.197615817,1,2.636726856231689,1
2.751942396,-14.26306152,1,2.646639347076416,1,-3.128034115,1,-0.730543733,1,-0.730499387,1,1.496406674385071,1,0.5367609262466431,1,-0.203010738,1,2.640354871749878,1
2.755944014,-14.35284805,1,2.475370645523071,1,-3.171884298,1,-0.768318772,1,-0.782056272,1,1.568257212638855,1,0.5329781174659729,1,-0.208745435,1,2.644172191619873,1
2.759941339,-14.39410019,1,2.422832250595093,1,-3.346662521,1,-0.793599308,1,-0.831994593,1,1.620670199394226,1,0.529019296,1,-0.214764655,1,2.648133516311646,1
2.763940573,-11.11562252,1,0.4976500868797302,1,-7.058621883,1,-0.836277306,1,-0.913627386,1,1.702705264091492,1,0.5249078273773193,1,-0.221084252,1,2.652203321456909,1
2.767948627,7.974012375,1,6.863579750061035,1,-12.99320793,1,0.4505661129951477,1,-1.72610569,1,2.650589466094971,1,0.5223991870880127,1,-0.229601517,1,2.657160043716431,1
2.771952391,-3.699117661,1,0.061253089,1,-12.70016193,1,1.153566598892212,1,-2.118288994,1,3.048002481460571,1,0.5248785018920898,1,-0.242509484,1,2.663496732711792,1
2.775952339,-5.424665451,1,-15.77506924,1,-13.43161964,1,0.2118294090032578,1,-1.081420541,1,2.903533220291138,1,0.5257962346076965,1,-0.254131526,1,2.670598745346069,1
2.779953957,9.543966293334961,1,-25.4353714,1,-11.47144413,1,0.058521979,1,-0.831978023,1,3.250830888748169,1,0.5239332914352417,1,-0.263237238,1,2.679777145385742,1
2.783951283,3.701347113,1,-30.25738907,1,-13.34736729,1,-0.606450796,1,-1.054286957,1,3.716582059860229,1,0.5202167630195618,1,-0.273605317,1,2.690270424,1
2.787950993,4.871487617492676,1,-29.86635971,1,-13.36159801,1,-1.460377693,1,-0.852716088,1,4.133484840393066,1,0.5126511454582214,1,-0.284675479,1,2.702542781829834,1
2.79195261,5.459099292755127,1,-25.48032761,1,-10.26525688,1,-2.037652493,1,-0.829665005,1,4.422853469848633,1,0.5016168355941772,1,-0.295907974,1,2.716484546661377,1
2.795950174,4.911587238311768,1,-21.30765533,1,-7.023918152,1,-2.562164783,1,-1.002903223,1,4.507424354553223,1,0.4880402684211731,1,-0.307610989,1,2.731196641921997,1
2.799949646,3.953410148620605,1,-19.71840477,1,-3.75646615,1,-2.874475479,1,-1.445700645,1,4.576353549957275,1,0.4725940227508545,1,-0.320350498,1,2.745779514312744,1
2.803951263,2.76184082,1,-14.51253986,1,-3.961187124,1,-3.091354609,1,-1.908319831,1,4.572353839874268,1,0.4560286104679108,1,-0.334529936,1,2.759902000427246,1
2.807949305,-1.43947196,1,-9.826096535,1,-5.551519871,1,-3.120668411,1,-2.321095228,1,4.400860786437988,1,0.4390785396099091,1,-0.350009501,1,2.773269653320313,1
2.811948776,-6.706569672,1,-6.708325863,1,-7.201152802,1,-3.062162399,1,-2.479094744,1,3.943128824234009,1,0.4225395619869232,1,-0.365759492,1,2.785188198,1
2.815950394,-11.55811405,1,-3.087771893,1,-8.328025818,1,-2.862943888,1,-2.471847057,1,3.336902618408203,1,0.4070032835006714,1,-0.380737245,1,2.795225620269775,1
2.819947958,-15.42986107,1,-2.08532691,1,-9.16539669,1,-2.678848028,1,-2.326145172,1,2.669423341751099,1,0.3929643929004669,1,-0.394265711,1,2.803154468536377,1
2.82394743,-17.48652077,1,-1.188051581,1,-9.661340714,1,-2.451411724,1,-2.147629023,1,2.146215915679932,1,0.3803917169570923,1,-0.406187743,1,2.809148073196411,1
2.827949286,-16.15038681,1,-1.120755672,1,-9.597245216,1,-2.289373875,1,-1.944068193,1,1.628949761390686,1,0.3691087365150452,1,-0.416542679,1,2.813531398773193,1
2.831947327,-13.79912853,1,-0.145872325,1,-10.9486208,1,-2.060513735,1,-1.884696245,1,1.308447003364563,1,0.3591820597648621,1,-0.42576009,1,2.816512346,1
2.835946798,-12.87672138,1,-0.374782205,1,-11.54463768,1,-1.903546572,1,-1.823526263,1,1.107976198196411,1,0.3503719568252563,1,-0.434409678,1,2.818639278411865,1
2.839948654,-9.922893524,1,-0.125738129,1,-13.71718121,1,-1.766911983,1,-1.766821504,1,1.032618284225464,1,0.3423411250114441,1,-0.442584753,1,2.820351123809814,1
2.843946218,-10.90184212,1,0.2938198149204254,1,-13.58737087,1,-1.700142741,1,-1.664740682,1,1.057203412055969,1,0.3345968425273895,1,-0.450480044,1,2.822204351425171,1
2.84794569,-10.76324368,1,1.249540448188782,1,-13.63037872,1,-1.642295122,1,-1.498781562,1,1.114318370819092,1,0.3269038200378418,1,-0.457872868,1,2.824469089508057,1
2.851947308,-11.14012718,1,2.521615743637085,1,-12.96379852,1,-1.48521924,1,-1.35555923,1,1.155686497688293,1,0.3193831741809845,1,-0.46471712,1,2.827291727,1
2.855944633,-11.05227566,1,2.578405380249023,1,-12.26513767,1,-1.348410249,1,-1.211289525,1,1.128564119338989,1,0.3123304545879364,1,-0.471026838,1,2.830368280410767,1
2.859944105,-10.63330746,1,1.468412995,1,-10.96052361,1,-1.244737506,1,-1.089446068,1,1.068582534790039,1,0.3056983947753906,1,-0.476742387,1,2.833523511886597,1
2.863945723,-10.02643871,1,0.094166987,1,-9.7948246,1,-1.117852211,1,-1.024836421,1,0.9370282292366028,1,0.2996359467506409,1,-0.481972635,1,2.836427688598633,1
2.867949247,-9.010832787,1,-0.767074347,1,-9.477575302,1,-0.99962765,1,-0.986733079,1,0.7741562128067017,1,0.2942903339862823,1,-0.486822873,1,2.838811398,1
2.871948957,-7.47954607,1,-1.494258523,1,-9.099295616,1,-0.930169344,1,-0.967015326,1,0.6348115801811218,1,0.2896077334880829,1,-0.491365552,1,2.840581178665161,1
2.875950575,-6.130150318,1,-1.35515964,1,-9.161081314,1,-0.886465132,1,-0.968172431,1,0.5545228719711304,1,0.2853544950485229,1,-0.495747775,1,2.841909408569336,1
2.879948139,-5.412171841,1,-1.126111507,1,-9.011554718,1,-0.839845598,1,-0.971369386,1,0.5367717146873474,1,0.2813521027565002,1,-0.50009203,1,2.843045711517334,1
2.883948088,-4.439145565,1,-0.3794159,1,-9.009228706,1,-0.797222137,1,-0.96642977,1,0.5470529794692993,1,0.2775126397609711,1,-0.504411042,1,2.844194173812866,1
2.887949467,-4.214231968,1,-0.638470769,1,-8.89136982,1,-0.767487764,1,-0.967387319,1,0.5729897618293762,1,0.273790181,1,-0.508732378,1,2.845439672470093,1
2.891947031,-4.027605057,1,-0.919043243,1,-8.682566643,1,-0.746593833,1,-0.971509278,1,0.6141522526741028,1,0.270070344,1,-0.513090014,1,2.846876382827759,1
2.895946741,-5.270986557,1,-2.228787184,1,-8.619877815,1,-0.776444137,1,-0.931858122,1,0.6454257965087891,1,0.2662327885627747,1,-0.517426252,1,2.848500490188599,1
2.899948359,-5.861307144,1,-2.705815077,1,-8.215402603,1,-0.79453969,1,-0.863318205,1,0.6200727224349976,1,0.2621971666812897,1,-0.521559894,1,2.850248814,1
2.903946161,-6.25375843,1,-2.82478261,1,-8.238236427,1,-0.796505988,1,-0.795449257,1,0.5879399180412292,1,0.2581616342067719,1,-0.525401294,1,2.851966142654419,1
2.907945633,-6.662214279,1,-2.446609735,1,-8.327047348,1,-0.80066216,1,-0.723094344,1,0.549424946,1,0.2541234195232391,1,-0.528908193,1,2.853610754013062,1
2.911947489,-7.175222874,1,-1.801543236,1,-8.618913651,1,-0.803564847,1,-0.653923333,1,0.5155690312385559,1,0.2501084208488464,1,-0.532108903,1,2.855217218399048,1
2.915945768,-6.7690382,1,-1.662957191,1,-8.711125374,1,-0.775568187,1,-0.557546973,1,0.4884133636951447,1,0.2461524605751038,1,-0.534937322,1,2.856771708,1
2.91994524,-6.974850178,1,-1.331499457,1,-9.132704735,1,-0.744475186,1,-0.488969594,1,0.4866794645786285,1,0.2422706931829453,1,-0.537439287,1,2.858389854431152,1
2.923946381,-9.917069435,1,-0.179717749,1,-10.22466755,1,-0.67390871,1,-0.331648856,1,0.4420486390590668,1,0.2385737001895905,1,-0.539514184,1,2.860029935836792,1
2.927944183,-8.084226608,1,-0.299108624,1,-9.76512146,1,-0.597299635,1,-0.150664762,1,0.4075959920883179,1,0.2351907938718796,1,-0.540823579,1,2.861686944961548,1
2.931943655,-5.184304714,1,-0.880752861,1,-8.485883713,1,-0.542326093,1,-0.16422911,1,0.4046376049518585,1,0.2320389747619629,1,-0.541771531,1,2.863361597061157,1
2.935945511,-4.786367893,1,-1.509116888,1,-8.502289772,1,-0.513463616,1,-0.243162721,1,0.3964856266975403,1,0.2291269600391388,1,-0.543042183,1,2.864659309387207,1
2.939943075,-6.001219273,1,-1.583900094,1,-9.333680153,1,-0.490673065,1,-0.237413868,1,0.3653613030910492,1,0.2263440042734146,1,-0.544339597,1,2.866148948669434,1
2.943942547,-7.36752224,1,-1.067495942,1,-9.807843208,1,-0.425998062,1,-0.139463037,1,0.3168140053749084,1,0.2238214612007141,1,-0.545391619,1,2.867472171783447,1
2.947944641,-4.53839922,1,-1.378955722,1,-8.516435623,1,-0.406979322,1,-0.164134428,1,0.3208950161933899,1,0.2214874476194382,1,-0.546220124,1,2.868778705596924,1
2.951942682,-4.671826839,1,-1.449140072,1,-8.539228439,1,-0.363652438,1,-0.243551478,1,0.3067184090614319,1,0.219316766,1,-0.547304988,1,2.870005369186401,1
2.955942154,-5.975045204,1,-1.066706896,1,-9.180336952,1,-0.341036648,1,-0.221507534,1,0.2837854325771332,1,0.2173307687044144,1,-0.54849571,1,2.871107101,1
2.959943771,-5.89050293,1,-0.586734176,1,-8.91645813,1,-0.300438464,1,-0.200002074,1,0.2798111438751221,1,0.2154729068279266,1,-0.549562216,1,2.872186183929443,1
2.963947058,-5.340937614,1,-1.278552651,1,-8.137573242,1,-0.270040751,1,-0.228244409,1,0.2731272280216217,1,0.2137814164161682,1,-0.550628364,1,2.873248100280762,1
2.967946768,-5.701746941,1,-1.725190878,1,-8.34714222,1,-0.243711069,1,-0.236207873,1,0.2528049349784851,1,0.2122323662042618,1,-0.551770091,1,2.874239444732666,1
2.971948385,-6.084665298,1,-1.482249379,1,-8.499302864,1,-0.220208034,1,-0.222271055,1,0.2273103296756744,1,0.2108487188816071,1,-0.552871883,1,2.875108957290649,1
2.975945711,-5.355535984,1,-1.70398283,1,-8.304152489,1,-0.200165614,1,-0.238243639,1,0.2155118435621262,1,0.2096063792705536,1,-0.553944528,1,2.875885963439941,1
2.979945183,-5.331921101,1,-1.621995211,1,-8.529432297,1,-0.181423724,1,-0.243031576,1,0.2223975658416748,1,0.2084310501813889,1,-0.555060804,1,2.876651048660278,1
2.9839468,-5.207371712,1,-1.428643465,1,-8.734379768,1,-0.167821184,1,-0.240226611,1,0.2245299518108368,1,0.2073182761669159,1,-0.556181788,1,2.877437829971313,1
2.987944126,-4.878498554,1,-1.995471478,1,-8.576477051,1,-0.163569272,1,-0.258825719,1,0.2291989773511887,1,0.2062300741672516,1,-0.557340026,1,2.878250598907471,1
2.991943836,-5.01797533,1,-2.320851326,1,-8.680839539,1,-0.160814986,1,-0.267067522,1,0.2297912091016769,1,0.2051631063222885,1,-0.558564842,1,2.879055261611938,1
2.995945692,-4.976199627,1,-2.379806995,1,-8.687420845,1,-0.166361541,1,-0.270928264,1,0.2274805307388306,1,0.20408611,1,-0.559806049,1,2.879857063293457,1
2.99994421,-5.106656075,1,-2.169781685,1,-8.605365753,1,-0.168392539,1,-0.285124809,1,0.2329133599996567,1,0.2029863446950912,1,-0.561087787,1,2.880664110183716,1
3.003943682,-5.195471764,1,-1.985767961,1,-8.464896202,1,-0.171988368,1,-0.277194679,1,0.2408984303474426,1,0.2018648386001587,1,-0.562379062,1,2.881489515304565,1
3.007945299,-5.0346241,1,-1.540167451,1,-8.587050438,1,-0.159566745,1,-0.296025783,1,0.2231076508760452,1,0.2007817029953003,1,-0.563684046,1,2.882285594940186,1
3.011942863,-5.35772562,1,-1.418762565,1,-8.536944389,1,-0.146046862,1,-0.299786597,1,0.2143687754869461,1,0.1997823864221573,1,-0.565026402,1,2.883019447,1
3.015942335,-4.837537766,1,-1.323369622,1,-8.349205017,1,-0.124245137,1,-0.290342063,1,0.2019423842430115,1,0.1988378316164017,1,-0.56633842,1,2.883744239807129,1
3.019943714,-5.654635429,1,-1.420891762,1,-8.160845757,1,-0.114849441,1,-0.305397093,1,0.1741435974836349,1,0.1980533599853516,1,-0.567661226,1,2.884338379,1
3.023941278,-5.467493057,1,-1.29554379,1,-8.294033051,1,-0.09449292,1,-0.290540546,1,0.1627494841814041,1,0.1973741352558136,1,-0.568950772,1,2.884836196899414,1
3.02794075,-5.500021935,1,-1.279839516,1,-8.31916523,1,-0.080300681,1,-0.285183966,1,0.1528610736131668,1,0.1967825591564178,1,-0.570208848,1,2.885286569595337,1
