Time,inertial-6253.76535:estCompensatedAccelX,inertial-6253.76535:estCompensatedAccelX:valid,inertial-6253.76535:estCompensatedAccelY,inertial-6253.76535:estCompensatedAccelY:valid,inertial-6253.76535:estCompensatedAccelZ,inertial-6253.76535:estCompensatedAccelZ:valid,inertial-6253.76535:estAngularRateX,inertial-6253.76535:estAngularRateX:valid,inertial-6253.76535:estAngularRateY,inertial-6253.76535:estAngularRateY:valid,inertial-6253.76535:estAngularRateZ,inertial-6253.76535:estAngularRateZ:valid,inertial-6253.76535:estRoll,inertial-6253.76535:estRoll:valid,inertial-6253.76535:estPitch,inertial-6253.76535:estPitch:valid,inertial-6253.76535:estYaw,inertial-6253.76535:estYaw:valid
0,-4.742035389,1,-2.646345139,1,-8.154491425,1,0.005573104,1,-0.002789303,1,0.00057536,1,0.315672576,1,-0.554471254,1,0.093050972,1
0.003998464,-4.780268192,1,-2.608716249,1,-8.204154015,1,0.00507632,1,-0.006973309,1,0.003292655,1,0.315691054,1,-0.554495513,1,0.093047053,1
0.007998208,-4.822679996,1,-2.617140293,1,-8.130283356,1,0.003623382,1,-0.007849837,1,0.003657745,1,0.315714896,1,-0.554527462,1,0.093044892,1
0.011999744,-4.857686996,1,-2.602235794,1,-8.145389557,1,0.003615221,1,-0.00644046,1,0.002071494,1,0.315733254,1,-0.554558992,1,0.093043014,1
0.015997184,-4.844961643,1,-2.613599777,1,-8.136012077,1,0.001550009,1,-0.005430183,1,0.000652602,1,0.315747529,1,-0.554593682,1,0.093036093,1
0.019996416,-4.84813118,1,-2.607893705,1,-8.12776947,1,0.004788446,1,-0.008238223,1,-0.001884215,1,0.31577599,1,-0.554619372,1,0.093018055,1
0.023997696,-4.861566544,1,-2.594156265,1,-8.153858185,1,0.004996861,1,-0.007459532,1,-0.001257193,1,0.315803766,1,-0.554644883,1,0.093001463,1
0.028001536,-4.830974102,1,-2.58424449,1,-8.129415512,1,0.004937482,1,-0.006487783,1,0.003450594,1,0.315824628,1,-0.554671764,1,0.093000077,1
0.032001793,-4.8167696,1,-2.60885787,1,-8.108005524,1,0.006305797,1,-0.005607497,1,-0.001593293,1,0.315851688,1,-0.554694891,1,0.092979595,1
0.036003072,-4.811844826,1,-2.605027914,1,-8.11315155,1,0.002303481,1,-0.00437865,1,-0.001642937,1,0.315870643,1,-0.554714143,1,0.092963398,1
0.040000513,-4.802972794,1,-2.644917727,1,-8.130561829,1,0.001352524,1,-0.006712773,1,-0.005011566,1,0.315868616,1,-0.553513706,1,0.093030058,1
0.044,-4.808582306,1,-2.634732485,1,-8.138640404,1,0.00066259,1,-0.005828374,1,-0.002215354,1,0.315916777,1,-0.55342561,1,0.094762176,1
0.048001535,-4.756820679,1,-2.679202318,1,-8.147624969,1,-0.002292264,1,-0.005381452,1,-0.001624058,1,0.315924883,1,-0.553443551,1,0.094741523,1
0.051999487,-4.780990124,1,-2.708892345,1,-8.157588005,1,-0.005019925,1,-0.007174848,1,-0.001203794,1,0.315920055,1,-0.553470433,1,0.094719067,1
0.055998977,-4.788812637,1,-2.678697586,1,-8.110010147,1,-0.009883687,1,-0.00553592,1,0.005398338,1,0.315905869,1,-0.553495109,1,0.094705015,1
0.060000256,-4.783593178,1,-2.683927298,1,-8.099493027,1,-0.005192443,1,-0.011471243,1,-0.000881019,1,0.315882921,1,-0.553529978,1,0.094689861,1
0.063997693,-4.731930733,1,-2.675918579,1,-8.172633171,1,-0.010709555,1,-0.008347226,1,-0.003428315,1,0.315851957,1,-0.553555369,1,0.094675735,1
0.067997441,-4.773523808,1,-2.627623558,1,-8.171338081,1,-0.010093137,1,-0.019770728,1,-0.001957612,1,0.315823555,1,-0.553607643,1,0.094648227,1
0.071998976,-4.72049427,1,-2.575744629,1,-8.185623169,1,-0.010691104,1,-0.018073134,1,-0.001637039,1,0.315803111,1,-0.553674579,1,0.094621934,1
0.075996675,-4.686503887,1,-2.586088181,1,-8.164867401,1,-0.003485529,1,-0.022326181,1,-0.001509128,1,0.315795302,1,-0.553747892,1,0.094580345,1
0.0799959,-4.731639385,1,-2.584652901,1,-8.233551025,1,-0.009144218,1,-0.030938908,1,-0.001171429,1,0.31579724,1,-0.553844392,1,0.094528757,1
0.083997183,-4.796635151,1,-2.550604343,1,-8.194599152,1,-0.004245597,1,-0.035580784,1,-0.003604998,1,0.315798283,1,-0.553958356,1,0.094475985,1
0.087994628,-4.808083057,1,-2.578751087,1,-8.175782204,1,-0.005202062,1,-0.038642038,1,-0.004296191,1,0.315816998,1,-0.5540874,1,0.094408505,1
0.091994882,-4.837834358,1,-2.571222782,1,-8.17031765,1,-0.003953246,1,-0.038494363,1,-0.00613091,1,0.315842628,1,-0.554220498,1,0.094320774,1
0.09599667,-4.867275715,1,-2.593159437,1,-8.159166336,1,-0.003669277,1,-0.042430382,1,-0.008863936,1,0.315875232,1,-0.554364026,1,0.094234951,1
0.099994622,-4.855661869,1,-2.551799059,1,-8.1432724,1,0.002808266,1,-0.044199035,1,-0.006546951,1,0.315924227,1,-0.554516673,1,0.094139352,1
0.103994109,-4.848073959,1,-2.564072371,1,-8.179885864,1,-0.000763757,1,-0.043670684,1,-0.010747036,1,0.315988243,1,-0.554668546,1,0.094031028,1
0.107995391,-4.883856297,1,-2.546118259,1,-8.193375587,1,0.002481718,1,-0.041430045,1,-0.013623509,1,0.31604594,1,-0.5548172,1,0.093908861,1
0.111992829,-4.851351738,1,-2.520892382,1,-8.133984566,1,8.76E-05,1,-0.046658196,1,-0.010055966,1,0.31611523,1,-0.554970086,1,0.093794934,1
0.115992062,-4.87185812,1,-2.560830355,1,-8.161872864,1,0.005321125,1,-0.046338569,1,-0.015645029,1,0.316193759,1,-0.555124581,1,0.093673222,1
0.119994111,-4.795363426,1,-2.54001379,1,-8.292392731,1,0.007235675,1,-0.047165118,1,-0.019612759,1,0.316307485,1,-0.555270612,1,0.093523912,1
0.123992316,-4.893921852,1,-2.620032549,1,-8.035036087,1,0.008063294,1,-0.038295656,1,-0.02023216,1,0.316404849,1,-0.555418074,1,0.09338212,1
0.127998203,-4.822052002,1,-2.628824472,1,-8.125304222,1,0.009349719,1,-0.041216016,1,-0.01816437,1,0.316516995,1,-0.555543959,1,0.093237877,1
0.132000253,-4.807458401,1,-2.679887533,1,-8.088728905,1,0.009826065,1,-0.040361106,1,-0.022037106,1,0.316629559,1,-0.555676341,1,0.09310098,1
0.135998726,-4.783927917,1,-2.645131826,1,-8.099286079,1,0.010990211,1,-0.041585051,1,-0.017673109,1,0.316741377,1,-0.555807173,1,0.09296336,1
0.139998212,-4.733303547,1,-2.659263134,1,-8.136917114,1,0.012294559,1,-0.041359633,1,-0.01354277,1,0.31685549,1,-0.555938303,1,0.092840992,1
0.143999487,-4.740262985,1,-2.628029585,1,-8.148929596,1,0.015097989,1,-0.041535359,1,-0.015418923,1,0.316979349,1,-0.556085825,1,0.092715465,1
0.147996932,-4.725687504,1,-2.667649746,1,-8.187401772,1,0.016281847,1,-0.053428933,1,-0.011399888,1,0.317110866,1,-0.556244671,1,0.092588052,1
0.151996419,-4.75591135,1,-2.677193165,1,-8.169751167,1,0.020132719,1,-0.046486869,1,-0.013795779,1,0.317239076,1,-0.556415617,1,0.09247078,1
0.155998215,-4.823534489,1,-2.706297636,1,-8.110038757,1,0.014644386,1,-0.049612895,1,-0.012020662,1,0.317369401,1,-0.556589246,1,0.092345975,1
0.15999642,-4.799249172,1,-2.753182173,1,-8.114990234,1,0.014800044,1,-0.049361113,1,-0.012639307,1,0.31749022,1,-0.556771874,1,0.09222436,1
0.163995907,-4.718074799,1,-2.722132444,1,-8.109460831,1,0.015554243,1,-0.057087108,1,-0.008125538,1,0.317616284,1,-0.556964159,1,0.092104226,1
0.167997435,-4.722515583,1,-2.69204545,1,-8.163528442,1,0.01627038,1,-0.060441833,1,-0.002160947,1,0.317739069,1,-0.557174802,1,0.09199366,1
0.17199488,-4.714080334,1,-2.686560631,1,-8.197613716,1,0.016304756,1,-0.065042041,1,-0.002349501,1,0.317857981,1,-0.557407677,1,0.091891497,1
0.176000774,-4.796355247,1,-2.67302227,1,-8.174117088,1,0.016026955,1,-0.068550661,1,0.003499158,1,0.317964852,1,-0.55765909,1,0.091802023,1
0.180002809,-4.839198112,1,-2.712677479,1,-8.124186516,1,0.016761739,1,-0.069296069,1,0.004361152,1,0.318081647,1,-0.557931304,1,0.091710761,1
0.184001029,-4.82162714,1,-2.698872566,1,-8.145813942,1,0.024025511,1,-0.071757123,1,0.006143188,1,0.318200648,1,-0.558199227,1,0.091623947,1
0.188000768,-4.869739056,1,-2.655694485,1,-8.149474144,1,0.023581954,1,-0.069604494,1,0.001478902,1,0.318332374,1,-0.558480144,1,0.091535531,1
0.192002311,-4.903989315,1,-2.628271103,1,-8.144566536,1,0.02215714,1,-0.071825758,1,0.003675035,1,0.318473727,1,-0.558758855,1,0.091448337,1
0.195999742,-4.913248539,1,-2.621055126,1,-8.128343582,1,0.025039518,1,-0.075589471,1,0.007338749,1,0.318608195,1,-0.559039772,1,0.091362655,1
0.199999228,-4.863951206,1,-2.716551065,1,-8.136031151,1,0.025250137,1,-0.072646834,1,0.002948436,1,0.318757594,1,-0.559320092,1,0.091274984,1
0.204000518,-4.842897415,1,-2.678792238,1,-8.093442917,1,0.029052241,1,-0.076558769,1,0.00483982,1,0.318907917,1,-0.559607029,1,0.09118703,1
0.207997948,-4.809341431,1,-2.688955307,1,-8.150220871,1,0.027292825,1,-0.078069761,1,0.009856357,1,0.319063187,1,-0.5599069,1,0.091099605,1
0.211997703,-4.854147434,1,-2.695996523,1,-8.164778709,1,0.022732226,1,-0.07881397,1,0.006951702,1,0.319203794,1,-0.560207844,1,0.091021933,1
0.215998977,-4.863298416,1,-2.750350237,1,-8.102173805,1,0.024942482,1,-0.075107187,1,0.011931829,1,0.319342345,1,-0.560522437,1,0.090950549,1
0.219996154,-4.84350872,1,-2.755342245,1,-8.111591339,1,0.024259686,1,-0.075747289,1,0.01256756,1,0.319473356,1,-0.560826063,1,0.090886302,1
0.224001542,-4.826254845,1,-2.79586935,1,-8.121638298,1,0.019699898,1,-0.079553738,1,0.016181367,1,0.319598436,1,-0.561136723,1,0.090830088,1
0.228002816,-4.770277023,1,-2.794145584,1,-8.121454239,1,0.020201119,1,-0.080428436,1,0.015511519,1,0.319707274,1,-0.561459959,1,0.090772755,1
0.232000515,-4.77367115,1,-2.768358946,1,-8.155996323,1,0.020145928,1,-0.080779329,1,0.018192027,1,0.319814742,1,-0.561788082,1,0.090731353,1
0.235999748,-4.834837914,1,-2.72104311,1,-8.176527977,1,0.017506976,1,-0.079982921,1,0.021004179,1,0.319903821,1,-0.562123656,1,0.090697169,1
0.240001529,-4.906647682,1,-2.751836061,1,-8.121513367,1,0.012322364,1,-0.083222859,1,0.024265446,1,0.319978058,1,-0.562467158,1,0.090676501,1
0.243999749,-4.914411068,1,-2.723911762,1,-8.119857788,1,0.00949194,1,-0.084041595,1,0.02500328,1,0.320037544,1,-0.562811792,1,0.090659313,1
0.247999236,-4.973266125,1,-2.703625202,1,-8.084521294,1,0.011530869,1,-0.082624301,1,0.021761406,1,0.320097476,1,-0.563152194,1,0.09063866,1
0.252000511,-4.960129738,1,-2.644354105,1,-8.099320412,1,0.010547765,1,-0.079392061,1,0.024376057,1,0.320141852,1,-0.563485384,1,0.090630926,1
0.255997956,-4.927494526,1,-2.57185173,1,-8.135926247,1,0.010550667,1,-0.074933045,1,0.026115566,1,0.320183218,1,-0.56380856,1,0.090629704,1
0.259997189,-4.9921422,1,-2.503548145,1,-8.106048584,1,0.011327512,1,-0.073136166,1,0.022008145,1,0.320228279,1,-0.564120114,1,0.090621583,1
0.263998717,-4.981692314,1,-2.566195011,1,-8.122353554,1,0.012588559,1,-0.072077259,1,0.024082219,1,0.320275664,1,-0.56442678,1,0.090624042,1
0.267996162,-5.068602562,1,-2.516338825,1,-8.055430412,1,0.015169877,1,-0.072931834,1,0.01969523,1,0.320337236,1,-0.564732671,1,0.090612255,1
0.271995395,-4.984564304,1,-2.580224991,1,-8.022387505,1,0.01631924,1,-0.070818119,1,0.0196702,1,0.320413053,1,-0.565022469,1,0.090597667,1
0.275996923,-4.957242966,1,-2.637940645,1,-8.082531929,1,0.015540645,1,-0.069353536,1,0.021141669,1,0.320492715,1,-0.565300286,1,0.090573817,1
0.279994369,-4.858279228,1,-2.711651802,1,-8.085176468,1,0.018689992,1,-0.068224438,1,0.01801293,1,0.32056886,1,-0.565582931,1,0.090556264,1
0.283993602,-4.845757484,1,-2.679086685,1,-8.109395981,1,0.017910801,1,-0.071102239,1,0.016880399,1,0.320653915,1,-0.565876663,1,0.090532549,1
0.287994891,-4.900952339,1,-2.693902016,1,-8.089502335,1,0.014099275,1,-0.07449393,1,0.024491396,1,0.320731342,1,-0.566173673,1,0.090519361,1
0.291992307,-4.924511433,1,-2.708010435,1,-8.081048012,1,0.014707426,1,-0.065848507,1,0.023979032,1,0.320798397,1,-0.565123737,1,0.092266932,1
0.295992315,-4.992959023,1,-2.771905422,1,-8.019722939,1,0.010196936,1,-0.066857368,1,0.024620501,1,0.32084024,1,-0.565404594,1,0.092278637,1
0.299994379,-5.029718399,1,-2.771878004,1,-8.040371895,1,0.008715549,1,-0.063352823,1,0.024530187,1,0.320874184,1,-0.565678477,1,0.092291139,1
0.303992331,-4.972642422,1,-2.713595629,1,-8.037849426,1,0.005754588,1,-0.05242724,1,0.031517725,1,0.320877194,1,-0.565934241,1,0.092333801,1
0.307991803,-4.954030514,1,-2.727486849,1,-8.063441277,1,0.002969957,1,-0.059094168,1,0.028708799,1,0.320870638,1,-0.566186488,1,0.092383094,1
0.311993092,-4.934707165,1,-2.63485527,1,-8.104955673,1,0.003501242,1,-0.053301465,1,0.032301437,1,0.320847929,1,-0.566439331,1,0.092434876,1
0.315990537,-4.989308357,1,-2.626018763,1,-8.034786224,1,-0.001815531,1,-0.056405507,1,0.030928861,1,0.320823491,1,-0.566683769,1,0.092493899,1
0.319989771,-5.006602287,1,-2.612145424,1,-8.047433853,1,0.000404486,1,-0.05419204,1,0.025321508,1,0.320786297,1,-0.566925704,1,0.092553094,1
0.32399103,-4.999904156,1,-2.620448351,1,-8.033694267,1,0.001786086,1,-0.050308298,1,0.031407699,1,0.320755988,1,-0.567158401,1,0.092607439,1
0.327988476,-5.010532379,1,-2.580685139,1,-8.028591156,1,-0.000555397,1,-0.0526223,1,0.027236419,1,0.320722163,1,-0.567389607,1,0.092670128,1
0.331988484,-4.978636265,1,-2.595777035,1,-8.052393913,1,0.0035139,1,-0.048988786,1,0.028630169,1,0.320702434,1,-0.567613423,1,0.092717007,1
0.335989773,-5.00624609,1,-2.594673157,1,-7.983502388,1,0.003141413,1,-0.046673484,1,0.026783148,1,0.320684493,1,-0.567831576,1,0.092771187,1
0.339987457,-4.969060421,1,-2.627363682,1,-8.047602654,1,0.001704357,1,-0.043032948,1,0.026406046,1,0.320668221,1,-0.568034887,1,0.092829071,1
0.343986958,-4.972315311,1,-2.616031885,1,-8.017378807,1,0.001448667,1,-0.047799647,1,0.027013015,1,0.320646822,1,-0.568246186,1,0.092870377,1
0.347988993,-4.994131565,1,-2.562620163,1,-7.979735374,1,0.005093568,1,-0.042512164,1,0.025401955,1,0.320645332,1,-0.568450987,1,0.09291172,1
0.351987213,-4.958955288,1,-2.50741291,1,-7.999082565,1,0.002641566,1,-0.042061951,1,0.027125496,1,0.320632339,1,-0.568655849,1,0.09296006,1
0.355986953,-4.953270912,1,-2.47364378,1,-8.030837059,1,0.01109772,1,-0.043419048,1,0.023222273,1,0.320639729,1,-0.56885165,1,0.0930048,1
0.359988481,-4.966332912,1,-2.519098282,1,-8.109397888,1,0.01552505,1,-0.047470577,1,0.02456033,1,0.320672333,1,-0.569046199,1,0.093039013,1
0.363985926,-5.003050327,1,-2.535014391,1,-8.113018036,1,0.015858393,1,-0.044873383,1,0.018815894,1,0.320719928,1,-0.569247842,1,0.093064964,1
0.367985159,-5.030473232,1,-2.56461668,1,-8.057579041,1,0.022230782,1,-0.043510068,1,0.021199683,1,0.320784301,1,-0.569434762,1,0.093091376,1
0.371986687,-5.011316299,1,-2.623408556,1,-8.046557426,1,0.022949167,1,-0.039524999,1,0.022849984,1,0.320860773,1,-0.569625258,1,0.0931205,1
0.375984132,-4.97668457,1,-2.670856714,1,-8.060026169,1,0.024959581,1,-0.044933155,1,0.019557849,1,0.320951968,1,-0.569811106,1,0.093133196,1
0.37998414,-4.888726234,1,-2.630664825,1,-8.052540779,1,0.02700123,1,-0.046776295,1,0.018864615,1,0.321054131,1,-0.57000041,1,0.093141705,1
0.383985907,-4.940257072,1,-2.675952435,1,-8.058941841,1,0.027292296,1,-0.044334736,1,0.013029487,1,0.321165383,1,-0.570197701,1,0.09314511,1
0.38798362,-4.977853775,1,-2.69927597,1,-8.112551689,1,0.025479199,1,-0.0478587,1,0.016057147,1,0.321259022,1,-0.57039398,1,0.093153447,1
0.391983092,-4.985857964,1,-2.740027189,1,-8.056704521,1,0.02549121,1,-0.045483407,1,0.016718045,1,0.321363896,1,-0.570595682,1,0.0931563,1
0.395984381,-4.982970715,1,-2.757523298,1,-8.07749939,1,0.025899986,1,-0.046027828,1,0.016183339,1,0.321466208,1,-0.570790589,1,0.093160078,1
0.399981827,-4.942667961,1,-2.661672354,1,-8.086485863,1,0.021732967,1,-0.0472885,1,0.019307449,1,0.321551204,1,-0.570988417,1,0.093172804,1
0.403981835,-4.995127678,1,-2.620669603,1,-8.111358643,1,0.021204416,1,-0.052629288,1,0.018290248,1,0.321631581,1,-0.571192324,1,0.093188941,1
0.407983631,-5.017774582,1,-2.565757036,1,-8.068684578,1,0.025292631,1,-0.045059711,1,0.015744949,1,0.321706951,1,-0.571397543,1,0.093213752,1
0.411981821,-4.988193512,1,-2.572574377,1,-8.062066078,1,0.027026944,1,-0.049720131,1,0.01664779,1,0.321800947,1,-0.571598113,1,0.093226284,1
0.415981323,-5.023115158,1,-2.588359118,1,-8.030404091,1,0.025431123,1,-0.043104276,1,0.01831013,1,0.321906,1,-0.571804821,1,0.093227848,1
0.419988722,-5.029164314,1,-2.62307024,1,-8.041347504,1,0.028024616,1,-0.048538607,1,0.017725041,1,0.322010994,1,-0.572003603,1,0.093234465,1
0.423992306,-5.001639843,1,-2.640542984,1,-8.044078827,1,0.026785409,1,-0.048248146,1,0.016857883,1,0.322113842,1,-0.572204113,1,0.093238153,1
0.427991807,-5.035374641,1,-2.613275528,1,-8.00755024,1,0.028164886,1,-0.04380193,1,0.01419093,1,0.322219431,1,-0.572405815,1,0.093244776,1
0.431993842,-5.05692625,1,-2.636066914,1,-8.022071838,1,0.027626289,1,-0.042806104,1,0.01317608,1,0.322333843,1,-0.572592258,1,0.09323597,1
0.43599233,-5.027397156,1,-2.615570545,1,-8.013090134,1,0.026739027,1,-0.046134293,1,0.012572045,1,0.32243681,1,-0.572783768,1,0.093237177,1
0.43999207,-5.025565147,1,-2.63829875,1,-8.016409874,1,0.024868792,1,-0.039726473,1,0.016514402,1,0.322540462,1,-0.572963357,1,0.093232758,1
0.44399333,-5.030963898,1,-2.617812872,1,-7.980530739,1,0.025826728,1,-0.039270811,1,0.010445962,1,0.322640121,1,-0.573133945,1,0.093227066,1
0.447990775,-5.017961025,1,-2.62463069,1,-7.961659431,1,0.017312437,1,-0.039210301,1,0.011746285,1,0.322732985,1,-0.573300004,1,0.093223795,1
0.451990008,-5.053384304,1,-2.655448914,1,-7.967958927,1,0.025480561,1,-0.03623176,1,0.010400767,1,0.322820425,1,-0.573453844,1,0.093219399,1
0.455991566,-5.036069393,1,-2.632061243,1,-7.994370937,1,0.019369617,1,-0.034580063,1,0.014226813,1,0.322907776,1,-0.573606491,1,0.093217075,1
0.459988981,-5.056474686,1,-2.623522758,1,-7.967023849,1,0.019973908,1,-0.031161686,1,0.009730471,1,0.322989047,1,-0.573749602,1,0.093220785,1
0.463988721,-5.028014183,1,-2.661480427,1,-7.963208199,1,0.018877199,1,-0.028337199,1,0.005666917,1,0.323057115,1,-0.573880196,1,0.093231186,1
0.467990786,-5.031261921,1,-2.66622448,1,-8.048660278,1,0.021982832,1,-0.026512843,1,0.008862662,1,0.323141456,1,-0.573998928,1,0.09321887,1
0.471989006,-4.946950436,1,-2.665939808,1,-8.046478271,1,0.01895874,1,-0.027601669,1,0.013300567,1,0.323226213,1,-0.574121594,1,0.093227252,1
0.475989252,-4.978761196,1,-2.649802923,1,-8.041796684,1,0.019754941,1,-0.03109712,1,0.013145235,1,0.323297203,1,-0.57424444,1,0.093236715,1
0.479990542,-4.989171505,1,-2.709081173,1,-8.068846703,1,0.022203699,1,-0.028603647,1,0.013571583,1,0.323371828,1,-0.574374378,1,0.093251571,1
0.483987957,-4.942529678,1,-2.769966125,1,-8.037717819,1,0.018108867,1,-0.028551295,1,0.012891354,1,0.323439479,1,-0.574489713,1,0.093273476,1
0.487987459,-4.999441147,1,-2.752797604,1,-8.072045326,1,0.014736233,1,-0.03090187,1,0.018870896,1,0.323490262,1,-0.574624419,1,0.09329664,1
0.491989255,-4.99456358,1,-2.792210579,1,-8.066151619,1,0.013489483,1,-0.024813646,1,0.018822238,1,0.323530287,1,-0.574756742,1,0.093324393,1
0.495986938,-5.005278111,1,-2.765821934,1,-8.061123848,1,0.005487065,1,-0.027980154,1,0.018681616,1,0.323554337,1,-0.57488215,1,0.093367375,1
0.499986678,-5.017655373,1,-2.776665211,1,-8.063972473,1,0.010538894,1,-0.029177882,1,0.017139237,1,0.323569149,1,-0.57501924,1,0.093409464,1
0.503988206,-4.996500015,1,-2.776186466,1,-8.05864048,1,0.004479751,1,-0.029250558,1,0.023280647,1,0.323575318,1,-0.575154603,1,0.093459055,1
0.50798595,-5.021244526,1,-2.769951582,1,-8.066602707,1,0.002618677,1,-0.028908426,1,0.026602125,1,0.323559195,1,-0.575295687,1,0.093522966,1
0.51198566,-4.998632908,1,-2.764358997,1,-8.052764893,1,0.002851996,1,-0.028060762,1,0.030667178,1,0.323523343,1,-0.575435221,1,0.093600422,1
0.515993595,-5.02015686,1,-2.706658363,1,-8.03342247,1,0.000349997,1,-0.028042788,1,0.026378857,1,0.323484272,1,-0.575582504,1,0.093675084,1
0.519997954,-5.040262699,1,-2.676215172,1,-8.031118393,1,0.000892638,1,-0.032364037,1,0.029652946,1,0.323441148,1,-0.575732529,1,0.09374249,1
0.523998439,-5.018230438,1,-2.696748734,1,-8.028907776,1,-0.005090053,1,-0.030375279,1,0.025676766,1,0.323386967,1,-0.575881302,1,0.093828544,1
0.527999759,-5.051855564,1,-2.663846493,1,-8.051753044,1,-0.004914009,1,-0.032601014,1,0.02674727,1,0.32333231,1,-0.576029241,1,0.093904182,1
0.531997442,-5.023335457,1,-2.647619963,1,-8.027908325,1,-0.002131015,1,-0.032145139,1,0.027204031,1,0.323275149,1,-0.576185286,1,0.093977019,1
0.536002815,-5.024030209,1,-2.608047485,1,-8.029312134,1,-0.006021063,1,-0.033567727,1,0.024607901,1,0.323216915,1,-0.576338351,1,0.094053075,1
0.540004075,-5.046016693,1,-2.646748781,1,-8.033858299,1,-0.004442775,1,-0.029299313,1,0.026485305,1,0.323139131,1,-0.575412273,1,0.094142273,1
0.544001818,-5.047510624,1,-2.592629433,1,-7.999754906,1,-0.001343867,1,-0.02896262,1,0.026165189,1,0.323114932,1,-0.575464308,1,0.095936641,1
0.548001528,-5.029853821,1,-2.568367958,1,-8.009243965,1,-0.003167062,1,-0.030042656,1,0.025706796,1,0.323071182,1,-0.575614929,1,0.096008211,1
0.552003324,-5.06036377,1,-2.5934484,1,-7.978794575,1,-0.00103655,1,-0.030510388,1,0.022008583,1,0.32303828,1,-0.575756609,1,0.096075311,1
0.556001008,-5.072566032,1,-2.601182222,1,-7.992498398,1,0.002880423,1,-0.024399677,1,0.017478025,1,0.323012471,1,-0.575894952,1,0.096135303,1
0.560001016,-5.050440788,1,-2.599370003,1,-7.986943722,1,0.003996112,1,-0.025246372,1,0.017940992,1,0.322993279,1,-0.576018095,1,0.096192449,1
0.564002573,-5.091627121,1,-2.557806253,1,-7.976619244,1,0.004053471,1,-0.021744253,1,0.019984489,1,0.322980881,1,-0.576132894,1,0.096244432,1
0.568000019,-5.046170235,1,-2.558876276,1,-7.943772316,1,0.002189253,1,-0.021202613,1,0.02339628,1,0.322963297,1,-0.576241016,1,0.096301727,1
0.572005391,-5.073425293,1,-2.541379452,1,-7.986949444,1,0.004033625,1,-0.020434758,1,0.012721575,1,0.322959721,1,-0.576345086,1,0.096342951,1
0.576006889,-5.052954197,1,-2.594595194,1,-7.984536171,1,0.010574609,1,-0.018918682,1,0.012401967,1,0.322966486,1,-0.576437652,1,0.096378081,1
0.580004334,-5.022655964,1,-2.629661083,1,-7.986519814,1,0.010714651,1,-0.017087044,1,0.015231264,1,0.322978884,1,-0.576520443,1,0.096409753,1
0.584004581,-5.01960516,1,-2.68073082,1,-8.019982338,1,0.004961228,1,-0.014162052,1,0.011662462,1,0.322995067,1,-0.57660085,1,0.096441813,1
0.5880059,-5.017601013,1,-2.699151516,1,-7.965885639,1,0.010716216,1,-0.014226212,1,0.012680186,1,0.323000669,1,-0.576673925,1,0.096475586,1
0.592003345,-5.021750927,1,-2.716650963,1,-7.980535507,1,0.006036987,1,-0.016132053,1,0.017815778,1,0.323004752,1,-0.576753497,1,0.096514806,1
0.596003354,-5.067615509,1,-2.74343133,1,-7.983539104,1,0.003146237,1,-0.012600692,1,0.011977374,1,0.322998285,1,-0.576832235,1,0.096556395,1
0.600004613,-5.050039291,1,-2.671202898,1,-7.992967606,1,0.00222911,1,-0.014564691,1,0.013777865,1,0.322979987,1,-0.576910138,1,0.096603483,1
0.60400182,-5.032217503,1,-2.64904952,1,-8.001457214,1,0.002159305,1,-0.017452653,1,0.020718576,1,0.322963208,1,-0.57698977,1,0.09665101,1
0.608001292,-5.007928371,1,-2.639795542,1,-8.035705566,1,0.001436874,1,-0.014216969,1,0.016106419,1,0.322949737,1,-0.57707262,1,0.096699692,1
0.612002552,-4.970845699,1,-2.668518305,1,-8.050447464,1,0.002683872,1,-0.016613958,1,0.016136982,1,0.322938085,1,-0.577149093,1,0.096745156,1
0.616006672,-4.998523712,1,-2.703863621,1,-8.074181557,1,0.003975817,1,-0.01801971,1,0.014003076,1,0.322919041,1,-0.577227175,1,0.096791074,1
0.62000668,-5.00651741,1,-2.754724026,1,-8.023423195,1,0.000939654,1,-0.018940121,1,0.016069399,1,0.322892219,1,-0.577318072,1,0.096837923,1
0.624008477,-5.038209915,1,-2.751131773,1,-8.072979927,1,7.70E-05,1,-0.017697979,1,0.017317524,1,0.322867453,1,-0.577408433,1,0.096894957,1
0.628006399,-4.997179508,1,-2.737310886,1,-8.034275055,1,-0.0044811,1,-0.019116078,1,0.019329984,1,0.322823942,1,-0.577515423,1,0.096952699,1
0.632005632,-5.024159908,1,-2.725320816,1,-8.045256615,1,-0.003710572,1,-0.020095728,1,0.022319177,1,0.322764635,1,-0.577617288,1,0.097017542,1
0.636006892,-5.023730278,1,-2.665040731,1,-8.062039375,1,-0.008666527,1,-0.0241993,1,0.022049151,1,0.322691262,1,-0.577731609,1,0.097090639,1
0.640004337,-5.018321037,1,-2.674721241,1,-8.080140114,1,-0.006299366,1,-0.028089914,1,0.019036066,1,0.322631538,1,-0.577857852,1,0.097153589,1
0.644004107,-5.057105541,1,-2.645915031,1,-8.081529617,1,-0.007294696,1,-0.029595513,1,0.022014992,1,0.32257247,1,-0.577988863,1,0.097206593,1
0.648006141,-5.030750275,1,-2.63897419,1,-8.07246685,1,-0.004754508,1,-0.030899899,1,0.022214184,1,0.322514325,1,-0.578128695,1,0.097262569,1
0.652004361,-5.045639038,1,-2.650948763,1,-8.035284996,1,-0.005116109,1,-0.031972539,1,0.021850022,1,0.322472036,1,-0.578279793,1,0.09730906,1
0.656003594,-5.054488659,1,-2.640865564,1,-8.019245148,1,-0.005792626,1,-0.031391449,1,0.022738487,1,0.322418213,1,-0.578427076,1,0.097356156,1
0.660004854,-5.019950867,1,-2.622038364,1,-8.023895264,1,-0.002799717,1,-0.033620335,1,0.01911881,1,0.322383523,1,-0.578577757,1,0.097401395,1
0.664002299,-5.0428195,1,-2.618624926,1,-8.042721748,1,-0.003331526,1,-0.034284022,1,0.020487189,1,0.32235083,1,-0.578731239,1,0.097440071,1
0.668001533,-5.020983219,1,-2.630894423,1,-8.049935341,1,0.000627237,1,-0.033624578,1,0.024430268,1,0.322322369,1,-0.578891993,1,0.097486831,1
0.67200309,-5.039890766,1,-2.6432271,1,-8.015428543,1,0.001679223,1,-0.028414374,1,0.019173289,1,0.322299153,1,-0.579035521,1,0.09752848,1
0.676000535,-5.030714512,1,-2.641824484,1,-8.03563118,1,-0.000193325,1,-0.033124164,1,0.023367103,1,0.322274745,1,-0.579184234,1,0.097577587,1
0.680000246,-5.064801693,1,-2.658088207,1,-8.007599831,1,0.005382342,1,-0.029054377,1,0.023948886,1,0.322250307,1,-0.579331398,1,0.097628392,1
0.684001565,-5.103560925,1,-2.623744011,1,-8.008154869,1,0.003411977,1,-0.029296914,1,0.024206052,1,0.322233319,1,-0.579479158,1,0.097689167,1
0.687998712,-5.102202415,1,-2.621397972,1,-7.980734825,1,0.006799183,1,-0.030037517,1,0.02226186,1,0.322215259,1,-0.579620302,1,0.097746149,1
0.69199872,-5.065416336,1,-2.597323179,1,-7.964587212,1,-0.000253998,1,-0.02825827,1,0.019832673,1,0.322202027,1,-0.579756737,1,0.097799651,1
0.696000516,-5.080210209,1,-2.583837271,1,-7.976802826,1,0.005535021,1,-0.027590225,1,0.021233212,1,0.32219255,1,-0.579893231,1,0.097845264,1
0.699998438,-5.077047348,1,-2.615611315,1,-7.96907711,1,0.007847851,1,-0.02744171,1,0.019291658,1,0.322186112,1,-0.580017567,1,0.09789446,1
0.70399797,-5.069694519,1,-2.606536865,1,-7.952818394,1,0.004720564,1,-0.02568748,1,0.016100561,1,0.322189003,1,-0.580140114,1,0.097935863,1
0.707999229,-5.063879967,1,-2.598916054,1,-7.951284409,1,0.003375978,1,-0.024606325,1,0.016524086,1,0.322186559,1,-0.580255032,1,0.097971298,1
0.712002575,-5.113560677,1,-2.592103004,1,-7.983151436,1,0.008642387,1,-0.021261143,1,0.0183639,1,0.322189003,1,-0.58036077,1,0.098013274,1
0.716002047,-5.050681591,1,-2.59098959,1,-7.939379215,1,0.008560981,1,-0.021749752,1,0.014125327,1,0.322201848,1,-0.580467701,1,0.098046698,1
0.720003605,-5.042607307,1,-2.604633331,1,-7.970350266,1,0.006199665,1,-0.021586414,1,0.012122245,1,0.322213411,1,-0.580563903,1,0.098075196,1
0.724001288,-5.024695873,1,-2.641578913,1,-8.010979652,1,0.007943168,1,-0.019801795,1,0.013450334,1,0.322223336,1,-0.580656946,1,0.098104931,1
0.728000998,-5.040604591,1,-2.625339746,1,-7.998222828,1,0.007482952,1,-0.018636638,1,0.014055422,1,0.322234333,1,-0.580742478,1,0.098142728,1
0.732002556,-5.073579788,1,-2.650586128,1,-8.011106491,1,0.004724786,1,-0.014699914,1,0.011546431,1,0.322248757,1,-0.580826879,1,0.098168343,1
0.73600024,-5.072230816,1,-2.667310476,1,-7.991643429,1,0.002285564,1,-0.017319376,1,0.013624776,1,0.32225126,1,-0.580900669,1,0.098204777,1
0.739999473,-5.081867695,1,-2.656661034,1,-7.974200726,1,0.004963722,1,-0.01575711,1,0.010675237,1,0.322248101,1,-0.580975056,1,0.098239146,1
0.744001508,-5.062444687,1,-2.626929522,1,-7.969741344,1,0.001594757,1,-0.019071758,1,0.018088877,1,0.322239816,1,-0.581055641,1,0.098283,1
0.747999728,-5.072908401,1,-2.616165876,1,-7.975466251,1,0.002697484,1,-0.014912318,1,0.014109627,1,0.322218418,1,-0.581129789,1,0.09833315,1
0.751999736,-5.047877789,1,-2.631336212,1,-7.978019714,1,-0.001112381,1,-0.014833326,1,0.013719611,1,0.322200358,1,-0.581200421,1,0.098364919,1
0.756001294,-5.068473339,1,-2.563795567,1,-7.978946686,1,0.003323099,1,-0.015096073,1,0.013534692,1,0.322184712,1,-0.581267297,1,0.098408334,1
0.759998739,-5.106626511,1,-2.602621555,1,-7.986738205,1,1.43E-05,1,-0.012450158,1,0.013164831,1,0.32215941,1,-0.581336856,1,0.098443501,1
0.763997972,-5.083050728,1,-2.629836082,1,-7.947087765,1,-0.001524052,1,-0.009814939,1,0.013245145,1,0.322130919,1,-0.581386328,1,0.098491929,1
0.767999232,-5.076479435,1,-2.619493723,1,-7.956406593,1,-0.001760082,1,-0.00459059,1,0.012484384,1,0.322101831,1,-0.581437707,1,0.098534562,1
0.771996677,-5.112369061,1,-2.613141537,1,-7.940761566,1,-0.003522987,1,-0.007836731,1,0.01380698,1,0.322063744,1,-0.581481934,1,0.098583579,1
0.775996685,-5.109368801,1,-2.6434412,1,-7.921349049,1,-0.002542887,1,-0.00765376,1,0.01647233,1,0.322022736,1,-0.581522584,1,0.098633237,1
0.779998481,-5.096337318,1,-2.650062799,1,-7.903890133,1,-0.006954671,1,-0.001426024,1,0.015681462,1,0.321973085,1,-0.581563115,1,0.098690413,1
0.783996403,-5.08298254,1,-2.662679195,1,-7.952905655,1,-0.010215397,1,-0.003502619,1,0.01696305,1,0.321917176,1,-0.581588864,1,0.098752819,1
0.787995875,-5.104458809,1,-2.677250624,1,-7.928515434,1,-0.00880944,1,-0.001413447,1,0.014522094,1,0.321844876,1,-0.581619322,1,0.098813899,1
0.791997194,-5.099112988,1,-2.668514252,1,-7.920739651,1,-0.009422059,1,0.001285362,1,0.015270821,1,0.321752787,1,-0.580455303,1,0.100648127,1
0.795994639,-5.09933424,1,-2.598526716,1,-7.968490601,1,-0.009560085,1,0.002672317,1,0.017231023,1,0.321677327,1,-0.58047384,1,0.100716047,1
0.799994648,-5.092923641,1,-2.611183882,1,-7.963637352,1,-0.010332621,1,0.004235157,1,0.013337123,1,0.321608245,1,-0.580475807,1,0.100782514,1
0.803996444,-5.07719183,1,-2.635617971,1,-7.981472492,1,-0.010393364,1,0.003069259,1,0.014836569,1,0.321528047,1,-0.580479622,1,0.100849792,1
0.807994604,-5.066563606,1,-2.616897821,1,-7.987464428,1,-0.007440384,1,0.005974493,1,0.011342821,1,0.321456343,1,-0.580474317,1,0.100922629,1
0.811999977,-5.047426701,1,-2.644603491,1,-8.001848221,1,-0.00682328,1,0.010551542,1,0.013973134,1,0.321384519,1,-0.58046633,1,0.100992404,1
0.816001534,-5.036158562,1,-2.642010689,1,-7.992613792,1,-0.006784292,1,0.004899386,1,0.011182424,1,0.321313441,1,-0.580455124,1,0.101061046,1
0.819999218,-5.041285992,1,-2.649339914,1,-8.015079498,1,-0.009461968,1,0.011124202,1,0.013169491,1,0.321245968,1,-0.580442905,1,0.101124339,1
0.823998451,-5.044600487,1,-2.605219841,1,-8.047102928,1,-0.008107289,1,0.004337814,1,0.011261858,1,0.321175843,1,-0.580429196,1,0.101195835,1
0.828000486,-5.035519123,1,-2.639509916,1,-8.036289215,1,-0.003263274,1,0.00436419,1,0.012543561,1,0.321133763,1,-0.580418408,1,0.101247005,1
0.831999004,-5.05941534,1,-2.615264893,1,-8.014338493,1,-0.002415012,1,0.005289618,1,0.009338178,1,0.321081519,1,-0.580406249,1,0.101312459,1
0.835998714,-5.084202766,1,-2.571405649,1,-8.016057968,1,-0.000466726,1,0.00379819,1,0.012859805,1,0.321042776,1,-0.58039856,1,0.101362713,1
0.840000272,-5.039690495,1,-2.544939518,1,-8.026367188,1,0.000286773,1,8.02E-05,1,0.008777494,1,0.321009636,1,-0.580400646,1,0.101414047,1
0.843997717,-5.022402763,1,-2.561938047,1,-8.041523933,1,0.002616957,1,-0.000834141,1,0.006140593,1,0.320988119,1,-0.580410123,1,0.101454437,1
0.847997427,-5.043870926,1,-2.573955059,1,-8.030409813,1,0.001260079,1,0.001786979,1,0.005445256,1,0.320980132,1,-0.580408812,1,0.101488672,1
0.851999462,-5.034265041,1,-2.568154097,1,-8.011116028,1,0.004237999,1,-0.00165237,1,0.00722693,1,0.320978999,1,-0.580425084,1,0.101521507,1
0.855997443,-5.01985836,1,-2.587043285,1,-8.028335571,1,0.004251197,1,-0.002739449,1,0.003094482,1,0.320982873,1,-0.580441415,1,0.101545841,1
0.859996676,-5.020353317,1,-2.596930504,1,-7.997991085,1,0.005893442,1,-0.005673547,1,0.005030427,1,0.321007669,1,-0.580464125,1,0.10155233,1
0.863998234,-5.010616779,1,-2.623574495,1,-8.029411316,1,0.009319512,1,-0.00801625,1,0.003429042,1,0.321033299,1,-0.580494344,1,0.101566844,1
0.867995918,-5.014544964,1,-2.626188993,1,-8.039347649,1,0.010153395,1,-0.010549247,1,0.002349062,1,0.321071088,1,-0.580535889,1,0.101569608,1
0.871996164,-5.050236702,1,-2.664208651,1,-8.016693115,1,0.010416019,1,-0.011448259,1,0.004893677,1,0.321118295,1,-0.580581486,1,0.101575732,1
0.875997961,-5.019246578,1,-2.654041767,1,-8.006138802,1,0.01545427,1,-0.01077039,1,0.005692601,1,0.321167052,1,-0.58063221,1,0.101574458,1
0.879995883,-5.061584949,1,-2.623658895,1,-7.974343777,1,0.011989377,1,-0.013889086,1,0.001998547,1,0.321228445,1,-0.580683708,1,0.101572365,1
0.883995116,-5.047052383,1,-2.628463745,1,-8.02088356,1,0.012386248,1,-0.011609634,1,0.001439851,1,0.321278006,1,-0.580735087,1,0.101569019,1
0.887996435,-5.039408684,1,-2.609690905,1,-8.034368515,1,0.011094897,1,-0.016325498,1,0.004815607,1,0.321337849,1,-0.580795467,1,0.101562127,1
0.89199388,-5.045859337,1,-2.577088118,1,-8.01414299,1,0.0140111,1,-0.013097459,1,-0.000715803,1,0.321383595,1,-0.580848932,1,0.101565555,1
0.895993114,-5.168622017,1,-2.638284922,1,-7.999674797,1,0.01996481,1,-0.013340326,1,0.004913849,1,0.32145679,1,-0.580899119,1,0.10155759,1
0.899994373,-5.041042805,1,-2.539022923,1,-8.023537636,1,0.015350621,1,-0.00988537,1,-0.001551647,1,0.32152766,1,-0.580943763,1,0.101546265,1
0.903992057,-5.088208675,1,-2.593184233,1,-7.974752903,1,0.015560341,1,-0.014911329,1,-0.000501592,1,0.321604103,1,-0.580998123,1,0.101520576,1
0.907997966,-5.063988209,1,-2.570916891,1,-7.971674919,1,0.019639522,1,-0.010861805,1,-0.001854076,1,0.321690679,1,-0.581048191,1,0.101500742,1
0.912000239,-5.075195313,1,-2.593834877,1,-7.967524052,1,0.020419411,1,-0.012079304,1,4.72E-05,1,0.321781397,1,-0.581090212,1,0.10147512,1
0.915998697,-5.068157673,1,-2.606035233,1,-7.978972435,1,0.017930984,1,-0.013037456,1,-0.004625576,1,0.321875453,1,-0.58114332,1,0.101451695,1
0.919997931,-5.089365482,1,-2.6315763,1,-7.978600025,1,0.016835589,1,-0.011383628,1,-0.002422095,1,0.321965456,1,-0.581181526,1,0.101423383,1
0.92399925,-5.096260071,1,-2.687227011,1,-7.966513157,1,0.016911935,1,-0.01179894,1,-0.003312033,1,0.322053403,1,-0.581225812,1,0.10139662,1
0.927996695,-5.073338985,1,-2.662525177,1,-7.992841721,1,0.016172305,1,-0.010136432,1,-0.001328593,1,0.322135866,1,-0.581265986,1,0.101366691,1
0.931995928,-5.037879467,1,-2.669525385,1,-7.992386341,1,0.017926089,1,-0.01095099,1,-0.000264355,1,0.322217166,1,-0.581311107,1,0.101352774,1
0.935998201,-5.052389622,1,-2.686780691,1,-8.011007309,1,0.012152408,1,-0.012932724,1,0.002560192,1,0.322289407,1,-0.58136183,1,0.101343006,1
0.93999666,-5.086526871,1,-2.704714537,1,-8.03393364,1,0.015106346,1,-0.008812951,1,0.004264276,1,0.322346628,1,-0.58141613,1,0.101337016,1
0.943996429,-5.068529606,1,-2.72040081,1,-7.963288307,1,0.011471659,1,-0.012918726,1,0.001493963,1,0.322397232,1,-0.58147049,1,0.101336554,1
0.947997928,-5.11473465,1,-2.703993797,1,-7.964243889,1,0.011117572,1,-0.011575621,1,0.002522755,1,0.322449684,1,-0.581515849,1,0.101333559,1
0.951995373,-5.072004795,1,-2.707288742,1,-7.984609127,1,0.008234664,1,-0.01173069,1,0.007388758,1,0.322490692,1,-0.581566751,1,0.101334408,1
0.955994606,-5.056609154,1,-2.693305016,1,-8.002242088,1,0.005101897,1,-0.012795665,1,0.007369584,1,0.322516233,1,-0.58161819,1,0.101346001,1
0.959996164,-5.027146339,1,-2.669586658,1,-8.027676582,1,0.004960594,1,-0.017015373,1,0.006007582,1,0.32252115,1,-0.58168602,1,0.101369493,1
0.963993609,-5.009540558,1,-2.668359518,1,-8.016551971,1,0.005568667,1,-0.013461757,1,0.012599976,1,0.322524309,1,-0.581755936,1,0.101400718,1
0.967999756,-5.049565315,1,-2.668188572,1,-8.024960518,1,0.004761282,1,-0.019022936,1,0.010316454,1,0.32252574,1,-0.581823349,1,0.10142915,1
0.972002029,-5.060608387,1,-2.705354452,1,-8.038406372,1,0.003550427,1,-0.01596006,1,0.01443699,1,0.322532624,1,-0.581904829,1,0.101453036,1
0.976000249,-5.040315628,1,-2.677312851,1,-8.041395187,1,0.001573113,1,-0.015577235,1,0.010397001,1,0.322527945,1,-0.581981361,1,0.101487517,1
0.979999483,-5.033013821,1,-2.65020442,1,-7.959590912,1,0.008482137,1,-0.017798912,1,0.011869242,1,0.322531551,1,-0.582070112,1,0.101523951,1
0.984000742,-5.051072121,1,-2.702495813,1,-8.042689323,1,0.005917813,1,-0.016183214,1,0.015374742,1,0.322548389,1,-0.582145751,1,0.101561688,1
0.987998188,-5.06499958,1,-2.610980272,1,-7.986403465,1,0.00092686,1,-0.025519932,1,0.012671785,1,0.322544217,1,-0.582232833,1,0.101595424,1
0.991997421,-5.106371403,1,-2.619639158,1,-7.985215187,1,0.00603841,1,-0.019770881,1,0.013353612,1,0.322551548,1,-0.582332492,1,0.101615138,1
0.99599874,-5.05189085,1,-2.541480064,1,-8.022087097,1,0.007933662,1,-0.020933032,1,0.009759625,1,0.322560012,1,-0.582421422,1,0.10164351,1
0.999996185,-5.079864979,1,-2.515320063,1,-8.038043022,1,0.014565275,1,-0.022991855,1,0.012783956,1,0.322588861,1,-0.582516074,1,0.10166201,1
1.004001737,-5.043054104,1,-2.5691154,1,-8.004394531,1,0.017462824,1,-0.02703001,1,0.010237118,1,0.322636545,1,-0.582618117,1,0.101664014,1
1.008003592,-5.009714127,1,-2.582526684,1,-8.02031517,1,0.013559788,1,-0.023448391,1,0.01126976,1,0.322686195,1,-0.582723141,1,0.101671025,1
1.012001514,-5.071903229,1,-2.599434853,1,-7.997914791,1,0.017751891,1,-0.025019292,1,0.005796052,1,0.322754145,1,-0.582822621,1,0.101673536,1
1.016000986,-5.042755127,1,-2.613772631,1,-7.977651119,1,0.017637234,1,-0.028154332,1,0.00920926,1,0.322825193,1,-0.582927406,1,0.101674199,1
1.020002246,-5.089905739,1,-2.664238691,1,-7.982208729,1,0.016000118,1,-0.026611051,1,0.009414507,1,0.322895527,1,-0.583043098,1,0.10167031,1
1.023999691,-5.087901115,1,-2.625378132,1,-7.997272015,1,0.018023998,1,-0.022329036,1,0.006725801,1,0.322962731,1,-0.583148479,1,0.101673089,1
1.027999759,-5.065438271,1,-2.638081312,1,-7.994413853,1,0.021561127,1,-0.023094652,1,0.005756963,1,0.323039919,1,-0.58325386,1,0.101670489,1
1.032001734,-5.111864567,1,-2.613232613,1,-8.002977371,1,0.016540762,1,-0.022899905,1,0.007825067,1,0.323114038,1,-0.583361924,1,0.101665713,1
1.035999775,-5.097678661,1,-2.612483025,1,-7.969146252,1,0.017657917,1,-0.02214692,1,0.008499625,1,0.32318294,1,-0.583458722,1,0.101671129,1
1.039999008,-5.096541882,1,-2.629342556,1,-7.9208951,1,0.01824588,1,-0.020455895,1,0.006674108,1,0.323185623,1,-0.582429469,1,0.101695955,1
1.044000506,-5.104758263,1,-2.625533581,1,-7.952201843,1,0.018587941,1,-0.021785973,1,0.00783951,1,0.323295355,1,-0.582419515,1,0.103385113,1
1.047997952,-5.126502991,1,-2.671021223,1,-7.936239719,1,0.014420263,1,-0.016117297,1,0.012123357,1,0.323356509,1,-0.5825091,1,0.103403345,1
1.051997185,-5.113615513,1,-2.65874815,1,-7.914444923,1,0.014636602,1,-0.017060652,1,0.006950663,1,0.323402613,1,-0.582581997,1,0.103420928,1
1.055999279,-5.085330963,1,-2.672223091,1,-7.914325714,1,0.012032481,1,-0.012513664,1,0.003382327,1,0.323444664,1,-0.582648337,1,0.103435129,1
1.059997201,-5.076019764,1,-2.674971581,1,-7.905350685,1,0.009436248,1,-0.012463525,1,0.012131891,1,0.323471457,1,-0.582713902,1,0.103464954,1
1.063997149,-5.084478855,1,-2.746836901,1,-7.939488411,1,0.010458168,1,-0.01052599,1,0.011396499,1,0.323493838,1,-0.582772195,1,0.103495128,1
1.067998767,-5.104764462,1,-2.691399574,1,-7.886509895,1,0.004903357,1,-0.008295774,1,0.009530075,1,0.323509514,1,-0.58281678,1,0.103526756,1
1.071996212,-5.111240387,1,-2.704255581,1,-7.911839008,1,0.005231931,1,-0.007370727,1,0.012110165,1,0.323507279,1,-0.582855165,1,0.103563808,1
1.075995684,-5.122226238,1,-2.685842752,1,-7.917936325,1,0.000966199,1,-0.003939452,1,0.010922745,1,0.323496103,1,-0.582892179,1,0.10361024,1
1.079997659,-5.119501114,1,-2.627162218,1,-7.920598984,1,0.00285839,1,0.000520837,1,0.011627355,1,0.323477626,1,-0.582918823,1,0.103656992,1
1.083995938,-5.140166759,1,-2.611651421,1,-7.912547112,1,3.05E-05,1,0.003328827,1,0.008112213,1,0.32345742,1,-0.582934678,1,0.1036985,1
1.087996125,-5.121081829,1,-2.625011206,1,-7.930476665,1,0.001006783,1,0.005757009,1,0.010638907,1,0.323434532,1,-0.582937837,1,0.103745997,1
1.091997385,-5.141049862,1,-2.61734128,1,-7.921046257,1,-0.004151317,1,0.004032888,1,0.009742737,1,0.323410988,1,-0.582932174,1,0.103789784,1
1.095995188,-5.084933281,1,-2.630066633,1,-7.937046528,1,-0.001096721,1,0.00366798,1,0.006890576,1,0.323385209,1,-0.582923055,1,0.103835694,1
1.099994421,-5.062252045,1,-2.62299037,1,-7.954213619,1,0.0013981,1,0.00956247,1,0.007718867,1,0.323362857,1,-0.582912326,1,0.103881352,1
1.104002357,-5.081788063,1,-2.602025032,1,-7.968869686,1,0.001087239,1,0.012413839,1,0.005676438,1,0.32334277,1,-0.582887769,1,0.103922769,1
1.108006597,-5.101548672,1,-2.602679729,1,-7.977605343,1,0.001147784,1,0.006153247,1,0.004255995,1,0.323336899,1,-0.582857668,1,0.103953786,1
1.112007141,-5.072133541,1,-2.616294384,1,-7.989151001,1,0.004659397,1,0.008400329,1,0.001314501,1,0.32333535,1,-0.582833767,1,0.103987075,1
1.116008997,-5.068479538,1,-2.668567657,1,-7.971059322,1,0.003586752,1,0.008771342,1,0.00623562,1,0.323330641,1,-0.582805932,1,0.104016997,1
1.120007157,-5.048784256,1,-2.690754652,1,-7.981378078,1,0.003159302,1,0.007202569,1,0.006887788,1,0.323328793,1,-0.582791746,1,0.104046755,1
1.124006629,-5.028406143,1,-2.698668242,1,-7.979525089,1,0.002771801,1,0.005699048,1,0.004103663,1,0.323318541,1,-0.582766533,1,0.10408508,1
1.128008246,-5.046685219,1,-2.677927017,1,-7.987522125,1,-0.001109663,1,0.008334706,1,0.007190914,1,0.323313892,1,-0.58275032,1,0.104114123,1
1.13200593,-5.06743288,1,-2.692003965,1,-7.986880302,1,-0.000905846,1,0.009941834,1,0.006849014,1,0.323290944,1,-0.582735538,1,0.104162358,1
1.136006117,-5.052709103,1,-2.670992851,1,-7.9952178,1,0.000213068,1,0.003247792,1,0.007291379,1,0.323267102,1,-0.582719326,1,0.104206719,1
1.140008211,-5.078482151,1,-2.67367363,1,-7.975656033,1,-0.001283158,1,0.005835509,1,0.011984022,1,0.323239446,1,-0.582708657,1,0.104252279,1
1.144006371,-5.072128773,1,-2.668614626,1,-7.999101162,1,0.000275256,1,0.006956547,1,0.012064428,1,0.323210537,1,-0.582704425,1,0.104306623,1
1.148005605,-5.082545757,1,-2.58440733,1,-8.01630497,1,0.000146463,1,0.005721301,1,0.009948456,1,0.323174536,1,-0.582690775,1,0.104367159,1
1.152007222,-5.061608315,1,-2.605297089,1,-8.018545151,1,-0.000490323,1,0.002606657,1,0.011763597,1,0.323150218,1,-0.582690656,1,0.104421653,1
1.156004667,-5.062068939,1,-2.605638266,1,-8.027009964,1,0.003685741,1,0.002412713,1,0.014172175,1,0.323130488,1,-0.582697451,1,0.104477502,1
1.160004139,-5.0479846,1,-2.665318251,1,-8.026132584,1,0.0086529,1,-0.001977127,1,0.010764917,1,0.323122859,1,-0.582714021,1,0.10452345,1
1.164006114,-5.038709164,1,-2.684352636,1,-8.049060822,1,0.004189462,1,-0.005571228,1,0.012496924,1,0.323119104,1,-0.582733333,1,0.104575597,1
1.168004394,-4.991334438,1,-2.641313076,1,-8.090254784,1,0.007535888,1,-0.008965458,1,0.011662949,1,0.323118836,1,-0.582773924,1,0.104617991,1
1.172004342,-5.016812325,1,-2.747587919,1,-8.069841385,1,0.003400289,1,-0.007832495,1,0.019949483,1,0.323106408,1,-0.582821965,1,0.104683146,1
1.176005602,-5.008037567,1,-2.790820122,1,-8.068143845,1,0.003860219,1,-0.009470923,1,0.020426612,1,0.323079526,1,-0.58288455,1,0.104755789,1
1.180002809,-5.057891369,1,-2.795443535,1,-8.065843582,1,-0.000538578,1,-0.015045024,1,0.022742251,1,0.323042572,1,-0.582967401,1,0.104828879,1
1.184002042,-5.027654648,1,-2.760598898,1,-8.059591293,1,-0.000924743,1,-0.021995584,1,0.02756789,1,0.322991073,1,-0.58307004,1,0.104915939,1
1.188003302,-5.063305855,1,-2.727403879,1,-8.062123299,1,-0.007207576,1,-0.022658614,1,0.027385378,1,0.322915912,1,-0.583178878,1,0.105017431,1
1.192000747,-5.058480263,1,-2.687176704,1,-8.044118881,1,-0.002447021,1,-0.021819331,1,0.029980367,1,0.322848678,1,-0.583301544,1,0.105111279,1
1.196001053,-5.040288925,1,-2.677050829,1,-8.016222,1,-0.002705627,1,-0.027488431,1,0.029028792,1,0.322774589,1,-0.583432376,1,0.105203137,1
1.200008392,-5.105370045,1,-2.640355349,1,-8.051160812,1,-0.003879927,1,-0.028683664,1,0.03158785,1,0.32270962,1,-0.583568931,1,0.105302073,1
1.204012275,-5.049942493,1,-2.629847527,1,-8.008446693,1,-0.003442152,1,-0.030367754,1,0.032131091,1,0.322635233,1,-0.583723903,1,0.105398685,1
1.208011985,-5.18038559,1,-2.60035038,1,-8.050983429,1,0.001624513,1,-0.030336253,1,0.033325277,1,0.322582692,1,-0.583881676,1,0.105491862,1
1.212013364,-4.916229725,1,-2.570734262,1,-8.074525833,1,-0.001826045,1,-0.034452159,1,0.029202739,1,0.322518587,1,-0.584037423,1,0.105587147,1
1.216010809,-5.082958221,1,-2.64640069,1,-8.041820526,1,0.002616507,1,-0.04033291,1,0.027845137,1,0.322475255,1,-0.584217072,1,0.105667792,1
1.220010281,-5.109452248,1,-2.626174212,1,-8.056175232,1,-0.000962924,1,-0.037653837,1,0.032330804,1,0.322436154,1,-0.584395587,1,0.105757162,1
1.224012256,-5.041145325,1,-2.572811842,1,-8.031374931,1,0.002991528,1,-0.037535585,1,0.02607087,1,0.322410762,1,-0.584574938,1,0.105831809,1
1.228010297,-5.044084072,1,-2.601745844,1,-8.014054298,1,0.003064017,1,-0.039958816,1,0.0301555,1,0.322384179,1,-0.584761381,1,0.105899878,1
1.232010007,-5.171908379,1,-2.619521618,1,-8.045126915,1,0.009047871,1,-0.046110559,1,0.031151678,1,0.322373867,1,-0.584954739,1,0.105964035,1
1.236011505,-5.032410145,1,-2.53856039,1,-8.006097794,1,0.008518391,1,-0.040064368,1,0.02569552,1,0.322371602,1,-0.58515197,1,0.106036417,1
1.24000895,-5.123693943,1,-2.597316265,1,-8.005671501,1,0.012247743,1,-0.044028163,1,0.024881618,1,0.322376817,1,-0.585345089,1,0.106088482,1
1.24400866,-5.124315262,1,-2.563380718,1,-7.9875741,1,0.011564791,1,-0.04525438,1,0.026821692,1,0.322388113,1,-0.585544109,1,0.106142499,1
1.248010755,-5.12178278,1,-2.613220692,1,-7.957404137,1,0.012380676,1,-0.046027742,1,0.025177676,1,0.32241106,1,-0.585743904,1,0.106198259,1
1.252008915,-5.114247799,1,-2.6025002,1,-7.966705322,1,0.012079566,1,-0.043301839,1,0.025551589,1,0.322433054,1,-0.585946918,1,0.106248192,1
1.256008506,-5.171194553,1,-2.601106882,1,-7.978766918,1,0.016271504,1,-0.050410029,1,0.024051528,1,0.322466195,1,-0.586151659,1,0.106289506,1
1.260010004,-5.122035503,1,-2.577070236,1,-7.964058399,1,0.01573099,1,-0.040124718,1,0.027495025,1,0.322498292,1,-0.586354315,1,0.106342904,1
1.264007449,-5.099592209,1,-2.609544277,1,-7.941973209,1,0.013262318,1,-0.037599087,1,0.027770726,1,0.322535068,1,-0.586535454,1,0.106394924,1
1.268006921,-5.127532005,1,-2.699716806,1,-7.971447468,1,0.016251158,1,-0.038616251,1,0.022253087,1,0.322565079,1,-0.586719871,1,0.106454685,1
1.272009015,-5.102091789,1,-2.679594517,1,-7.960109711,1,0.014940351,1,-0.041147359,1,0.028460678,1,0.322595328,1,-0.586915612,1,0.106507413,1
1.276007175,-5.149377346,1,-2.701497793,1,-7.942763805,1,0.012607907,1,-0.040527951,1,0.02823486,1,0.322612286,1,-0.587106347,1,0.106569611,1
1.280006647,-5.114378452,1,-2.63394618,1,-7.985002041,1,0.009547979,1,-0.039110553,1,0.029763719,1,0.322620064,1,-0.587290645,1,0.106637187,1
1.284007907,-5.124090672,1,-2.707429647,1,-7.918483257,1,0.004270469,1,-0.034680586,1,0.029045386,1,0.322603434,1,-0.587478757,1,0.106718592,1
1.28800559,-5.123106956,1,-2.74620676,1,-7.963988781,1,0.000353855,1,-0.034893733,1,0.032599598,1,0.322565734,1,-0.587653279,1,0.106808789,1
1.292005062,-5.172527313,1,-2.743376017,1,-7.962041378,1,0.003936474,1,-0.032729167,1,0.033159554,1,0.322559595,1,-0.586614788,1,0.108682074,1
1.296012759,-5.103671074,1,-2.68087101,1,-7.971817017,1,0.00414748,1,-0.031408168,1,0.036141273,1,0.322512329,1,-0.586782455,1,0.108792141,1
1.300016642,-5.142949104,1,-2.744603157,1,-7.925590992,1,-0.001608094,1,-0.031593021,1,0.039733727,1,0.322446287,1,-0.586947381,1,0.108915545,1
1.304016352,-5.161691189,1,-2.685545921,1,-7.951911926,1,-0.006136661,1,-0.030638859,1,0.035422578,1,0.322376579,1,-0.587112367,1,0.109042235,1
1.308017969,-5.170398235,1,-2.686606407,1,-7.964321136,1,-0.004755828,1,-0.029140765,1,0.03883082,1,0.322295696,1,-0.58727169,1,0.109167881,1
1.312015891,-5.209410667,1,-2.663853645,1,-7.97963953,1,-0.003609497,1,-0.031372927,1,0.040614735,1,0.322210103,1,-0.587425113,1,0.109298654,1
1.316015601,-5.098004818,1,-2.631215572,1,-7.927570343,1,-0.009440565,1,-0.025333632,1,0.03649164,1,0.322108209,1,-0.587584496,1,0.109442353,1
1.320017695,-5.139614582,1,-2.680386305,1,-7.928012371,1,-0.005570737,1,-0.029400626,1,0.038493346,1,0.322001696,1,-0.587735236,1,0.109579049,1
1.324015856,-5.185933113,1,-2.622442007,1,-7.983317375,1,-0.006875543,1,-0.026545839,1,0.03999548,1,0.321895063,1,-0.587885082,1,0.109712958,1
1.328015327,-5.13557291,1,-2.674235106,1,-7.937792301,1,-0.009532031,1,-0.024821395,1,0.039821286,1,0.321784675,1,-0.588035822,1,0.109854929,1
1.332016945,-5.255913734,1,-2.615061522,1,-7.998953342,1,-0.00892894,1,-0.028381713,1,0.03866588,1,0.321678579,1,-0.588181973,1,0.109994434,1
1.33601439,-5.108345509,1,-2.600385427,1,-7.973659515,1,-0.009093321,1,-0.025469428,1,0.038132675,1,0.32156828,1,-0.588325202,1,0.110129021,1
1.340013266,-5.141968727,1,-2.601941347,1,-7.984809399,1,-0.009822086,1,-0.022104746,1,0.034341037,1,0.321456015,1,-0.588460326,1,0.11025364,1
1.344015121,-5.187373638,1,-2.578095913,1,-7.984104156,1,-0.006781581,1,-0.024489151,1,0.03457829,1,0.321342558,1,-0.588600457,1,0.110381849,1
1.348013043,-5.056208134,1,-2.498261452,1,-7.984256744,1,-0.002181138,1,-0.024783073,1,0.036566176,1,0.321239769,1,-0.588732421,1,0.110508531,1
1.352012515,-5.185061932,1,-2.63252306,1,-7.953961849,1,-0.01053934,1,-0.023478914,1,0.034815837,1,0.321149975,1,-0.588875711,1,0.110632956,1
1.356013775,-5.137022018,1,-2.659770489,1,-7.96491909,1,-0.010174411,1,-0.027082743,1,0.032684252,1,0.321040452,1,-0.589020252,1,0.11074724,1
1.360010982,-5.12513876,1,-2.604780197,1,-7.961836338,1,-0.009016177,1,-0.024824146,1,0.030731659,1,0.320945024,1,-0.589159906,1,0.110856399,1
1.364016891,-5.102027893,1,-2.533672333,1,-7.980860233,1,-0.007794788,1,-0.026594676,1,0.029947655,1,0.320850849,1,-0.589304686,1,0.110960387,1
1.368018985,-5.141869068,1,-2.528289795,1,-8.08066082,1,-0.000296067,1,-0.035472609,1,0.027270449,1,0.320783854,1,-0.589458942,1,0.111042552,1
1.372016907,-5.06268549,1,-2.551291943,1,-8.000143051,1,-0.00591412,1,-0.032632928,1,0.027448697,1,0.320735514,1,-0.589620829,1,0.111109413,1
1.376016617,-5.049375534,1,-2.54758954,1,-7.984632015,1,-0.001471165,1,-0.038759168,1,0.022452813,1,0.32068336,1,-0.589789271,1,0.111176968,1
1.380017877,-5.103300571,1,-2.554808617,1,-8.036170006,1,-0.002631046,1,-0.038341597,1,0.023028554,1,0.320656598,1,-0.589970648,1,0.111223593,1
1.38401556,-5.04248333,1,-2.514002085,1,-8.019794464,1,0.005763745,1,-0.045299731,1,0.018373501,1,0.320633888,1,-0.590152562,1,0.111270152,1
1.388014793,-5.157531261,1,-2.533206701,1,-8.080705643,1,0.01205168,1,-0.046545073,1,0.021779362,1,0.320654601,1,-0.590361357,1,0.111286022,1
1.392016411,-5.069859982,1,-2.45782423,1,-8.078064919,1,0.010700708,1,-0.054603931,1,0.014974443,1,0.320702881,1,-0.590567529,1,0.111291766,1
1.396019936,-5.113919258,1,-2.446448088,1,-8.068752289,1,0.02061343,1,-0.060865514,1,0.010751504,1,0.320779234,1,-0.590803981,1,0.111269891,1
1.400019765,-5.072195053,1,-2.454268456,1,-8.101840973,1,0.029525118,1,-0.065845549,1,0.004383222,1,0.320911765,1,-0.591054022,1,0.111210227,1
1.404021025,-5.185265064,1,-2.481661797,1,-8.129541397,1,0.03510619,1,-0.076262102,1,0.007231074,1,0.321085393,1,-0.591327071,1,0.111138843,1
1.40801847,-5.043620586,1,-2.440370083,1,-8.150502205,1,0.041005321,1,-0.082204483,1,-0.001128046,1,0.321297139,1,-0.591628969,1,0.111029953,1
1.412018657,-5.088337421,1,-2.451578379,1,-8.132461548,1,0.048804905,1,-0.089804307,1,0.002991191,1,0.321554929,1,-0.591959178,1,0.110901542,1
1.416020989,-5.089822769,1,-2.409214735,1,-8.158428192,1,0.064210795,1,-0.097375907,1,-0.006655665,1,0.321856439,1,-0.592307031,1,0.110752083,1
1.42001915,-5.112950802,1,-2.441736221,1,-8.134365082,1,0.06858924,1,-0.104245991,1,-0.006335333,1,0.322230667,1,-0.5926916,1,0.11056117,1
1.424018741,-5.117462635,1,-2.451029062,1,-8.146962166,1,0.076328874,1,-0.112602293,1,-0.009761445,1,0.322634965,1,-0.593089759,1,0.110360391,1
1.42802,-5.104675293,1,-2.372226238,1,-8.12903595,1,0.090847313,1,-0.11834123,1,-0.014828152,1,0.323093355,1,-0.593504608,1,0.110122763,1
1.432017446,-5.158195972,1,-2.441363335,1,-8.10116291,1,0.09660548,1,-0.123532601,1,-0.015245096,1,0.323611885,1,-0.593953669,1,0.109863296,1
1.436016679,-5.065903187,1,-2.534917831,1,-8.105019569,1,0.10227818,1,-0.133312061,1,-0.018444385,1,0.324169517,1,-0.594426751,1,0.109588161,1
1.440018415,-5.163021564,1,-2.547958136,1,-8.108253479,1,0.106845856,1,-0.140816659,1,-0.022917794,1,0.324754685,1,-0.594915092,1,0.109283343,1
1.444016337,-5.114799023,1,-2.467515945,1,-8.097478867,1,0.109781221,1,-0.145381153,1,-0.019016249,1,0.325372398,1,-0.595435798,1,0.10895697,1
1.448016167,-5.108837605,1,-2.454315662,1,-8.14424324,1,0.121292733,1,-0.152188957,1,-0.022904871,1,0.326030701,1,-0.595970511,1,0.108621806,1
1.452017665,-5.135150909,1,-2.476760626,1,-8.149562836,1,0.128490418,1,-0.164327025,1,-0.024253692,1,0.326725781,1,-0.596541822,1,0.108265221,1
1.45601511,-5.072445393,1,-2.520583153,1,-8.181347847,1,0.132818922,1,-0.173316509,1,-0.030424418,1,0.327472389,1,-0.597146392,1,0.107875973,1
1.460014343,-5.135730743,1,-2.641285896,1,-8.155097008,1,0.129029483,1,-0.184493497,1,-0.025907708,1,0.328225791,1,-0.597794056,1,0.107472971,1
1.464016438,-5.12668848,1,-2.562430859,1,-8.104603767,1,0.133913457,1,-0.191400081,1,-0.028867772,1,0.328983098,1,-0.598477066,1,0.107051343,1
1.468014598,-5.096315861,1,-2.514508009,1,-8.155872345,1,0.14188394,1,-0.202535123,1,-0.027900571,1,0.329785585,1,-0.599188387,1,0.106612355,1
1.47201407,-5.120592117,1,-2.51428771,1,-8.18560791,1,0.150951132,1,-0.213611484,1,-0.02914653,1,0.3306292,1,-0.599943161,1,0.106156938,1
1.476015329,-5.058663845,1,-2.543044329,1,-8.169800758,1,0.152626976,1,-0.225107327,1,-0.026808698,1,0.331500947,1,-0.600731194,1,0.105677724,1
1.480012774,-5.179597855,1,-2.623100042,1,-8.170110703,1,0.152365118,1,-0.235210165,1,-0.033734936,1,0.33241117,1,-0.601563573,1,0.105163857,1
1.484012008,-5.115604877,1,-2.586472273,1,-8.161765099,1,0.161243141,1,-0.243423641,1,-0.030991385,1,0.333322823,1,-0.602416575,1,0.104646787,1
1.488013268,-5.10583353,1,-2.620918036,1,-8.199071884,1,0.166079521,1,-0.257559061,1,-0.033716418,1,0.334287167,1,-0.603315532,1,0.104102179,1
1.492017388,-5.129582882,1,-2.684225321,1,-8.212836266,1,0.167687193,1,-0.262846261,1,-0.032485504,1,0.335274458,1,-0.604253948,1,0.103539571,1
1.496017694,-5.104243279,1,-2.779780626,1,-8.151185036,1,0.168452188,1,-0.275354385,1,-0.027541557,1,0.336272478,1,-0.605232954,1,0.102973178,1
1.500019193,-5.089393616,1,-2.847540379,1,-8.261494637,1,0.168791696,1,-0.295592308,1,-0.028997192,1,0.337282568,1,-0.606277287,1,0.102385528,1
1.504017115,-5.177659035,1,-3.018979073,1,-8.116861343,1,0.149087459,1,-0.298968196,1,-0.019847071,1,0.338264525,1,-0.607379913,1,0.101794399,1
1.508016348,-5.109611511,1,-2.93010354,1,-8.126097679,1,0.144209117,1,-0.307266653,1,-0.021034198,1,0.339171708,1,-0.608493865,1,0.101217315,1
1.512017965,-5.200002193,1,-2.912532568,1,-8.140551567,1,0.143854201,1,-0.314051777,1,-0.010176355,1,0.34007436,1,-0.609638751,1,0.100652613,1
1.51601541,-5.290092945,1,-2.888122559,1,-8.308009148,1,0.151115447,1,-0.329657197,1,-0.007537717,1,0.340991318,1,-0.610830784,1,0.100077376,1
1.520014644,-5.20401907,1,-3.212823391,1,-8.249371529,1,0.136316806,1,-0.336071432,1,0.006419586,1,0.341887891,1,-0.612083435,1,0.09953811,1
1.524016619,-5.090196609,1,-3.26433301,1,-8.228534698,1,0.115468703,1,-0.351232499,1,0.015700683,1,0.342684686,1,-0.613392591,1,0.099032611,1
1.528015137,-5.133635998,1,-3.212700129,1,-8.285642624,1,0.108468629,1,-0.373997748,1,0.021007473,1,0.343422949,1,-0.614780962,1,0.098512232,1
1.532014608,-5.080319881,1,-3.163714647,1,-8.456204414,1,0.108064324,1,-0.395887762,1,0.029381521,1,0.344161689,1,-0.616258383,1,0.09798497,1
1.536015868,-5.071606636,1,-3.198572397,1,-8.487276077,1,0.10925629,1,-0.418064743,1,0.054323442,1,0.344876766,1,-0.617850065,1,0.09751007,1
1.540013313,-4.652336121,1,-3.35544014,1,-8.589818954,1,0.116172709,1,-0.448050946,1,0.066411398,1,0.345589161,1,-0.619558156,1,0.097059593,1
1.544012785,-4.659049988,1,-3.784140825,1,-8.823822975,1,0.099595442,1,-0.494995803,1,0.097580209,1,0.346262932,1,-0.621361494,1,0.098293208,1
1.548014879,-4.562790871,1,-3.743981123,1,-8.937648773,1,0.087249123,1,-0.54354012,1,0.119972512,1,0.3468467,1,-0.623467863,1,0.097922802,1
1.55201304,-4.650567532,1,-3.703180313,1,-9.219154358,1,0.083815128,1,-0.600984216,1,0.148540646,1,0.347386181,1,-0.625803888,1,0.097593844,1
1.556013107,-4.404136658,1,-3.620154619,1,-9.248293877,1,0.097974107,1,-0.667959273,1,0.185106993,1,0.347918332,1,-0.628412426,1,0.097304821,1
1.560014606,-4.492632389,1,-4.199171066,1,-9.606287956,1,0.111788161,1,-0.740633607,1,0.248414516,1,0.348458469,1,-0.631356955,1,0.09711612,1
1.564012051,-4.207217216,1,-4.531413555,1,-9.752103806,1,0.146595687,1,-0.828564286,1,0.326233119,1,0.348954737,1,-0.63470006,1,0.097138233,1
1.568011284,-3.758645058,1,-4.456856251,1,-9.911980629,1,0.209464103,1,-0.938305497,1,0.404723823,1,0.349522144,1,-0.63851881,1,0.097363949,1
1.572012544,-3.829608679,1,-4.886098385,1,-10.2681427,1,0.257192343,1,-1.070432901,1,0.50110966,1,0.350257277,1,-0.642920434,1,0.097737685,1
1.576009989,-3.883916378,1,-5.79102993,1,-10.63708496,1,0.239080504,1,-1.187839031,1,0.614238679,1,0.350858867,1,-0.64792186,1,0.098418534,1
1.58000946,-4.180523396,1,-6.770193577,1,-10.86017799,1,0.168523937,1,-1.326480746,1,0.743008554,1,0.351046383,1,-0.653578877,1,0.099462137,1
1.584011316,-3.826488972,1,-6.938623905,1,-10.90007496,1,0.115060166,1,-1.470413685,1,0.856703877,1,0.350767493,1,-0.659935236,1,0.100824974,1
1.588009477,-4.784802437,1,-6.671802044,1,-10.72190571,1,0.137202218,1,-1.582890868,1,0.95063895,1,0.350251853,1,-0.666922629,1,0.102465935,1
1.59201479,-5.917941093,1,-6.507871151,1,-10.88620758,1,0.20369871,1,-1.667578101,1,1.02378571,1,0.349744439,1,-0.67438817,1,0.104357883,1
1.596016407,-6.522087097,1,-6.098212242,1,-10.91730976,1,0.282820344,1,-1.744481802,1,1.08412838,1,0.34940818,1,-0.682257175,1,0.106436796,1
1.600014091,-6.728802681,1,-5.598567963,1,-10.8691988,1,0.347751945,1,-1.831188679,1,1.124102473,1,0.349280477,1,-0.690478623,1,0.1086355,1
1.604013324,-7.483418465,1,-5.474167824,1,-10.8143549,1,0.399470747,1,-1.885281801,1,1.170899987,1,0.349290013,1,-0.699034512,1,0.110939495,1
1.608015418,-6.833098888,1,-5.535856247,1,-10.35010719,1,0.475882947,1,-1.939455628,1,1.235614181,1,0.349409997,1,-0.707862675,1,0.113447562,1
1.61201334,-7.335758209,1,-6.103989601,1,-10.49719429,1,0.547261775,1,-1.982818246,1,1.277148485,1,0.349727273,1,-0.716961265,1,0.116126135,1
1.616013288,-8.054450989,1,-6.554549694,1,-10.33628559,1,0.549765468,1,-2.005532742,1,1.322444439,1,0.350038797,1,-0.726246595,1,0.118996188,1
1.620014906,-8.531021118,1,-6.912225723,1,-10.58190727,1,0.498095363,1,-1.952250838,1,1.372269988,1,0.350068331,1,-0.73554486,1,0.12212,1
1.624012232,-9.741293907,1,-8.271199226,1,-10.41414547,1,0.391325623,1,-1.814260602,1,1.416910768,1,0.349359423,1,-0.744528294,1,0.12577267,1
1.628011465,-9.320326805,1,-8.765217781,1,-10.26701069,1,0.166628808,1,-1.712390304,1,1.500031948,1,0.347668648,1,-0.753134727,1,0.129962906,1
1.632013083,-8.441702843,1,-9.525261879,1,-10.34961128,1,-0.091805533,1,-1.62445426,1,1.509364963,1,0.344588786,1,-0.761476278,1,0.134659976,1
1.636010528,-9.528110504,1,-9.740353584,1,-10.18796635,1,-0.369332939,1,-1.530148268,1,1.460160851,1,0.34030056,1,-0.769428134,1,0.139512926,1
1.640010476,-10.48234844,1,-8.582530975,1,-10.58607101,1,-0.63768214,1,-1.392116427,1,1.262508392,1,0.335113704,1,-0.776756883,1,0.144040763,1
1.644012332,-13.96582699,1,-8.170695305,1,-11.78073883,1,-0.689318419,1,-1.13783145,1,0.969314218,1,0.329874277,1,-0.783041716,1,0.147624657,1
1.648010254,-14.3794651,1,-7.610712051,1,-13.33556366,1,-0.639517486,1,-0.748501122,1,0.696587443,1,0.325288802,1,-0.787703574,1,0.150339082,1
1.652009964,-11.81993484,1,-8.061631203,1,-14.33475113,1,-0.659516871,1,-0.363132626,1,0.484333217,1,0.321183026,1,-0.790538251,1,0.152505815,1
1.656011224,-7.268700123,1,-7.756988525,1,-13.04253292,1,-0.73252517,1,-0.095586635,1,0.294882059,1,0.317170173,1,-0.791857958,1,0.154211536,1
1.66000843,-3.590447187,1,-6.963692665,1,-11.66374874,1,-0.755153239,1,-0.025145862,1,0.179599792,1,0.313361526,1,-0.792330146,1,0.155377075,1
1.664008141,-2.724544048,1,-6.782302856,1,-11.51195431,1,-0.791959405,1,-0.052161701,1,0.159866303,1,0.309679151,1,-0.792672515,1,0.156200454,1
1.668009996,-1.182478547,1,-6.369789124,1,-11.438097,1,-0.835178018,1,-0.060951848,1,0.186541021,1,0.30581072,1,-0.793107152,1,0.157046929,1
1.672008157,-0.174315125,1,-5.271882534,1,-11.20362282,1,-0.82937032,1,-0.08692006,1,0.22235854,1,0.301778913,1,-0.793632627,1,0.158029169,1
1.676007628,0.005821273,1,-4.52491045,1,-11.22784996,1,-0.781569064,1,-0.127929792,1,0.27631101,1,0.297704756,1,-0.794339716,1,0.159204155,1
1.680009007,0.130771443,1,-4.332098007,1,-11.30922508,1,-0.714073539,1,-0.136371613,1,0.339885652,1,0.293658525,1,-0.795216203,1,0.160675794,1
1.684006453,0.396919221,1,-4.116323948,1,-11.25319672,1,-0.641151547,1,-0.09672001,1,0.395407736,1,0.28964299,1,-0.796095252,1,0.162503153,1
1.688011765,0.698969781,1,-4.08178854,1,-11.33297062,1,-0.565778971,1,-0.052994605,1,0.443718404,1,0.285675049,1,-0.796854615,1,0.164672554,1
1.692013264,0.748021603,1,-4.182900906,1,-11.48728943,1,-0.50395143,1,0.02473655,1,0.479923904,1,0.281731546,1,-0.797436595,1,0.167195514,1
1.696011066,1.045118809,1,-4.222379208,1,-11.55022335,1,-0.457002044,1,0.134140968,1,0.518015146,1,0.277753413,1,-0.797686338,1,0.170071587,1
1.700010777,1.457859516,1,-4.029491901,1,-11.60766506,1,-0.41052866,1,0.243462071,1,0.538188577,1,0.273723781,1,-0.7975353,1,0.173280373,1
1.704012752,1.734140158,1,-4.019126415,1,-11.69074821,1,-0.358317465,1,0.358866811,1,0.561221182,1,0.269685656,1,-0.796972871,1,0.176779091,1
1.708011031,2.268087626,1,-4.039298058,1,-11.76195431,1,-0.31528762,1,0.471417516,1,0.572070837,1,0.265650004,1,-0.795975149,1,0.180533141,1
1.712010264,2.789312363,1,-4.069271088,1,-11.73069668,1,-0.282086998,1,0.584870934,1,0.579921126,1,0.261623561,1,-0.794530332,1,0.184502006,1
1.716011763,3.268111706,1,-4.201889515,1,-11.54472637,1,-0.272783369,1,0.682531774,1,0.572579682,1,0.257598668,1,-0.792670012,1,0.188600644,1
1.720009208,3.619454145,1,-4.356683731,1,-11.43092632,1,-0.276763678,1,0.778975964,1,0.566444635,1,0.253515333,1,-0.790406644,1,0.192803517,1
1.724008441,3.976448298,1,-4.324442863,1,-11.30536461,1,-0.284144431,1,0.859047711,1,0.549755514,1,0.249386683,1,-0.787792802,1,0.197031409,1
1.728010297,4.304691315,1,-4.356323719,1,-11.18134785,1,-0.294196546,1,0.941438675,1,0.526266813,1,0.245252728,1,-0.784820616,1,0.201233447,1
1.732008219,4.492108822,1,-4.284782887,1,-11.12397575,1,-0.291725576,1,1.018453836,1,0.493271351,1,0.241178066,1,-0.7814942,1,0.205356643,1
1.736008167,4.555058002,1,-4.224149704,1,-11.09920406,1,-0.285554439,1,1.100524187,1,0.453053534,1,0.23719871,1,-0.777819157,1,0.209358513,1
1.740009427,4.516924381,1,-4.1205616,1,-11.03150749,1,-0.271131396,1,1.184020638,1,0.399683326,1,0.233417213,1,-0.773771942,1,0.213171288,1
1.744006634,4.421303272,1,-4.050595284,1,-11.00769329,1,-0.248601288,1,1.282044649,1,0.343056798,1,0.229879409,1,-0.769315481,1,0.21675919,1
1.748005867,4.51664114,1,-3.953649998,1,-10.92347813,1,-0.223709673,1,1.384682536,1,0.270064086,1,0.226624578,1,-0.764398754,1,0.220076531,1
1.752007365,4.658501148,1,-3.825123072,1,-10.84025478,1,-0.198556021,1,1.482395411,1,0.196194515,1,0.223696843,1,-0.759012103,1,0.223098502,1
1.75600481,4.821224689,1,-3.695077896,1,-10.77083206,1,-0.165093616,1,1.577290773,1,0.120382428,1,0.221120983,1,-0.753181279,1,0.225795731,1
1.76000464,5.037160873,1,-3.509530544,1,-10.633111,1,-0.125957772,1,1.652751327,1,0.046199858,1,0.218927011,1,-0.746946514,1,0.228156283,1
1.764006138,5.191613197,1,-3.301638126,1,-10.53095341,1,-0.079979628,1,1.715569615,1,-0.024016684,1,0.217121705,1,-0.740386188,1,0.23019354,1
1.768003821,5.344220161,1,-3.16597724,1,-10.50835609,1,-0.028583461,1,1.765170693,1,-0.096037015,1,0.215757817,1,-0.733531296,1,0.231900319,1
1.772003055,5.358921051,1,-3.060932159,1,-10.46407986,1,0.028541556,1,1.807363153,1,-0.162062436,1,0.214839503,1,-0.726437747,1,0.233269721,1
1.776004314,5.253526211,1,-2.970820665,1,-10.40907574,1,0.082898103,1,1.837462187,1,-0.230425179,1,0.214368477,1,-0.719145834,1,0.234313548,1
1.78000176,5.118919373,1,-3.001734495,1,-10.48501587,1,0.135093063,1,1.858611941,1,-0.297065139,1,0.214335352,1,-0.71169579,1,0.235033825,1
1.784007668,4.856371403,1,-3.108455658,1,-10.60806274,1,0.186292961,1,1.8812747,1,-0.3672463,1,0.214718997,1,-0.704102397,1,0.235433429,1
1.788009524,4.52668047,1,-3.17171216,1,-10.74026299,1,0.223568276,1,1.909326911,1,-0.442847639,1,0.215505645,1,-0.696343601,1,0.235482588,1
1.792007685,4.205845356,1,-3.265710592,1,-10.76296234,1,0.246415287,1,1.939013243,1,-0.53290242,1,0.216766998,1,-0.688309789,1,0.236443728,1
1.796007395,3.948896885,1,-3.358270645,1,-10.73180771,1,0.2636199,1,1.967860818,1,-0.614358187,1,0.218234703,1,-0.680185795,1,0.235735595,1
1.800009012,3.71589756,1,-3.362537146,1,-10.6758728,1,0.275211662,1,1.99629271,1,-0.705461264,1,0.219993189,1,-0.671869099,1,0.234641641,1
1.804006457,3.483700037,1,-3.187006474,1,-10.69063854,1,0.287856221,1,2.021766901,1,-0.796425819,1,0.22203505,1,-0.663365722,1,0.233164653,1
1.808005691,3.29410553,1,-2.981637716,1,-10.66156101,1,0.302197754,1,2.053632975,1,-0.883324444,1,0.22435312,1,-0.654678345,1,0.231299505,1
1.812007189,3.027804613,1,-2.882513762,1,-10.57994843,1,0.329906344,1,2.06961298,1,-0.981555164,1,0.226988807,1,-0.645803213,1,0.229043394,1
1.816004634,2.729601622,1,-2.738544226,1,-10.62358761,1,0.358934551,1,2.094318628,1,-1.073043823,1,0.229939431,1,-0.63675642,1,0.226410791,1
1.820003867,2.443468094,1,-2.928108931,1,-10.39019585,1,0.396914899,1,2.122967958,1,-1.157175899,1,0.233211607,1,-0.627511978,1,0.223416939,1
1.824005365,2.313205957,1,-2.784499645,1,-10.19104481,1,0.431958735,1,2.123113394,1,-1.217247486,1,0.236763835,1,-0.618152201,1,0.220159039,1
1.828003049,1.789392948,1,-3.063630819,1,-10.1650219,1,0.461410403,1,2.145797491,1,-1.284556389,1,0.240559593,1,-0.608684242,1,0.216679722,1
1.832002521,1.328629613,1,-3.182736874,1,-10.1575985,1,0.479651451,1,2.177017212,1,-1.345991135,1,0.244536802,1,-0.599033535,1,0.212994143,1
1.836004138,0.98212862,1,-3.163426161,1,-10.19876862,1,0.500692725,1,2.209046841,1,-1.40297544,1,0.248641565,1,-0.589173853,1,0.209148705,1
1.840001583,0.582159162,1,-3.112787962,1,-10.23788929,1,0.530975521,1,2.238795042,1,-1.451383114,1,0.252904624,1,-0.579134047,1,0.205159664,1
1.844001532,0.121920168,1,-3.036417723,1,-10.26160145,1,0.566805065,1,2.282399178,1,-1.503527999,1,0.2573044,1,-0.568884909,1,0.201075137,1
1.848003387,-0.42304185,1,-2.954608679,1,-10.32412148,1,0.596330166,1,2.324638844,1,-1.550272942,1,0.261862099,1,-0.558413506,1,0.196886197,1
1.852001071,-0.84292537,1,-3.002524376,1,-10.28331852,1,0.631968975,1,2.377405643,1,-1.603636503,1,0.266560644,1,-0.547692895,1,0.192617387,1
1.856000543,-1.182152987,1,-2.989047527,1,-10.18648338,1,0.661851645,1,2.431311369,1,-1.640315771,1,0.271379113,1,-0.536703706,1,0.188307047,1
1.860001802,-1.469677567,1,-2.914342403,1,-10.06181526,1,0.695341706,1,2.4751122,1,-1.670117378,1,0.276274264,1,-0.525471151,1,0.183987617,1
1.863999486,-1.699022889,1,-2.90209198,1,-9.943918228,1,0.717990875,1,2.518540859,1,-1.689760685,1,0.281230688,1,-0.514011502,1,0.179710656,1
1.867998719,-1.851040363,1,-2.750076056,1,-9.772437096,1,0.746795297,1,2.552572727,1,-1.700337052,1,0.286213994,1,-0.502375126,1,0.175505713,1
1.872000217,-2.071797848,1,-2.575130701,1,-9.63057518,1,0.786130488,1,2.577468872,1,-1.700678229,1,0.291233987,1,-0.490594566,1,0.171413571,1
1.875998259,-2.232387304,1,-2.468626976,1,-9.528325081,1,0.822270215,1,2.594595671,1,-1.695255756,1,0.296287,1,-0.478723705,1,0.167457849,1
1.87999773,-2.518710613,1,-2.356639147,1,-9.404232025,1,0.864567518,1,2.597151756,1,-1.67803216,1,0.301390827,1,-0.466807961,1,0.163660944,1
1.884004831,-2.838223696,1,-2.271066427,1,-9.250141144,1,0.90713048,1,2.607180595,1,-1.656629324,1,0.306545675,1,-0.4548769,1,0.160032511,1
1.888008237,-3.09988308,1,-2.285437346,1,-9.178753853,1,0.936956525,1,2.601147652,1,-1.632906556,1,0.311723351,1,-0.442954808,1,0.156594023,1
1.892007709,-3.471877813,1,-2.323198557,1,-9.095541954,1,0.960046947,1,2.598322868,1,-1.603995919,1,0.316889256,1,-0.431055695,1,0.153355539,1
1.896009207,-3.683618784,1,-2.431473017,1,-8.966182709,1,0.974767983,1,2.597326994,1,-1.571554422,1,0.322013617,1,-0.419192165,1,0.150324985,1
1.900006652,-3.952583075,1,-2.517201185,1,-8.793381691,1,0.973877072,1,2.586916447,1,-1.531899452,1,0.32704407,1,-0.407390952,1,0.147514045,1
1.904006362,-4.064526558,1,-2.575193405,1,-8.697809219,1,0.962526858,1,2.568493843,1,-1.486243129,1,0.331931949,1,-0.395678312,1,0.144924104,1
1.908007979,-4.166766644,1,-2.712790012,1,-8.505640984,1,0.947468996,1,2.533714533,1,-1.439857364,1,0.336650044,1,-0.384110421,1,0.142562568,1
1.912005663,-4.387542248,1,-2.745242357,1,-8.359909058,1,0.917795718,1,2.503584623,1,-1.388521791,1,0.341165334,1,-0.372724354,1,0.14042598,1
1.916004896,-4.538080215,1,-2.618229389,1,-8.276130676,1,0.89097482,1,2.460611582,1,-1.336185336,1,0.345469475,1,-0.361546874,1,0.138504565,1
1.920006156,-4.529894352,1,-2.536538601,1,-8.218164444,1,0.865550578,1,2.40401125,1,-1.282991648,1,0.349579871,1,-0.350603163,1,0.136789247,1
1.924003601,-4.73299408,1,-2.602886677,1,-8.189540863,1,0.840353668,1,2.345823526,1,-1.231069803,1,0.353512496,1,-0.339949965,1,0.135248572,1
1.928003073,-4.936181068,1,-2.765577793,1,-8.238367081,1,0.827987432,1,2.283742905,1,-1.171393514,1,0.357298374,1,-0.329594016,1,0.133889034,1
1.932004571,-5.307599545,1,-3.107790709,1,-8.519248962,1,0.830318093,1,2.224430799,1,-1.107409,1,0.360977471,1,-0.319560707,1,0.132727861,1
1.936002016,-6.12188673,1,-3.271898031,1,-8.968033791,1,0.854205489,1,2.178967237,1,-1.045926452,1,0.364645362,1,-0.309807062,1,0.131780937,1
1.940001845,-6.930557251,1,-3.208458662,1,-9.410288811,1,0.893373728,1,2.151515484,1,-1.006742001,1,0.368357688,1,-0.300254047,1,0.13102296,1
1.944003105,-7.821038723,1,-3.071100473,1,-9.903211594,1,0.948310852,1,2.141546488,1,-0.992714167,1,0.372223198,1,-0.290814579,1,0.130373716,1
1.948000312,-8.915495872,1,-3.062572241,1,-10.37270832,1,1.020009518,1,2.162270069,1,-1.015959859,1,0.376322567,1,-0.281355023,1,0.129763305,1
1.951999784,-9.897662163,1,-3.115334749,1,-10.69156837,1,1.092578292,1,2.219033003,1,-1.066343307,1,0.380728245,1,-0.27169317,1,0.129107416,1
1.956001043,-10.63175583,1,-3.189037085,1,-10.87719917,1,1.152377248,1,2.295194149,1,-1.145033836,1,0.385425121,1,-0.261670858,1,0.12835075,1
1.959998727,-10.95868206,1,-3.308763266,1,-10.91666698,1,1.19889009,1,2.390168428,1,-1.233524799,1,0.390359044,1,-0.25120011,1,0.127458557,1
1.963998437,-10.91318321,1,-3.479063272,1,-10.7460146,1,1.219973564,1,2.471493006,1,-1.325068355,1,0.395457566,1,-0.240253404,1,0.126416817,1
1.968000293,-10.54330635,1,-3.567992687,1,-10.46808147,1,1.221043706,1,2.533885241,1,-1.405847788,1,0.400620311,1,-0.228893265,1,0.125230923,1
1.971998215,-10.06273842,1,-3.636526823,1,-10.01291084,1,1.203510404,1,2.570948839,1,-1.464418888,1,0.405770421,1,-0.217242599,1,0.123915806,1
1.975997686,-9.481593132,1,-3.734833241,1,-9.47836113,1,1.159701109,1,2.567529678,1,-1.499082685,1,0.410791576,1,-0.205450386,1,0.122525215,1
1.980004907,-8.930314064,1,-3.591620922,1,-8.907469749,1,1.112150073,1,2.539783716,1,-1.496953368,1,0.415620863,1,-0.193670824,1,0.121114083,1
1.984008431,-8.262557983,1,-3.271644831,1,-8.455014229,1,1.055841804,1,2.469152451,1,-1.476990223,1,0.420214862,1,-0.182077467,1,0.119719893,1
1.988007903,-7.698341846,1,-2.666799784,1,-8.030240059,1,1.014742613,1,2.372918606,1,-1.435184956,1,0.424601614,1,-0.170854747,1,0.118349068,1
1.992009997,-7.545692921,1,-2.482481956,1,-7.62474966,1,0.975192785,1,2.25353694,1,-1.387425542,1,0.428802788,1,-0.16008687,1,0.117022157,1
1.996007919,-7.468398094,1,-2.176157475,1,-7.306665421,1,0.948846757,1,2.134966135,1,-1.321163893,1,0.432842612,1,-0.149847701,1,0.115749292,1
2.000007391,-7.539650917,1,-1.992200851,1,-7.033392906,1,0.918309331,1,2.012254238,1,-1.253350854,1,0.436739087,1,-0.140166566,1,0.11456199,1
2.00400877,-7.676312447,1,-1.808529377,1,-6.775539398,1,0.903182089,1,1.89133966,1,-1.179704189,1,0.440539956,1,-0.131037414,1,0.113459431,1
2.008006096,-7.890837669,1,-1.669324517,1,-6.557667255,1,0.887971222,1,1.782040596,1,-1.104264379,1,0.444248706,1,-0.122444704,1,0.112470321,1
2.012005329,-8.16334343,1,-1.468987465,1,-6.334034443,1,0.871996462,1,1.670552492,1,-1.02600503,1,0.447872251,1,-0.11437609,1,0.111596547,1
2.016007185,-8.315711021,1,-1.27162838,1,-6.091221809,1,0.863672674,1,1.561621428,1,-0.954818606,1,0.451428324,1,-0.106820025,1,0.110831797,1
2.020005226,-8.535658836,1,-1.066996455,1,-5.883753777,1,0.852311075,1,1.458403349,1,-0.871470809,1,0.454924107,1,-0.09979295,1,0.110194527,1
2.024004698,-8.595208168,1,-0.916798115,1,-5.553319454,1,0.838675678,1,1.350058913,1,-0.78646183,1,0.458352536,1,-0.093288518,1,0.109682389,1
2.028006315,-8.606742859,1,-0.832197666,1,-5.127324581,1,0.827315331,1,1.238873243,1,-0.698029041,1,0.461722136,1,-0.087320223,1,0.109323047,1
2.032004118,-8.504388809,1,-0.806704819,1,-4.729465961,1,0.804044545,1,1.122762084,1,-0.600318074,1,0.46499896,1,-0.081927799,1,0.109117098,1
2.03600955,-8.456449509,1,-0.961511195,1,-4.439266682,1,0.759759665,1,1.001805186,1,-0.493716806,1,0.468130171,1,-0.077138595,1,0.109077461,1
2.040010929,-8.414948463,1,-1.110786676,1,-4.263298988,1,0.706709385,1,0.871848702,1,-0.38492927,1,0.4681741,1,-0.074361645,1,0.099290028,1
2.044008493,-8.381074905,1,-1.149519205,1,-4.179469585,1,0.644724131,1,0.725521028,1,-0.271438211,1,0.471249729,1,-0.070946924,1,0.10334105,1
2.048007965,-8.601284981,1,-1.138613343,1,-4.188309669,1,0.592802286,1,0.577647686,1,-0.151581898,1,0.473681986,1,-0.06823805,1,0.103781916,1
2.052009106,-9.109010696,1,-1.147658825,1,-4.263089657,1,0.566451907,1,0.438627213,1,-0.044205662,1,0.475955844,1,-0.066260837,1,0.10436777,1
2.056006908,-9.959877014,1,-1.213289976,1,-4.336517334,1,0.556554794,1,0.325471073,1,0.048232023,1,0.478152305,1,-0.064913251,1,0.105086789,1
2.060006618,-10.87219238,1,-1.390500546,1,-4.454107285,1,0.551566303,1,0.250583678,1,0.111367255,1,0.480314821,1,-0.06404689,1,0.105901413,1
2.064008236,-11.63379002,1,-1.607634068,1,-4.602030754,1,0.542926013,1,0.206036031,1,0.144091979,1,0.482446581,1,-0.063488342,1,0.106784679,1
2.068006039,-12.09027576,1,-1.758532047,1,-4.705873966,1,0.524179995,1,0.185451955,1,0.145446807,1,0.484517485,1,-0.0630771,1,0.107667372,1
2.072005272,-12.24951077,1,-1.876451135,1,-4.79754591,1,0.490370095,1,0.18512924,1,0.118714564,1,0.486500919,1,-0.062679812,1,0.108493842,1
2.076012611,-11.98843288,1,-2.064808369,1,-4.837427139,1,0.435325384,1,0.192096859,1,0.066326573,1,0.48832503,1,-0.062185127,1,0.109172292,1
2.080015898,-11.32388115,1,-2.381056786,1,-4.712488651,1,0.361319304,1,0.186902657,1,0.003757861,1,0.489899039,1,-0.06157605,1,0.109665655,1
2.084015369,-10.32170391,1,-2.745562553,1,-4.438724995,1,0.252675414,1,0.159270704,1,-0.051828079,1,0.491119981,1,-0.06090983,1,0.109914899,1
2.088017225,-9.121376991,1,-3.090909004,1,-4.274061203,1,0.122841753,1,0.091548428,1,-0.09452565,1,0.491869599,1,-0.060329486,1,0.109893993,1
2.092015028,-7.993693829,1,-3.270812988,1,-4.165483952,1,-0.019353418,1,-0.017779967,1,-0.11511229,1,0.492093861,1,-0.059995126,1,0.109594569,1
2.096014738,-7.328670502,1,-3.083899498,1,-3.904092789,1,-0.154014498,1,-0.157737672,1,-0.121684261,1,0.491774142,1,-0.06006996,1,0.109001771,1
2.100016117,-6.90794754,1,-2.809586048,1,-3.808536768,1,-0.270139813,1,-0.30840686,1,-0.127823845,1,0.490975797,1,-0.060653336,1,0.108117893,1
2.104013681,-6.551615715,1,-2.527336597,1,-3.808885098,1,-0.352398545,1,-0.463995397,1,-0.134364799,1,0.489798427,1,-0.061764006,1,0.106924593,1
2.108012915,-6.535117626,1,-2.174595356,1,-3.806941986,1,-0.39932555,1,-0.606405437,1,-0.124782465,1,0.488372684,1,-0.063414522,1,0.105465971,1
2.112014294,-6.788630486,1,-1.96755743,1,-3.923323393,1,-0.410862535,1,-0.737571836,1,-0.117760524,1,0.486853272,1,-0.065563753,1,0.103771962,1
2.116011858,-7.147209644,1,-1.805587292,1,-4.094780922,1,-0.389775783,1,-0.841348588,1,-0.112548575,1,0.485370636,1,-0.068142146,1,0.101882793,1
2.120011091,-7.430809021,1,-1.711790681,1,-4.20917511,1,-0.347348213,1,-0.923740447,1,-0.106946863,1,0.484034151,1,-0.071056366,1,0.099841245,1
2.124012232,-7.782781601,1,-1.795411229,1,-4.263466835,1,-0.295904607,1,-0.991945565,1,-0.100099675,1,0.48291108,1,-0.074260712,1,0.097687565,1
2.128009796,-8.271962166,1,-1.898278832,1,-4.273265839,1,-0.246932253,1,-1.039108038,1,-0.092486411,1,0.481995434,1,-0.077688739,1,0.095449969,1
2.132009745,-8.68327713,1,-2.060877562,1,-4.194497108,1,-0.20737803,1,-1.073535562,1,-0.071820095,1,0.481270581,1,-0.08127974,1,0.0931952,1
2.136011124,-9.133751869,1,-2.27560544,1,-4.099443436,1,-0.17966415,1,-1.103925824,1,-0.049880829,1,0.480683357,1,-0.085026443,1,0.090958185,1
2.14000845,-9.60024929,1,-2.332548857,1,-4.055308819,1,-0.160612091,1,-1.12045908,1,-0.014079513,1,0.48018688,1,-0.08891248,1,0.088776998,1
2.144007921,-10.23031425,1,-2.316511154,1,-3.891431332,1,-0.143470243,1,-1.136134982,1,0.012874867,1,0.479769081,1,-0.092925027,1,0.086672939,1
2.148009539,-10.78717232,1,-2.282577276,1,-3.763684273,1,-0.131103292,1,-1.14299345,1,0.050896119,1,0.479412347,1,-0.097029015,1,0.08467254,1
2.152007103,-11.25349331,1,-2.252942324,1,-3.558779478,1,-0.125775903,1,-1.140654802,1,0.088071927,1,0.4790802,1,-0.101209655,1,0.082796305,1
2.156013012,-11.71118736,1,-2.300274134,1,-3.330610275,1,-0.117204964,1,-1.141389489,1,0.126280144,1,0.478768677,1,-0.10545215,1,0.08106105,1
2.160015106,-7.2144804,1,-5.072107315,1,-7.496869087,1,-0.204539254,1,-1.175655365,1,0.177855924,1,0.478383869,1,-0.109810345,1,0.079463117,1
2.164013386,15.50137806,1,-7.984393597,1,-14.87139797,1,-0.545880973,1,-1.850530028,1,0.516541183,1,0.476769775,1,-0.115664579,1,0.077909388,1
2.168012619,1.008602381,1,-7.216227055,1,-12.30238914,1,-0.597013831,1,-2.406893492,1,0.872426569,1,0.475006133,1,-0.124737769,1,0.076502517,1
2.17201376,13.84646893,1,-10.88987637,1,-15.93330574,1,-1.00340879,1,-2.099140644,1,0.829380929,1,0.471670121,1,-0.134368822,1,0.075401895,1
2.176017046,19.41763115,1,-12.29957867,1,-16.22139931,1,-0.834339619,1,-2.244530678,1,0.933570147,1,0.468200296,1,-0.1435498,1,0.074614875,1
2.180016279,9.515523911,1,-10.51310253,1,-14.11110687,1,-0.990824282,1,-2.44924283,1,1.05594492,1,0.464660943,1,-0.153815389,1,0.07391195,1
2.184017897,10.0716238,1,-9.890264511,1,-14.63006687,1,-1.102466106,1,-2.565112829,1,1.213632941,1,0.460528165,1,-0.164753824,1,0.073492251,1
2.188015699,8.000389099,1,-5.319185734,1,-13.87319088,1,-0.978215218,1,-2.908527851,1,1.424259782,1,0.456322342,1,-0.176889941,1,0.073399015,1
2.192015409,1.280532956,1,-4.788314342,1,-11.41043282,1,-1.018467188,1,-3.253752947,1,1.468706012,1,0.452367574,1,-0.190538645,1,0.073176078,1
2.196016788,-0.016625365,1,-2.277788877,1,-10.75348377,1,-0.907037497,1,-3.565607071,1,1.540466428,1,0.448598593,1,-0.205442801,1,0.072643377,1
2.200014353,-3.642970085,1,0.51956594,1,-10.36722279,1,-0.751640141,1,-3.943296671,1,1.452645183,1,0.445517451,1,-0.221611083,1,0.071536824,1
2.204013586,-10.49054718,1,0.304372847,1,-10.42897987,1,-0.628619134,1,-4.038875103,1,1.356656313,1,0.443211436,1,-0.238498658,1,0.069685057,1
2.208014965,-13.70513439,1,0.447720587,1,-11.14172554,1,-0.558064878,1,-3.962417364,1,1.257982373,1,0.441378236,1,-0.255232573,1,0.067468725,1
2.212012291,-14.48110008,1,2.064265966,1,-12.90882206,1,-0.319873273,1,-3.774557829,1,1.186359882,1,0.440166235,1,-0.271306515,1,0.065214932,1
2.216012001,-14.80720139,1,1.990970135,1,-14.14400864,1,-0.138755992,1,-3.5140872,1,1.067061543,1,0.439861178,1,-0.286444068,1,0.062979557,1
2.220014334,-12.30062389,1,3.642228842,1,-15.05622387,1,0.189538196,1,-3.267413139,1,0.955696166,1,0.440625638,1,-0.300411999,1,0.060785685,1
2.224012613,-11.9243021,1,2.371389866,1,-15.17900467,1,0.326068312,1,-3.103157282,1,0.950031221,1,0.442273021,1,-0.313535452,1,0.058635425,1
2.228011847,-10.91578674,1,0.962812841,1,-14.01609135,1,0.45727405,1,-2.882241011,1,1.041239262,1,0.444363654,1,-0.326048911,1,0.057009481,1
2.232012987,-10.09119797,1,-0.016389575,1,-13.04276657,1,0.578203559,1,-2.688440323,1,1.163012147,1,0.446732372,1,-0.337993324,1,0.056138352,1
2.236010313,-9.901356697,1,-1.712426901,1,-12.36067486,1,0.615449727,1,-2.51371336,1,1.272387862,1,0.449181855,1,-0.349478573,1,0.056011166,1
2.240009785,-9.761497498,1,-2.684322596,1,-11.11508369,1,0.647173405,1,-2.32928586,1,1.346185446,1,0.451536715,1,-0.36049509,1,0.056566548,1
2.244011402,-8.945677757,1,-3.749243736,1,-10.19907665,1,0.700905979,1,-2.164129257,1,1.311432123,1,0.453891695,1,-0.370900065,1,0.057492342,1
2.248009682,-8.487750053,1,-5.638958931,1,-9.729455948,1,0.705067575,1,-2.056052923,1,1.234184623,1,0.456411362,1,-0.380713195,1,0.058427334,1
2.25200963,-9.116519928,1,-7.960477352,1,-8.367584229,1,0.621507525,1,-1.963113189,1,1.168509841,1,0.458763897,1,-0.390075982,1,0.059263792,1
2.256011009,-7.558836937,1,-9.366371155,1,-7.317828178,1,0.546233475,1,-1.857346416,1,1.018815398,1,0.46086809,1,-0.398856461,1,0.059848405,1
2.260008335,-6.991018295,1,-10.90948677,1,-7.230653763,1,0.385835081,1,-1.827319503,1,0.906495392,1,0.462724715,1,-0.407149553,1,0.060013365,1
2.264007568,-7.181633949,1,-11.78286648,1,-6.251852036,1,0.160235286,1,-1.811985373,1,0.851821601,1,0.463875115,1,-0.415276289,1,0.059915945,1
2.268008947,-6.075212479,1,-11.94463158,1,-6.411930084,1,-0.022214113,1,-1.782654405,1,0.750756204,1,0.464311153,1,-0.423122585,1,0.059509054,1
2.272012711,-7.139091015,1,-10.91120434,1,-6.196652889,1,-0.248134702,1,-1.762245536,1,0.750817955,1,0.463994682,1,-0.43081972,1,0.058966968,1
2.276012897,-7.051078796,1,-9.619100571,1,-6.64726162,1,-0.416210443,1,-1.682637215,1,0.722237885,1,0.462862432,1,-0.438306659,1,0.058468629,1
2.280014753,-7.848295212,1,-8.370202065,1,-7.325651169,1,-0.570315242,1,-1.581360698,1,0.755881727,1,0.461046487,1,-0.44546181,1,0.058141138,1
2.284012794,-8.560177803,1,-6.225111961,1,-7.862526417,1,-0.689826906,1,-1.424901485,1,0.820901692,1,0.458435059,1,-0.452275217,1,0.058327943,1
2.288012028,-8.331098557,1,-4.254127026,1,-8.539083481,1,-0.72732234,1,-1.260584235,1,0.863882959,1,0.455271006,1,-0.458580762,1,0.059065245,1
2.292013645,-8.390119553,1,-2.851876497,1,-8.9839468,1,-0.716678321,1,-1.094771743,1,0.899176836,1,0.450987935,1,-0.464168429,1,0.06531436,1
2.296010971,-8.371768951,1,-2.400729656,1,-9.216409683,1,-0.705659747,1,-0.939923584,1,0.938891292,1,0.447365791,1,-0.469437957,1,0.067050599,1
2.300010204,-7.598845959,1,-2.53960371,1,-8.925471306,1,-0.668674171,1,-0.796372473,1,0.94218725,1,0.443639815,1,-0.474197686,1,0.069186851,1
2.30401206,-6.625506401,1,-3.071885824,1,-8.639115334,1,-0.650218964,1,-0.716181636,1,0.924528658,1,0.439933717,1,-0.478515565,1,0.071543582,1
2.308010101,-6.195053101,1,-4.218833447,1,-8.370123863,1,-0.669475317,1,-0.666782558,1,0.89448899,1,0.436182052,1,-0.482564718,1,0.073955126,1
2.31201005,-5.587893009,1,-5.262823582,1,-7.889283657,1,-0.686161458,1,-0.638043523,1,0.829096735,1,0.432394624,1,-0.486379147,1,0.076263271,1
2.31601119,-4.665927887,1,-5.972127914,1,-7.558316708,1,-0.728924096,1,-0.647565722,1,0.754547536,1,0.428603679,1,-0.490028739,1,0.078310944,1
2.320008755,-4.351768017,1,-5.808026791,1,-7.726447582,1,-0.781851411,1,-0.680413008,1,0.689923644,1,0.424764603,1,-0.493633747,1,0.080035679,1
2.324008226,-4.394835949,1,-5.152948856,1,-7.879146099,1,-0.818818271,1,-0.706260264,1,0.648424089,1,0.420864195,1,-0.49726212,1,0.08151,1
2.328009367,-4.588285923,1,-4.163441658,1,-8.245181084,1,-0.849060297,1,-0.724244416,1,0.639579415,1,0.416878134,1,-0.500924647,1,0.082856722,1
2.332006931,-4.60744524,1,-3.207121372,1,-8.585788727,1,-0.848718941,1,-0.732057393,1,0.634867609,1,0.412833303,1,-0.504618287,1,0.084181875,1
2.33600688,-5.253043652,1,-3.038556099,1,-8.94002533,1,-0.85296303,1,-0.706014335,1,0.648767769,1,0.408771008,1,-0.508289218,1,0.085552797,1
2.340008259,-6.005802155,1,-2.536448956,1,-9.185198784,1,-0.836237013,1,-0.655005455,1,0.646320939,1,0.4046413,1,-0.511810899,1,0.087047815,1
2.344005823,-5.885239601,1,-2.211357355,1,-8.981966019,1,-0.792963803,1,-0.603130817,1,0.620383918,1,0.400618225,1,-0.515116394,1,0.088596635,1
2.348005533,-5.608446598,1,-2.545712948,1,-8.714929581,1,-0.762624264,1,-0.570677698,1,0.60002315,1,0.396753073,1,-0.518223405,1,0.090131775,1
2.352006912,-5.714410305,1,-2.746324062,1,-8.533447266,1,-0.747495651,1,-0.538577855,1,0.57474792,1,0.392969966,1,-0.521175444,1,0.091654062,1
2.356004238,-6.084355831,1,-2.519351244,1,-8.623562813,1,-0.724233627,1,-0.508257687,1,0.536673129,1,0.38929975,1,-0.523958266,1,0.093106151,1
2.360003471,-6.171487331,1,-2.28850317,1,-8.676678658,1,-0.684635162,1,-0.463513285,1,0.481535465,1,0.385803699,1,-0.526531637,1,0.094429195,1
2.36400485,-5.991435051,1,-1.724696159,1,-9.046458244,1,-0.635939837,1,-0.43634361,1,0.429960221,1,0.382570803,1,-0.52888006,1,0.095617354,1
2.368002415,-6.289264679,1,-1.199547529,1,-9.229390144,1,-0.571276307,1,-0.394892007,1,0.388170272,1,0.379621685,1,-0.531032145,1,0.096655875,1
2.372007847,-5.673469067,1,-0.842158973,1,-9.296180725,1,-0.503015041,1,-0.367670685,1,0.351744026,1,0.376988173,1,-0.532975376,1,0.097594574,1
2.376009703,-5.833511829,1,-0.994033277,1,-9.278899193,1,-0.430925548,1,-0.345233798,1,0.314409316,1,0.374703199,1,-0.534795821,1,0.098422892,1
2.380007744,-5.939762115,1,-1.634021282,1,-9.056114197,1,-0.382911086,1,-0.300375432,1,0.30755052,1,0.372686505,1,-0.536460698,1,0.099201627,1
2.384006977,-5.389719963,1,-1.799106836,1,-8.968793869,1,-0.325245887,1,-0.309258372,1,0.278648049,1,0.370887429,1,-0.538006842,1,0.099955879,1
2.388008118,-5.803977966,1,-2.427154303,1,-8.957048416,1,-0.286178559,1,-0.284248382,1,0.254294366,1,0.369333684,1,-0.539506614,1,0.100605398,1
2.392005682,-5.80425024,1,-2.667972088,1,-8.50547123,1,-0.259218872,1,-0.231519833,1,0.260145396,1,0.367903739,1,-0.540849626,1,0.101261988,1
2.39600563,-4.935297489,1,-2.400584459,1,-8.433721542,1,-0.244080976,1,-0.263351828,1,0.255864471,1,0.366544902,1,-0.542138696,1,0.101963602,1
2.400007248,-4.767839909,1,-2.55755949,1,-8.498492241,1,-0.228246033,1,-0.25717479,1,0.263306201,1,0.365230262,1,-0.543473899,1,0.102678597,1
2.404004812,-5.231096268,1,-2.666728973,1,-8.447755814,1,-0.217664182,1,-0.23288314,1,0.272037476,1,0.36394769,1,-0.54476589,1,0.103428595,1
2.408004284,-4.652722359,1,-2.317991257,1,-8.804283142,1,-0.193731844,1,-0.228052288,1,0.268457234,1,0.362673849,1,-0.545965433,1,0.104257844,1
2.412005901,-5.052923679,1,-2.399335384,1,-8.331847191,1,-0.184761688,1,-0.213845849,1,0.269968808,1,0.361513108,1,-0.547175825,1,0.105061613,1
2.416003227,-5.095377922,1,-2.42356658,1,-8.153944016,1,-0.160600215,1,-0.206066966,1,0.274281412,1,0.360388577,1,-0.548342049,1,0.105906755,1
2.42000246,-4.236535549,1,-2.457805395,1,-8.426686287,1,-0.161430597,1,-0.183818623,1,0.280162722,1,0.359243989,1,-0.549443364,1,0.106844515,1
2.424004555,-4.746151924,1,-2.696720362,1,-8.025513649,1,-0.162735805,1,-0.195551947,1,0.297278017,1,0.358113408,1,-0.550578296,1,0.107782997,1
2.428002834,-4.524737358,1,-2.968776226,1,-8.122779846,1,-0.170558199,1,-0.192147225,1,0.314503103,1,0.356900513,1,-0.551729083,1,0.10883043,1
2.432002783,-5.27075243,1,-3.569137812,1,-7.870036602,1,-0.186685294,1,-0.162475184,1,0.346192479,1,0.355593443,1,-0.552870989,1,0.109979883,1
2.436004162,-4.420894623,1,-3.779814243,1,-8.092927933,1,-0.203979626,1,-0.199062541,1,0.344220579,1,0.354167908,1,-0.554019272,1,0.111206055,1
2.440001488,-4.83836031,1,-3.958474159,1,-7.968018532,1,-0.2222161,1,-0.194007009,1,0.354036152,1,0.352672428,1,-0.55524826,1,0.112430595,1
2.444000959,-5.032698631,1,-3.970026731,1,-7.8930583,1,-0.252612144,1,-0.178832889,1,0.369625598,1,0.351038724,1,-0.556441367,1,0.113724843,1
2.448002338,-4.02226305,1,-3.801222324,1,-7.960408688,1,-0.292565346,1,-0.144045636,1,0.388628274,1,0.349176466,1,-0.557548285,1,0.115182869,1
2.451999664,-5.118729115,1,-3.72871685,1,-7.734870911,1,-0.320741773,1,-0.162056983,1,0.403116167,1,0.347168446,1,-0.558694422,1,0.116671458,1
2.455999374,-5.455907345,1,-3.610381365,1,-7.992045403,1,-0.347372234,1,-0.141350552,1,0.394746214,1,0.34499982,1,-0.559806228,1,0.118208043,1
2.460000753,-6.186005116,1,-3.782390833,1,-7.555314064,1,-0.379024208,1,-0.088436633,1,0.419299632,1,0.342704177,1,-0.560801744,1,0.119797327,1
2.463998318,-4.933366299,1,-3.362113953,1,-7.87588644,1,-0.39586547,1,-0.134085521,1,0.386996776,1,0.340293258,1,-0.561744273,1,0.121400103,1
2.46800375,-5.065170288,1,-3.08314991,1,-8.04917717,1,-0.420867324,1,-0.124382101,1,0.37626785,1,0.337851882,1,-0.56273365,1,0.122916751,1
2.472005844,-5.714176655,1,-3.031655788,1,-8.096208572,1,-0.445413917,1,-0.092806324,1,0.371997923,1,0.335330844,1,-0.563645601,1,0.124399006,1
2.476004124,-4.874243736,1,-2.704617262,1,-8.168904305,1,-0.450470746,1,-0.125132203,1,0.334890962,1,0.332775056,1,-0.564499855,1,0.125805691,1
2.480003357,-5.286815643,1,-2.625669718,1,-8.042131424,1,-0.450398356,1,-0.111458197,1,0.316099465,1,0.330299199,1,-0.565381825,1,0.127071291,1
2.484004974,-4.361679077,1,-2.278791189,1,-8.449811935,1,-0.446895808,1,-0.109839283,1,0.276014417,1,0.327849627,1,-0.566152871,1,0.128279611,1
2.488002539,-5.246471882,1,-2.26641202,1,-8.059142113,1,-0.426708817,1,-0.125919566,1,0.253684461,1,0.325569749,1,-0.56695956,1,0.129272744,1
2.492002249,-5.018546581,1,-2.018530846,1,-8.137377739,1,-0.411370009,1,-0.100984059,1,0.2299539,1,0.323396146,1,-0.567710876,1,0.130199,1
2.496003866,-5.017375469,1,-2.125524759,1,-8.307697296,1,-0.381973296,1,-0.142708167,1,0.200152665,1,0.321405172,1,-0.568454266,1,0.130957991,1
2.500001192,-5.071199417,1,-2.226037741,1,-8.3132267,1,-0.364776313,1,-0.136373743,1,0.193254381,1,0.319559574,1,-0.569225788,1,0.131621778,1
2.504001141,-4.173383713,1,-2.178869963,1,-8.494976044,1,-0.344218552,1,-0.140502065,1,0.166225657,1,0.317779541,1,-0.569951177,1,0.132277921,1
2.508002281,-5.201368332,1,-2.506954908,1,-8.026593208,1,-0.328930259,1,-0.150031924,1,0.158250272,1,0.316152513,1,-0.570732176,1,0.132791281,1
2.511999846,-5.364109993,1,-2.507059813,1,-7.888503075,1,-0.315352798,1,-0.112260394,1,0.164962813,1,0.314572096,1,-0.571442664,1,0.133336872,1
2.516000032,-5.171812057,1,-2.378939629,1,-7.998907566,1,-0.292849332,1,-0.143669561,1,0.137518719,1,0.313111573,1,-0.572136283,1,0.133803904,1
2.520001888,-5.547446728,1,-2.311150312,1,-8.045055389,1,-0.274030536,1,-0.115878917,1,0.14743647,1,0.31174171,1,-0.572813332,1,0.134246394,1
2.523999691,-4.385226727,1,-2.088885307,1,-8.338357925,1,-0.254459977,1,-0.116713755,1,0.131536976,1,0.310411811,1,-0.57337606,1,0.134741664,1
2.527999163,-5.322470188,1,-2.287191391,1,-7.976540089,1,-0.237489626,1,-0.114687011,1,0.122832179,1,0.309214354,1,-0.573980629,1,0.13513957,1
2.532000542,-6.043873787,1,-2.379448652,1,-7.883196354,1,-0.226538092,1,-0.083937824,1,0.134981975,1,0.308073163,1,-0.574524641,1,0.135550261,1
2.535997868,-4.762532711,1,-2.180384874,1,-8.244034767,1,-0.198321983,1,-0.104047969,1,0.111633077,1,0.30698508,1,-0.574989378,1,0.135984227,1
2.539997101,-5.156942844,1,-2.467989922,1,-7.930918217,1,-0.192170382,1,-0.089028217,1,0.11238651,1,0.30450502,1,-0.57585746,1,0.137532994,1
2.543998957,-5.434500217,1,-2.651184082,1,-7.67259264,1,-0.191799089,1,-0.047373567,1,0.131430328,1,0.303437293,1,-0.575951636,1,0.142934933,1
2.547997236,-4.966877937,1,-2.736465454,1,-7.831865788,1,-0.182725608,1,-0.085870661,1,0.1162358,1,0.302454829,1,-0.576368511,1,0.143374637,1
2.552002668,-5.318460941,1,-2.864144564,1,-7.946201324,1,-0.18836619,1,-0.068389766,1,0.13707599,1,0.301466078,1,-0.576817632,1,0.143828347,1
2.556003809,-4.122642517,1,-2.707143784,1,-8.161663055,1,-0.194552332,1,-0.068906426,1,0.13115187,1,0.300381482,1,-0.577187002,1,0.144391716,1
2.560001373,-5.093253613,1,-2.965028048,1,-7.787345409,1,-0.205516756,1,-0.074876077,1,0.139826357,1,0.299307853,1,-0.577636003,1,0.14490445,1
2.564006567,-5.623252392,1,-2.937783718,1,-7.677996635,1,-0.220292255,1,-0.034462731,1,0.164326578,1,0.298130363,1,-0.578049779,1,0.145515189,1
2.568008184,-4.91631031,1,-2.865052462,1,-7.835283279,1,-0.215607256,1,-0.068151064,1,0.155338526,1,0.296924204,1,-0.578430653,1,0.146142244,1
2.572005987,-5.531080246,1,-2.860683918,1,-7.921761513,1,-0.227591977,1,-0.04629067,1,0.184036046,1,0.295688152,1,-0.578858256,1,0.146801069,1
2.576005459,-4.267095566,1,-2.5583179,1,-8.21059227,1,-0.219230831,1,-0.056859396,1,0.173368722,1,0.294367015,1,-0.579227924,1,0.147570238,1
2.580007315,-5.129411221,1,-2.53898406,1,-8.052351952,1,-0.220447704,1,-0.056888178,1,0.189150855,1,0.293099165,1,-0.579665065,1,0.148288503,1
2.584005594,-4.198692799,1,-2.369575024,1,-8.280702591,1,-0.208181292,1,-0.057037547,1,0.174538314,1,0.291800827,1,-0.580060482,1,0.149079174,1
2.588004827,-4.902499676,1,-2.428886175,1,-8.134572983,1,-0.20090431,1,-0.065943576,1,0.179798022,1,0.2905882,1,-0.580525279,1,0.149804592,1
2.592006445,-4.118505001,1,-2.337759018,1,-8.313645363,1,-0.187733367,1,-0.055731583,1,0.179677293,1,0.289375275,1,-0.580949426,1,0.150583133,1
2.596003771,-4.726350784,1,-2.456444502,1,-8.210799217,1,-0.174175099,1,-0.087559387,1,0.184437096,1,0.288253814,1,-0.581445515,1,0.151300788,1
2.600003481,-4.614094734,1,-2.230508804,1,-8.254118919,1,-0.167895392,1,-0.069754682,1,0.192107409,1,0.287133992,1,-0.581963539,1,0.15207535,1
2.604005337,-4.760114193,1,-2.416657686,1,-8.153461456,1,-0.160173595,1,-0.110331208,1,0.1855845,1,0.286075413,1,-0.582533479,1,0.152812272,1
2.608003139,-5.488379478,1,-2.536206245,1,-8.145737648,1,-0.15676789,1,-0.092495382,1,0.208211482,1,0.285032809,1,-0.58315295,1,0.153566271,1
2.612002611,-4.550047398,1,-2.549688578,1,-8.299671173,1,-0.143268168,1,-0.116187535,1,0.193895429,1,0.284013271,1,-0.583756149,1,0.154333681,1
2.616003752,-4.822175026,1,-2.60072422,1,-8.227419853,1,-0.141472116,1,-0.132169679,1,0.192099497,1,0.283046782,1,-0.584457994,1,0.155054525,1
2.620001078,-5.777619362,1,-2.57552743,1,-8.194487572,1,-0.143652216,1,-0.118730895,1,0.216780379,1,0.282067955,1,-0.585173309,1,0.155805513,1
2.624000549,-4.620400429,1,-2.509119987,1,-8.261365891,1,-0.134432003,1,-0.147943661,1,0.211277485,1,0.28107062,1,-0.585890353,1,0.156607315,1
2.628002167,-4.984368801,1,-2.456217766,1,-8.157811165,1,-0.133630738,1,-0.145898312,1,0.214132965,1,0.280108064,1,-0.586693168,1,0.157388315,1
2.631999969,-5.636809826,1,-2.402659178,1,-8.112445831,1,-0.131058753,1,-0.12973924,1,0.242930993,1,0.279098511,1,-0.587477207,1,0.158253625,1
2.63599968,-4.550104141,1,-2.254858971,1,-8.367342949,1,-0.113966338,1,-0.165729463,1,0.230600446,1,0.278111815,1,-0.588288665,1,0.159128636,1
2.640001059,-4.739861488,1,-2.11011076,1,-8.448531151,1,-0.106731519,1,-0.174183205,1,0.230520308,1,0.277199775,1,-0.589185715,1,0.159973234,1
2.643998384,-5.081306934,1,-2.072626829,1,-8.415434837,1,-0.087818012,1,-0.174537659,1,0.244311005,1,0.27633056,1,-0.59012264,1,0.160829127,1
2.647997618,-4.160672665,1,-1.918192387,1,-8.579767227,1,-0.083765239,1,-0.183295965,1,0.235569626,1,0.275448561,1,-0.591048956,1,0.161750972,1
2.651998997,-5.027787685,1,-2.182513952,1,-8.374000549,1,-0.069534972,1,-0.214675546,1,0.241953582,1,0.274674296,1,-0.592090905,1,0.162590578,1
2.655996561,-5.249695778,1,-2.257667065,1,-8.329372406,1,-0.059389703,1,-0.221306175,1,0.24843815,1,0.273937047,1,-0.593194604,1,0.163443297,1
2.659996271,-5.16920042,1,-2.467786074,1,-8.126616478,1,-0.050789196,1,-0.216645375,1,0.257506132,1,0.273225427,1,-0.594304442,1,0.164326563,1
2.664003611,-4.052936554,1,-2.334160089,1,-8.429887772,1,-0.038495336,1,-0.205633193,1,0.261999965,1,0.272498518,1,-0.595377386,1,0.16529952,1
2.668007135,-4.931118488,1,-2.387928486,1,-8.288388252,1,-0.037038203,1,-0.241953954,1,0.2696096,1,0.271810412,1,-0.596543968,1,0.166245177,1
2.672006607,-4.996240616,1,-2.502108335,1,-8.346905708,1,-0.036209125,1,-0.245352626,1,0.287215143,1,0.271103978,1,-0.597777724,1,0.167227432,1
2.676008701,-4.962931633,1,-2.522715092,1,-8.336889267,1,-0.030566333,1,-0.255191594,1,0.297784299,1,0.270378947,1,-0.5990538,1,0.168275997,1
2.680006742,-5.876780033,1,-2.502084255,1,-8.178152084,1,-0.030762253,1,-0.236636147,1,0.329117477,1,0.269596219,1,-0.600349069,1,0.169416204,1
2.684005976,-4.772351742,1,-3.005841494,1,-8.517901421,1,-0.048274122,1,-0.294580936,1,0.32862857,1,0.268788397,1,-0.601711214,1,0.170595288,1
2.688007116,-4.797624588,1,-2.683055162,1,-8.415602684,1,-0.056595396,1,-0.326211452,1,0.343532413,1,0.267896801,1,-0.603277624,1,0.171768561,1
2.692004681,-4.994671822,1,-2.445584536,1,-8.499014854,1,-0.042625405,1,-0.345154166,1,0.370317727,1,0.266999245,1,-0.604948997,1,0.173002496,1
2.696003914,-4.125229836,1,-2.859774351,1,-8.736416817,1,-0.045186553,1,-0.360574216,1,0.382257223,1,0.266070873,1,-0.606680751,1,0.174344942,1
2.700005054,-4.862448692,1,-2.910166025,1,-8.598974228,1,-0.055685487,1,-0.41446951,1,0.398652434,1,0.265107006,1,-0.608599901,1,0.175685793,1
2.704002619,-5.244024277,1,-2.344317198,1,-8.643507004,1,-0.053336021,1,-0.439584255,1,0.416924864,1,0.264085412,1,-0.610679865,1,0.177061781,1
2.70800209,-4.412714481,1,-2.544631243,1,-8.980569839,1,-0.036495864,1,-0.48988539,1,0.425219625,1,0.263114512,1,-0.612897396,1,0.178462416,1
2.712003231,-4.916134357,1,-2.236049891,1,-9.134919167,1,-0.019503681,1,-0.549234509,1,0.437594503,1,0.262220412,1,-0.615343869,1,0.179831862,1
2.716000795,-4.562430382,1,-2.35160923,1,-9.154573441,1,-0.018336531,1,-0.60759747,1,0.45331189,1,0.261351764,1,-0.618037224,1,0.181223318,1
2.720000029,-4.953557491,1,-2.519201517,1,-9.166577339,1,-0.00559931,1,-0.656437695,1,0.467167795,1,0.260516465,1,-0.620957911,1,0.182598799,1
2.724002361,-4.602777958,1,-2.411814213,1,-9.410400391,1,-0.011642524,1,-0.732805967,1,0.475786924,1,0.259677559,1,-0.624125123,1,0.183967918,1
2.728001118,-4.640829086,1,-1.805389762,1,-9.503064156,1,0.063737489,1,-0.80200994,1,0.494998127,1,0.259001315,1,-0.627590954,1,0.185299695,1
2.732001066,-4.442231178,1,-2.199384689,1,-9.624295235,1,0.06372305,1,-0.888061166,1,0.507934928,1,0.258477896,1,-0.631374002,1,0.186629266,1
2.736002207,-4.903293133,1,-2.402420521,1,-9.688796997,1,0.059617128,1,-0.979929626,1,0.516291738,1,0.257971317,1,-0.635507166,1,0.187904,1
2.74000001,-4.57669878,1,-2.195370436,1,-9.531908035,1,0.078679524,1,-1.068234563,1,0.537686288,1,0.257494211,1,-0.640005171,1,0.189154148,1
2.743999243,-4.544883728,1,-2.273661613,1,-9.483540535,1,0.097344466,1,-1.150018811,1,0.552518427,1,0.25712952,1,-0.64484334,1,0.190369606,1
2.748001099,-4.839731693,1,-2.476241112,1,-9.72538662,1,0.093604647,1,-1.238470554,1,0.56730932,1,0.256789237,1,-0.650033355,1,0.191567659,1
2.751998901,-4.906586647,1,-2.30921483,1,-9.633368492,1,0.086553551,1,-1.329566121,1,0.57761246,1,0.25645408,1,-0.655579388,1,0.192703694,1
2.755998373,-5.101469517,1,-2.307216644,1,-9.473162651,1,0.08360938,1,-1.421242356,1,0.587770641,1,0.256144732,1,-0.661507726,1,0.193784699,1
2.760006189,-5.310818195,1,-2.321201563,1,-9.764939308,1,0.067632183,1,-1.506809235,1,0.597970188,1,0.255817533,1,-0.667779803,1,0.194821611,1
2.764009714,-5.015636921,1,-1.864920974,1,-9.704749107,1,0.052534841,1,-1.590988994,1,0.606233895,1,0.255431265,1,-0.674388468,1,0.195805669,1
2.768009186,-4.623551846,1,-2.058998346,1,-9.636706352,1,0.052635521,1,-1.679998994,1,0.604647994,1,0.25510177,1,-0.681322753,1,0.196680695,1
2.77201128,-4.797864914,1,-2.505999327,1,-9.68326664,1,0.008856831,1,-1.778278828,1,0.618091166,1,0.254704148,1,-0.68862927,1,0.197491452,1
2.77600956,-5.10296917,1,-2.871205568,1,-9.552956581,1,-0.047270894,1,-1.876963615,1,0.630244792,1,0.254142284,1,-0.696328878,1,0.198251128,1
2.78000927,-4.66617918,1,-2.413789511,1,-9.6340065,1,-0.065196782,1,-1.980146289,1,0.646384895,1,0.253460884,1,-0.704427958,1,0.198951378,1
2.784010649,-5.039208412,1,-2.295948982,1,-9.719542503,1,-0.06138432,1,-2.073887825,1,0.66877079,1,0.252774328,1,-0.712945342,1,0.199617594,1
2.788008213,-4.798630714,1,-2.771720648,1,-9.708465576,1,-0.088310711,1,-2.171467781,1,0.69826597,1,0.25201714,1,-0.721836925,1,0.200321421,1
2.792007446,-4.840062618,1,-2.982646704,1,-9.57671833,1,-0.107567921,1,-2.277177811,1,0.724404752,1,0.251034856,1,-0.73100245,1,0.205619082,1
2.796008587,-4.901501179,1,-2.997712135,1,-9.902236938,1,-0.120836183,1,-2.378033161,1,0.75443697,1,0.250069231,1,-0.740736365,1,0.206364453,1
2.800006151,-5.429704666,1,-3.316054344,1,-10.15363789,1,-0.151589498,1,-2.49261713,1,0.80762893,1,0.248950049,1,-0.7509588,1,0.207215413,1
2.804005623,-5.46580267,1,-3.714639187,1,-10.02069569,1,-0.18359156,1,-2.588825941,1,0.862438858,1,0.247580692,1,-0.761625707,1,0.208230048,1
2.808007479,-4.928490639,1,-3.326323509,1,-10.18809223,1,-0.191060349,1,-2.738452196,1,0.919120193,1,0.246005833,1,-0.772812545,1,0.209408537,1
2.812005043,-4.622431278,1,-3.302212954,1,-10.29389191,1,-0.199064746,1,-2.921723843,1,0.997901797,1,0.244225115,1,-0.784743428,1,0.210802048,1
2.816004276,-4.920506477,1,-3.226032257,1,-10.47142124,1,-0.179612935,1,-3.080055714,1,1.072308302,1,0.242334232,1,-0.797388136,1,0.212392226,1
2.820005655,-4.27579546,1,-3.28235817,1,-10.56920052,1,-0.156980798,1,-3.250645638,1,1.155750275,1,0.240292281,1,-0.810741305,1,0.214282662,1
2.824002981,-4.377634525,1,-3.37735343,1,-10.94087887,1,-0.134299338,1,-3.462342024,1,1.238710761,1,0.238163978,1,-0.824916244,1,0.216423482,1
2.82800293,-4.502335072,1,-3.155929804,1,-11.56912136,1,-0.087299064,1,-3.664981842,1,1.312008619,1,0.235940397,1,-0.839955449,1,0.218830377,1
2.832004547,-4.241250038,1,-3.280718565,1,-12.16081047,1,-0.034392111,1,-3.879550457,1,1.411756516,1,0.233660161,1,-0.855885327,1,0.221546069,1
2.836002827,-3.123580694,1,-3.404861927,1,-12.54278374,1,0.031890932,1,-4.14920187,1,1.515514374,1,0.231342942,1,-0.872826695,1,0.224593908,1
2.84000206,-2.507519484,1,-3.53737092,1,-13.0905695,1,0.103160322,1,-4.455346584,1,1.63447845,1,0.228946194,1,-0.891012549,1,0.228056133,1
2.844003677,-3.190802574,1,-3.632084608,1,-13.81015873,1,0.175721213,1,-4.776515007,1,1.761054039,1,0.226418316,1,-0.910548985,1,0.231996343,1
2.848001242,-4.331172466,1,-4.127985954,1,-13.58630371,1,0.255834788,1,-5.092000961,1,1.854922533,1,0.223830402,1,-0.931416214,1,0.23635599,1
2.852000475,-3.745998144,1,-4.95638752,1,-13.7456274,1,0.318753392,1,-5.406545162,1,1.928675413,1,0.221155807,1,-0.953542709,1,0.241056472,1
2.856008053,-5.282513618,1,-5.492434502,1,-14.01635456,1,0.393041015,1,-5.677127838,1,1.984230042,1,0.218542591,1,-0.976902902,1,0.245963648,1
2.860011578,-7.212162018,1,-6.820206165,1,-14.33520699,1,0.376305878,1,-5.830155373,1,2.064093828,1,0.215660781,1,-1.001145959,1,0.251294076,1
2.864011288,-5.13847971,1,-7.425592422,1,-13.96836948,1,0.346878469,1,-6.130366325,1,2.236484289,1,0.211755112,1,-1.026299596,1,0.257600486,1
2.868013144,-8.082294464,1,-9.032376289,1,-14.94731712,1,0.180461988,1,-6.380131245,1,2.396714449,1,0.206259027,1,-1.052737474,1,0.2652089,1
2.872010946,-11.09314442,1,-9.723166466,1,-14.93011284,1,-0.009623893,1,-6.46304512,1,2.570495367,1,0.198333442,1,-1.079915881,1,0.274646938,1
2.87601018,-9.112182617,1,-9.799368858,1,-14.69232368,1,-0.192411453,1,-6.602517128,1,2.747219086,1,0.187389582,1,-1.107564926,1,0.286493689,1
2.880011559,-10.18544006,1,-8.913424492,1,-15.94692802,1,-0.265169859,1,-6.758873463,1,2.853610754,1,0.173449293,1,-1.135901093,1,0.300909638,1
2.884008646,-15.59212208,1,-7.621330261,1,-16.84021187,1,-0.212541223,1,-6.653037071,1,2.95981741,1,0.156864509,1,-1.164325237,1,0.318032265,1
2.888008595,-14.01704502,1,-8.348641396,1,-16.75352669,1,-0.236564666,1,-6.552371025,1,3.174608469,1,0.135926217,1,-1.192199588,1,0.339731663,1
2.892010212,-12.82866764,1,-8.25222683,1,-16.77700424,1,-0.274445295,1,-6.531642437,1,3.293203354,1,0.109611407,1,-1.219747782,1,0.366807818,1
2.896007776,-16.68374825,1,-8.890174866,1,-17.18453789,1,-0.292524278,1,-6.476902962,1,3.350798607,1,0.077696718,1,-1.246932268,1,0.399403334,1
2.90000701,-17.94790077,1,-9.894404411,1,-17.56912613,1,-0.322153211,1,-6.229721546,1,3.466156483,1,0.038804561,1,-1.273119807,1,0.438980997,1
2.90400815,-16.04501343,1,-12.71841526,1,-17.18266487,1,-0.436187863,1,-6.097090721,1,3.621239424,1,-0.009873428,1,-1.297935963,1,0.488131016,1
2.908005714,-19.83860207,1,-15.11542892,1,-16.96323967,1,-0.604934752,1,-5.905426025,1,3.702108622,1,-0.070266351,1,-1.321394324,1,0.548525333,1
2.912005186,-19.19820404,1,-17.08287811,1,-15.39848614,1,-0.915470004,1,-5.626686096,1,3.825080156,1,-0.144878358,1,-1.342710257,1,0.622210443,1
2.916006804,-16.61226845,1,-17.28365135,1,-13.75384617,1,-1.326459289,1,-5.477862358,1,3.919377089,1,-0.236796603,1,-1.361585021,1,0.711797893,1
2.920004845,-17.42254448,1,-15.80435848,1,-13.0901804,1,-1.80161345,1,-5.239521027,1,3.922415018,1,-0.34722352,1,-1.377654552,1,0.81811142,1
2.924004078,-18.11445999,1,-12.94113636,1,-12.25760651,1,-2.149514198,1,-4.897740841,1,3.778804541,1,-0.472548187,1,-1.390155554,1,0.937556863,1
2.928005457,-13.57997608,1,-10.42682838,1,-10.18055153,1,-2.464910269,1,-4.529202461,1,3.756998777,1,-0.608733714,1,-1.39855814,1,1.066499829,1
2.932002783,-9.604448318,1,-4.813613892,1,-12.28691483,1,-2.564787388,1,-4.082978725,1,3.58774066,1,-0.748875737,1,-1.402787328,1,1.198375463,1
2.936002016,-10.03724289,1,-0.167894721,1,-16.30412865,1,-2.062771082,1,-3.460582495,1,3.255172968,1,-0.878692269,1,-1.403193116,1,1.320498824,1
2.940003395,-13.85761547,1,-1.554391026,1,-19.94697952,1,-1.327376485,1,-2.765105247,1,2.93098855,1,-0.987527251,1,-1.400677919,1,1.424048781,1
2.944000721,-11.41748428,1,-4.5485816,1,-19.00702858,1,-0.800482333,1,-2.252605677,1,2.6818223,1,-1.073661327,1,-1.396209121,1,1.507215381,1
2.948006392,-10.57224846,1,-2.720491648,1,-16.5254631,1,-0.266291112,1,-2.157417059,1,2.397399426,1,-1.14502871,1,-1.39093256,1,1.577433586,1
2.952008486,-12.4615202,1,-5.53669548,1,-16.18857765,1,0.472536385,1,-1.92880249,1,2.211391211,1,-1.205174446,1,-1.385714531,1,1.639129162,1
2.956011772,-6.551566124,1,-10.08544159,1,-16.22769547,1,0.582235456,1,-1.426062346,1,2.131356478,1,-1.251423597,1,-1.379756331,1,1.68851006,1
2.960011244,-1.159311295,1,-11.77652264,1,-14.56517315,1,0.470425099,1,-1.09922564,1,2.010133982,1,-1.286049485,1,-1.373314857,1,1.725932598,1
2.964012623,-1.180852771,1,-11.8814764,1,-12.32651329,1,0.442094922,1,-1.054154515,1,1.92047143,1,-1.314679265,1,-1.366920948,1,1.75701046,1
2.968009949,-6.320775986,1,-11.66146946,1,-12.7343359,1,0.28606689,1,-0.958282351,1,1.919898868,1,-1.340939999,1,-1.360445261,1,1.7853688,1
2.972009182,-8.709068298,1,-11.17888641,1,-13.43408012,1,0.058237646,1,-0.538663745,1,1.834751248,1,-1.361552,1,-1.353750825,1,1.807154417,1
2.976011038,-7.09803915,1,-10.17652988,1,-13.37270641,1,-0.061135344,1,-0.034500942,1,1.616491914,1,-1.372834206,1,-1.347195148,1,1.818665504,1
2.980009079,-5.897551537,1,-9.760586739,1,-12.62354279,1,-0.092943504,1,0.402997822,1,1.367793202,1,-1.375037313,1,-1.341193676,1,1.820604682,1
2.984008789,-5.276811123,1,-9.190019608,1,-12.26966286,1,-0.151684344,1,0.787920654,1,1.139985204,1,-1.36978519,1,-1.33580935,1,1.814713001,1
2.98800993,-3.691010714,1,-8.416809082,1,-12.07222652,1,-0.22017248,1,1.127269983,1,0.922738373,1,-1.358487606,1,-1.330979705,1,1.802322745,1
2.992007256,-1.5968889,1,-7.514380932,1,-11.47772026,1,-0.26325953,1,1.391777635,1,0.709156871,1,-1.342343688,1,-1.326689124,1,1.784680963,1
2.996006727,0.342109352,1,-6.652232647,1,-10.66127491,1,-0.26185596,1,1.56473732,1,0.496394932,1,-1.322681665,1,-1.322955012,1,1.763324857,1
3.000007868,1.728331923,1,-5.799261093,1,-9.94116497,1,-0.234788194,1,1.675698161,1,0.31599772,1,-1.300712228,1,-1.319731236,1,1.739623547,1
3.004005432,2.784396887,1,-4.977912903,1,-9.253223419,1,-0.168992043,1,1.734635234,1,0.147397414,1,-1.277074337,1,-1.316950321,1,1.714362741,1
3.008005142,3.41075778,1,-4.188089848,1,-8.827994347,1,-0.088600397,1,1.763069272,1,-0.018911598,1,-1.252311468,1,-1.314595819,1,1.688230157,1
3.012006998,3.780451775,1,-3.614009142,1,-8.513630867,1,0.0197729,1,1.772083163,1,-0.183022901,1,-1.226529479,1,-1.312677264,1,1.661423683,1
3.016004801,3.991392612,1,-3.273575544,1,-8.227116585,1,0.131269217,1,1.776121497,1,-0.336648971,1,-1.199739099,1,-1.311160564,1,1.634019852,1
3.020004272,4.107351303,1,-3.10823226,1,-7.98960638,1,0.237422734,1,1.787712812,1,-0.481745362,1,-1.171841741,1,-1.30999732,1,1.605918407,1
3.024005651,3.985008955,1,-3.036294937,1,-7.797394753,1,0.324740261,1,1.797327638,1,-0.629408062,1,-1.142798781,1,-1.30916667,1,1.577026248,1
3.028003216,3.638568401,1,-2.997131348,1,-7.670915604,1,0.400510401,1,1.823230624,1,-0.763400435,1,-1.112492681,1,-1.308579206,1,1.547161818,1
3.032002926,3.161504984,1,-3.032017469,1,-7.674911976,1,0.45627746,1,1.86658287,1,-0.899288893,1,-1.080669165,1,-1.308171511,1,1.515980124,1
3.036004305,2.536088705,1,-3.141731739,1,-7.716239452,1,0.485555589,1,1.935508132,1,-1.023599267,1,-1.047118187,1,-1.307844043,1,1.483186126,1
3.040002108,2.057291031,1,-3.110829592,1,-7.730398655,1,0.492969394,1,2.028706551,1,-1.148585439,1,-1.011597872,1,-1.307478547,1,1.448439956,1
3.044001579,1.587719321,1,-3.074436426,1,-7.821322918,1,0.490815133,1,2.134604454,1,-1.273425579,1,-0.972748339,1,-1.306953669,1,1.41485846,1
3.048003435,1.211921096,1,-2.963088989,1,-7.945367813,1,0.484948903,1,2.258677483,1,-1.391339183,1,-0.932905972,1,-1.306207657,1,1.375603199,1
3.052006721,0.941678166,1,-2.869323492,1,-8.102871895,1,0.476982743,1,2.391124725,1,-1.500129342,1,-0.890826881,1,-1.305095792,1,1.333996296,1
3.056006193,0.615062058,1,-2.716255665,1,-8.272707939,1,0.474694073,1,2.529146433,1,-1.618238807,1,-0.846638322,1,-1.303508282,1,1.290156841,1
3.060007334,0.3464019,1,-2.494889498,1,-8.376533508,1,0.475731462,1,2.666021347,1,-1.718427777,1,-0.800551713,1,-1.301339865,1,1.244326353,1
3.064004898,-0.029488999,1,-2.27175355,1,-8.537824631,1,0.497603089,1,2.810024023,1,-1.815496802,1,-0.752804756,1,-1.298490763,1,1.196795464,1
3.068004131,-0.387052953,1,-2.043836594,1,-8.670635223,1,0.536437213,1,2.951206923,1,-1.913832784,1,-0.703661144,1,-1.294851542,1,1.147894025,1
3.072005272,-0.860479891,1,-1.82961607,1,-8.777154922,1,0.586958587,1,3.102368116,1,-2.011631727,1,-0.653429329,1,-1.290352702,1,1.097989678,1
3.076002836,-1.214748144,1,-1.764720082,1,-8.793827057,1,0.640148878,1,3.253235817,1,-2.106828213,1,-0.602400064,1,-1.284906745,1,1.047403812,1
3.080002546,-1.592519403,1,-1.720826387,1,-8.83731842,1,0.69083178,1,3.403528929,1,-2.196094275,1,-0.551054776,1,-1.278431296,1,0.996619046,1
3.084003925,-1.881885171,1,-1.825490832,1,-8.770640373,1,0.730013669,1,3.555707932,1,-2.276342154,1,-0.499926746,1,-1.27087009,1,0.946143031,1
3.088001013,-1.958957314,1,-1.882025242,1,-8.72429657,1,0.762583673,1,3.696469069,1,-2.358783484,1,-0.449582636,1,-1.262197375,1,0.896503448,1
3.092000246,-2.205205202,1,-1.910055876,1,-8.643900871,1,0.783497155,1,3.821148396,1,-2.416948795,1,-0.400520444,1,-1.252431512,1,0.848187745,1
3.096001625,-2.413704872,1,-1.950732827,1,-8.548185349,1,0.799261332,1,3.950165033,1,-2.474568605,1,-0.35320425,1,-1.241580367,1,0.801627219,1
3.099998713,-2.377604008,1,-1.808359265,1,-8.566801071,1,0.822786212,1,4.04131937,1,-2.520201921,1,-0.307918847,1,-1.229697347,1,0.757110894,1
3.103998661,-2.632299423,1,-1.784221888,1,-8.642115593,1,0.843952239,1,4.139293671,1,-2.557875395,1,-0.264909744,1,-1.216878176,1,0.714909256,1
3.10800004,-2.870496988,1,-1.523362637,1,-8.834101677,1,0.870589256,1,4.227860451,1,-2.587330103,1,-0.224275813,1,-1.203132391,1,0.67512542,1
3.111997604,-3.011786222,1,-1.213756204,1,-8.856147766,1,0.90441066,1,4.317286491,1,-2.615996361,1,-0.185988203,1,-1.188513517,1,0.637790322,1
3.115997076,-3.533271313,1,-0.993175626,1,-8.812631607,1,0.962447166,1,4.394192219,1,-2.649879694,1,-0.149916053,1,-1.173098207,1,0.602825522,1
3.119998455,-3.892427206,1,-0.818810999,1,-8.857785225,1,1.026774883,1,4.480834484,1,-2.672446489,1,-0.115906328,1,-1.156912684,1,0.570147812,1
3.123996258,-4.318173885,1,-0.85414046,1,-8.929163933,1,1.093082666,1,4.558887959,1,-2.698329926,1,-0.083860181,1,-1.139988661,1,0.539666414,1
3.127995729,-4.674921513,1,-0.991431355,1,-8.98400116,1,1.146582842,1,4.642626762,1,-2.71505785,1,-0.053674724,1,-1.122374535,1,0.51126498,1
3.131998062,-5.045104027,1,-0.974215746,1,-9.013241768,1,1.190372944,1,4.732532501,1,-2.74104619,1,-0.025350729,1,-1.104073524,1,0.484905541,1
3.135996819,-5.072299004,1,-0.924484968,1,-9.048238754,1,1.227307677,1,4.815842628,1,-2.758681297,1,0.00124319,1,-1.08509624,1,0.460427463,1
3.139996529,-5.445932865,1,-1.017876387,1,-8.995304108,1,1.262538195,1,4.88507843,1,-2.781924486,1,0.026243648,1,-1.065546036,1,0.437682033,1
3.143997908,-5.556217194,1,-1.048511386,1,-8.948493958,1,1.28602922,1,4.952152729,1,-2.796800137,1,0.049716424,1,-1.04546082,1,0.416572928,1
3.147995472,-5.575110912,1,-1.035218477,1,-8.998431206,1,1.306924701,1,5.009468555,1,-2.809740543,1,0.071707711,1,-1.024893761,1,0.3970294,1
3.152000666,-5.702925205,1,-0.993154764,1,-9.111920357,1,1.33001256,1,5.053839207,1,-2.814566612,1,0.092357717,1,-1.003903866,1,0.378911912,1
3.156002522,-5.969565392,1,-0.934743941,1,-9.186364174,1,1.350034833,1,5.091999531,1,-2.824344873,1,0.111769781,1,-0.982577622,1,0.362137049,1
3.160000324,-5.972383499,1,-0.786694527,1,-9.263230324,1,1.385776877,1,5.137949467,1,-2.829935074,1,0.130056277,1,-0.96089375,1,0.346614301,1
3.164000034,-6.176403522,1,-0.656450689,1,-9.296334267,1,1.430518866,1,5.153443336,1,-2.83400321,1,0.147408426,1,-0.9389534,1,0.332210094,1
3.16800189,-6.26650095,1,-0.538463533,1,-9.367202759,1,1.477358103,1,5.16413641,1,-2.838746786,1,0.163910642,1,-0.916809082,1,0.318849146,1
3.171999693,-6.412298679,1,-0.480853617,1,-9.524985313,1,1.534130812,1,5.173873425,1,-2.838625908,1,0.179696485,1,-0.894487381,1,0.306441545,1
3.175999165,-6.538151741,1,-0.478897184,1,-9.72628212,1,1.592396855,1,5.173843861,1,-2.846971512,1,0.194873631,1,-0.872041881,1,0.294902146,1
3.180000544,-6.794570923,1,-0.604339778,1,-9.855593681,1,1.643087029,1,5.171023369,1,-2.84993577,1,0.20949775,1,-0.849490762,1,0.284155369,1
3.183997869,-6.948173523,1,-0.740877569,1,-10.01291752,1,1.688072205,1,5.163077354,1,-2.851914167,1,0.223609015,1,-0.826849103,1,0.274152786,1
3.187997103,-7.22134161,1,-0.887552321,1,-10.28939438,1,1.72281611,1,5.158597946,1,-2.863483906,1,0.237243235,1,-0.804145992,1,0.264801443,1
3.19199872,-7.688306332,1,-1.139472008,1,-10.59625912,1,1.739192843,1,5.146328449,1,-2.877902031,1,0.250430703,1,-0.781376362,1,0.25601995,1
3.195996523,-8.109635353,1,-1.334628224,1,-10.97829723,1,1.755405307,1,5.150973797,1,-2.899805307,1,0.263179511,1,-0.758529902,1,0.247750789,1
3.199996233,-8.667715073,1,-1.489864588,1,-11.30834389,1,1.754349709,1,5.159029961,1,-2.935004473,1,0.275532454,1,-0.735546291,1,0.239903674,1
3.203997374,-9.216783524,1,-1.516445875,1,-11.76660919,1,1.74460268,1,5.185124874,1,-2.987462759,1,0.287508935,1,-0.712388694,1,0.232381567,1
3.207995176,-9.611895561,1,-1.678078413,1,-12.1038065,1,1.726855636,1,5.214952469,1,-3.044602394,1,0.299120486,1,-0.688983321,1,0.225148976,1
3.211994648,-9.961569786,1,-1.590143442,1,-12.47230721,1,1.711308002,1,5.251867771,1,-3.109223604,1,0.310392499,1,-0.66531682,1,0.218126521,1
3.215995789,-10.18656063,1,-1.270069242,1,-12.91127014,1,1.707658291,1,5.294929028,1,-3.204574347,1,0.321398497,1,-0.641355574,1,0.211265326,1
3.219993353,-10.19154453,1,-1.541209221,1,-13.08477783,1,1.696020722,1,5.338648796,1,-3.270371675,1,0.332155585,1,-0.617063761,1,0.204556108,1
3.223993301,-10.48256016,1,-1.572576523,1,-13.40137291,1,1.67942369,1,5.365936756,1,-3.356837749,1,0.342660278,1,-0.592479229,1,0.197958857,1
3.22799468,-10.63112736,1,-1.566289306,1,-13.61807156,1,1.673807263,1,5.401679993,1,-3.428838253,1,0.352918148,1,-0.567591012,1,0.191486329,1
3.231992006,-10.91834164,1,-1.6516366,1,-13.82929325,1,1.662711024,1,5.421028614,1,-3.507273197,1,0.362953693,1,-0.542452037,1,0.185112596,1
3.23599124,-11.14013672,1,-1.881532073,1,-14.07949352,1,1.637325883,1,5.426309586,1,-3.576062441,1,0.37272042,1,-0.517119527,1,0.178843766,1
3.239992857,-11.26869869,1,-2.37978816,1,-14.18830109,1,1.561657548,1,5.397744179,1,-3.631772757,1,0.382121682,1,-0.49168402,1,0.172655433,1
3.243990183,-11.69695473,1,-2.407352686,1,-14.48499393,1,1.48050344,1,5.357522011,1,-3.687731028,1,0.391036391,1,-0.466240764,1,0.166517004,1
3.247996092,-12.2530098,1,-2.568442583,1,-14.6625433,1,1.394805908,1,5.303275108,1,-3.737332106,1,0.399460167,1,-0.44084233,1,0.160416692,1
3.251998425,-12.94923401,1,-2.749036789,1,-14.7769165,1,1.305411816,1,5.25512886,1,-3.771422148,1,0.407384157,1,-0.41551882,1,0.154346928,1
3.255996943,-13.64552593,1,-3.137432814,1,-14.84430122,1,1.20064342,1,5.205985069,1,-3.792119265,1,0.414734006,1,-0.39029789,1,0.148370832,1
3.259996176,-14.3748579,1,-3.938295603,1,-14.87734985,1,1.074031353,1,5.152085304,1,-3.7768507,1,0.421443224,1,-0.365223765,1,0.142522007,1
3.263997793,-15.43480968,1,-4.264298439,1,-14.82862854,1,0.94477731,1,5.108460903,1,-3.752295256,1,0.427421093,1,-0.340320289,1,0.13690865,1
3.267995358,-16.69994926,1,-4.358185768,1,-14.68945026,1,0.830586851,1,5.068622112,1,-3.702470541,1,0.432686865,1,-0.315607309,1,0.13155736,1
3.271994829,-17.9702301,1,-3.896169424,1,-14.53685665,1,0.743862271,1,5.018398285,1,-3.638411045,1,0.437333852,1,-0.291131675,1,0.126511246,1
3.275996923,-19.54701424,1,-3.048530102,1,-14.2793169,1,0.719200373,1,4.980707645,1,-3.558829308,1,0.441550076,1,-0.266914219,1,0.121806651,1
3.279994965,-21.21698189,1,-1.870842934,1,-13.91800404,1,0.76016438,1,4.933082581,1,-3.471455097,1,0.445578098,1,-0.242968678,1,0.117469899,1
3.283994675,-22.79639816,1,-1.239060283,1,-12.87210751,1,0.88491559,1,4.915703773,1,-3.357855797,1,0.449735522,1,-0.219308645,1,0.11356955,1
3.287995815,-23.84337807,1,-1.474756598,1,-11.49464607,1,1.05280757,1,4.909667015,1,-3.197557926,1,0.454289615,1,-0.195900202,1,0.110270314,1
3.29199338,-23.71917534,1,-1.607218623,1,-10.41721249,1,1.220052242,1,4.855706215,1,-3.005772352,1,0.460066617,1,-0.172913209,1,0.109228753,1
3.295992851,-23.58030319,1,-2.233476639,1,-8.894431114,1,1.339467525,1,4.763635159,1,-2.778872252,1,0.46548152,1,-0.15052101,1,0.107439399,1
3.29999423,-23.34864807,1,-2.498059988,1,-7.58553791,1,1.39992857,1,4.608209133,1,-2.530429602,1,0.471121758,1,-0.128981665,1,0.106423303,1
3.303991556,-22.88546562,1,-2.388785362,1,-6.403697968,1,1.417189956,1,4.408657074,1,-2.273802757,1,0.476807743,1,-0.108536437,1,0.106098704,1
3.307991266,-22.45843887,1,-1.583286285,1,-5.433970451,1,1.425881743,1,4.149886608,1,-2.030663967,1,0.482456356,1,-0.089351468,1,0.10637112,1
3.311993599,-22.75197983,1,-0.427786231,1,-4.539463043,1,1.459807158,1,3.843455076,1,-1.816428423,1,0.488167942,1,-0.071629912,1,0.107034832,1
3.315992355,-22.9325161,1,0.822137773,1,-3.764100075,1,1.506652951,1,3.521558762,1,-1.633945823,1,0.494033337,1,-0.055385832,1,0.107913256,1
3.319991589,-23.1460247,1,1.863327622,1,-2.960780382,1,1.556332469,1,3.19761467,1,-1.486407995,1,0.500123143,1,-0.04060455,1,0.1088356,1
3.323992729,-23.74460793,1,2.841580629,1,-2.319004536,1,1.592082381,1,2.862823725,1,-1.384857059,1,0.506391764,1,-0.027219169,1,0.109659694,1
3.327990294,-24.21966743,1,3.46654439,1,-1.304144502,1,1.59274745,1,2.545762777,1,-1.318419933,1,0.512769639,1,-0.015145293,1,0.110207371,1
3.331989527,-24.77436638,1,3.362365484,1,-0.540129244,1,1.528951645,1,2.223949909,1,-1.242477775,1,0.519007087,1,-0.004318789,1,0.110468484,1
3.335991859,-25.35560608,1,3.218500376,1,0.266914636,1,1.402255774,1,1.903013825,1,-1.174846292,1,0.524889827,1,0.005252888,1,0.110378623,1
3.339989901,-25.76114082,1,3.533945084,1,1.09848547,1,1.186455369,1,1.590083361,1,-1.108100772,1,0.530087352,1,0.013600503,1,0.109948032,1
3.344001532,-26.72231674,1,3.512319565,1,1.944435,1,0.942537248,1,1.257955909,1,-1.018431067,1,0.534326851,1,0.020676142,1,0.109167196,1
3.348009109,-27.23236084,1,4.445400715,1,2.857204914,1,0.694434762,1,0.940621376,1,-0.937247038,1,0.537580311,1,0.026444321,1,0.108037837,1
3.352013111,-27.70470619,1,4.802292824,1,3.547100306,1,0.440828353,1,0.616397858,1,-0.819305182,1,0.539800286,1,0.030925862,1,0.106616065,1
