Time,inertial-6253.76535:estCompensatedAccelX,inertial-6253.76535:estCompensatedAccelX:valid,inertial-6253.76535:estCompensatedAccelY,inertial-6253.76535:estCompensatedAccelY:valid,inertial-6253.76535:estCompensatedAccelZ,inertial-6253.76535:estCompensatedAccelZ:valid,inertial-6253.76535:estAngularRateX,inertial-6253.76535:estAngularRateX:valid,inertial-6253.76535:estAngularRateY,inertial-6253.76535:estAngularRateY:valid,inertial-6253.76535:estAngularRateZ,inertial-6253.76535:estAngularRateZ:valid,inertial-6253.76535:estRoll,inertial-6253.76535:estRoll:valid,inertial-6253.76535:estPitch,inertial-6253.76535:estPitch:valid,inertial-6253.76535:estYaw,inertial-6253.76535:estYaw:valid
0,-4.993494034,1,-3.716637373,1,-7.608981133,1,0.013836378,1,0.007120227,1,0.006469111,1,0.4470995366573334,1,-0.537971377,1,1.830974817276001,1
0.003999232,-4.969590664,1,-3.723339319,1,-7.623782635,1,0.016030468,1,0.005208263,1,0.006551885,1,0.447134405,1,-0.537959397,1,1.831017494,1
0.008000512,-4.956600189,1,-3.738421917,1,-7.63476038,1,0.009279521,1,0.005657822,1,0.008459562,1,0.4471629858016968,1,-0.537949264,1,1.831051230430603,1
0.011997952,-4.970629215,1,-3.757748842,1,-7.620360851,1,0.011322267,1,0.003928804,1,0.003376471,1,0.4471829533576965,1,-0.537935436,1,1.831091165542603,1
0.01599744,-4.992300987,1,-3.719615936,1,-7.626495361,1,0.007356557,1,0.003912992,1,0.003406169,1,0.4472073018550873,1,-0.537925899,1,1.831121802330017,1
0.01999872,-4.990369797,1,-3.719368219,1,-7.639758587,1,0.004179731,1,0.005907792,1,0.004651024,1,0.4472136497497559,1,-0.537915707,1,1.831156015396118,1
0.023996159,-4.968488693,1,-3.685919285,1,-7.616718769,1,0.005378362,1,0.004066637,1,0.00517216,1,0.44740653,1,-0.537807047,1,1.831404447555542,1
0.027995393,-4.998269558,1,-3.751186371,1,-7.614268303,1,0.002352309,1,0.00565593,1,0.004108149,1,0.4474046528339386,1,-0.537791312,1,1.831436753,1
0.031996671,-4.97595787,1,-3.702528238,1,-7.614498615,1,0.005022369,1,0.004979407,1,0.007527927,1,0.4474030733108521,1,-0.537785172,1,1.831470847129822,1
0.035994112,-5.007275581,1,-3.7257061,1,-7.620901585,1,0.002718173,1,0.007002045,1,0.007113178,1,0.447398841,1,-0.537779033,1,1.831518054008484,1
0.039993346,-4.943331718,1,-3.685786247,1,-7.581133366,1,0.003435308,1,0.00392013,1,0.004343086,1,0.4473882615566254,1,-0.537770092,1,1.831554770469666,1
0.043994624,-4.964865685,1,-3.718615294,1,-7.614834309,1,0.00167145,1,0.004970891,1,0.008491574,1,0.4473799467086792,1,-0.537766039,1,1.83158803,1
0.047992319,-4.985279083,1,-3.729594707,1,-7.622826099,1,2.464134013280272e-05,1,0.00191392,1,0.004427219,1,0.4473603367805481,1,-0.53775537,1,1.831617951393127,1
0.051991552,-4.994037628,1,-3.662782669,1,-7.601044178,1,-0.002468803,1,0.006532385,1,0.000571081,1,0.4473412036895752,1,-0.537748814,1,1.831649541854858,1
0.055992831,-4.965785027,1,-3.66278553,1,-7.620180607,1,-0.001301854,1,0.003734953,1,0.003903561,1,0.447329044,1,-0.537741899,1,1.831671237945557,1
0.059990272,-4.980931759,1,-3.665627718,1,-7.614768982,1,6.462523015215993e-05,1,0.003869375,1,0.004885086,1,0.4473184049129486,1,-0.537733316,1,1.831691741943359,1
0.063989505,-4.95281744,1,-3.670763969,1,-7.599304676,1,-0.000211781,1,0.006463777,1,0.001244562,1,0.4473046958446503,1,-0.537723601,1,1.831709861755371,1
0.067991041,-4.991774559,1,-3.710167646,1,-7.645363808,1,-0.003515077,1,0.007203297,1,3.998470492660999e-05,1,0.4472864866256714,1,-0.537709534,1,1.831728339195251,1
0.071988478,-4.965374947,1,-3.700030804,1,-7.624807358,1,-0.002914885,1,0.002018962,1,-0.001104577,1,0.4472775459289551,1,-0.537693441,1,1.831732273101807,1
0.075993858,-4.944232941,1,-3.711124659,1,-7.637258053,1,0.000328447,1,0.002026872,1,0.00134646,1,0.447271854,1,-0.537684441,1,1.831741929,1
0.079995394,-4.971669674,1,-3.697188139,1,-7.615214825,1,0.002774159,1,-0.002233452,1,0.000924842,1,0.4472781121730804,1,-0.537680566,1,1.831744432449341,1
0.083993085,-4.992324352,1,-3.694516659,1,-7.600183964,1,0.003958259,1,0.001942316,1,0.002134986,1,0.4472795426845551,1,-0.537676513,1,1.831756711006165,1
0.087992318,-4.96577549,1,-3.671300888,1,-7.597476482,1,0.004550906,1,0.002442878,1,0.006110472,1,0.4472866058349609,1,-0.53768456,1,1.831780314445496,1
0.0919936,-4.98888731,1,-3.711063862,1,-7.618350506,1,0.002368819,1,0.002364615,1,0.004172646,1,0.44729507,1,-0.537680686,1,1.831804990768433,1
0.095991038,-4.990564346,1,-3.702270985,1,-7.618525982,1,0.006134775,1,8.051597978919744e-05,1,0.001197785,1,0.447299063,1,-0.537687063,1,1.831820845603943,1
0.099990524,-4.917513371,1,-3.72796607,1,-7.651071072,1,0.004418916,1,0.000371192,1,0.002480107,1,0.4473142027854919,1,-0.537690759,1,1.831829786300659,1
0.103991807,-4.904546738,1,-3.713121414,1,-7.646986485,1,0.005286559,1,0.000707926,1,0.005013833,1,0.4473211765289307,1,-0.537696838,1,1.831846714019775,1
0.107989252,-4.942162991,1,-3.683879137,1,-7.702517033,1,0.006272482,1,-0.000385021,1,0.001439149,1,0.4473384916782379,1,-0.537705123,1,1.831858515739441,1
0.111988738,-4.91505909,1,-3.689217091,1,-7.603106499,1,0.005885223,1,-0.00796705,1,0.003777088,1,0.4473572373390198,1,-0.537721872,1,1.831857919692993,1
0.115990013,-4.95549345,1,-3.667309999,1,-7.640395641,1,0.003336517,1,-0.00757127,1,0.006986249,1,0.4473701417446136,1,-0.53774935,1,1.831859588623047,1
0.119987458,-4.979076862,1,-3.683138132,1,-7.671216011,1,0.007312454,1,-0.006574697,1,-0.000997612,1,0.4474002122879028,1,-0.537777662,1,1.831849575042725,1
0.123986691,-4.958859444,1,-3.656843185,1,-7.669784546,1,0.008764992,1,-0.008850784,1,0.001673926,1,0.4474353790283203,1,-0.537815213,1,1.831842184066772,1
0.127987966,-4.963965416,1,-3.676364422,1,-7.659089565,1,0.007325693,1,-0.01455192,1,0.001892934,1,0.4474855065345764,1,-0.537856579,1,1.831812977790833,1
0.131985664,-4.967033863,1,-3.667957544,1,-7.656669617,1,0.007841472,1,-0.012082093,1,0.003376588,1,0.4475342929363251,1,-0.537908077,1,1.831793069839478,1
0.135984898,-4.954342842,1,-3.714483261,1,-7.647082329,1,0.010267641,1,-0.011994622,1,-0.002867197,1,0.4475872814655304,1,-0.53795141,1,1.831764578819275,1
0.139986172,-4.932416916,1,-3.637855768,1,-7.621392727,1,0.011672201,1,-0.018686241,1,-0.001957516,1,0.4476575255393982,1,-0.538004398,1,1.831716775894165,1
0.143983871,-4.984873295,1,-3.640470266,1,-7.638244629,1,0.012588676,1,-0.017060373,1,-0.002940185,1,0.4477216601371765,1,-0.538066685,1,1.831676721572876,1
0.147983104,-4.989978313,1,-3.741105556,1,-7.60946846,1,0.011176703,1,-0.017063159,1,9.26656648516655e-05,1,0.447793722,1,-0.538123071,1,1.831631183624268,1
0.151984379,-5.007883072,1,-3.797481537,1,-7.556465149,1,0.010912912,1,-0.019608304,1,-0.002854276,1,0.4478668868541718,1,-0.538184762,1,1.831589460372925,1
0.155981824,-4.981080532,1,-3.752953291,1,-7.575781345,1,0.006547659,1,-0.015853778,1,0.001171084,1,0.4479216635227203,1,-0.538241208,1,1.831542969,1
0.159981057,-4.994400501,1,-3.727677107,1,-7.577642441,1,0.007791318,1,-0.01330273,1,-0.000889899,1,0.4479563236236572,1,-0.538293362,1,1.831515431404114,1
0.163982332,-4.990464211,1,-3.755699158,1,-7.595258236,1,0.002243301,1,-0.013429501,1,0.000996066,1,0.4479879140853882,1,-0.538351834,1,1.831486463546753,1
0.167979777,-4.978375435,1,-3.730460644,1,-7.565958023,1,0.00134874,1,-0.010847129,1,0.004870488,1,0.4480059146881104,1,-0.538398445,1,1.831468224525452,1
0.171979517,-4.966374874,1,-3.68713212,1,-7.562737942,1,-0.004700682,1,-0.012370058,1,0.000512986,1,0.4480174779891968,1,-0.538444579,1,1.831444025039673,1
0.17598106,-5.011834145,1,-3.682761431,1,-7.606838703,1,-0.001322382,1,-0.006571214,1,0.001964426,1,0.4480149149894714,1,-0.538488567,1,1.831429004669189,1
0.17997849,-5.025251389,1,-3.681859255,1,-7.585878372,1,-0.004924176,1,-0.009924005,1,0.003523962,1,0.448011577,1,-0.538528144,1,1.831418395042419,1
0.183977723,-5.020166397,1,-3.726226091,1,-7.583429813,1,0.001214929,1,-0.006641093,1,2.193101681768894e-05,1,0.4480085968971252,1,-0.538557649,1,1.831409215927124,1
0.187979266,-5.008336544,1,-3.669671774,1,-7.629671574,1,-0.00393267,1,-0.003291486,1,0.002156824,1,0.4480082392692566,1,-0.53859055,1,1.831392884254456,1
0.191976711,-4.980144978,1,-3.67058301,1,-7.61800766,1,-0.002643311,1,-0.006792639,1,0.000916417,1,0.4480009078979492,1,-0.538609385,1,1.831382751464844,1
0.195982084,-4.988778114,1,-3.631441116,1,-7.644694328,1,-0.001044271,1,-0.0095246,1,0.002210367,1,0.4480053186416626,1,-0.538631916,1,1.831368207931519,1
0.199983612,-5.006346703,1,-3.669466019,1,-7.633870602,1,-0.001101744,1,-0.00629663,1,-0.00248969,1,0.4480119347572327,1,-0.538662136,1,1.831343889,1
0.203981057,-4.980881691,1,-3.665612936,1,-7.618191242,1,-0.001781222,1,-0.007022889,1,-0.00227555,1,0.4480115175247192,1,-0.538678765,1,1.831330895423889,1
0.207980543,-4.997563839,1,-3.681919575,1,-7.633009434,1,-0.002374948,1,-0.00867311,1,-0.00355336,1,0.4480229616165161,1,-0.538697541,1,1.831300139427185,1
0.211981818,-4.990709305,1,-3.620058537,1,-7.626133442,1,0.001137805,1,-0.005977106,1,-0.003543696,1,0.4480375647544861,1,-0.538707137,1,1.831277609,1
0.215979263,-4.93457365,1,-3.670534372,1,-7.620189667,1,0.002890921,1,-0.010191584,1,-0.00281414,1,0.4480597674846649,1,-0.538726807,1,1.831251144,1
0.21997875,-4.969817162,1,-3.652785778,1,-7.630651474,1,0.004009854,1,-0.007951332,1,-0.00172916,1,0.4480840563774109,1,-0.538750887,1,1.831223130226135,1
0.223980039,-5.006586552,1,-3.664648294,1,-7.642101765,1,0.004600542,1,-0.007721872,1,-0.000815754,1,0.4481107890605927,1,-0.53877461,1,1.831192135810852,1
0.22797747,-4.974142075,1,-3.694434166,1,-7.630133152,1,0.00702141,1,-0.012389529,1,-0.003901623,1,0.4481425583362579,1,-0.538803816,1,1.831162691116333,1
0.231976703,-4.963041782,1,-3.721135378,1,-7.648849964,1,0.00221294,1,-0.012290889,1,0.000117089,1,0.4481753706932068,1,-0.53884542,1,1.831137180328369,1
0.235977978,-4.926683426,1,-3.69351387,1,-7.61517334,1,0.010406199,1,-0.012595694,1,0.001475116,1,0.4482160806655884,1,-0.538886011,1,1.831104755401611,1
0.239975423,-4.950820923,1,-3.661340237,1,-7.653789043,1,0.008953721,1,-0.015001019,1,0.00087525,1,0.4482563734054565,1,-0.538932025,1,1.831081390380859,1
0.243974656,-4.942317486,1,-3.708275795,1,-7.635000706,1,0.009370222,1,-0.01074524,1,0.00452295,1,0.448293924,1,-0.53898102,1,1.831058502197266,1
0.247975931,-4.958021641,1,-3.769274235,1,-7.57595396,1,0.005572136,1,-0.011667525,1,0.004280481,1,0.4483173489570618,1,-0.539032936,1,1.831044078,1
0.251973391,-4.980885029,1,-3.783786774,1,-7.602928162,1,0.003169553,1,-0.015056705,1,-0.00264929,1,0.4483368992805481,1,-0.539090395,1,1.831033587,1
0.255972594,-4.980602741,1,-3.777779579,1,-7.579737186,1,0.000111509,1,-0.01258162,1,0.00813554,1,0.4483503699302673,1,-0.53914547,1,1.831011652946472,1
0.259974152,-4.967253685,1,-3.749142408,1,-7.623088837,1,-0.002505026,1,-0.010770779,1,0.008604547,1,0.4483526647090912,1,-0.539204955,1,1.831010818481445,1
0.263971597,-4.977056026,1,-3.713816404,1,-7.610346317,1,-0.000342691,1,-0.012873592,1,0.010814744,1,0.4483460485935211,1,-0.539261937,1,1.831016182899475,1
0.26797083,-4.979500294,1,-3.693574667,1,-7.605841637,1,-0.002521694,1,-0.016052548,1,0.003043761,1,0.448340505,1,-0.53932476,1,1.831011533737183,1
0.271972358,-4.971990585,1,-3.697038889,1,-7.606158733,1,5.574262468144298e-05,1,-0.009708539,1,0.004186624,1,0.4484178423881531,1,-0.539240062,1,1.83090353,1
0.275969803,-5.02553463,1,-3.65080595,1,-7.606250286,1,-0.000582625,1,-0.014784898,1,0.003080938,1,0.4485052824020386,1,-0.539320409,1,1.831201076507568,1
0.279969037,-4.99293375,1,-3.732727289,1,-7.601409435,1,-0.001096212,1,-0.008903169,1,0.003011063,1,0.4485101997852325,1,-0.539367735,1,1.831188082695007,1
0.283970565,-5.022243023,1,-3.699122906,1,-7.574654579,1,0.000842144,1,-0.012745181,1,0.005407516,1,0.4485139846801758,1,-0.539415538,1,1.831185817718506,1
0.28796801,-5.015810013,1,-3.713494301,1,-7.612293243,1,-0.000414978,1,-0.010919013,1,0.000338078,1,0.4485086500644684,1,-0.539463639,1,1.831182479858398,1
0.291967481,-5.00838995,1,-3.731601,1,-7.62658596,1,6.265239790081978e-05,1,-0.000409079,1,0.003410836,1,0.4485094845294952,1,-0.539493859,1,1.831182956695557,1
0.295968771,-5.021642208,1,-3.735035419,1,-7.578465939,1,0.004305082,1,-0.011721046,1,0.005937471,1,0.4485096037387848,1,-0.539535165,1,1.831185102462769,1
0.299966216,-5.021224976,1,-3.690019608,1,-7.560897827,1,0.000257934,1,-0.007408396,1,0.00327124,1,0.448500931,1,-0.539570689,1,1.831197261810303,1
0.303965688,-5.007033825,1,-3.723151922,1,-7.555647373,1,0.002150791,1,-0.003961596,1,0.006030858,1,0.4484972655773163,1,-0.53960377,1,1.831202030181885,1
0.307966977,-5.004099846,1,-3.700326204,1,-7.575414181,1,0.000240399,1,-0.010126547,1,0.00030209,1,0.4484951496124268,1,-0.539633334,1,1.831211090087891,1
0.311964422,-4.997197151,1,-3.693562269,1,-7.596221924,1,0.002349669,1,-0.003507985,1,0.005280999,1,0.4484951198101044,1,-0.539665878,1,1.831219196,1
0.315969795,-4.988665581,1,-3.666368723,1,-7.614076138,1,-0.002488633,1,-0.00310072,1,0.005887316,1,0.4484835565090179,1,-0.539688647,1,1.831232666969299,1
0.319971085,-5.013486862,1,-3.685207367,1,-7.613920212,1,0.001509285,1,-0.002578955,1,0.006970359,1,0.4484783411026001,1,-0.53971231,1,1.831244468688965,1
0.323968768,-5.022323608,1,-3.694064856,1,-7.593754768,1,0.001314078,1,-0.002937473,1,0.002886909,1,0.4484736323356628,1,-0.539730489,1,1.831257104873657,1
0.327968001,-5.01949358,1,-3.686785221,1,-7.59931469,1,6.758025847375393e-06,1,-0.00375346,1,0.004716124,1,0.4484702944755554,1,-0.539751947,1,1.831266283988953,1
0.331969291,-4.991148472,1,-3.692288637,1,-7.586868763,1,-0.001596355,1,-0.005032811,1,0.004878675,1,0.4484619200229645,1,-0.539772928,1,1.831282138824463,1
0.335966974,-4.985789776,1,-3.698421717,1,-7.627095222,1,-0.000635982,1,-0.005411066,1,0.004435761,1,0.4484581351280212,1,-0.53979367,1,1.831301689147949,1
0.339966476,-5.016853809,1,-3.677408457,1,-7.604459763,1,0.002562208,1,-0.003466098,1,0.00270979,1,0.4484515190124512,1,-0.539812088,1,1.831310749053955,1
0.343967736,-4.967131138,1,-3.65324378,1,-7.616322041,1,0.000620439,1,-0.003004082,1,0.00423632,1,0.4484474062919617,1,-0.539825022,1,1.831322431564331,1
0.347965181,-4.993759155,1,-3.660339117,1,-7.592569351,1,-0.001026032,1,-0.002776074,1,0.005030381,1,0.448443592,1,-0.53983891,1,1.831331729888916,1
0.351964414,-4.966384888,1,-3.681924582,1,-7.654119968,1,0.001917527,1,-0.001030345,1,0.005940839,1,0.4484407305717468,1,-0.539853454,1,1.831341028213501,1
0.355965942,-4.996143341,1,-3.675546169,1,-7.607988834,1,0.000722354,1,-0.001751199,1,0.003181428,1,0.4484397172927856,1,-0.539860547,1,1.831352353096008,1
0.359963387,-4.992927074,1,-3.71079278,1,-7.632699966,1,0.002109369,1,0.000114566,1,0.004774512,1,0.4484447538852692,1,-0.539875627,1,1.831359863,1
0.36396262,-4.978987694,1,-3.674338102,1,-7.592442513,1,0.000633469,1,-0.001841318,1,-0.000567538,1,0.4484485983848572,1,-0.539889812,1,1.831360220909119,1
0.367964149,-5.007131577,1,-3.685233831,1,-7.613025188,1,0.001869022,1,-0.002564291,1,0.001915555,1,0.4484499990940094,1,-0.53989774,1,1.831356883049011,1
0.371961594,-4.991463661,1,-3.681902647,1,-7.600908279,1,0.000972531,1,-0.00578997,1,0.002753485,1,0.4484503567218781,1,-0.539911389,1,1.831367015838623,1
0.375960827,-5.027159691,1,-3.691061974,1,-7.618572712,1,0.000216534,1,-0.001216853,1,0.001365405,1,0.448456883,1,-0.539926529,1,1.831369638442993,1
0.379962355,-4.997339249,1,-3.689411879,1,-7.624993801,1,0.004593431,1,-0.000842534,1,0.002315419,1,0.4484637677669525,1,-0.53993088,1,1.831377983093262,1
0.3839598,-4.993433952,1,-3.709625006,1,-7.637129307,1,-0.000202605,1,-0.004757338,1,0.000694412,1,0.4484747350215912,1,-0.539945126,1,1.831374645233154,1
0.387959033,-4.973650932,1,-3.780088663,1,-7.621531963,1,-3.53E-06,1,-0.006374739,1,0.004275821,1,0.4484834372997284,1,-0.539962411,1,1.831370592,1
0.391960561,-4.967117786,1,-3.749161243,1,-7.619460583,1,0.000575373,1,-0.003613388,1,0.001770101,1,0.4484846591949463,1,-0.539975464,1,1.831375122070313,1
0.395958006,-4.978038311,1,-3.744336367,1,-7.622607231,1,-4.26E-05,1,-0.007697511,1,0.002181211,1,0.4484853446483612,1,-0.540001571,1,1.831376194953918,1
0.39995724,-4.964536667,1,-3.695051908,1,-7.627384663,1,-0.000183881,1,-0.005323029,1,0.002486611,1,0.448482871,1,-0.540018976,1,1.831378221511841,1
0.403958529,-4.950191975,1,-3.693678379,1,-7.604226589,1,-0.001330897,1,-0.005839107,1,0.006802797,1,0.4484826922416687,1,-0.540047705,1,1.831384539604187,1
0.407956213,-4.943896294,1,-3.698685169,1,-7.601345062,1,0.003054018,1,-0.00747992,1,0.002526672,1,0.4484749734401703,1,-0.540073335,1,1.831394791603088,1
0.411955446,-4.970004082,1,-3.752710819,1,-7.594354153,1,-0.002420126,1,-0.006607648,1,0.005041356,1,0.4484796524047852,1,-0.540105879,1,1.831395983695984,1
0.415957004,-4.989645004,1,-3.760643244,1,-7.600910187,1,-0.000297906,1,-0.003235665,1,0.002523884,1,0.4484688639640808,1,-0.540127873,1,1.831400752067566,1
0.419954687,-4.942020893,1,-3.761637926,1,-7.625622272,1,-0.001172622,1,-0.004865138,1,0.00809719,1,0.4484578669071198,1,-0.540154457,1,1.831411838531494,1
0.423954189,-4.949308872,1,-3.707821608,1,-7.64516449,1,-0.004180361,1,-0.006925222,1,0.003635533,1,0.4484472572803497,1,-0.540185392,1,1.831419944763184,1
0.427955449,-5.025699615,1,-3.686899662,1,-7.651349068,1,-0.002293994,1,-0.005464937,1,0.007844435,1,0.4484291076660156,1,-0.540223897,1,1.831429719924927,1
0.431953162,-4.991903305,1,-3.669587135,1,-7.618368626,1,-0.001606314,1,-0.010173946,1,0.001847571,1,0.4484247863292694,1,-0.540262282,1,1.831431627,1
0.435958534,-5.010280132,1,-3.648943186,1,-7.606228352,1,0.002215806,1,-0.007135054,1,0.005187594,1,0.4484260380268097,1,-0.540297866,1,1.831429719924927,1
0.439960063,-4.984670162,1,-3.641099453,1,-7.62576437,1,0.000502215,1,-0.008506332,1,0.005526305,1,0.4484326839447021,1,-0.54033494,1,1.831430673599243,1
0.443957746,-4.989438057,1,-3.639415264,1,-7.615550518,1,0.006131817,1,-0.010883109,1,0.002290881,1,0.4484512507915497,1,-0.54037565,1,1.831425428390503,1
0.447956979,-4.986011982,1,-3.657810688,1,-7.647415638,1,0.002127266,1,-0.009252532,1,0.005837007,1,0.4484722912311554,1,-0.540417492,1,1.831414461135864,1
0.451958269,-4.967204094,1,-3.712321281,1,-7.610402584,1,0.000145862,1,-0.0113959,1,0.004106672,1,0.4484931230545044,1,-0.540462971,1,1.831399321556091,1
0.455955714,-4.967092037,1,-3.684127569,1,-7.592126846,1,0.006521464,1,-0.012302214,1,0.003036035,1,0.448511004,1,-0.540515423,1,1.831387042999268,1
0.459954947,-4.976243496,1,-3.750425816,1,-7.58878994,1,0.005967636,1,-0.010626435,1,0.003446038,1,0.4485346674919128,1,-0.540562987,1,1.831380844116211,1
0.463956475,-5.001288414,1,-3.716320038,1,-7.59016037,1,0.005686914,1,-0.013032861,1,0.003271931,1,0.4485557079315186,1,-0.540612936,1,1.831376671791077,1
0.46795392,-4.961376667,1,-3.684994698,1,-7.61440134,1,0.002155456,1,-0.010594893,1,0.003498465,1,0.4485780596733093,1,-0.540660203,1,1.831366300582886,1
0.471953422,-4.988721371,1,-3.637528419,1,-7.610898018,1,0.006444751,1,-0.011593981,1,0.003307337,1,0.448592871,1,-0.540705562,1,1.831367969512939,1
0.475954682,-4.97329998,1,-3.6421628,1,-7.611715794,1,0.002309522,1,-0.015634472,1,0.002663649,1,0.4486165642738342,1,-0.540753305,1,1.831356167793274,1
0.479952127,-4.989839554,1,-3.657723665,1,-7.622703075,1,0.003646131,1,-0.012965875,1,0.003552971,1,0.4486356377601624,1,-0.54080677,1,1.831351995,1
0.483951628,-5.007623672,1,-3.6602211,1,-7.608064651,1,0.006965473,1,-0.009929878,1,0.005694152,1,0.4486583471298218,1,-0.540856183,1,1.831341505050659,1
0.487952888,-4.955125332,1,-3.729427576,1,-7.639321327,1,0.006988412,1,-0.015463565,1,0.001551381,1,0.4486827850341797,1,-0.540908754,1,1.831332683563232,1
0.491950333,-4.983400822,1,-3.714554071,1,-7.612450123,1,0.004370214,1,-0.01059643,1,0.007787216,1,0.4487021565437317,1,-0.540953159,1,1.831321477890015,1
0.495949835,-4.981580734,1,-3.682176113,1,-7.590302944,1,0.003429947,1,-0.009522808,1,0.007214763,1,0.448713094,1,-0.540999174,1,1.831326723098755,1
0.499951094,-4.995234966,1,-3.753183842,1,-7.597929955,1,0.000815281,1,-0.008677031,1,0.005437307,1,0.4487265646457672,1,-0.541052282,1,1.831331491470337,1
0.503948808,-4.956587791,1,-3.73486042,1,-7.579976082,1,0.004998741,1,-0.008233841,1,0.009114563,1,0.4487323760986328,1,-0.541100502,1,1.831339955329895,1
0.507948279,-4.963592052,1,-3.699257851,1,-7.627797127,1,0.002912955,1,-0.010983051,1,0.011769805,1,0.448731005,1,-0.541150331,1,1.831352353096008,1
0.511949539,-4.970457554,1,-3.67327404,1,-7.621713161,1,-0.003412096,1,-0.010788579,1,0.009265428,1,0.4487248659133911,1,-0.541210711,1,1.831367969512939,1
0.515947282,-4.968056202,1,-3.700905085,1,-7.640151501,1,0.001469552,1,-0.012074231,1,0.010714963,1,0.4487138688564301,1,-0.541266203,1,1.831384301185608,1
0.519946516,-4.92936182,1,-3.735198498,1,-7.608389378,1,-0.002029976,1,-0.013698856,1,0.009980353,1,0.4487006664276123,1,-0.541330993,1,1.831404089927673,1
0.523947775,-4.980745316,1,-3.735042572,1,-7.64514637,1,-0.004376878,1,-0.013727061,1,0.018618589,1,0.4488368332386017,1,-0.541294038,1,1.831629872322083,1
0.52794522,-4.976028919,1,-3.77908349,1,-7.630417824,1,-0.006691624,1,-0.015720155,1,0.012830403,1,0.4487993121147156,1,-0.541362882,1,1.831659078598022,1
0.531944454,-5.006931305,1,-3.78585887,1,-7.590818405,1,-0.009760744,1,-0.012175555,1,0.019386495,1,0.4487330913543701,1,-0.541438282,1,1.831711053848267,1
0.535946012,-5.021391869,1,-3.783068419,1,-7.60389328,1,-0.011953188,1,-0.009407899,1,0.021194644,1,0.4486666023731232,1,-0.541514754,1,1.831760048866272,1
0.539943695,-4.979569435,1,-3.708727837,1,-7.594245434,1,-0.01212108,1,-0.009963507,1,0.01677773,1,0.4485800266265869,1,-0.541588545,1,1.831824541091919,1
0.543942928,-5.01299572,1,-3.67900753,1,-7.5915308,1,-0.011651179,1,-0.010332183,1,0.020701421,1,0.4485017061233521,1,-0.541663766,1,1.831887722015381,1
0.547944427,-5.03490448,1,-3.668160677,1,-7.606675625,1,-0.011419753,1,-0.008381273,1,0.018654713,1,0.448420912,1,-0.541729033,1,1.831950426101685,1
0.551941872,-5.043708801,1,-3.685526371,1,-7.605885506,1,-0.012755137,1,-0.009721125,1,0.01870604,1,0.4483421444892883,1,-0.541792214,1,1.832016229629517,1
0.555947244,-5.031439781,1,-3.651077747,1,-7.584790707,1,-0.011229042,1,-0.007709001,1,0.014713289,1,0.4482676684856415,1,-0.541855037,1,1.832066059112549,1
0.559948802,-5.028052807,1,-3.638404131,1,-7.600176811,1,-0.010162793,1,-0.007571719,1,0.014008174,1,0.4481997191905975,1,-0.54190433,1,1.832111001014709,1
0.563946486,-5.026908875,1,-3.649724245,1,-7.590759754,1,-0.012766332,1,-0.005523073,1,0.01565467,1,0.4481367170810699,1,-0.541953325,1,1.832156777381897,1
0.567945957,-5.050328732,1,-3.656471014,1,-7.602398872,1,-0.006272719,1,-0.005586942,1,0.015412129,1,0.4480812549591064,1,-0.541994452,1,1.832201957702637,1
0.571947277,-5.014789581,1,-3.656262159,1,-7.631499767,1,-0.004476644,1,-0.006401442,1,0.012773314,1,0.4480363130569458,1,-0.542042375,1,1.832249045372009,1
0.575944722,-4.996008873,1,-3.685672522,1,-7.608443737,1,-0.006374866,1,-0.005084239,1,0.012687758,1,0.4479961097240448,1,-0.542079926,1,1.832295775413513,1
0.579944193,-4.974624157,1,-3.69751668,1,-7.624720097,1,-0.003608865,1,-0.005591057,1,0.010432065,1,0.4479540884494781,1,-0.542120099,1,1.832329750061035,1
0.583945453,-4.94982481,1,-3.668325901,1,-7.591598988,1,-0.00162085,1,-0.006254129,1,0.012874141,1,0.4479248821735382,1,-0.542164803,1,1.832364797592163,1
0.587942898,-4.935878754,1,-3.691873312,1,-7.632807255,1,-0.001958824,1,-0.005390213,1,0.016072145,1,0.4478859901428223,1,-0.542210221,1,1.832416176795959,1
0.59194243,-4.998327732,1,-3.713634729,1,-7.634198666,1,-0.006382118,1,-0.006621801,1,0.013297029,1,0.447844923,1,-0.542253315,1,1.832466244697571,1
0.595943689,-5.005172253,1,-3.692219019,1,-7.591293335,1,-0.000762402,1,-0.003024811,1,0.018843383,1,0.4478060901165009,1,-0.542301595,1,1.832512497901917,1
0.599941373,-5.035002708,1,-3.691585779,1,-7.62351799,1,-0.006043465,1,-0.00899563,1,0.017316736,1,0.4477626383304596,1,-0.542358994,1,1.832565784454346,1
0.603940606,-5.006564617,1,-3.677353382,1,-7.622437954,1,-0.005721935,1,-0.012780057,1,0.015449632,1,0.4477172493934631,1,-0.542417407,1,1.832622647285461,1
0.607941866,-4.985522747,1,-3.679393768,1,-7.610076904,1,-0.00628294,1,-0.00850058,1,0.015501391,1,0.4476659297943115,1,-0.542483509,1,1.832669615745544,1
0.611939311,-5.049156189,1,-3.658320665,1,-7.617491722,1,-0.001643565,1,-0.007673525,1,0.016034162,1,0.4476189315319061,1,-0.542549312,1,1.832722425460815,1
0.615938544,-5.00979805,1,-3.662200451,1,-7.591797829,1,-0.005246914,1,-0.008979491,1,0.017475152,1,0.4475806355476379,1,-0.542611003,1,1.832768917,1
0.619939864,-5.021015644,1,-3.63763237,1,-7.606115818,1,-0.00631575,1,-0.00974969,1,0.016068505,1,0.4475377798080444,1,-0.542669952,1,1.832818269729614,1
0.623937309,-5.026941299,1,-3.625389576,1,-7.604721546,1,-0.003205871,1,-0.009585669,1,0.014218163,1,0.4474962055683136,1,-0.542724133,1,1.832856536,1
0.627936482,-5.020161152,1,-3.651279449,1,-7.590875626,1,-0.004597328,1,-0.004164105,1,0.013787773,1,0.4474626183509827,1,-0.542781115,1,1.832897067070007,1
0.63193804,-5.032609463,1,-3.667223692,1,-7.604825497,1,-0.000765452,1,-0.010835906,1,0.012355522,1,0.4474363923072815,1,-0.542825103,1,1.832928181,1
0.635935724,-5.030266285,1,-3.673960209,1,-7.596171856,1,-0.000144126,1,-0.00847906,1,0.006985971,1,0.447415829,1,-0.542868257,1,1.832946181297302,1
0.639934957,-4.986679554,1,-3.638896942,1,-7.565373421,1,-0.002105443,1,-0.002747275,1,0.004692979,1,0.4474007487297058,1,-0.542890429,1,1.832967758178711,1
0.643936515,-5.008982658,1,-3.652398348,1,-7.563544273,1,0.000763244,1,-0.003127187,1,0.007561072,1,0.4473894834518433,1,-0.542916238,1,1.832989454269409,1
0.64793396,-5.050506115,1,-3.662760258,1,-7.606259823,1,-0.001730474,1,-0.000917897,1,0.005039643,1,0.4473722279071808,1,-0.542932451,1,1.833010196685791,1
0.651933193,-5.026146889,1,-3.664861202,1,-7.583380222,1,-0.001709458,1,-0.005263011,1,0.006627364,1,0.4473574459552765,1,-0.542956352,1,1.833036780357361,1
0.655934691,-5.021049023,1,-3.686402321,1,-7.598527431,1,-0.000421041,1,0.00066616,1,0.001153676,1,0.4473429322242737,1,-0.542968988,1,1.833044052124023,1
0.659932435,-5.019015312,1,-3.6873281,1,-7.606155872,1,-0.000246215,1,0.00100392,1,0.004882162,1,0.447326273,1,-0.542972684,1,1.833066940307617,1
0.663931906,-5.020097256,1,-3.696005583,1,-7.588499546,1,-0.006101839,1,0.001077316,1,0.00193447,1,0.4473055005073547,1,-0.542970061,1,1.833086490631104,1
0.667933464,-5.006860256,1,-3.663340569,1,-7.595385075,1,-0.005316822,1,0.003421523,1,0.00317389,1,0.4472746253013611,1,-0.542962968,1,1.833103895187378,1
0.671931148,-5.02581358,1,-3.648036242,1,-7.58550024,1,-0.003909896,1,0.005780055,1,0.004038844,1,0.4472449719905853,1,-0.542958021,1,1.833124876022339,1
0.67593652,-5.056416512,1,-3.62133646,1,-7.59262991,1,-0.007749688,1,0.012106644,1,0.003605713,1,0.4472096860408783,1,-0.542936265,1,1.833156108856201,1
0.679938018,-4.994585991,1,-3.641474485,1,-7.580397606,1,-0.000779007,1,0.002657916,1,0.001566189,1,0.4471842646598816,1,-0.542916477,1,1.833184599876404,1
0.683935761,-5.042726994,1,-3.617060661,1,-7.617178917,1,-0.00253602,1,0.007565706,1,0.000176422,1,0.4471659958362579,1,-0.542898059,1,1.833201169967651,1
0.687935233,-5.024574757,1,-3.648075819,1,-7.577831268,1,0.000195969,1,0.007404847,1,0.003156598,1,0.4471473693847656,1,-0.542879581,1,1.833227515220642,1
0.691936493,-5.002891541,1,-3.657786608,1,-7.600337029,1,-0.004191687,1,0.008503419,1,0.005056289,1,0.44712764,1,-0.542861283,1,1.833254456520081,1
0.695934236,-4.970047474,1,-3.655468941,1,-7.669529438,1,-0.00092808,1,0.003381794,1,-0.001134379,1,0.4471073150634766,1,-0.542848289,1,1.833270311355591,1
0.699933469,-4.947850227,1,-3.692980766,1,-7.632778168,1,0.001483823,1,0.003563368,1,0.00297763,1,0.4471009075641632,1,-0.542827427,1,1.833284974098206,1
0.703934729,-4.9810853,1,-3.656968355,1,-7.627207279,1,-0.001278559,1,0.000700594,1,-0.000113231,1,0.4470982551574707,1,-0.542820752,1,1.833299994468689,1
0.707932174,-5.021373749,1,-3.678051949,1,-7.626070976,1,0.004816294,1,0.000514847,1,-4.16E-06,1,0.4471091628074646,1,-0.54281354,1,1.833300113677979,1
0.711931407,-5.007921696,1,-3.674111843,1,-7.620425701,1,0.002051252,1,0.000573504,1,0.002958237,1,0.4471138119697571,1,-0.542814851,1,1.833309888839722,1
0.715932667,-5.001352787,1,-3.65912652,1,-7.641194344,1,0.005967859,1,0.000852663,1,0.003351304,1,0.447130024,1,-0.542815983,1,1.833313941955566,1
0.719930351,-4.997313023,1,-3.670398474,1,-7.64542532,1,0.00468818,1,-0.000789243,1,0.00195932,1,0.4471407830715179,1,-0.542817056,1,1.833322882652283,1
0.723929882,-4.998252869,1,-3.668160439,1,-7.632742882,1,0.007895953,1,-0.002955465,1,0.003529894,1,0.447162002,1,-0.542823136,1,1.833324432373047,1
0.72793138,-5.008831501,1,-3.653684378,1,-7.615293503,1,0.006484103,1,-0.00383384,1,0.004250146,1,0.4471834897994995,1,-0.542835414,1,1.833328127861023,1
0.731928825,-5.012489319,1,-3.672613859,1,-7.65108633,1,0.005734038,1,-0.005307448,1,-0.001129907,1,0.4472045004367828,1,-0.542856991,1,1.833326101303101,1
0.735928059,-5.015209675,1,-3.665488958,1,-7.619875908,1,0.00322969,1,-0.00630792,1,0.005173416,1,0.4472204446792603,1,-0.542875826,1,1.833332657814026,1
0.739929616,-4.985085487,1,-3.68738699,1,-7.617162704,1,0.001403567,1,-0.001605791,1,0.000655538,1,0.4472351670265198,1,-0.542897105,1,1.833340048789978,1
0.743927062,-4.984719753,1,-3.652493715,1,-7.600455761,1,0.003534588,1,-0.002436134,1,0.005735461,1,0.4472507536411285,1,-0.542910874,1,1.833343029022217,1
0.747926533,-4.993823528,1,-3.677904367,1,-7.595888138,1,0.003010154,1,-0.00534225,1,0.002718659,1,0.4472600221633911,1,-0.542930961,1,1.833351254463196,1
0.751928091,-5.011591434,1,-3.686371565,1,-7.611887455,1,0.005738142,1,-0.00217588,1,0.003284042,1,0.4472677707672119,1,-0.542963326,1,1.833353996276855,1
0.755925775,-4.996337414,1,-3.709617376,1,-7.59629488,1,0.001387126,1,-0.006530222,1,0.006252185,1,0.4472672939300537,1,-0.542976558,1,1.833370447158813,1
0.759925246,-5.012622833,1,-3.729674339,1,-7.626635075,1,0.000803021,1,-0.001217666,1,0.004337148,1,0.4472673535346985,1,-0.542999208,1,1.833384275436401,1
0.763926804,-5.015370846,1,-3.700821877,1,-7.583628178,1,-0.002374095,1,-0.002374544,1,0.008441946,1,0.4472552239894867,1,-0.543019831,1,1.833409547805786,1
0.767924249,-5.007714748,1,-3.724324226,1,-7.589890003,1,-0.002152488,1,-0.003652548,1,0.007191914,1,0.44723165,1,-0.543032646,1,1.833434462547302,1
0.771923721,-5.008546829,1,-3.712010384,1,-7.566479206,1,-0.001367625,1,0.001916329,1,0.005440181,1,0.4472566545009613,1,-0.542914033,1,1.833363295,1
0.775925219,-4.983857155,1,-3.712159872,1,-7.63318491,1,-0.002371459,1,-0.00259613,1,0.009127739,1,0.4473241567611694,1,-0.542958021,1,1.833688378334045,1
0.779922962,-4.956524849,1,-3.703693151,1,-7.624501705,1,-0.00457154,1,-0.003233698,1,0.007761893,1,0.4472926557064056,1,-0.542978644,1,1.833719491958618,1
0.783922195,-4.992306232,1,-3.65636611,1,-7.624946117,1,-0.005611399,1,-0.001993782,1,0.008787782,1,0.4472722411155701,1,-0.542999446,1,1.833739638328552,1
0.787923455,-4.973338604,1,-3.675930738,1,-7.623981953,1,-0.002979545,1,-0.00392427,1,0.0097582,1,0.447242409,1,-0.543026805,1,1.833774805,1
0.7919209,-5.001031399,1,-3.693601847,1,-7.625068188,1,-0.007210003,1,-0.000726868,1,0.010698295,1,0.4472099244594574,1,-0.543049097,1,1.833808541297913,1
0.795926273,-4.99317503,1,-3.69631958,1,-7.622355461,1,-0.000926584,1,-0.00348377,1,0.010168049,1,0.4471741318702698,1,-0.54307574,1,1.833846569061279,1
0.799927831,-4.997831345,1,-3.652318716,1,-7.628221035,1,-0.006043376,1,-0.003252212,1,0.009441745,1,0.4471478164196014,1,-0.543103158,1,1.833875537,1
0.803925514,-4.971885204,1,-3.627396107,1,-7.623095036,1,-0.00055758,1,-0.000895205,1,0.009945157,1,0.4471258521080017,1,-0.543137491,1,1.833902001,1
0.807924986,-4.984785557,1,-3.619973421,1,-7.608333588,1,-0.000718496,1,-0.007204691,1,0.004620066,1,0.4471072554588318,1,-0.54317224,1,1.833917379379272,1
0.811926544,-5.013289928,1,-3.670458078,1,-7.621285915,1,-0.001547537,1,-0.006782983,1,0.009410257,1,0.4470942914485931,1,-0.543200016,1,1.833941102027893,1
0.815924227,-4.99173975,1,-3.674492836,1,-7.631882668,1,-0.000572136,1,-0.007053356,1,0.005907072,1,0.4470891058444977,1,-0.543240368,1,1.833947062492371,1
0.81992346,-5.010378361,1,-3.675102711,1,-7.611002445,1,-0.002329578,1,-0.00682753,1,0.006679142,1,0.447080672,1,-0.543274701,1,1.833972215652466,1
0.823925018,-5.032055855,1,-3.65801549,1,-7.612220287,1,0.000504392,1,-0.005666528,1,0.004480387,1,0.4470726251602173,1,-0.543312252,1,1.833979606628418,1
0.827922404,-5.012107849,1,-3.618389368,1,-7.59984684,1,-0.002366077,1,-0.003760338,1,0.006723896,1,0.4470635950565338,1,-0.543339074,1,1.833988428115845,1
0.831921637,-5.055939674,1,-3.675657034,1,-7.623318195,1,0.000433202,1,-0.003469144,1,0.008665261,1,0.4470511376857758,1,-0.543364584,1,1.834006428718567,1
0.835923195,-5.021464348,1,-3.627546072,1,-7.597407341,1,0.002093219,1,-0.003343844,1,0.004547389,1,0.4470442533493042,1,-0.543386459,1,1.834016919136047,1
0.83992064,-5.001599789,1,-3.680058002,1,-7.579496384,1,0.002013897,1,-0.006237742,1,0.001111022,1,0.4470485150814056,1,-0.5434044,1,1.834029793739319,1
0.843920112,-4.99678421,1,-3.664247751,1,-7.612164974,1,-0.001134234,1,-0.004507942,1,0.005879556,1,0.4470471739768982,1,-0.543430269,1,1.834037661552429,1
0.847921669,-4.983390808,1,-3.689759731,1,-7.601848125,1,0.00065073,1,-0.004051316,1,0.00258579,1,0.4470459818840027,1,-0.543458045,1,1.834053278,1
0.851919115,-5.021793365,1,-3.693637609,1,-7.603412151,1,0.000631755,1,-0.006502901,1,0.007313107,1,0.4470478594303131,1,-0.543491185,1,1.834066152572632,1
0.855918586,-5.006617069,1,-3.670507193,1,-7.61555624,1,-0.000296087,1,-0.005731329,1,0.005142563,1,0.4470404088497162,1,-0.543520093,1,1.834085822105408,1
0.859919846,-4.989470005,1,-3.664213657,1,-7.624344349,1,-0.000304537,1,-0.005448948,1,0.010023323,1,0.4470372200012207,1,-0.543556094,1,1.834103465080261,1
0.863917291,-4.96154213,1,-3.736027002,1,-7.612064362,1,-0.004446968,1,-0.007764251,1,0.011033421,1,0.4470116496086121,1,-0.543590188,1,1.834137797355652,1
0.867916822,-4.957814217,1,-3.780455589,1,-7.595541477,1,-0.006148827,1,-0.0055699,1,0.017606899,1,0.4469646811485291,1,-0.54363513,1,1.834187150001526,1
0.871918082,-4.990735054,1,-3.804921389,1,-7.611838341,1,-0.014957143,1,-0.003720629,1,0.01599188,1,0.4468861222267151,1,-0.543677509,1,1.834249258041382,1
0.875915766,-5.00752306,1,-3.760493279,1,-7.57861042,1,-0.018675657,1,-0.003549427,1,0.022965223,1,0.4467923641204834,1,-0.543724716,1,1.834314227104187,1
0.879915237,-5.025547028,1,-3.69683218,1,-7.612538338,1,-0.012110855,1,-0.004864676,1,0.016481841,1,0.4466836750507355,1,-0.543768466,1,1.834393978118896,1
0.883916557,-5.036055565,1,-3.679789305,1,-7.6121912,1,-0.016599912,1,-0.004007242,1,0.021194924,1,0.446582556,1,-0.543822229,1,1.834470510482788,1
0.88791424,-5.039563179,1,-3.619015217,1,-7.609897137,1,-0.018941741,1,-0.006233369,1,0.020926319,1,0.4464723765850067,1,-0.543869615,1,1.834546566009521,1
0.891913712,-5.01004982,1,-3.607934713,1,-7.590498447,1,-0.011994158,1,-0.004114233,1,0.017796006,1,0.446367085,1,-0.543917,1,1.834622025489807,1
0.895915031,-5.05253315,1,-3.621265173,1,-7.607683659,1,-0.014036381,1,0.000811313,1,0.01601189,1,0.4462757408618927,1,-0.543951094,1,1.834687471389771,1
0.899912477,-5.011306763,1,-3.613029242,1,-7.639684677,1,-0.011938709,1,-0.003946263,1,0.015563003,1,0.4461936056613922,1,-0.543990254,1,1.834746241569519,1
0.903911948,-4.991056442,1,-3.60999012,1,-7.569922447,1,-0.01142199,1,-0.004422705,1,0.01527343,1,0.4461106657981873,1,-0.544034958,1,1.834800243377686,1
0.907913446,-5.023348808,1,-3.644741774,1,-7.594118118,1,-0.011714444,1,-0.002654665,1,0.012291548,1,0.4460298418998718,1,-0.544077277,1,1.834859132766724,1
0.91191119,-5.027478218,1,-3.618369579,1,-7.590808868,1,-0.015054518,1,-0.002337458,1,0.014632133,1,0.4459563791751862,1,-0.544108868,1,1.834915041923523,1
0.915910423,-4.9936409,1,-3.578029871,1,-7.618103981,1,-0.008628749,1,-0.00316862,1,0.012254774,1,0.4458858668804169,1,-0.544136822,1,1.834964632987976,1
0.91991806,-4.998604298,1,-3.613658905,1,-7.637496948,1,-0.007970868,1,-0.0026888,1,0.012349557,1,0.445834219,1,-0.544170141,1,1.835009098052979,1
0.923921645,-5.016023159,1,-3.621882915,1,-7.624092102,1,-0.008643596,1,-0.002755431,1,0.009995761,1,0.4457785487174988,1,-0.544200659,1,1.835049390792847,1
0.927921414,-5.030044556,1,-3.617866755,1,-7.613595486,1,-0.002190054,1,-0.004143978,1,0.011804705,1,0.4457526504993439,1,-0.544228733,1,1.835078001022339,1
0.931922972,-5.027506828,1,-3.635035992,1,-7.623314857,1,-0.002860767,1,-0.007471635,1,0.008074806,1,0.4457144737243652,1,-0.544257343,1,1.835118055343628,1
0.935920358,-5.062283039,1,-3.63817215,1,-7.621804237,1,-0.003934543,1,-0.007120688,1,0.005124377,1,0.4456906318664551,1,-0.544291496,1,1.835140585899353,1
0.939919889,-5.053661823,1,-3.620674849,1,-7.56924057,1,-0.001920793,1,-0.004923375,1,0.012886771,1,0.4456670880317688,1,-0.544321716,1,1.83517313,1
0.943921149,-5.029863358,1,-3.63745451,1,-7.594369411,1,-0.000519718,1,-0.004008463,1,0.005979794,1,0.4456442594528198,1,-0.544350088,1,1.835199236869812,1
0.947918594,-5.030605793,1,-3.661533117,1,-7.634175301,1,-0.000622621,1,-0.004407738,1,0.005355895,1,0.4456284046173096,1,-0.544370353,1,1.835216999053955,1
0.951917827,-5.05918932,1,-3.654518604,1,-7.602321625,1,-0.000145619,1,-0.000537436,1,0.006871532,1,0.4456203579902649,1,-0.54439503,1,1.835236191749573,1
0.955919385,-4.99819994,1,-3.661646843,1,-7.592652321,1,-0.002723039,1,-0.003072642,1,0.001588021,1,0.4456124305725098,1,-0.544416964,1,1.835249423980713,1
0.95991677,-5.049953938,1,-3.66968751,1,-7.59381628,1,-0.000261326,1,-0.003470476,1,0.006073562,1,0.4455995857715607,1,-0.544434488,1,1.835269689559937,1
0.963916302,-5.000936031,1,-3.663490534,1,-7.60477829,1,-0.001330083,1,-0.001224934,1,0.006196898,1,0.4455851912498474,1,-0.544441402,1,1.835289955,1
0.967917562,-5.006816387,1,-3.68549633,1,-7.634982109,1,-0.000526692,1,-0.004982932,1,0.005218178,1,0.4455811083316803,1,-0.544464052,1,1.835301518440247,1
0.971915245,-5.040662766,1,-3.615741014,1,-7.612120628,1,0.000584934,1,0.003078693,1,0.007122684,1,0.4455725848674774,1,-0.544479251,1,1.835320591926575,1
0.975914478,-5.003845692,1,-3.625218391,1,-7.613472939,1,-0.001397721,1,-0.000212662,1,0.000150194,1,0.4455728530883789,1,-0.54448545,1,1.835327625274658,1
0.979915798,-5.049651623,1,-3.637358427,1,-7.600683212,1,0.000772183,1,-0.001588982,1,0.007421195,1,0.4455722272396088,1,-0.544486761,1,1.835337281227112,1
0.983913481,-5.012639999,1,-3.623638153,1,-7.618618965,1,0.001794147,1,-0.000639981,1,0.00082391,1,0.4455768465995789,1,-0.54450047,1,1.835347175598145,1
0.987912953,-5.041856289,1,-3.621217489,1,-7.585184097,1,0.00156772,1,0.000229163,1,-0.000168462,1,0.4455853402614594,1,-0.544505417,1,1.835354804992676,1
0.991914213,-5.007894993,1,-3.64027071,1,-7.620454788,1,0.001714656,1,-0.004007076,1,-0.001551989,1,0.4456002712249756,1,-0.544508994,1,1.835352897644043,1
0.995911956,-5.042470455,1,-3.613341331,1,-7.592802048,1,0.004016031,1,-0.003738291,1,0.002450075,1,0.4456148147583008,1,-0.54451406,1,1.835351467132568,1
0.999911427,-5.051989555,1,-3.632845402,1,-7.624048233,1,0.005817179,1,-0.002971176,1,-0.004411581,1,0.4456399083137512,1,-0.544515073,1,1.835345626,1
1.003912926,-5.024466991,1,-3.608235121,1,-7.594336987,1,0.006288535,1,0.00206385,1,-0.000492355,1,0.4456762075424194,1,-0.544518709,1,1.835332751274109,1
1.007910609,-5.027532101,1,-3.631736994,1,-7.633367538,1,0.006971873,1,-0.001278985,1,-0.004572721,1,0.445710301,1,-0.544516683,1,1.835315704345703,1
1.011909842,-5.036985874,1,-3.615177155,1,-7.612868309,1,0.009116666,1,-0.001215206,1,-0.003987553,1,0.4457471370697021,1,-0.544512987,1,1.835296869277954,1
1.01591146,-4.999145031,1,-3.608621597,1,-7.610900402,1,0.009038621,1,0.002192856,1,-0.005249196,1,0.4457994997501373,1,-0.544507384,1,1.835279941558838,1
1.019909143,-5.033684731,1,-3.633297682,1,-7.622384548,1,0.013085797,1,-0.002951483,1,-0.004784802,1,0.4458564519882202,1,-0.544492126,1,1.835255026817322,1
1.023908377,-5.01429224,1,-3.665557861,1,-7.643232822,1,0.011642894,1,-0.000348464,1,-0.005414031,1,0.4460352063179016,1,-0.5443663,1,1.835412145,1
1.027909875,-4.967441559,1,-3.652631998,1,-7.620965481,1,0.011320254,1,-0.001312986,1,-0.009036694,1,0.4460999071598053,1,-0.544356287,1,1.835384011268616,1
1.03190732,-4.970095634,1,-3.699460745,1,-7.618035793,1,0.01328096,1,-0.000810293,1,-0.008227543,1,0.4461665749549866,1,-0.54434967,1,1.835348129272461,1
1.035906792,-4.971975803,1,-3.675536871,1,-7.62437439,1,0.011096942,1,-0.002422439,1,-0.006428662,1,0.446232945,1,-0.544347882,1,1.835315227508545,1
1.03991425,-5.006200314,1,-3.704175949,1,-7.605475903,1,0.010978206,1,-0.002229907,1,-0.009332618,1,0.4462958574295044,1,-0.544340551,1,1.835290670394897,1
1.043917775,-5.01565361,1,-3.720990658,1,-7.599457741,1,0.012446433,1,-0.000754906,1,-0.001644292,1,0.4463509023189545,1,-0.544340968,1,1.835270524024963,1
1.047917604,-5.015269756,1,-3.678022385,1,-7.634252071,1,0.010297576,1,0.000640769,1,-0.000755111,1,0.4463942348957062,1,-0.544342041,1,1.835258007049561,1
1.051918864,-5.0216856,1,-3.663774014,1,-7.611310482,1,0.00422934,1,-0.002365084,1,-0.00261678,1,0.4464285671710968,1,-0.544340014,1,1.835250735282898,1
1.055916309,-5.010952473,1,-3.67711997,1,-7.625329971,1,0.008817947,1,0.000546613,1,-0.001315227,1,0.4464679956436157,1,-0.544346273,1,1.835241317749023,1
1.059915781,-5.014340878,1,-3.684011221,1,-7.580513,1,0.006166349,1,-0.003259675,1,-0.00629779,1,0.4465010762214661,1,-0.54434371,1,1.835221529006958,1
1.063917041,-5.035879612,1,-3.682195663,1,-7.62550211,1,0.004680693,1,-0.001785412,1,-0.001303172,1,0.4465360939502716,1,-0.544344485,1,1.835203170776367,1
1.067914724,-4.996133327,1,-3.663450003,1,-7.616592407,1,0.005511782,1,0.002384983,1,-0.000382289,1,0.4465712606906891,1,-0.544344246,1,1.835198044776917,1
1.071914196,-5.018938065,1,-3.65060854,1,-7.608583927,1,0.004642398,1,-0.002410812,1,-0.00090873,1,0.4465944170951843,1,-0.5443452,1,1.835190773010254,1
1.075915813,-5.01050806,1,-3.681236506,1,-7.604203701,1,0.005066397,1,0.001586153,1,-0.002208409,1,0.4466181993484497,1,-0.544346273,1,1.835186362266541,1
1.079913497,-5.033131123,1,-3.658351898,1,-7.618085861,1,0.002928845,1,0.000426477,1,0.002143903,1,0.4466389119625092,1,-0.544345319,1,1.835178852081299,1
1.083912969,-5.006268501,1,-3.654108047,1,-7.605406761,1,0.004964359,1,0.001885169,1,-0.000454474,1,0.4466557502746582,1,-0.544344604,1,1.835173964500427,1
1.087914228,-5.025669098,1,-3.641744852,1,-7.619503975,1,0.004236532,1,0.001286906,1,0.000292146,1,0.4466825127601624,1,-0.544342875,1,1.835166692733765,1
1.091911912,-5.049296856,1,-3.622496605,1,-7.632209778,1,0.006852995,1,-0.005699873,1,-0.001013767,1,0.4467068910598755,1,-0.544344366,1,1.835169553756714,1
1.095911145,-5.02218771,1,-3.599096775,1,-7.628283024,1,0.010633217,1,-0.00117231,1,-0.001321284,1,0.4467582702636719,1,-0.544346035,1,1.835152626037598,1
1.099912763,-5.025362015,1,-3.621873617,1,-7.61898613,1,0.012682257,1,-0.001679461,1,-0.006151868,1,0.4468176066875458,1,-0.544335783,1,1.835133075714111,1
1.103910089,-5.016990185,1,-3.615461826,1,-7.60736084,1,0.015879592,1,0.002019596,1,-0.007532041,1,0.4468826055526733,1,-0.54433763,1,1.835106015205383,1
1.107909322,-5.032043457,1,-3.640832901,1,-7.64576149,1,0.013929407,1,0.000334867,1,-0.007772906,1,0.4469637274742126,1,-0.544324577,1,1.835072040557861,1
1.111910939,-4.969796658,1,-3.665226698,1,-7.583214283,1,0.015641961,1,-0.001425535,1,-0.001105409,1,0.4470310509204865,1,-0.544325292,1,1.835048437,1
1.115908384,-5.022812843,1,-3.716775894,1,-7.596313477,1,0.01592253,1,-0.001290265,1,-0.004163741,1,0.4471001029014587,1,-0.54432404,1,1.835028886795044,1
1.119907618,-5.002771378,1,-3.697718859,1,-7.599354267,1,0.012630675,1,0.002385845,1,-0.005634128,1,0.4471677839756012,1,-0.544319928,1,1.835006952285767,1
1.123909116,-5.016374111,1,-3.667127132,1,-7.592732906,1,0.012597326,1,0.002215949,1,-0.003262797,1,0.4472335278987885,1,-0.544306755,1,1.834984421730042,1
1.127906561,-5.019865513,1,-3.67780304,1,-7.596260548,1,0.013887644,1,-0.005180398,1,-0.000252646,1,0.4472888708114624,1,-0.544302404,1,1.834975361824036,1
1.131906033,-5.006514549,1,-3.659339428,1,-7.590536594,1,0.013860678,1,-0.001425918,1,-0.003528748,1,0.4473455250263214,1,-0.544305503,1,1.834960460662842,1
1.135907531,-4.995923519,1,-3.690018654,1,-7.575459003,1,0.010821829,1,-0.001786507,1,-0.002079281,1,0.4474000036716461,1,-0.544305801,1,1.834945678710938,1
1.139904976,-4.965330601,1,-3.690978527,1,-7.5967803,1,0.015410748,1,-0.00335268,1,-0.003204642,1,0.4474585950374603,1,-0.544305325,1,1.834928274154663,1
1.143904567,-5.011721134,1,-3.708394051,1,-7.599131107,1,0.010901295,1,-0.000127993,1,-0.003995637,1,0.4475096464157104,1,-0.54429543,1,1.834916353225708,1
1.147905827,-4.99044323,1,-3.689946175,1,-7.594508171,1,0.004077089,1,-0.001781498,1,-0.000285042,1,0.4475407600402832,1,-0.544293165,1,1.834905267,1
1.151903272,-4.990236759,1,-3.672715664,1,-7.601257324,1,0.001606028,1,0.000788439,1,0.000168245,1,0.447557271,1,-0.544296026,1,1.834913135,1
1.155902743,-4.999799728,1,-3.676026106,1,-7.622147083,1,0.002950761,1,-0.000856583,1,0.001004078,1,0.4475734531879425,1,-0.54429996,1,1.834910512,1
1.159910202,-5.00441885,1,-3.647398233,1,-7.610379219,1,0.003703156,1,0.001116638,1,0.000865375,1,0.4475935697555542,1,-0.544295192,1,1.834911346435547,1
1.163913965,-5.020407677,1,-3.651663542,1,-7.627536774,1,0.007262749,1,-0.003519798,1,0.000267792,1,0.4476149678230286,1,-0.544303238,1,1.834904432296753,1
1.167913675,-5.061447144,1,-3.648136139,1,-7.617014885,1,0.006891406,1,-0.002262243,1,0.000652512,1,0.4476470351219177,1,-0.544315875,1,1.834894061088562,1
1.171915054,-5.013382435,1,-3.636147499,1,-7.639836788,1,0.005955068,1,-0.001971124,1,-0.002984979,1,0.4476838111877441,1,-0.544317305,1,1.834883451461792,1
1.175912738,-4.980650425,1,-3.654655218,1,-7.58874321,1,0.009601013,1,-0.0017244,1,-0.00183948,1,0.4477142989635468,1,-0.544324338,1,1.834869861602783,1
1.179911971,-5.005525589,1,-3.627292395,1,-7.618538857,1,0.008536767,1,-0.004425678,1,-0.003836711,1,0.4477627873420715,1,-0.54432416,1,1.834851026535034,1
1.183913231,-4.999729633,1,-3.646252155,1,-7.613931656,1,0.00893516,1,-0.003022767,1,-0.002760491,1,0.4478166103363037,1,-0.544334114,1,1.834817648,1
1.187910676,-5.019710064,1,-3.6092875,1,-7.617229462,1,0.007208129,1,-0.003912295,1,-0.004990578,1,0.4478673934936523,1,-0.54433918,1,1.834788084030151,1
1.191909909,-4.993767262,1,-3.657595158,1,-7.60404253,1,0.013146544,1,-0.004462047,1,-0.004064046,1,0.4479198753833771,1,-0.544339299,1,1.834761142730713,1
1.195911407,-5.001121044,1,-3.605961084,1,-7.606682777,1,0.014696474,1,-0.001459893,1,-0.002373146,1,0.4479723274707794,1,-0.544341922,1,1.834749817848206,1
1.199908853,-4.988595486,1,-3.601049423,1,-7.603260517,1,0.017820938,1,-0.002111288,1,-0.009152069,1,0.4480573534965515,1,-0.544338107,1,1.834716320037842,1
1.203908324,-5.023421288,1,-3.577190638,1,-7.613279819,1,0.018427502,1,-0.003058287,1,-0.008513367,1,0.4481424391269684,1,-0.544327438,1,1.834680676460266,1
1.207909942,-4.996736526,1,-3.493223667,1,-7.606615543,1,0.021371029,1,8.378189522773027e-05,1,-0.0068169,1,0.4482444226741791,1,-0.54431653,1,1.834640264511108,1
1.211907387,-5.025777817,1,-3.569885254,1,-7.620723248,1,0.028931819,1,-0.002113033,1,-0.011196067,1,0.448371559,1,-0.544301569,1,1.834595084190369,1
1.215906501,-5.019834518,1,-3.609521389,1,-7.56810379,1,0.034361273,1,0.001896821,1,-0.012167224,1,0.4485242068767548,1,-0.544279337,1,1.834547996520996,1
1.219908118,-5.024241924,1,-3.683745861,1,-7.549040318,1,0.036454767,1,0.009806553,1,-0.011236633,1,0.4486837387084961,1,-0.544248343,1,1.834508776664734,1
1.223905563,-5.010079861,1,-3.768562555,1,-7.565208435,1,0.045658462,1,0.004604068,1,0.002262857,1,0.4488535225391388,1,-0.544208705,1,1.834500312805176,1
1.227905035,-5.004294872,1,-3.750213385,1,-7.529792786,1,0.063091159,1,0.017454369,1,0.015038105,1,0.449044943,1,-0.544173777,1,1.834545612335205,1
1.231906533,-5.023309708,1,-3.738550186,1,-7.557781219,1,0.079474919,1,0.028295195,1,0.025488611,1,0.4492711424827576,1,-0.544122458,1,1.834679841995239,1
1.235903978,-4.998850822,1,-3.760071278,1,-7.509840012,1,0.093047291,1,0.031697366,1,0.035630006,1,0.4495214521884918,1,-0.544078767,1,1.834871768951416,1
1.23990345,-5.029419899,1,-3.804427862,1,-7.524196148,1,0.090931617,1,0.044828031,1,0.04130673,1,0.4497654736042023,1,-0.544005573,1,1.835107803344727,1
1.24390471,-5.015028,1,-3.766428471,1,-7.528421879,1,0.092987262,1,0.048986778,1,0.037087411,1,0.4500017166137695,1,-0.543911219,1,1.835375547409058,1
1.247902155,-5.092883587,1,-3.638172388,1,-7.560014725,1,0.088893227,1,0.051155012,1,0.039638411,1,0.450215071,1,-0.543800533,1,1.835650205612183,1
1.251901746,-5.092670441,1,-3.556353807,1,-7.646548748,1,0.085986972,1,0.052420497,1,0.029592324,1,0.4504373669624329,1,-0.543671131,1,1.835898160934448,1
1.255903244,-5.075117111,1,-3.556925774,1,-7.619126797,1,0.083258241,1,0.049548503,1,0.024416257,1,0.4506618678569794,1,-0.543542504,1,1.836117625236511,1
1.259900928,-4.999732971,1,-3.585866451,1,-7.613801956,1,0.086190626,1,0.04385807,1,0.019262811,1,0.4509035646915436,1,-0.543401957,1,1.836313366889954,1
1.263900399,-5.047038078,1,-3.652910233,1,-7.628315449,1,0.081049949,1,0.045034297,1,0.012800016,1,0.451150119,1,-0.543267667,1,1.836478471755981,1
1.267901659,-5.025259018,1,-3.58732605,1,-7.651013851,1,0.084086865,1,0.04775757,1,0.006555758,1,0.4514089822769165,1,-0.543130577,1,1.836612939834595,1
1.271899343,-5.062822342,1,-3.572367907,1,-7.635748386,1,0.077984236,1,0.041797787,1,0.001102646,1,0.4516849219799042,1,-0.542832136,1,1.836609959602356,1
1.275898576,-5.020898342,1,-3.594038486,1,-7.64877367,1,0.078542188,1,0.038863733,1,-0.004639881,1,0.4520530700683594,1,-0.542711079,1,1.836965560913086,1
1.279906034,-5.08486414,1,-3.615594864,1,-7.65199852,1,0.072294906,1,0.03886769,1,-0.00477318,1,0.4523274302482605,1,-0.542567849,1,1.837019920349121,1
1.283909678,-5.029582024,1,-3.62757206,1,-7.623105526,1,0.072533317,1,0.039747763,1,-0.013679712,1,0.4526075124740601,1,-0.542411208,1,1.837051868438721,1
1.28790915,-5.068729401,1,-3.637731552,1,-7.629344463,1,0.069576636,1,0.036480971,1,-0.016863113,1,0.4528859257698059,1,-0.542256832,1,1.837060689926147,1
1.291910648,-5.062875271,1,-3.667860985,1,-7.607075214,1,0.067293108,1,0.035329808,1,-0.022046801,1,0.4531664252281189,1,-0.542091668,1,1.837042450904846,1
1.295908093,-5.105008125,1,-3.674352407,1,-7.57830286,1,0.06279067,1,0.039373901,1,-0.029949833,1,0.4534482359886169,1,-0.541908562,1,1.837007761001587,1
1.299907327,-5.107914925,1,-3.659030914,1,-7.543626785,1,0.060713746,1,0.041745227,1,-0.032135408,1,0.4537167549133301,1,-0.541711926,1,1.836970686912537,1
1.303908825,-5.09969902,1,-3.669505596,1,-7.596724987,1,0.055187479,1,0.041122489,1,-0.028966606,1,0.4539761543273926,1,-0.5415048,1,1.836922764778137,1
1.30790627,-5.066222668,1,-3.705059767,1,-7.578330517,1,0.053534932,1,0.048594981,1,-0.038785838,1,0.4542256891727448,1,-0.541281044,1,1.836866140365601,1
1.311905503,-5.008298874,1,-3.780821562,1,-7.560218334,1,0.049397625,1,0.047860321,1,-0.038185105,1,0.4544694721698761,1,-0.541041911,1,1.836799979,1
1.315907121,-4.944509983,1,-3.796765566,1,-7.547738075,1,0.043244068,1,0.046837144,1,-0.040942088,1,0.4546928703784943,1,-0.540811718,1,1.836728096008301,1
1.319904804,-4.858290672,1,-3.864827633,1,-7.602076054,1,0.036238112,1,0.041912057,1,-0.037322711,1,0.4548889696598053,1,-0.540591538,1,1.836665987968445,1
1.323904276,-4.852973461,1,-3.930790663,1,-7.639005184,1,0.030248774,1,0.039795399,1,-0.03130633,1,0.4550586938858032,1,-0.540387273,1,1.836610078811646,1
1.327905774,-4.85145998,1,-3.966150522,1,-7.558034897,1,0.02284734,1,0.041549418,1,-0.026707906,1,0.4551825821399689,1,-0.540192366,1,1.836579084396362,1
1.331903458,-4.893998146,1,-3.971379995,1,-7.554426193,1,0.01688374,1,0.034778152,1,-0.019284353,1,0.455266535,1,-0.540026605,1,1.836545586585999,1
1.335902929,-4.886077404,1,-3.936116934,1,-7.580098152,1,0.003560465,1,0.030347159,1,-0.016172275,1,0.4553180634975433,1,-0.539877892,1,1.836533665657043,1
1.339904547,-4.907428741,1,-3.923759699,1,-7.633281231,1,0.002308294,1,0.026324701,1,-0.013323277,1,0.4553315937519073,1,-0.539743364,1,1.83652389,1
1.34390223,-4.880924702,1,-3.849129677,1,-7.631903648,1,-0.005060942,1,0.026626416,1,-0.007494219,1,0.4553305208683014,1,-0.539626777,1,1.836524128913879,1
1.347901702,-4.918076038,1,-3.822153091,1,-7.653412819,1,-0.008861329,1,0.018207429,1,-0.007125973,1,0.455290288,1,-0.539533436,1,1.836535453796387,1
1.351902962,-4.978110313,1,-3.816936731,1,-7.62261343,1,-0.014699573,1,0.02081879,1,-0.006684059,1,0.4552440047264099,1,-0.53944999,1,1.836543560028076,1
1.355900645,-4.961566925,1,-3.749057055,1,-7.642751217,1,-0.018405195,1,0.019226136,1,-0.00613278,1,0.4551762342453003,1,-0.539374292,1,1.836544871330261,1
1.359900117,-4.996522427,1,-3.699620008,1,-7.645988464,1,-0.022138232,1,0.013758152,1,-0.008293569,1,0.4550960063934326,1,-0.5393067,1,1.836548328399658,1
1.363901496,-4.954620838,1,-3.695940018,1,-7.646188736,1,-0.015363671,1,0.009214964,1,-0.00963248,1,0.4550220370292664,1,-0.539246857,1,1.836539268493652,1
1.367899179,-4.983219624,1,-3.582513809,1,-7.64717865,1,-0.020785544,1,0.012100242,1,-0.008921446,1,0.4549533724784851,1,-0.539185107,1,1.836526393890381,1
1.371898413,-4.976842403,1,-3.584248543,1,-7.648509026,1,-0.018469887,1,0.009843151,1,-0.010171352,1,0.4548891186714172,1,-0.539126635,1,1.836501359939575,1
1.375899673,-4.951753139,1,-3.645674706,1,-7.648896217,1,-0.015352556,1,0.009791019,1,-0.012998847,1,0.454837978,1,-0.539068878,1,1.836466312408447,1
1.379897356,-4.961875439,1,-3.624374151,1,-7.660198689,1,-0.012936544,1,0.006848143,1,-0.010705547,1,0.454808235,1,-0.539012969,1,1.836431026,1
1.383896828,-5.011142254,1,-3.643874884,1,-7.624344349,1,-0.005106109,1,0.010716169,1,-0.016901987,1,0.454791784,1,-0.538959205,1,1.836381912231445,1
1.387898326,-4.988620758,1,-3.656555653,1,-7.625912666,1,-0.007041963,1,0.00992461,1,-0.017823871,1,0.4547943472862244,1,-0.538904428,1,1.836329936981201,1
1.391896009,-5.005607128,1,-3.703664303,1,-7.633250713,1,-0.002623286,1,0.002486827,1,-0.015423281,1,0.4548043310642242,1,-0.538858414,1,1.836271166801453,1
1.395895243,-5.00327158,1,-3.731318474,1,-7.606387615,1,-0.005319262,1,0.009618423,1,-0.02012657,1,0.4548151195049286,1,-0.538804173,1,1.836216330528259,1
1.399902701,-4.964439392,1,-3.740011454,1,-7.613345623,1,-0.00873716,1,0.004003953,1,-0.018937977,1,0.4548318088054657,1,-0.538744211,1,1.836146473884583,1
1.403906345,-4.970450401,1,-3.72430253,1,-7.617773056,1,-0.006433049,1,0.005738565,1,-0.01461536,1,0.4548252522945404,1,-0.538691998,1,1.836092710494995,1
1.407905817,-4.959361076,1,-3.787365913,1,-7.625211239,1,-0.009122696,1,0.010870733,1,-0.012059285,1,0.4548232555389404,1,-0.53863138,1,1.836050748825073,1
1.411907315,-4.971521378,1,-3.870982647,1,-7.59462595,1,-0.003725246,1,0.014079689,1,-0.005474466,1,0.4548147022724152,1,-0.538564444,1,1.836033582687378,1
1.415904999,-4.924323082,1,-3.790564537,1,-7.53977108,1,0.007086205,1,0.017547406,1,-0.004921771,1,0.4548203647136688,1,-0.53849268,1,1.836041569709778,1
1.41990447,-4.974491596,1,-3.725302935,1,-7.564883232,1,0.011737689,1,0.022434335,1,0.004754856,1,0.4548330903053284,1,-0.538429856,1,1.836090445518494,1
1.423906088,-4.99874115,1,-3.754507065,1,-7.555511951,1,0.019440971,1,0.024253864,1,0.009984881,1,0.4548549056053162,1,-0.538362324,1,1.836161136627197,1
1.427903533,-4.942152023,1,-3.728871822,1,-7.601495743,1,0.02832138,1,0.030242326,1,0.013697796,1,0.4548913538455963,1,-0.538283825,1,1.836265206336975,1
1.431903005,-5.007987499,1,-3.666871071,1,-7.571875095,1,0.035673227,1,0.036493167,1,0.01275008,1,0.4549609422683716,1,-0.538187206,1,1.836381912231445,1
1.435904503,-5.012601376,1,-3.597499132,1,-7.569345951,1,0.045494031,1,0.034725688,1,0.011376067,1,0.455066055,1,-0.538081944,1,1.836495876312256,1
1.439901948,-5.017021179,1,-3.613880157,1,-7.577952385,1,0.050749756,1,0.038174376,1,0.006962718,1,0.4551958739757538,1,-0.537951648,1,1.836613893508911,1
1.44390142,-5.020936012,1,-3.638866663,1,-7.584990978,1,0.052517679,1,0.045229349,1,0.004470784,1,0.4553444385528564,1,-0.537812114,1,1.836723089,1
1.447902679,-4.968052864,1,-3.67247653,1,-7.587053776,1,0.054689761,1,0.044038966,1,0.002829018,1,0.4555093050003052,1,-0.537654519,1,1.836825251579285,1
1.451900363,-4.872608662,1,-3.760415554,1,-7.566672802,1,0.055762518,1,0.048752207,1,0.002956418,1,0.4556707739830017,1,-0.537491798,1,1.836927890777588,1
1.455899954,-4.87445116,1,-3.801318169,1,-7.604371548,1,0.047572862,1,0.046989173,1,0.005397206,1,0.4558165073394775,1,-0.537329555,1,1.837035894393921,1
1.459901214,-4.877896309,1,-3.898872137,1,-7.58219862,1,0.040074565,1,0.043355487,1,0.003103711,1,0.4559404253959656,1,-0.537179053,1,1.837140798568726,1
1.463898897,-4.911747932,1,-3.884991169,1,-7.624473095,1,0.02924417,1,0.040946208,1,0.007837389,1,0.4560224711894989,1,-0.537036657,1,1.837251663208008,1
1.467898369,-4.92739439,1,-3.800908566,1,-7.572488785,1,0.025710022,1,0.040251482,1,0.011411539,1,0.4560715556144714,1,-0.536907315,1,1.837372064590454,1
1.471899629,-4.937635899,1,-3.809207201,1,-7.588583469,1,0.01633938,1,0.043995325,1,0.007169331,1,0.4560936689376831,1,-0.536776602,1,1.837490677833557,1
1.475897074,-4.917919636,1,-3.782181501,1,-7.578900814,1,0.011418253,1,0.03754124,1,0.009698982,1,0.4560947418212891,1,-0.53664887,1,1.837612628936768,1
1.479896307,-4.90415144,1,-3.797333241,1,-7.617447376,1,0.00907271,1,0.035987318,1,0.008548065,1,0.4560871124267578,1,-0.536527872,1,1.837723255157471,1
1.483897805,-4.90216589,1,-3.771388292,1,-7.609628677,1,-0.000287074,1,0.039606605,1,0.006567477,1,0.4560481607913971,1,-0.536405683,1,1.837823629379272,1
1.487895608,-4.956299305,1,-3.825017452,1,-7.586110592,1,0.000488908,1,0.03248819,1,0.009866027,1,0.4560008347034454,1,-0.536292076,1,1.837934255599976,1
1.491894841,-4.957847595,1,-3.769711256,1,-7.601736546,1,-0.008790229,1,0.039521236,1,0.009951125,1,0.4559225738048553,1,-0.536174357,1,1.838040709495544,1
1.495896339,-4.969301701,1,-3.738293171,1,-7.609980106,1,-0.008365743,1,0.03546178,1,0.006108068,1,0.4558383226394653,1,-0.536054134,1,1.838143587112427,1
1.499894023,-4.978941917,1,-3.74245286,1,-7.612352371,1,-0.012589047,1,0.038734615,1,0.005584329,1,0.4557497203350067,1,-0.53592968,1,1.838244438171387,1
1.503893495,-4.937103271,1,-3.692961693,1,-7.601231575,1,-0.010989264,1,0.03339595,1,0.000251424,1,0.4556517004966736,1,-0.535805583,1,1.838335394859314,1
1.507894993,-5.004200935,1,-3.686612844,1,-7.602535248,1,-0.01611504,1,0.037285533,1,0.001303564,1,0.4555616676807404,1,-0.535676897,1,1.838415384292603,1
1.511892796,-4.987991333,1,-3.684001207,1,-7.601286888,1,-0.01516157,1,0.037195135,1,-0.002663061,1,0.4554638862609863,1,-0.535546422,1,1.838492035865784,1
1.515892267,-4.947234631,1,-3.719718218,1,-7.592861652,1,-0.020266484,1,0.037594348,1,0.002199842,1,0.4553617537021637,1,-0.535415649,1,1.838556647,1
1.519899607,-4.928827286,1,-3.742387295,1,-7.621719837,1,-0.013528137,1,0.04048606,1,-0.000637099,1,0.4552614390850067,1,-0.53527236,1,1.838621854782104,1
1.523903251,-4.927709579,1,-3.709285498,1,-7.631188869,1,-0.019519698,1,0.04118618,1,-0.003891655,1,0.4552798867225647,1,-0.534983873,1,1.838875055,1
1.527902961,-4.880817413,1,-3.683819294,1,-7.633419037,1,-0.014978372,1,0.039593369,1,-0.004330241,1,0.4551909863948822,1,-0.534832835,1,1.838942646980286,1
1.531904221,-4.901414871,1,-3.656849861,1,-7.665370464,1,-0.007390838,1,0.043344568,1,-0.010484261,1,0.455115944,1,-0.534672201,1,1.838997364044189,1
1.535901666,-4.963906288,1,-3.633367777,1,-7.697524071,1,-0.007960851,1,0.03910717,1,-0.010340231,1,0.4550595283508301,1,-0.534521282,1,1.839032292366028,1
1.539901137,-4.930810928,1,-3.6723454,1,-7.681367397,1,-0.010377617,1,0.034125783,1,-0.0111834,1,0.455004871,1,-0.534367263,1,1.839064598083496,1
1.543902516,-4.962599754,1,-3.668852091,1,-7.670112133,1,-0.005728612,1,0.037011974,1,-0.012919811,1,0.4549634456634521,1,-0.534216702,1,1.839076519012451,1
1.5479002,-4.896170139,1,-3.763583422,1,-7.688227177,1,-0.005665805,1,0.030191178,1,-0.017493164,1,0.4549368321895599,1,-0.53407073,1,1.839077711105347,1
1.551899672,-4.878968716,1,-3.795352459,1,-7.650307655,1,-0.011851095,1,0.033499446,1,-0.015805675,1,0.45489794,1,-0.533926725,1,1.839079141616821,1
1.555900931,-4.897914886,1,-3.753219366,1,-7.656180859,1,-0.011617738,1,0.026000561,1,-0.01781163,1,0.4548580944538116,1,-0.533785164,1,1.839070439338684,1
1.559898615,-4.861485958,1,-3.74140501,1,-7.674737453,1,-0.01439427,1,0.026790109,1,-0.018126186,1,0.4548172354698181,1,-0.533656418,1,1.839049339294434,1
1.563897848,-4.838430882,1,-3.740240574,1,-7.653670788,1,-0.017770244,1,0.027880127,1,-0.015004045,1,0.4547627568244934,1,-0.533530354,1,1.839035391807556,1
1.567899108,-4.916624069,1,-3.819075346,1,-7.659013748,1,-0.01704786,1,0.025140233,1,-0.015464925,1,0.4546951949596405,1,-0.533415496,1,1.839023590087891,1
1.571896791,-4.901194096,1,-3.788424969,1,-7.644940376,1,-0.021711182,1,0.022914613,1,-0.01265976,1,0.4546140432357788,1,-0.533297062,1,1.839019298553467,1
1.575896025,-4.914999485,1,-3.802143335,1,-7.643599033,1,-0.024888841,1,0.029836493,1,-0.009870884,1,0.4545128047466278,1,-0.533186078,1,1.839023590087891,1
1.579897642,-4.896504879,1,-3.790009737,1,-7.636026859,1,-0.026301663,1,0.026953069,1,-0.00852243,1,0.4544135332107544,1,-0.533069134,1,1.839026093482971,1
1.583895087,-4.905680656,1,-3.759312868,1,-7.655517101,1,-0.026610332,1,0.028029192,1,-0.011110279,1,0.4542951881885529,1,-0.532953382,1,1.839041352272034,1
1.58789432,-4.903386593,1,-3.773312092,1,-7.646702766,1,-0.029668897,1,0.027918331,1,-0.010678296,1,0.4541715383529663,1,-0.532834649,1,1.839054584503174,1
1.591895819,-4.88815403,1,-3.716411352,1,-7.688059807,1,-0.030277317,1,0.026792515,1,-0.010333783,1,0.4540360569953918,1,-0.532719731,1,1.839073896408081,1
1.595893502,-4.906603336,1,-3.67863059,1,-7.662944317,1,-0.028614653,1,0.02957421,1,-0.00864462,1,0.4539066553115845,1,-0.532612562,1,1.839095115661621,1
1.599892974,-4.936961174,1,-3.684774637,1,-7.634609222,1,-0.026470818,1,0.028645217,1,-0.005628017,1,0.4537904262542725,1,-0.532494843,1,1.839122772216797,1
1.603894472,-4.90841341,1,-3.685573339,1,-7.647704124,1,-0.021892373,1,0.026956188,1,-0.00863897,1,0.4536772668361664,1,-0.532380641,1,1.839148879051208,1
1.607891917,-4.944500446,1,-3.672676802,1,-7.641895771,1,-0.022787489,1,0.026254935,1,-0.013548168,1,0.4535813331604004,1,-0.532259524,1,1.839161634,1
1.611891508,-4.877549648,1,-3.61760211,1,-7.656972885,1,-0.020347837,1,0.027793849,1,-0.013328969,1,0.4534910619258881,1,-0.532141149,1,1.839172005653381,1
1.615893006,-4.902977467,1,-3.645918131,1,-7.672582626,1,-0.01826746,1,0.029704066,1,-0.013173827,1,0.453411341,1,-0.532020926,1,1.839173793792725,1
1.619890451,-4.890582561,1,-3.664564848,1,-7.697678566,1,-0.016319616,1,0.023689309,1,-0.015739057,1,0.4533556699752808,1,-0.531900167,1,1.839161873,1
1.623889923,-4.851250648,1,-3.688230276,1,-7.692224026,1,-0.009906032,1,0.020280473,1,-0.018402046,1,0.4533100426197052,1,-0.53178519,1,1.839138269424438,1
1.627891421,-4.937179565,1,-3.761254787,1,-7.666839123,1,-0.015921939,1,0.023921078,1,-0.012077332,1,0.4532690644264221,1,-0.531672359,1,1.839118242263794,1
1.631889105,-4.85684824,1,-3.795386076,1,-7.699328423,1,-0.013627912,1,0.018334515,1,-0.018185528,1,0.4532213509082794,1,-0.531563997,1,1.839101433753967,1
1.635888696,-4.886505604,1,-3.870724201,1,-7.669346809,1,-0.014481168,1,0.024650712,1,-0.013907224,1,0.4531663954257965,1,-0.531456888,1,1.839084744,1
1.639896035,-4.814561844,1,-3.756358385,1,-7.697318077,1,-0.019220307,1,0.02065785,1,-0.009518092,1,0.4531068801879883,1,-0.531351566,1,1.839076399803162,1
1.643899679,-4.849554062,1,-3.726325274,1,-7.679321289,1,-0.01605925,1,0.02080779,1,-0.01252171,1,0.4530485868453979,1,-0.531259,1,1.839061617851257,1
1.647899389,-4.833619118,1,-3.749857187,1,-7.724731922,1,-0.01773843,1,0.015399113,1,-0.013698517,1,0.4530003368854523,1,-0.531169474,1,1.839043140411377,1
1.651900649,-4.937769413,1,-3.731442928,1,-7.706753731,1,-0.014255165,1,0.013832875,1,-0.011125129,1,0.4529527425765991,1,-0.531089842,1,1.839025020599365,1
1.655898333,-4.884903908,1,-3.792392015,1,-7.665676594,1,-0.015721317,1,0.012806453,1,-0.00818887,1,0.4529114067554474,1,-0.531026542,1,1.839001774787903,1
1.659897566,-4.89306736,1,-3.805923223,1,-7.708345413,1,-0.017558735,1,0.008831619,1,-0.00789208,1,0.4528489410877228,1,-0.53096199,1,1.838988900184631,1
1.663898826,-4.858995914,1,-3.790362358,1,-7.708994865,1,-0.015382783,1,0.006023986,1,-0.010676697,1,0.4527987241744995,1,-0.530917108,1,1.838976621627808,1
1.667896628,-4.828617573,1,-3.834618807,1,-7.707201004,1,-0.014679272,1,0.004771836,1,-0.006891709,1,0.4527480006217957,1,-0.530882359,1,1.838954210281372,1
1.6718961,-4.854978085,1,-3.823256969,1,-7.666837215,1,-0.022936258,1,0.001903955,1,-0.005944761,1,0.45267877,1,-0.53086549,1,1.838934540748596,1
1.675897598,-4.859550953,1,-3.794040918,1,-7.698753834,1,-0.020037755,1,-0.003533368,1,0.002519183,1,0.4525988698005676,1,-0.53085959,1,1.838929653167725,1
1.679895043,-4.840771675,1,-3.809024811,1,-7.695957184,1,-0.022485131,1,-0.001456935,1,-0.000113249,1,0.4525111317634583,1,-0.530870438,1,1.838926434516907,1
1.683894277,-4.898782253,1,-3.786113262,1,-7.691003799,1,-0.020741649,1,-0.007280205,1,0.005726418,1,0.4524193108081818,1,-0.530896246,1,1.838926076889038,1
1.687895536,-4.858250141,1,-3.816185713,1,-7.664426804,1,-0.023771418,1,-0.008081395,1,0.006486081,1,0.4523155689239502,1,-0.530930817,1,1.838930606842041,1
1.691892982,-4.829619884,1,-3.77226758,1,-7.676876545,1,-0.027962133,1,-0.011277922,1,0.002056749,1,0.4522064626216888,1,-0.530973911,1,1.838931202888489,1
1.695892453,-4.941348553,1,-3.843408585,1,-7.668150425,1,-0.032481581,1,-0.010430651,1,0.012313401,1,0.4520775675773621,1,-0.531024098,1,1.838949680328369,1
1.699894071,-4.817991257,1,-3.811321735,1,-7.670486927,1,-0.035575226,1,-0.009924327,1,0.009755966,1,0.4519306421279907,1,-0.531084239,1,1.838970065116882,1
1.703891397,-4.827008247,1,-3.75412631,1,-7.716407299,1,-0.036957376,1,-0.013067845,1,0.01006052,1,0.4517738521099091,1,-0.531140327,1,1.838993549346924,1
1.707890987,-4.879956722,1,-3.711700201,1,-7.719531059,1,-0.037697684,1,-0.01649333,1,0.015221429,1,0.4516084492206573,1,-0.531210601,1,1.839025020599365,1
1.711892486,-4.929771423,1,-3.707286119,1,-7.688590527,1,-0.035331853,1,-0.014061642,1,0.014737978,1,0.4514434933662415,1,-0.531287491,1,1.839061260223389,1
1.715889931,-4.877344131,1,-3.740152836,1,-7.685421467,1,-0.038915396,1,-0.020818451,1,0.020485217,1,0.4512769877910614,1,-0.531381726,1,1.839087963104248,1
1.719889402,-4.885831356,1,-3.787228346,1,-7.666064262,1,-0.040184245,1,-0.020195317,1,0.012103045,1,0.4511058330535889,1,-0.531479716,1,1.839114904403687,1
1.723890662,-4.866599083,1,-3.813821077,1,-7.673390388,1,-0.043110348,1,-0.022984693,1,0.018546594,1,0.4509267210960388,1,-0.531585097,1,1.839143395423889,1
1.727888346,-4.844633579,1,-3.821090698,1,-7.687621117,1,-0.043919485,1,-0.022360573,1,0.01928059,1,0.450734943,1,-0.53170073,1,1.839185237884521,1
1.731887817,-4.852947235,1,-3.767033339,1,-7.676166534,1,-0.047428552,1,-0.022220079,1,0.024590723,1,0.4505268931388855,1,-0.531816542,1,1.839231491088867,1
1.735889196,-4.863276958,1,-3.74586463,1,-7.65948534,1,-0.046435788,1,-0.019142961,1,0.026679324,1,0.450305849,1,-0.531935751,1,1.839292764663696,1
1.739886642,-4.870227337,1,-3.786590099,1,-7.690809727,1,-0.046464007,1,-0.023517879,1,0.029351907,1,0.4500789046287537,1,-0.532056868,1,1.839365959,1
1.743886113,-4.908248901,1,-3.798417807,1,-7.668651581,1,-0.048451588,1,-0.015899628,1,0.027627263,1,0.4498454630374908,1,-0.532177031,1,1.839442372322083,1
1.747887373,-4.856801033,1,-3.776939631,1,-7.68070507,1,-0.050354891,1,-0.023883171,1,0.028625662,1,0.4495936632156372,1,-0.532309175,1,1.839527130126953,1
1.751885056,-4.888895512,1,-3.761020184,1,-7.669587135,1,-0.052927472,1,-0.024188545,1,0.033736851,1,0.4493433237075806,1,-0.532443106,1,1.839619636535645,1
1.755884528,-4.882017136,1,-3.755408764,1,-7.648723602,1,-0.056189161,1,-0.023431126,1,0.037100714,1,0.4490704834461212,1,-0.53258878,1,1.83972168,1
1.759892225,-4.950525761,1,-3.788109064,1,-7.676634312,1,-0.05518673,1,-0.023246313,1,0.035620239,1,0.4487983584403992,1,-0.532730162,1,1.839828610420227,1
1.763896108,-4.867232323,1,-3.810660839,1,-7.654456615,1,-0.055219248,1,-0.022268448,1,0.039397106,1,0.4485135078430176,1,-0.532878876,1,1.839944243431091,1
1.767895818,-4.90495491,1,-3.774902344,1,-7.632236481,1,-0.061862007,1,-0.020491008,1,0.038853876,1,0.4482115209102631,1,-0.533023357,1,1.840076446533203,1
1.771897316,-4.925998688,1,-3.808784008,1,-7.605935097,1,-0.063607916,1,-0.018535253,1,0.041835185,1,0.4479311108589172,1,-0.53294903,1,1.840080857276917,1
1.775894761,-4.904732227,1,-3.822188139,1,-7.65524292,1,-0.064057037,1,-0.018085051,1,0.05063862,1,0.4476901888847351,1,-0.533118427,1,1.840515494346619,1
1.779893994,-4.918579578,1,-3.745529413,1,-7.651195049,1,-0.06906262,1,-0.018682754,1,0.047644611,1,0.447340339,1,-0.533276916,1,1.840678691864014,1
1.783895493,-4.938814163,1,-3.731086016,1,-7.660656452,1,-0.069265172,1,-0.018556412,1,0.048044033,1,0.4469722807407379,1,-0.533420384,1,1.840859651565552,1
1.787892938,-4.888473511,1,-3.765905142,1,-7.687730312,1,-0.067170173,1,-0.016698468,1,0.049706127,1,0.4466061592102051,1,-0.53357172,1,1.841029644012451,1
1.791892529,-4.925361156,1,-3.797385454,1,-7.632040501,1,-0.074551053,1,-0.012424897,1,0.053103764,1,0.4462251365184784,1,-0.533724666,1,1.841218948364258,1
1.795894027,-4.912222862,1,-3.872625589,1,-7.612535477,1,-0.081653841,1,-0.010517642,1,0.05537587,1,0.4458126425743103,1,-0.533868849,1,1.841425657272339,1
1.799891472,-4.883382797,1,-3.845486164,1,-7.67399931,1,-0.083978474,1,-0.007596553,1,0.060866129,1,0.4453642070293427,1,-0.534010291,1,1.841655731201172,1
1.803890944,-4.912172794,1,-3.817113876,1,-7.672432899,1,-0.091015883,1,-0.00566696,1,0.063294061,1,0.4448902606964111,1,-0.534142017,1,1.841898560523987,1
1.807892442,-4.901535034,1,-3.730813265,1,-7.662956238,1,-0.087675631,1,-0.010464076,1,0.066619217,1,0.4444157779216766,1,-0.53427887,1,1.842148303985596,1
1.811889887,-4.926795006,1,-3.701102257,1,-7.745497704,1,-0.091239966,1,-0.004956313,1,0.070283517,1,0.44392091,1,-0.534420073,1,1.842417478561401,1
1.815889359,-4.917874336,1,-3.680840731,1,-7.71264267,1,-0.090449654,1,-0.007105319,1,0.064216971,1,0.4434177875518799,1,-0.534553051,1,1.842684268951416,1
1.819890976,-4.955907822,1,-3.718032837,1,-7.700892448,1,-0.092225067,1,-0.002173397,1,0.070078462,1,0.4429143369197845,1,-0.534686327,1,1.842957735061646,1
1.823888659,-4.963319302,1,-3.731384993,1,-7.701270103,1,-0.094497971,1,-0.003043656,1,0.066316374,1,0.4423944354057312,1,-0.534810424,1,1.843239665031433,1
1.827888131,-4.99766016,1,-3.733745575,1,-7.662498951,1,-0.096645728,1,0.003821523,1,0.06731227,1,0.4418711960315704,1,-0.534920931,1,1.843521475791931,1
1.831889391,-4.951589108,1,-3.723743677,1,-7.668045521,1,-0.104012258,1,0.002461966,1,0.068295859,1,0.4413318634033203,1,-0.535027087,1,1.843810439109802,1
1.835887074,-4.98189497,1,-3.641960621,1,-7.684938908,1,-0.100754634,1,0.01016167,1,0.067432806,1,0.4407823085784912,1,-0.535123587,1,1.844103932380676,1
1.839886546,-5.035533905,1,-3.62881422,1,-7.679972172,1,-0.099220902,1,0.007385254,1,0.068526655,1,0.4402275085449219,1,-0.535210311,1,1.844403743743896,1
1.843887925,-5.046494484,1,-3.684828758,1,-7.666940689,1,-0.106903508,1,0.013191555,1,0.071136102,1,0.4396625161170959,1,-0.53529191,1,1.844703793525696,1
1.847885609,-5.022744179,1,-3.634813786,1,-7.672780991,1,-0.107088998,1,0.012889337,1,0.06521266,1,0.4390790462493896,1,-0.535358727,1,1.845008730888367,1
1.851884842,-5.002205849,1,-3.610954046,1,-7.721895218,1,-0.107940711,1,0.016282868,1,0.063593619,1,0.4385042488574982,1,-0.53541398,1,1.84531045,1
1.85588634,-4.981310844,1,-3.553728819,1,-7.713843346,1,-0.107174583,1,0.017593291,1,0.066555142,1,0.4379214346408844,1,-0.535458267,1,1.845618486404419,1
1.859883785,-5.011968613,1,-3.564616442,1,-7.693389893,1,-0.10914395,1,0.020300882,1,0.064195178,1,0.4373323023319244,1,-0.535498798,1,1.845919847488403,1
1.863883018,-4.935842514,1,-3.4626894,1,-7.681507111,1,-0.108550906,1,0.02168517,1,0.054007214,1,0.4367507696151733,1,-0.535526693,1,1.846214532852173,1
1.867884517,-4.990701675,1,-3.4810853,1,-7.753444672,1,-0.103555463,1,0.017300723,1,0.049602188,1,0.4362005591392517,1,-0.535551846,1,1.846479177474976,1
1.871881962,-5.025037289,1,-3.409962177,1,-7.776890755,1,-0.094926082,1,0.023548052,1,0.050056174,1,0.4356741011142731,1,-0.535558999,1,1.846730709075928,1
1.875881195,-4.940077305,1,-3.36731863,1,-7.802052975,1,-0.090877205,1,0.016945964,1,0.041219193,1,0.4351802468299866,1,-0.53556484,1,1.846972227096558,1
1.879888654,-4.960111618,1,-3.394701004,1,-7.897716522,1,-0.079808667,1,0.018385692,1,0.039673686,1,0.4347395002841949,1,-0.535560131,1,1.84718132,1
1.883892179,-4.897934437,1,-3.453379631,1,-7.899384499,1,-0.071503259,1,0.021350892,1,0.033583019,1,0.4343249201774597,1,-0.535551369,1,1.847385168075562,1
1.887892008,-4.914161205,1,-3.489051104,1,-7.860339642,1,-0.068887115,1,0.004392873,1,0.033911295,1,0.4339582920074463,1,-0.535562456,1,1.847557306289673,1
1.891893268,-4.845380783,1,-3.613273144,1,-7.907576561,1,-0.062035561,1,0.007895781,1,0.037287768,1,0.4336222112178802,1,-0.535592496,1,1.847716212272644,1
1.895890713,-4.797757149,1,-3.667748928,1,-7.902161598,1,-0.06096508,1,-0.005335784,1,0.040859792,1,0.4332869946956635,1,-0.535660088,1,1.847874879837036,1
1.899890184,-4.822202682,1,-3.734964848,1,-7.936491966,1,-0.064649127,1,-0.01806879,1,0.04166197,1,0.4329530596733093,1,-0.535772562,1,1.848037242889404,1
1.903891683,-4.734817028,1,-3.7862432,1,-7.94360733,1,-0.059785191,1,-0.026464749,1,0.049689759,1,0.4326340854167938,1,-0.535926282,1,1.848187089,1
1.907889128,-4.780918121,1,-3.908387661,1,-7.904646397,1,-0.057446979,1,-0.037276473,1,0.058910001,1,0.432316929,1,-0.536132216,1,1.848356366157532,1
1.911888361,-4.680759907,1,-4.069104671,1,-7.854793549,1,-0.041059669,1,-0.041581124,1,0.077542029,1,0.432007223,1,-0.536394835,1,1.848568558692932,1
1.915889621,-4.68894577,1,-4.373021126,1,-7.87609148,1,-0.026780924,1,-0.042340834,1,0.1173695251345634,1,0.4317024350166321,1,-0.536718607,1,1.848900795,1
1.919887304,-4.511737347,1,-4.561810017,1,-7.842837334,1,-0.000190548,1,-0.04316565,1,0.1664881855249405,1,0.4313962757587433,1,-0.53711319,1,1.849413156509399,1
1.923886895,-4.369506836,1,-4.747960091,1,-7.777440548,1,0.01244281,1,-0.042597398,1,0.2166751772165298,1,0.4310534000396729,1,-0.537594318,1,1.850132942199707,1
1.927888155,-4.248979568,1,-5.120700836,1,-7.802551746,1,0.019681402,1,-0.049588557,1,0.2933301627635956,1,0.4306103587150574,1,-0.538188398,1,1.851120710372925,1
1.931885839,-4.196988106,1,-5.400546551,1,-7.784220695,1,0.035244506,1,-0.051843289,1,0.3766578137874603,1,0.4300354719161987,1,-0.538932323,1,1.852439284324646,1
1.93588531,-4.207456589,1,-5.662997246,1,-7.721970558,1,0.058385916,1,-0.034273069,1,0.4769452810287476,1,0.4293424487113953,1,-0.539807558,1,1.854141831,1
1.93988657,-4.532793999,1,-5.650919437,1,-7.947307587,1,0.101964071,1,-0.009752,1,0.556291401,1,0.4285544157028198,1,-0.540745676,1,1.856306195259094,1
1.943884254,-4.911096096,1,-5.181200027,1,-8.611625671,1,0.1562850475311279,1,-0.049983148,1,0.5717815160751343,1,0.4278413653373718,1,-0.541778326,1,1.858676195144653,1
1.947883487,-5.227662563,1,-4.323284149,1,-8.926671028,1,0.2169012427330017,1,-0.157462984,1,0.5198101997375488,1,0.4274904727935791,1,-0.54306066,1,1.860810637,1
1.951885104,-5.122778893,1,-3.763616085,1,-9.022232056,1,0.2452788352966309,1,-0.285082698,1,0.4360193014144897,1,0.4275975823402405,1,-0.544656336,1,1.862420558929443,1
1.955882788,-4.719720364,1,-3.721115351,1,-8.67471981,1,0.2161403447389603,1,-0.406813413,1,0.3881644010543823,1,0.4279688000679016,1,-0.546589375,1,1.863488554954529,1
1.959882021,-5.135093689,1,-4.407696247,1,-8.391496658,1,0.1566702574491501,1,-0.482260972,1,0.3485446572303772,1,0.4283560514450073,1,-0.548838258,1,1.864189028739929,1
1.963883519,-5.500049591,1,-4.935071468,1,-8.230932236,1,0.1044702455401421,1,-0.502487659,1,0.3330174088478088,1,0.4286070466041565,1,-0.551199377,1,1.864681839942932,1
1.967880964,-4.787950516,1,-5.518168449,1,-8.721680641,1,0.094993509,1,-0.526264429,1,0.3234288990497589,1,0.4287887215614319,1,-0.553587317,1,1.865086555480957,1
1.971880198,-4.764396667,1,-5.930731297,1,-8.824278831,1,0.047755908,1,-0.583561599,1,0.2881772518157959,1,0.4289728105068207,1,-0.556130409,1,1.865297555923462,1
1.975881696,-4.358977795,1,-5.492581844,1,-9.869671822,1,0.030212848,1,-0.646174133,1,0.2711341679096222,1,0.4291348159313202,1,-0.558833003,1,1.865292429924011,1
1.979879141,-3.409721375,1,-5.282258034,1,-11.24999428,1,0.1043772920966148,1,-0.756794333,1,0.2719208002090454,1,0.4295346736907959,1,-0.561801672,1,1.865074753761292,1
1.98387897,-4.59863615,1,-6.495868206,1,-11.80417252,1,0.07952711,1,-0.866173685,1,0.3474841415882111,1,0.4300875067710876,1,-0.565257132,1,1.864762544631958,1
1.98788023,-5.376127243,1,-6.807914734,1,-11.82149315,1,0.02425142,1,-0.938767314,1,0.4733234345912933,1,0.4303196370601654,1,-0.569233298,1,1.864731788635254,1
1.991877675,-6.449621201,1,-6.406302929,1,-11.86085129,1,0.011523781,1,-0.998518407,1,0.6415663957595825,1,0.4301140010356903,1,-0.573690534,1,1.865223169326782,1
1.995877147,-12.10791397,1,-6.333332539,1,-12.90023136,1,0.042400729,1,-1.076398015,1,0.8479074239730835,1,0.4296080470085144,1,-0.578667283,1,1.866333842277527,1
1.999878645,-10.42290688,1,-10.96796417,1,-10.68778229,1,-0.260754198,1,-0.945147693,1,0.9759770631790161,1,0.42817992,1,-0.583966732,1,1.868354439735413,1
2.003881931,-6.025815964,1,-8.827677727,1,-8.611633301,1,-0.553231597,1,-0.970670283,1,1.040219187736511,1,0.425099254,1,-0.589040458,1,1.870871186256409,1
2.007881641,-8.687368393,1,-7.275354862,1,-8.775363922,1,-0.726223946,1,-1.08127284,1,1.126282215118408,1,0.4209985435009003,1,-0.5945611,1,1.873600721359253,1
2.01188302,-11.3589716,1,-7.655173302,1,-10.39356422,1,-0.825927019,1,-1.153865337,1,1.193242430686951,1,0.416231096,1,-0.600559711,1,1.876543045043945,1
2.015880823,-12.99809647,1,-7.898035049,1,-11.95641041,1,-0.899401724,1,-1.091391802,1,1.20365572,1,0.4109814465045929,1,-0.606634557,1,1.879687786102295,1
2.019880295,-12.50172997,1,-8.262799263,1,-12.70243931,1,-0.948564589,1,-0.918435574,1,1.145519971847534,1,0.4053829610347748,1,-0.612183273,1,1.883001327514648,1
2.023881435,-11.60418606,1,-7.919359684,1,-12.98429585,1,-0.96805346,1,-0.753696084,1,1.095988750457764,1,0.3996560871601105,1,-0.617047548,1,1.886829257011414,1
2.027879238,-9.691188812,1,-7.758309364,1,-12.72797012,1,-0.991509318,1,-0.622855127,1,1.083894848823547,1,0.3936411142349243,1,-0.621238351,1,1.890442609786987,1
2.03187871,-7.842103481,1,-7.503757954,1,-12.45620155,1,-1.013958097,1,-0.570302963,1,1.131987929344177,1,0.3873317837715149,1,-0.625108421,1,1.894370198249817,1
2.03587985,-6.384077549,1,-6.888963223,1,-12.23180771,1,-1.040178418,1,-0.578654289,1,1.200684666633606,1,0.3807236850261688,1,-0.628972948,1,1.898634552955627,1
2.039877653,-5.253165245,1,-6.51150322,1,-11.94882393,1,-1.053735256,1,-0.622225761,1,1.295401096343994,1,0.3737771511077881,1,-0.633029938,1,1.903284668922424,1
2.043876886,-4.865997314,1,-6.177980423,1,-11.71027946,1,-1.049852133,1,-0.666354775,1,1.41035521,1,0.3665263056755066,1,-0.63738662,1,1.908404350280762,1
2.047878504,-4.667695045,1,-6.163041592,1,-11.65649319,1,-1.032813072,1,-0.696279883,1,1.523220300674438,1,0.3590027093887329,1,-0.642022908,1,1.914032816886902,1
2.051876068,-4.421560764,1,-6.255560398,1,-11.70371342,1,-1.036489725,1,-0.715093017,1,1.624185085296631,1,0.351168156,1,-0.646868885,1,1.920187235,1
2.05587554,-4.026842117,1,-6.632707596,1,-11.71455097,1,-1.038815975,1,-0.719176769,1,1.705660581588745,1,0.3430057168006897,1,-0.651829422,1,1.926829814910889,1
2.059877157,-3.580593109,1,-7.181166649,1,-11.74675083,1,-1.073898315,1,-0.705585361,1,1.758651494979858,1,0.3344874978065491,1,-0.656828165,1,1.933874845504761,1
2.063874722,-3.191258669,1,-7.600113869,1,-11.80583382,1,-1.133005619,1,-0.681250632,1,1.790170788764954,1,0.3255674242973328,1,-0.66175735,1,1.941245675086975,1
2.067873955,-2.60504055,1,-7.8822155,1,-11.80725384,1,-1.187391877,1,-0.657281578,1,1.810085296630859,1,0.3162361979484558,1,-0.666568398,1,1.948863268,1
2.071875572,-1.923524261,1,-7.96344471,1,-11.91940975,1,-1.234031439,1,-0.625093818,1,1.813301325,1,0.3065500259399414,1,-0.671236396,1,1.956669330596924,1
2.075873137,-1.214382291,1,-7.884455681,1,-12.03031445,1,-1.26487577,1,-0.59477371,1,1.800595403,1,0.2966219782829285,1,-0.675717592,1,1.964563250541687,1
2.079872608,-0.51217854,1,-7.797299385,1,-12.08368015,1,-1.265709519,1,-0.560224533,1,1.764236450195313,1,0.2866001725196838,1,-0.679977894,1,1.972470403,1
2.083873987,0.2262106835842133,1,-7.779776096,1,-12.06644058,1,-1.24791348,1,-0.525392354,1,1.719342708587646,1,0.276624322,1,-0.683999658,1,1.980298638343811,1
2.08787179,0.8210545182228088,1,-7.856674194,1,-11.94582939,1,-1.223530293,1,-0.485123813,1,1.657549142837524,1,0.2667916417121887,1,-0.687759936,1,1.988015532493591,1
2.091871262,1.372274398803711,1,-7.875962734,1,-11.77053356,1,-1.185557008,1,-0.441361368,1,1.598091244697571,1,0.2571796774864197,1,-0.691251278,1,1.995552062988281,1
2.095872879,1.964136600494385,1,-7.772593021,1,-11.53722763,1,-1.135550499,1,-0.400987118,1,1.529628992080688,1,0.2478534579277039,1,-0.694444954,1,2.002870321273804,1
2.099870205,2.404294490814209,1,-7.653101444,1,-11.33474159,1,-1.077039838,1,-0.350330412,1,1.459298610687256,1,0.2388747334480286,1,-0.697344482,1,2.009963989257813,1
2.103869677,2.857119083404541,1,-7.522418976,1,-11.12154579,1,-1.004332066,1,-0.290755898,1,1.378219366073608,1,0.2303220331668854,1,-0.69991672,1,2.016789436340332,1
2.107871056,3.314443588256836,1,-7.252898693,1,-10.93270493,1,-0.914387524,1,-0.228227347,1,1.286691308021545,1,0.2222940921783447,1,-0.702123582,1,2.023286104202271,1
2.11186862,3.709036588668823,1,-7.005928516,1,-10.73881054,1,-0.827328861,1,-0.160474241,1,1.188827514648438,1,0.2148440480232239,1,-0.70396471,1,2.029408455,1
2.115868092,4.238785266876221,1,-6.783666134,1,-10.58868027,1,-0.728177369,1,-0.100096136,1,1.079510688781738,1,0.208044097,1,-0.705423892,1,2.035093069076538,1
2.119869471,4.417847633361816,1,-6.676016331,1,-10.36412239,1,-0.630742967,1,-0.038861878,1,0.9622336030006409,1,0.2019604593515396,1,-0.706528306,1,2.040282249450684,1
2.123872995,4.556055068969727,1,-6.691020012,1,-10.11663723,1,-0.546890974,1,0.026629832,1,0.8480427861213684,1,0.1965946555137634,1,-0.707270026,1,2.044940233230591,1
2.127872467,4.670450687408447,1,-6.667514324,1,-9.833235741,1,-0.463839114,1,0.09595298,1,0.726094127,1,0.1918977946043015,1,-0.707637966,1,2.049069881439209,1
2.131873846,4.759275436401367,1,-6.709302425,1,-9.6264534,1,-0.393506408,1,0.1700444221496582,1,0.6143342256546021,1,0.1878481507301331,1,-0.707617104,1,2.052667379379272,1
2.13587141,4.837271213531494,1,-6.63835907,1,-9.449205399,1,-0.315920651,1,0.2504409849643707,1,0.5034236907958984,1,0.1844173669815063,1,-0.707199454,1,2.055747509002686,1
2.139870644,4.921543598175049,1,-6.445349693,1,-9.34570694,1,-0.232392639,1,0.3283140063285828,1,0.3849319517612457,1,0.1816491484642029,1,-0.706389427,1,2.058316469192505,1
2.143872261,4.869785785675049,1,-6.18882513,1,-9.323486328,1,-0.137429729,1,0.4090852439403534,1,0.271692306,1,0.1795772463083267,1,-0.705178022,1,2.060367822647095,1
2.147869587,4.787673473358154,1,-6.008625507,1,-9.263651848,1,-0.032146126,1,0.4898033738136292,1,0.1469800919294357,1,0.178263247,1,-0.703559339,1,2.061875104904175,1
2.15186882,4.650228977203369,1,-5.974368572,1,-9.136919022,1,0.072234496,1,0.5734782218933105,1,0.023063123,1,0.1777457445859909,1,-0.701529503,1,2.062802076339722,1
2.155870438,4.608144760131836,1,-6.047333241,1,-9.033407211,1,0.1690232306718826,1,0.6580610275268555,1,-0.108192228,1,0.1780136972665787,1,-0.699072182,1,2.063144207000732,1
2.15986824,4.610613822937012,1,-6.191271782,1,-8.865231514,1,0.2584148943424225,1,0.7331738471984863,1,-0.239433274,1,0.179024726,1,-0.696206748,1,2.062900543212891,1
2.163867474,4.631162166595459,1,-6.244894981,1,-8.814700127,1,0.3264845907688141,1,0.8063870072364807,1,-0.364822775,1,0.1807285994291306,1,-0.692962766,1,2.062069416046143,1
2.167868853,4.744570255279541,1,-6.157567501,1,-8.77177906,1,0.3874602317810059,1,0.8681465983390808,1,-0.488503665,1,0.1830386370420456,1,-0.689357281,1,2.060684919,1
2.171866655,4.839615821838379,1,-6.005601883,1,-8.765395164,1,0.4485450387001038,1,0.9204978346824646,1,-0.607529521,1,0.1859384328126907,1,-0.685441911,1,2.058753728866577,1
2.175866127,4.849604606628418,1,-5.79454422,1,-8.789880753,1,0.5060297250747681,1,0.9601365327835083,1,-0.729079664,1,0.1894169300794601,1,-0.681246519,1,2.056269645690918,1
2.179867744,4.757313728,1,-5.678750038,1,-8.722084045,1,0.5625150799751282,1,0.9925739169120789,1,-0.854566872,1,0.1934698224067688,1,-0.676797509,1,2.053228139877319,1
2.183865309,4.626860142,1,-5.668010712,1,-8.757665634,1,0.6154279112815857,1,1.030082583427429,1,-0.973997951,1,0.1980682611465454,1,-0.672115624,1,2.049650669,1
2.18786478,4.417673587799072,1,-5.72217226,1,-8.714365959,1,0.6572027802467346,1,1.067359924316406,1,-1.085909486,1,0.203154445,1,-0.66718632,1,2.045568943023682,1
2.191866398,4.300531387329102,1,-5.638070107,1,-8.676279068,1,0.6835595965385437,1,1.100238084793091,1,-1.188374043,1,0.2086390256881714,1,-0.662016988,1,2.041025161743164,1
2.195863724,3.799157143,1,-5.546908379,1,-8.687382698,1,0.7222954630851746,1,1.144711256027222,1,-1.286961436,1,0.2144743353128433,1,-0.656590462,1,2.036084175109863,1
2.199863195,3.594636678695679,1,-5.485266209,1,-8.649241447,1,0.7615001797676086,1,1.198582291603088,1,-1.378580809,1,0.2206724733114243,1,-0.65086031,1,2.030790806,1
2.203864574,3.475042104721069,1,-5.230388641,1,-8.593136787,1,0.7927999496459961,1,1.242048263549805,1,-1.460393906,1,0.2271514236927032,1,-0.644840837,1,2.025209665298462,1
2.207862377,3.219500064849854,1,-5.148698807,1,-8.55396843,1,0.8319787383079529,1,1.284543037414551,1,-1.538571954,1,0.2338996678590775,1,-0.638549685,1,2.019358635,1
2.211861849,2.963879585266113,1,-5.077834129,1,-8.446405411,1,0.8663305044174194,1,1.329188466072083,1,-1.605862498,1,0.2409046292304993,1,-0.631994128,1,2.013289213180542,1
2.215862989,2.705327511,1,-5.041245937,1,-8.324575424,1,0.886310875,1,1.378008723258972,1,-1.65128839,1,0.2480449080467224,1,-0.625169635,1,2.007096767425537,1
2.219860554,2.519712924957275,1,-5.010873318,1,-8.110753059,1,0.9023938179016113,1,1.419632434844971,1,-1.685206771,1,0.2552599608898163,1,-0.618093252,1,2.000847578048706,1
2.223859787,2.338366270065308,1,-4.978924274,1,-7.951427937,1,0.9243852496147156,1,1.456530690193176,1,-1.707695723,1,0.2625093162059784,1,-0.610803664,1,1.994606018066406,1
2.227861166,2.191075325012207,1,-4.820292473,1,-7.850734234,1,0.9366540908813477,1,1.495809793,1,-1.707962036,1,0.2697190344333649,1,-0.603301764,1,1.988473653793335,1
2.23185873,1.988322138786316,1,-4.65648365,1,-7.715148449,1,0.9666509032249451,1,1.524548411369324,1,-1.702098727,1,0.2769013047218323,1,-0.595643163,1,1.982490420341492,1
2.235857964,1.747459053993225,1,-4.581373692,1,-7.666543007,1,1.001484036445618,1,1.558587670326233,1,-1.680701137,1,0.284054697,1,-0.587852538,1,1.976713299751282,1
2.239859343,1.487236499786377,1,-4.507575512,1,-7.572926998,1,1.047943115234375,1,1.589559913,1,-1.659882545,1,0.2912077903747559,1,-0.579925597,1,1.971177577972412,1
2.243862867,1.101209878921509,1,-4.53764677,1,-7.567790031,1,1.103120208,1,1.627385973930359,1,-1.631952286,1,0.2983890771865845,1,-0.571860433,1,1.965893030166626,1
2.247862339,0.5779610872268677,1,-4.518903732,1,-7.525847435,1,1.158087491989136,1,1.673056244850159,1,-1.615274787,1,0.3056113719940186,1,-0.56362468,1,1.960870265960693,1
2.251863718,0.1918736696243286,1,-4.53464222,1,-7.482181549,1,1.216886401176453,1,1.721107482910156,1,-1.615617156,1,0.3129140734672546,1,-0.555204272,1,1.956056952476501,1
2.255861521,-0.146559671,1,-4.669728756,1,-7.492281437,1,1.260226488113403,1,1.770706534385681,1,-1.616070747,1,0.3203127980232239,1,-0.546556234,1,1.951404094696045,1
2.259860992,-0.354991168,1,-4.761661053,1,-7.423395634,1,1.300243020057678,1,1.814387202262878,1,-1.62394309,1,0.3277637958526611,1,-0.537689447,1,1.946897268295288,1
2.26386261,-0.472282648,1,-4.825599194,1,-7.319070816,1,1.33426559,1,1.841254234313965,1,-1.641073942,1,0.3352755904197693,1,-0.528647125,1,1.942489385604858,1
2.267859936,-0.562641025,1,-4.815772057,1,-7.311817646,1,1.358418345451355,1,1.856469631195068,1,-1.655088663,1,0.342835009,1,-0.51947093,1,1.938151121139526,1
2.271859407,-0.823450148,1,-4.637831688,1,-7.293122768,1,1.394572734832764,1,1.855905175209045,1,-1.673722625,1,0.350449264,1,-0.510226965,1,1.933857083320618,1
2.275861025,-1.126446843,1,-4.456873894,1,-7.319115162,1,1.436912298202515,1,1.844718575,1,-1.697824001,1,0.3582964539527893,1,-0.500976384,1,1.929541349411011,1
2.279858589,-1.773140788,1,-4.404256821,1,-7.320177078,1,1.486384510993958,1,1.843341827392578,1,-1.731472015,1,0.3661948442459106,1,-0.491658986,1,1.925227642059326,1
2.283858061,-2.477095366,1,-4.536614418,1,-7.285406113,1,1.520568848,1,1.850465178489685,1,-1.767150402,1,0.3742510676383972,1,-0.48225081,1,1.920882821083069,1
2.28785944,-2.900763512,1,-4.584517002,1,-7.246071339,1,1.539371490478516,1,1.869542479515076,1,-1.795370698,1,0.3823748528957367,1,-0.472694099,1,1.916534423828125,1
2.291857243,-3.220834255,1,-4.665437222,1,-7.165211678,1,1.534570693969727,1,1.887215018,1,-1.826588154,1,0.3904972672462463,1,-0.463004827,1,1.912175297737122,1
2.295856714,-3.313980341,1,-4.486107826,1,-7.117009163,1,1.522373199462891,1,1.892494082450867,1,-1.856243253,1,0.3985277116298676,1,-0.453182995,1,1.907833099365234,1
2.299857855,-3.335733891,1,-4.249423981,1,-7.001859188,1,1.501898884773254,1,1.878718495368958,1,-1.873870254,1,0.406452477,1,-0.443325937,1,1.903482318,1
2.303855658,-3.404541731,1,-3.94892478,1,-6.725727081,1,1.485176920890808,1,1.841376423835754,1,-1.882144332,1,0.4142663478851318,1,-0.433503956,1,1.899152994155884,1
2.307855129,-3.453436613,1,-3.535229206,1,-6.483155727,1,1.471549034118652,1,1.795758962631226,1,-1.882929444,1,0.4219683408737183,1,-0.423788667,1,1.894830584526062,1
2.31185627,-3.635473013,1,-3.241588593,1,-6.214098454,1,1.466103792190552,1,1.727856755256653,1,-1.876527786,1,0.4296116232872009,1,-0.414268285,1,1.890512228012085,1
2.315854073,-3.628371477,1,-3.107310295,1,-6.044543743,1,1.478783845901489,1,1.645303249359131,1,-1.859462142,1,0.437207818,1,-0.405002207,1,1.886217713356018,1
2.319853544,-3.964405775,1,-3.044914722,1,-5.985849857,1,1.501808643341064,1,1.547093629837036,1,-1.831917286,1,0.4448323845863342,1,-0.396078348,1,1.881934047,1
2.323855162,-4.511571884,1,-2.964545727,1,-6.106382847,1,1.542834401130676,1,1.455846190452576,1,-1.805564165,1,0.452542245,1,-0.387512147,1,1.877662062644958,1
2.327852726,-5.330157757,1,-2.623823643,1,-6.333367825,1,1.596302628517151,1,1.364591836929321,1,-1.802005529,1,0.460413396,1,-0.379268706,1,1.873363018035889,1
2.331852198,-6.392764568,1,-2.500306845,1,-6.406689167,1,1.659024715423584,1,1.286000252,1,-1.816635132,1,0.4685339629650116,1,-0.371298194,1,1.868961691856384,1
2.335853815,-7.371566772,1,-2.631452799,1,-6.558188915,1,1.714041471481323,1,1.235881686210632,1,-1.845451713,1,0.4769207537174225,1,-0.363483042,1,1.864423871040344,1
2.339851618,-8.188840866,1,-2.878285885,1,-6.570516109,1,1.738353490829468,1,1.203582763671875,1,-1.889618039,1,0.4854736626148224,1,-0.355694532,1,1.859767913818359,1
2.343850851,-8.374775887,1,-3.072321653,1,-6.380873203,1,1.776563286781311,1,1.139001965522766,1,-1.904789209,1,0.4941699802875519,1,-0.347981632,1,1.854971408843994,1
2.34785223,-9.270057678,1,-3.353470564,1,-6.581291199,1,1.777721405029297,1,1.093323230743408,1,-1.910818934,1,0.5029100179672241,1,-0.340412498,1,1.850118160247803,1
2.351849794,-10.16797447,1,-3.318337917,1,-6.793536663,1,1.788613796234131,1,1.047571182250977,1,-1.926548123,1,0.5116710066795349,1,-0.332940876,1,1.845213890075684,1
2.355849266,-11.68567657,1,-2.97129631,1,-6.937610149,1,1.808094024658203,1,1.030757904052734,1,-1.959485173,1,0.5204737782478333,1,-0.325506657,1,1.840233683586121,1
2.359850645,-13.13543701,1,-2.295193672,1,-7.087031841,1,1.834855556488037,1,1.048681974411011,1,-1.998084307,1,0.529349685,1,-0.317951083,1,1.835205912590027,1
2.36385417,-13.92979622,1,-1.630739808,1,-7.257764816,1,1.866045355796814,1,1.08254087,1,-2.026970625,1,0.5382975935935974,1,-0.310180664,1,1.830204725265503,1
2.367853642,-14.30704498,1,-0.807389736,1,-7.420238972,1,1.924595713615417,1,1.099825620651245,1,-2.060094357,1,0.5473688244819641,1,-0.302219272,1,1.825233697891235,1
2.371854782,-14.72006798,1,-0.344247431,1,-7.386212349,1,1.972192764282227,1,1.105094194412231,1,-2.077290297,1,0.5566108822822571,1,-0.294122249,1,1.820283651351929,1
2.375852346,-15.2716589,1,0.2125556021928787,1,-7.228590965,1,2.012372016906738,1,1.100439786911011,1,-2.077733755,1,0.565989614,1,-0.285963148,1,1.815390825271606,1
2.379851818,-16.00245285,1,0.4141106605529785,1,-6.937674046,1,2.040723801,1,1.083016514778137,1,-2.054829121,1,0.5754318833351135,1,-0.277823329,1,1.810602784156799,1
2.383852959,-16.81231689,1,0.1066469252109528,1,-6.539130688,1,2.013986587524414,1,1.093921780586243,1,-2.01437521,1,0.5847940444946289,1,-0.269722283,1,1.806008338928223,1
2.387850761,-17.01650238,1,-0.31733045,1,-6.0090909,1,1.928536295890808,1,1.095302224159241,1,-1.952784419,1,0.593821645,1,-0.2616795,1,1.801697492599487,1
2.391850233,-17.16268349,1,-0.752101243,1,-5.698018551,1,1.785958886146545,1,1.092345714569092,1,-1.850896358,1,0.6022771596908569,1,-0.253777415,1,1.797735571861267,1
2.395851851,-17.02213287,1,-0.688577116,1,-5.363273621,1,1.611203193664551,1,1.092366456985474,1,-1.737662554,1,0.6099486351013184,1,-0.246088162,1,1.794208526611328,1
2.399849415,-16.91917419,1,-0.74945581,1,-4.965303898,1,1.412482023239136,1,1.068790793418884,1,-1.59825623,1,0.6167312860488892,1,-0.238712609,1,1.791149020195007,1
2.403848886,-16.7745018,1,-0.638649881,1,-4.655225754,1,1.213171005249023,1,1.043583393096924,1,-1.440659404,1,0.6225764155387878,1,-0.231750563,1,1.788589358329773,1
2.407850266,-16.75825119,1,-0.139299825,1,-4.503084183,1,1.041411638259888,1,1.018850445747375,1,-1.270408034,1,0.6275366544723511,1,-0.225238919,1,1.786549806594849,1
2.41184783,-16.48527908,1,0.4525170028209686,1,-4.28827858,1,0.9180903434753418,1,0.9948304891586304,1,-1.099534392,1,0.6317691802978516,1,-0.219187543,1,1.785054922103882,1
2.415847063,-16.18593407,1,0.9889993071556091,1,-4.107030869,1,0.8385462164878845,1,0.9650455713272095,1,-0.924108267,1,0.6354812383651733,1,-0.213631734,1,1.784090638160706,1
2.419848919,-15.71526146,1,1.085071921348572,1,-3.862785816,1,0.7981525659561157,1,0.9256855845451355,1,-0.736613452,1,0.6388397216796875,1,-0.208624631,1,1.783655643463135,1
2.423846722,-15.1882515,1,0.9338123798370361,1,-3.525042534,1,0.7767359018325806,1,0.8586711287498474,1,-0.54364413,1,0.6419700980186462,1,-0.204226047,1,1.783735513687134,1
2.427845955,-14.74895763,1,0.5866983532905579,1,-3.172484636,1,0.7670938968658447,1,0.7935326099395752,1,-0.340638876,1,0.6449418067932129,1,-0.200512916,1,1.784322977,1
2.431847334,-14.45069981,1,0.2801153361797333,1,-2.925158024,1,0.7735458016395569,1,0.7093138694763184,1,-0.121949524,1,0.6478093862533569,1,-0.197549075,1,1.785413861274719,1
2.435845137,-14.15204811,1,0.092907146,1,-2.665901423,1,0.7738193869590759,1,0.6211251020431519,1,0.080679029,1,0.6505927443504333,1,-0.195374012,1,1.786988973617554,1
2.43984437,-13.87693214,1,-0.037198648,1,-2.543781281,1,0.7761145830154419,1,0.5279442667961121,1,0.2811939418315887,1,0.6532999277114868,1,-0.193988755,1,1.788998007774353,1
2.443845987,-13.48015308,1,-0.035079561,1,-2.42307353,1,0.7882381081581116,1,0.4254435002803802,1,0.475199968,1,0.6559652090072632,1,-0.193395406,1,1.791404485702515,1
2.447843313,-13.12501431,1,-0.145894885,1,-2.355505466,1,0.8016858100891113,1,0.3113353252410889,1,0.6512090563774109,1,0.6586210131645203,1,-0.193609491,1,1.794135570526123,1
2.451842785,-12.772295,1,-0.186815843,1,-2.316984415,1,0.8250697255134583,1,0.1826400011777878,1,0.8247072696685791,1,0.661293626,1,-0.194639429,1,1.797135472297668,1
2.455844402,-12.5952034,1,-0.374821186,1,-2.328830004,1,0.8439379334449768,1,0.063514344,1,0.9806749224662781,1,0.6640037298202515,1,-0.196463689,1,1.800353527069092,1
2.459841728,-12.45481586,1,-0.518615723,1,-2.45349431,1,0.8673272728919983,1,-0.06144926,1,1.112956285476685,1,0.6667600870132446,1,-0.199051812,1,1.803722023963928,1
2.4638412,-12.50811195,1,-0.626196265,1,-2.620326281,1,0.8678852915763855,1,-0.184941977,1,1.228224515914917,1,0.669550896,1,-0.202342868,1,1.807165384292603,1
2.467842579,-12.32514286,1,-0.707649767,1,-2.77970314,1,0.8645755052566528,1,-0.298435926,1,1.315877795219421,1,0.6723236441612244,1,-0.206268445,1,1.810625553131104,1
2.471839905,-12.12511444,1,-0.912466347,1,-2.891387224,1,0.8358898162841797,1,-0.419267029,1,1.393162488937378,1,0.6750147938728333,1,-0.210766226,1,1.814046144485474,1
2.475839376,-11.86969662,1,-1.225965023,1,-3.011355877,1,0.78836298,1,-0.530620515,1,1.459605336,1,0.6775588989257813,1,-0.215822294,1,1.817376971244812,1
2.479840755,-11.72626686,1,-1.827456474,1,-3.173509598,1,0.7058115005493164,1,-0.622607529,1,1.515796542167664,1,0.6798498630523682,1,-0.221353367,1,1.820631980895996,1
2.48384428,-11.87631512,1,-2.262761593,1,-3.480599165,1,0.6072154641151428,1,-0.709393978,1,1.557465791702271,1,0.6817707419395447,1,-0.227296233,1,1.823806047439575,1
2.487843752,-12.20874691,1,-2.455019236,1,-3.813461542,1,0.504106343,1,-0.762839437,1,1.577854752540588,1,0.6832725405693054,1,-0.233554408,1,1.826901555,1
2.491845131,4.347860336303711,1,-33.21894455,1,-14.0830164,1,-1.406433344,1,-1.214468956,1,1.568433642,1,0.6820597052574158,1,-0.240467489,1,1.829546213150024,1
2.495842934,-4.717618465,1,-31.57865906,1,-7.563532352,1,-4.34075737,1,-1.793603659,1,1.856322288513184,1,0.6693869829177856,1,-0.249423265,1,1.830876111984253,1
2.499842405,4.209019660949707,1,-13.01264,1,-6.995268822,1,-4.380374908,1,-1.803696275,1,2.175901889801025,1,0.6512178182601929,1,-0.260177493,1,1.833080649375916,1
2.503843784,6.691103458404541,1,-9.819249153,1,-11.57733822,1,-4.614904881,1,-2.010663271,1,2.192047595977783,1,0.632596493,1,-0.271600395,1,1.835519313812256,1
2.507841587,10.46125984191895,1,-6.211608887,1,-16.40176773,1,-4.327672005,1,-1.649217606,1,1.887266397476196,1,0.6138513088226318,1,-0.282378614,1,1.838004708,1
2.51184082,9.284287452697754,1,-8.682785034,1,-19.26858711,1,-4.096892834,1,-1.403511882,1,1.553961634635925,1,0.5963889360427856,1,-0.291328251,1,1.840279340744019,1
2.515842199,7.980976581573486,1,-10.14009285,1,-16.97662926,1,-3.77415204,1,-1.481642127,1,1.257013440132141,1,0.5802872180938721,1,-0.299159765,1,1.841958522796631,1
2.519839764,8.116174697875977,1,-5.683810711,1,-14.50640297,1,-3.494016409,1,-1.792044878,1,1.127437472343445,1,0.5656070113182068,1,-0.30714643,1,1.842387437820435,1
2.523839235,5.383740425109863,1,-3.455444813,1,-11.83579159,1,-3.288381815,1,-2.239917517,1,1.232367157936096,1,0.5522745847702026,1,-0.31645602,1,1.840935349464417,1
2.527840853,-0.694741666,1,-0.0056843,1,-10.59919167,1,-3.151050091,1,-2.787975073,1,1.476331472396851,1,0.5396037697792053,1,-0.327867389,1,1.840311288833618,1
2.531838179,-6.553283691,1,6.767761707305908,1,-11.22057247,1,-2.588442087,1,-3.067100286,1,1.624209403991699,1,0.5282746553421021,1,-0.341169685,1,1.839627981185913,1
2.535837412,-13.72546864,1,6.704358100891113,1,-14.27697182,1,-2.318506002,1,-3.169832468,1,1.739941358566284,1,0.5187491774559021,1,-0.355365515,1,1.839149117469788,1
2.539839029,-16.6083889,1,8.894843101501465,1,-15.05077267,1,-2.106648207,1,-2.98223567,1,1.889571428,1,0.5097030997276306,1,-0.369749248,1,1.839403748512268,1
2.543836355,-18.69717216,1,9.107158660888672,1,-17.49731827,1,-1.800546288,1,-2.673142433,1,1.922395825386047,1,0.5014384984970093,1,-0.383350402,1,1.840715646743774,1
2.547835827,-22.44752693,1,8.696585655212402,1,-19.34035492,1,-1.462857485,1,-2.220062256,1,1.926168799,1,0.4940599799156189,1,-0.3956545,1,1.842960119247437,1
2.551837206,-21.86221313,1,8.529186248779297,1,-18.80314255,1,-1.104110599,1,-1.655103445,1,1.830364346504211,1,0.487721324,1,-0.406042516,1,1.846191048622131,1
2.555834532,-18.10107803,1,5.868896961212158,1,-16.43937492,1,-0.821873844,1,-1.243340254,1,1.713498235,1,0.4823095798492432,1,-0.414448619,1,1.850118876,1
2.559834003,-15.7017622,1,3.988438606262207,1,-11.60305405,1,-0.707213759,1,-1.005542517,1,1.557184934616089,1,0.4774441719055176,1,-0.421443164,1,1.854252219200134,1
2.563835621,-10.34190083,1,-0.539716363,1,-10.90241623,1,-0.384184808,1,-0.896541059,1,1.345412254333496,1,0.4738130569458008,1,-0.427386612,1,1.858026742935181,1
2.567833185,-7.208963871,1,-2.841356516,1,-9.545700073,1,-0.318026811,1,-0.950932205,1,1.173195004463196,1,0.4711474776268005,1,-0.433009356,1,1.861112117767334,1
2.571832657,-4.856427193,1,-5.201094627,1,-7.799335003,1,-0.251232892,1,-1.092060566,1,0.9661787152290344,1,0.4690619707107544,1,-0.438568652,1,1.863296031951904,1
2.575833797,-4.49130106,1,-6.046361446,1,-7.851419449,1,-0.187525153,1,-1.248793125,1,0.7734465599060059,1,0.4677222669124603,1,-0.444305092,1,1.864373683929443,1
2.5798316,-6.797588348,1,-7.561657906,1,-7.711471558,1,-0.225488424,1,-1.267892599,1,0.687702477,1,0.4667612612247467,1,-0.450166166,1,1.864717721939087,1
2.583830833,-6.009305954,1,-6.610489845,1,-8.070579529,1,-0.276019573,1,-1.184003592,1,0.596954346,1,0.4657165110111237,1,-0.455685794,1,1.864803671836853,1
2.587831974,-6.766063213,1,-4.770142555,1,-7.989382744,1,-0.322630912,1,-1.063284159,1,0.5870512127876282,1,0.4644711017608643,1,-0.460757971,1,1.864904761314392,1
2.591829538,-6.789741516,1,-3.386775017,1,-7.878246307,1,-0.346381992,1,-0.923893869,1,0.6136446595191956,1,0.4629561007022858,1,-0.46538052,1,1.865307211875916,1
2.595828772,-6.132853985,1,-2.265981674,1,-7.812484264,1,-0.381472737,1,-0.801412702,1,0.6966195702552795,1,0.461108923,1,-0.469635129,1,1.866207480430603,1
2.599830389,-6.000019073,1,-2.147420168,1,-7.884480476,1,-0.419369668,1,-0.700880945,1,0.7739670872688293,1,0.4588467478752136,1,-0.473625958,1,1.867671728134155,1
2.603833675,-7.025308609,1,-3.424870253,1,-7.50423336,1,-0.488428861,1,-0.599975586,1,0.8288527131080627,1,0.4561270177364349,1,-0.47739172,1,1.869635462760925,1
2.607832909,-7.798430443,1,-4.991116047,1,-7.371709824,1,-0.54451704,1,-0.473010093,1,0.7967193722724915,1,0.4530279636383057,1,-0.480768174,1,1.871894955635071,1
2.611834049,-8.154756546,1,-5.897517204,1,-7.242677689,1,-0.601642311,1,-0.338955343,1,0.7124357223510742,1,0.4496719241142273,1,-0.483528793,1,1.874170184135437,1
2.615831614,-9.113888741,1,-6.361422539,1,-7.269248009,1,-0.697767138,1,-0.21238412,1,0.6093721985816956,1,0.4460837244987488,1,-0.485681742,1,1.876319646835327,1
2.619830847,-7.98295784,1,-6.04958725,1,-7.328508377,1,-0.774783134,1,-0.091709621,1,0.5412611961364746,1,0.4421772360801697,1,-0.487204939,1,1.878356218338013,1
2.623831987,-7.750456333,1,-5.120638847,1,-7.899282932,1,-0.824336767,1,0.018131454,1,0.510356605,1,0.4380085170269012,1,-0.488230407,1,1.880432367324829,1
2.627829552,-7.048502445,1,-4.284296036,1,-8.898514748,1,-0.851094961,1,0.1129834651947021,1,0.4922413527965546,1,0.4336179792881012,1,-0.488832414,1,1.882615923881531,1
2.631828785,-6.808775425,1,-3.251826286,1,-9.536073685,1,-0.844064236,1,0.2176866680383682,1,0.4761386513710022,1,0.4291236996650696,1,-0.489039272,1,1.884921073913574,1
2.635829926,-5.43193388,1,-2.72184515,1,-9.016077042,1,-0.82410723,1,0.2751927673816681,1,0.4967694580554962,1,0.4246218204498291,1,-0.488923252,1,1.887399315834045,1
2.639827251,-4.640474796,1,-3.12176609,1,-8.699149132,1,-0.817224324,1,0.2651332020759583,1,0.4997594058513641,1,0.4201208353042603,1,-0.488749206,1,1.889986991882324,1
2.643826723,-4.493444443,1,-3.559880972,1,-8.744371414,1,-0.776022315,1,0.2206976711750031,1,0.4727503061294556,1,0.4157834947109222,1,-0.488648772,1,1.892447233200073,1
2.647827864,-4.647968769,1,-3.341761351,1,-8.327777863,1,-0.734583199,1,0.2012951970100403,1,0.428452194,1,0.4116616547107697,1,-0.488605052,1,1.894689321517944,1
2.65182519,-4.220378399,1,-3.603027821,1,-8.737606049,1,-0.708171666,1,0.1760201156139374,1,0.4145040810108185,1,0.4078063368797302,1,-0.48857519,1,1.896795034408569,1
2.655824423,-3.99883914,1,-3.332981348,1,-8.618082047,1,-0.686106324,1,0.152986154,1,0.4204016029834747,1,0.40406388,1,-0.488633096,1,1.898833394050598,1
2.659825563,-3.674937487,1,-2.95522356,1,-8.794543266,1,-0.661965907,1,0.1191397979855537,1,0.4230789840221405,1,0.4004318118095398,1,-0.488781512,1,1.900829195976257,1
2.663823366,-4.400012493,1,-2.777014256,1,-9.154800415,1,-0.621458948,1,0.1030074506998062,1,0.4243932962417603,1,0.3969431519508362,1,-0.489030421,1,1.902799606323242,1
2.667822838,-3.927525759,1,-2.642642975,1,-8.845078468,1,-0.594313741,1,0.085621655,1,0.4329669773578644,1,0.3935936093330383,1,-0.489340127,1,1.904753208,1
2.671824217,-3.853673697,1,-2.435110569,1,-8.937950134,1,-0.558223903,1,0.042498063,1,0.4220044314861298,1,0.3904049098491669,1,-0.489759237,1,1.906649470329285,1
2.675821781,-4.33156538,1,-2.455994129,1,-9.075393677,1,-0.522917211,1,0.021743076,1,0.4120669662952423,1,0.3873992562294006,1,-0.490283966,1,1.908442139625549,1
2.679821014,-4.524016857,1,-2.166968107,1,-9.038048744,1,-0.475649208,1,0.006255608,1,0.4032106697559357,1,0.3845760524272919,1,-0.490847498,1,1.910181999206543,1
2.683822393,-4.584420204,1,-2.274954319,1,-8.829268456,1,-0.432185799,1,-0.005520748,1,0.3811955451965332,1,0.3819817900657654,1,-0.491426915,1,1.911831259727478,1
2.687819719,-4.593442917,1,-2.437201023,1,-8.823838234,1,-0.393330723,1,-0.021582451,1,0.3644992113113403,1,0.3796123862266541,1,-0.492019653,1,1.913377165794373,1
2.691818953,-4.791810036,1,-2.308453798,1,-8.793688774,1,-0.34613657,1,-0.018667569,1,0.3530049324035645,1,0.3774502575397491,1,-0.492636919,1,1.914834499359131,1
2.69582057,-4.367198944,1,-2.305266619,1,-8.797616959,1,-0.310597867,1,-0.045844916,1,0.3432657718658447,1,0.3754480481147766,1,-0.49326241,1,1.916255354881287,1
2.699817896,-4.495532036,1,-2.593878746,1,-8.736541748,1,-0.277658939,1,-0.061786979,1,0.3384784460067749,1,0.3736356198787689,1,-0.493951142,1,1.917605400085449,1
2.703817129,-4.38492012,1,-2.707196951,1,-8.654275894,1,-0.245433018,1,-0.083331719,1,0.3347335159778595,1,0.3719768226146698,1,-0.494713426,1,1.918911457061768,1
2.707818747,-4.471033573,1,-3.064550877,1,-8.553124428,1,-0.221190423,1,-0.107301481,1,0.33342576,1,0.370452881,1,-0.495563567,1,1.920166730880737,1
2.711816311,-4.399654388,1,-3.322692394,1,-8.531386375,1,-0.197491065,1,-0.128863096,1,0.3251264989376068,1,0.3690471649169922,1,-0.496475816,1,1.921361804008484,1
2.715815306,-4.568849564,1,-3.391019344,1,-8.430024147,1,-0.1851006,1,-0.134765789,1,0.3367252945899963,1,0.3677232265472412,1,-0.497449785,1,1.922540307044983,1
2.719816685,-4.14552021,1,-3.281321764,1,-8.404800415,1,-0.169813707,1,-0.156344265,1,0.3394601345062256,1,0.3664511740207672,1,-0.498467267,1,1.923731327056885,1
2.723819733,-4.378601551,1,-3.275842428,1,-8.309762955,1,-0.160774171,1,-0.182146251,1,0.3311431109905243,1,0.3652379512786865,1,-0.499575794,1,1.924881458282471,1
2.727819204,-4.580086708,1,-3.271305084,1,-8.360063553,1,-0.150517374,1,-0.195523739,1,0.3281992673873901,1,0.364078164,1,-0.50076139,1,1.925991415977478,1
2.731820583,-4.385128498,1,-3.090189695,1,-8.323950768,1,-0.155198961,1,-0.197542652,1,0.3297863900661469,1,0.3629491925239563,1,-0.501962006,1,1.927070379257202,1
2.735817671,-4.518648148,1,-3.117068529,1,-8.404681206,1,-0.168759108,1,-0.210544378,1,0.3262487649917603,1,0.3617996573448181,1,-0.503191233,1,1.928129792,1
2.739816904,-4.716244698,1,-3.229886055,1,-8.293281555,1,-0.182143807,1,-0.21661149,1,0.3199913501739502,1,0.3605931103229523,1,-0.504453242,1,1.929170370101929,1
2.743818283,-4.839006424,1,-3.505045176,1,-8.129977226,1,-0.212095931,1,-0.224799931,1,0.3096222579479218,1,0.3593378067016602,1,-0.505728722,1,1.930157185,1
2.747815609,-5.008676052,1,-3.685863018,1,-8.126276016,1,-0.242728472,1,-0.225115538,1,0.2929225564002991,1,0.3579707741737366,1,-0.506986618,1,1.931092619895935,1
2.751815081,-4.980039597,1,-3.791707277,1,-7.9895401,1,-0.268224865,1,-0.226116657,1,0.2785199880599976,1,0.3565310537815094,1,-0.50823307,1,1.931951165,1
2.75581646,-4.111769676,1,-3.520887136,1,-7.7941432,1,-0.30182603,1,-0.212723076,1,0.2681858837604523,1,0.3549585938453674,1,-0.509448707,1,1.932797431945801,1
2.759813786,-5.129334927,1,-3.458987713,1,-7.846654892,1,-0.313146979,1,-0.236139715,1,0.2589029669761658,1,0.3533569872379303,1,-0.510677814,1,1.933566451072693,1
2.763813019,-5.101098061,1,-3.123230934,1,-7.863967419,1,-0.324875355,1,-0.223519385,1,0.2530767917633057,1,0.351721466,1,-0.511888623,1,1.934288979,1
2.767814398,-5.099764824,1,-2.793580294,1,-7.94571209,1,-0.325702578,1,-0.230406076,1,0.2452621161937714,1,0.3500727713108063,1,-0.513080835,1,1.935002684593201,1
2.771811724,-5.81603384,1,-2.621648312,1,-7.953351974,1,-0.327769279,1,-0.19278203,1,0.2490125298500061,1,0.3484114706516266,1,-0.514231741,1,1.935734987258911,1
2.775810957,-4.784735203,1,-2.334376335,1,-8.328828812,1,-0.287593365,1,-0.224615976,1,0.2118926048278809,1,0.3411596119403839,1,-0.518521547,1,1.938856006,1
2.779812336,-4.884455681,1,-2.118087053,1,-8.208838463,1,-0.27008146,1,-0.220247805,1,0.1963287144899368,1,0.3398523330688477,1,-0.519660532,1,1.938343405723572,1
2.783810139,-4.546293259,1,-2.362772942,1,-8.470825195,1,-0.25241518,1,-0.212096542,1,0.1769163906574249,1,0.338567853,1,-0.520721912,1,1.938825249671936,1
2.787809372,-5.418629646,1,-2.308545828,1,-8.332289696,1,-0.229359433,1,-0.207745135,1,0.1686942279338837,1,0.3374084532260895,1,-0.521746635,1,1.939243078231812,1
2.791810989,-4.380124092,1,-2.111157894,1,-8.576875687,1,-0.184497699,1,-0.223293722,1,0.1503379195928574,1,0.3363693356513977,1,-0.522736788,1,1.939620852470398,1
2.795808792,-4.81023407,1,-2.26925993,1,-8.459900856,1,-0.163799375,1,-0.231625855,1,0.1391535401344299,1,0.3355399370193481,1,-0.523787916,1,1.939904451370239,1
2.799808025,-4.633214951,1,-2.457224607,1,-8.399261475,1,-0.137496099,1,-0.242971271,1,0.1345749497413635,1,0.3348292112350464,1,-0.524860322,1,1.940136313438416,1
2.803809643,-4.809438705,1,-2.731456041,1,-8.235086441,1,-0.117335506,1,-0.252047718,1,0.14225404,1,0.3341970145702362,1,-0.525974154,1,1.940374255180359,1
2.807806969,-4.914235115,1,-2.852778673,1,-8.166534424,1,-0.106788829,1,-0.254006028,1,0.1381976157426834,1,0.3336453437805176,1,-0.527106941,1,1.940598845481873,1
2.811806202,-5.102292061,1,-3.12813139,1,-8.120121002,1,-0.0949554,1,-0.255266249,1,0.1524008810520172,1,0.3331364691257477,1,-0.528252006,1,1.940829515457153,1
2.815807819,-4.154392242,1,-2.986415625,1,-8.08479023,1,-0.094627969,1,-0.246261954,1,0.1498744487762451,1,0.3325835466384888,1,-0.529375732,1,1.941139340400696,1
2.819805145,-4.796532154,1,-3.046479464,1,-7.981724739,1,-0.0925752,1,-0.25656271,1,0.1694963127374649,1,0.3320758938789368,1,-0.53055197,1,1.941448689,1
2.823804617,-4.80665493,1,-3.030968904,1,-7.941709518,1,-0.090115331,1,-0.24912867,1,0.1693603843450546,1,0.331527054,1,-0.531738102,1,1.941809654,1
2.827805996,-5.016475201,1,-2.899596214,1,-7.811840057,1,-0.099453114,1,-0.234305948,1,0.183294803,1,0.3309372663497925,1,-0.532890916,1,1.942213773727417,1
2.831803322,-5.081939697,1,-3.092507839,1,-7.908028126,1,-0.099974662,1,-0.225400209,1,0.2022287547588348,1,0.3302972316741943,1,-0.534004688,1,1.942700386047363,1
2.835802794,-3.869372368,1,-3.111818314,1,-7.910758018,1,-0.105532549,1,-0.201093644,1,0.1971986442804337,1,0.3295719921588898,1,-0.535059333,1,1.943284511566162,1
2.839804173,-4.728283405,1,-3.25427866,1,-7.894116879,1,-0.110885873,1,-0.22053808,1,0.2179913073778152,1,0.3288421630859375,1,-0.536142766,1,1.943877577781677,1
2.84380722,-4.740712643,1,-3.216500998,1,-7.99354887,1,-0.135472462,1,-0.22085312,1,0.233910084,1,0.3280134201049805,1,-0.53727001,1,1.944538354873657,1
2.847806692,-5.090605736,1,-3.05007863,1,-7.984834194,1,-0.136223823,1,-0.207255125,1,0.2482211738824844,1,0.3270947337150574,1,-0.538386643,1,1.945275307,1
2.851808071,-4.171058655,1,-2.777111292,1,-8.081469536,1,-0.134425044,1,-0.197689503,1,0.2386961877346039,1,0.326136589,1,-0.539446712,1,1.946068286895752,1
2.855805397,-4.878839493,1,-2.635283232,1,-8.116134644,1,-0.123283893,1,-0.226312876,1,0.2450683116912842,1,0.3252332210540771,1,-0.540575504,1,1.946826577186584,1
2.85980463,-4.90667963,1,-2.740851641,1,-8.159377098,1,-0.119769394,1,-0.226134807,1,0.2461686134338379,1,0.3243627548217773,1,-0.541747212,1,1.947576165,1
2.863806009,-4.884500504,1,-2.534211636,1,-8.107007027,1,-0.109809116,1,-0.229695767,1,0.2515450716018677,1,0.3235124945640564,1,-0.542933047,1,1.948328971862793,1
2.867803335,-5.392834663,1,-2.816620111,1,-8.202813148,1,-0.115854792,1,-0.233967334,1,0.2685216069221497,1,0.3226463496685028,1,-0.544140518,1,1.949136615,1
2.871802568,-4.355781078,1,-2.68898654,1,-8.079538345,1,-0.102526687,1,-0.228784233,1,0.2508459687232971,1,0.3217721581459045,1,-0.545319021,1,1.949955940246582,1
2.875803947,-4.814319611,1,-2.752627134,1,-8.11889267,1,-0.084946349,1,-0.245598912,1,0.2570391893386841,1,0.3210091590881348,1,-0.546548367,1,1.950731039047241,1
2.879801273,-4.7955513,1,-2.743006706,1,-8.185827255,1,-0.087110758,1,-0.25495857,1,0.2680942714214325,1,0.320254922,1,-0.547827244,1,1.951529383659363,1
2.883800507,-4.688675404,1,-2.678978443,1,-8.141708374,1,-0.071411118,1,-0.267687172,1,0.2609618306159973,1,0.3195386528968811,1,-0.549149573,1,1.952318906784058,1
2.887802124,-4.876027584,1,-2.412514448,1,-8.227434158,1,-0.05392861,1,-0.282128483,1,0.2676828503608704,1,0.3188836872577667,1,-0.550529122,1,1.953087449073792,1
2.891799927,-4.923025608,1,-2.417985916,1,-8.208790779,1,-0.035754014,1,-0.292453825,1,0.2766090333461761,1,0.3182943165302277,1,-0.551965714,1,1.953870773,1
2.895798922,-5.843411922,1,-2.627080202,1,-8.281357765,1,-0.050860949,1,-0.292081296,1,0.2956548035144806,1,0.3177030384540558,1,-0.553444922,1,1.954700231552124,1
2.899800539,-4.288007259,1,-2.727904797,1,-8.383652687,1,-0.054405246,1,-0.329330117,1,0.2762980759143829,1,0.3170552551746368,1,-0.554947793,1,1.955524206161499,1
2.903798103,-4.836294651,1,-2.229254484,1,-8.333807945,1,-0.051971447,1,-0.356201649,1,0.2829615771770477,1,0.3164392113685608,1,-0.556603789,1,1.95626688,1
2.907797575,-4.866684914,1,-2.047061205,1,-8.084180832,1,-0.037787128,1,-0.348468244,1,0.2771709263324738,1,0.3158803582191467,1,-0.558309793,1,1.956994771957397,1
2.911798954,-4.780801773,1,-2.631711006,1,-8.412337303,1,-0.035961028,1,-0.390846938,1,0.2832521498203278,1,0.3153727352619171,1,-0.560061634,1,1.957717061042786,1
2.915796518,-4.732246399,1,-2.615314245,1,-8.278081894,1,-0.052245993,1,-0.415271938,1,0.2804639637470245,1,0.3148285746574402,1,-0.561950743,1,1.958396315574646,1
2.91979599,-4.933391571,1,-2.541185141,1,-8.375515938,1,-0.044495098,1,-0.432263702,1,0.2857332825660706,1,0.3142844438552856,1,-0.563911736,1,1.959054231643677,1
2.923797607,-4.835562229,1,-2.506041527,1,-8.440401077,1,-0.038220502,1,-0.455622524,1,0.2833895683288574,1,0.3137708902359009,1,-0.565949738,1,1.959692001342773,1
2.927795172,-4.856147289,1,-2.632706881,1,-8.554938316,1,-0.025145253,1,-0.487033695,1,0.2866432666778564,1,0.3133231997489929,1,-0.568094969,1,1.960291266441345,1
2.931794643,-4.964950085,1,-2.311825037,1,-8.644704819,1,-0.012400801,1,-0.52108407,1,0.2914068102836609,1,0.3129284381866455,1,-0.570374846,1,1.960858464241028,1
2.935796022,-4.996651649,1,-2.399268389,1,-8.638775826,1,0.019304456,1,-0.554582834,1,0.3034493029117584,1,0.3126542866230011,1,-0.572791517,1,1.961409807,1
2.939793587,-4.9806633,1,-2.526909113,1,-8.572402954,1,0.023919301,1,-0.592248201,1,0.3119257092475891,1,0.3124437034130096,1,-0.575354099,1,1.961969375610352,1
2.943793058,-4.940622807,1,-2.480418444,1,-8.57199192,1,0.042655405,1,-0.625082254,1,0.3201565146446228,1,0.3122764229774475,1,-0.578050017,1,1.962513208389282,1
2.947794676,-4.976330757,1,-2.456523657,1,-8.668603897,1,0.059716392,1,-0.651439846,1,0.3288498818874359,1,0.3121916055679321,1,-0.580880642,1,1.963060498,1
2.951792479,-4.946958065,1,-2.337424755,1,-8.740030289,1,0.08470434,1,-0.684048355,1,0.3358858823776245,1,0.3121747672557831,1,-0.583828032,1,1.963601947,1
2.955791712,-4.986148357,1,-2.06739068,1,-8.713334084,1,0.1269824057817459,1,-0.712278128,1,0.3475402593612671,1,0.3123036026954651,1,-0.586910725,1,1.964140415,1
2.959792852,-5.118981838,1,-2.26860857,1,-8.946418762,1,0.1530305296182632,1,-0.748355806,1,0.350673109,1,0.3125653862953186,1,-0.590124309,1,1.964665055274963,1
2.963790417,-4.979061127,1,-2.450046062,1,-8.82585907,1,0.1648183614015579,1,-0.793998659,1,0.357232392,1,0.3129213154315948,1,-0.593495071,1,1.965152382850647,1
2.96779561,-5.094918251,1,-2.63555336,1,-9.037877083,1,0.1771402060985565,1,-0.835801303,1,0.3628909289836884,1,0.3133493661880493,1,-0.597038269,1,1.965602397918701,1
2.971797228,-4.909161091,1,-2.578723431,1,-9.061752319,1,0.1818461716175079,1,-0.889938593,1,0.3784976601600647,1,0.3138366639614105,1,-0.600774944,1,1.966019153594971,1
2.975794792,-4.935484409,1,-2.468248606,1,-9.1283741,1,0.1945572346448898,1,-0.948781669,1,0.3869365155696869,1,0.3143835663795471,1,-0.604747176,1,1.966396689414978,1
2.979794025,-4.978755951,1,-2.430992365,1,-9.136419296,1,0.198595405,1,-1.009440184,1,0.4012295007705688,1,0.3149625062942505,1,-0.608950615,1,1.966752171516418,1
2.983795404,-4.914711475,1,-2.406805038,1,-9.204257011,1,0.193597287,1,-1.062158465,1,0.4097380638122559,1,0.3155557811260223,1,-0.613400102,1,1.967077255249023,1
2.987792969,-5.109004974,1,-2.408495188,1,-9.436896324,1,0.2141416817903519,1,-1.124446988,1,0.4193113744258881,1,0.3162190914154053,1,-0.618070662,1,1.967346549034119,1
2.991792202,-4.599474907,1,-3.089831114,1,-9.258751869,1,0.2109010964632034,1,-1.193375587,1,0.4416552186012268,1,0.3169260621070862,1,-0.623002887,1,1.967580080032349,1
2.995793581,-5.25092411,1,-3.428243637,1,-9.613555908,1,0.2070913016796112,1,-1.254677773,1,0.4583539962768555,1,0.3176405131816864,1,-0.628222883,1,1.967797040939331,1
2.999791145,-4.269272804,1,-4.310007572,1,-9.086437225,1,0.1305524855852127,1,-1.345062733,1,0.5014717578887939,1,0.3181823790073395,1,-0.633754969,1,1.968047261238098,1
3.003790617,-4.912369251,1,-4.113905907,1,-9.168624878,1,0.086197816,1,-1.422347188,1,0.5293278098106384,1,0.3184427618980408,1,-0.639660656,1,1.968338966369629,1
3.007792234,-4.615488052,1,-3.868403912,1,-9.079571724,1,0.06008191,1,-1.487745285,1,0.5702202916145325,1,0.3185302019119263,1,-0.645860314,1,1.968664050102234,1
3.01178956,-4.987320423,1,-3.948791265,1,-9.277900696,1,0.050799139,1,-1.547981739,1,0.6247372627258301,1,0.3184850215911865,1,-0.652385235,1,1.969114184379578,1
3.015789032,-4.817309856,1,-4.347143173,1,-9.092023849,1,0.0356743,1,-1.620426059,1,0.6926916241645813,1,0.3182610273361206,1,-0.659211636,1,1.969758152961731,1
3.019790649,-4.694436073,1,-4.717290878,1,-9.103217125,1,0.032616101,1,-1.693779707,1,0.7880476713180542,1,0.3178167939186096,1,-0.666436553,1,1.970698714256287,1
