Time,inertial-6253.76535:scaledAccelX,inertial-6253.76535:scaledAccelY,inertial-6253.76535:scaledAccelZ,inertial-6253.76535:scaledGyroX,inertial-6253.76535:scaledGyroY,inertial-6253.76535:scaledGyroZ,inertial-6253.76535:scaledMagX,inertial-6253.76535:scaledMagY,inertial-6253.76535:scaledMagZ,inertial-6253.76535:roll,inertial-6253.76535:pitch,inertial-6253.76535:yaw
0,-0.65686214,-0.149200782,-0.741684914,-0.000942719,-0.004294814,0.010010884,0.464240611,0.011993978,0.055502646,0.193565294,-0.722794294,0.017949801
0.005000192,-0.654805183,-0.148445725,-0.741712451,0.000465456,-0.00308941,0.010978891,0.464203417,0.011924079,0.055356406,0.193533644,-0.722809553,0.017983409
0.010001664,-0.654146314,-0.146515548,-0.742320359,-0.000489193,-0.005897978,0.00978651,0.464412689,0.011983658,0.055361886,0.193493262,-0.722830057,0.017996753
0.014998272,-0.653462231,-0.146526501,-0.743324339,0.00088375,-0.005069007,0.011219701,0.464797795,0.012113183,0.055420678,0.193456665,-0.722842574,0.018032612
0.019995648,-0.652228117,-0.146144077,-0.743239164,0.001354122,-0.006233987,0.009814036,0.464925498,0.012156131,0.055440173,0.193430454,-0.72286284,0.018043669
0.024993792,-0.65167582,-0.148418292,-0.742732704,0.001694986,-0.008431019,0.01007193,0.465023756,0.012189176,0.055455171,0.193410158,-0.722893596,0.018065024
0.029993216,-0.653121889,-0.150555849,-0.743098259,0.001928582,-0.009273777,0.010375148,0.46505633,0.012200133,0.055460144,0.193396598,-0.722924411,0.018088205
0.034993406,-0.654782474,-0.149034709,-0.74365741,0.002205348,-0.008597251,0.008584664,0.464619488,0.012428107,0.056371078,0.193385467,-0.722952664,0.018098565
0.039994881,-0.654118359,-0.147938326,-0.74372524,0.002705158,-0.009507546,0.009866418,0.464474648,0.012503699,0.056673128,0.1933631,-0.722994089,0.018114397
0.044991489,-0.656406403,-0.148543224,-0.744538128,0.002261908,-0.010012331,0.010399186,0.464363217,0.012561862,0.056905534,0.193338528,-0.723039031,0.018141404
0.049988866,-0.656285405,-0.149969101,-0.742457032,0.003188101,-0.011898315,0.010655663,0.464326262,0.012581147,0.056982595,0.193330228,-0.723087728,0.018159805
0.054987263,-0.655411124,-0.147723243,-0.742292345,0.002191499,-0.01209365,0.01093168,0.464351356,0.012386629,0.056469731,0.193304509,-0.723144412,0.018178809
0.059986688,-0.655939221,-0.146425083,-0.741960585,0.003024016,-0.012790733,0.009670883,0.464372933,0.012270325,0.056158092,0.193292513,-0.723206341,0.018189412
0.064986877,-0.653932273,-0.144512087,-0.744463921,0.002281225,-0.014107618,0.009528351,0.464389533,0.012180836,0.055918306,0.193264663,-0.723262072,0.01820017
0.069988862,-0.654484987,-0.146622136,-0.741276205,0.004259784,-0.01373098,0.009975773,0.464395046,0.012151163,0.055838797,0.193261638,-0.723325193,0.018214226
0.074985981,-0.654590309,-0.149261832,-0.742287934,0.004120102,-0.016678173,0.009585352,0.464371026,0.012047483,0.056341615,0.193263829,-0.723396659,0.018221399
0.0799831,-0.654441237,-0.148527756,-0.743819118,0.003316963,-0.014059857,0.009132211,0.464334607,0.011931577,0.057077065,0.193259045,-0.723457932,0.018233767
0.084981501,-0.653928757,-0.148281321,-0.741961241,0.002001696,-0.015405913,0.01035688,0.464306563,0.011842394,0.057642948,0.193241224,-0.723528206,0.018255243
0.089980669,-0.657332838,-0.146696135,-0.742711544,0.004270971,-0.01486537,0.010293471,0.464297265,0.011812823,0.057830583,0.193239063,-0.723602235,0.018267827
0.094981119,-0.657037497,-0.145237699,-0.743843436,0.004056802,-0.015261185,0.010566751,0.464290112,0.01179007,0.057974957,0.193231121,-0.723672092,0.018274406
0.099982589,-0.656454086,-0.145626009,-0.7437011,0.003767508,-0.015492531,0.01094753,0.464239717,0.011925366,0.056875154,0.193218037,-0.723742008,0.018291313
0.104979455,-0.656989038,-0.148009464,-0.742624044,0.004661162,-0.014856539,0.008706667,0.464200944,0.012029467,0.056028936,0.193226382,-0.72380662,0.018291555
0.109982722,-0.655837476,-0.150313884,-0.741971493,0.005267593,-0.014705312,0.009244466,0.464188099,0.012063985,0.055748343,0.193231031,-0.723870754,0.018306658
0.114981122,-0.6560148,-0.149617657,-0.74095273,0.002681524,-0.014361893,0.009057235,0.464178205,0.012090544,0.055532448,0.19322823,-0.723933935,0.018315351
0.119980291,-0.655485272,-0.149034962,-0.739883304,0.000232709,-0.013155011,0.009485959,0.464202225,0.012045725,0.05596425,0.193205401,-0.723990202,0.018327236
0.124980994,-0.653769791,-0.144801989,-0.739962459,0.001740572,-0.012953429,0.012662252,0.46424824,0.011957016,0.056805503,0.193169668,-0.724052191,0.01836201
0.129982457,-0.656728566,-0.146000713,-0.74041456,0.001997467,-0.014481938,0.010154972,0.464263499,0.011927601,0.057084445,0.193156213,-0.724119723,0.018375482
0.134979069,-0.656230986,-0.14732179,-0.738929331,0.003355134,-0.01460647,0.010225992,0.464275271,0.011904969,0.057299074,0.193142354,-0.724187791,0.018395294
0.139976442,-0.655372083,-0.148852944,-0.741201997,0.002613541,-0.011684207,0.009778954,0.464279145,0.011897464,0.057370238,0.193129316,-0.724234998,0.01840985
0.144974843,-0.655834973,-0.149853468,-0.740762651,0.002248531,-0.010123565,0.011355158,0.464414597,0.012011488,0.056035485,0.1931137,-0.72427845,0.018432669
0.149974018,-0.654546738,-0.150319606,-0.741351664,0.000215663,-0.009673865,0.012587851,0.464459509,0.012049296,0.055592906,0.193077564,-0.724317729,0.018470768
0.154974714,-0.659704626,-0.149515003,-0.740772426,-0.001555106,-0.00982094,0.014616585,0.46449405,0.012078387,0.055252373,0.193035111,-0.724364877,0.018513495
0.159976199,-0.658036172,-0.146355718,-0.740278125,-0.002294224,-0.007743568,0.014016379,0.464505494,0.012088033,0.055139456,0.19297038,-0.724402368,0.018555552
0.164972544,-0.658424854,-0.143972963,-0.739062071,0.000322311,-0.00758503,0.013633946,0.464270979,0.011802602,0.055842657,0.192914888,-0.724446774,0.018601257
0.169969916,-0.659662247,-0.143301144,-0.738521755,0.001409856,-0.007525519,0.011250434,0.464132994,0.01163549,0.056271333,0.192873955,-0.724480867,0.018633701
0.174968064,-0.658560336,-0.146800995,-0.739146531,0.000993365,-0.005237227,0.010740791,0.464026839,0.011506909,0.056601174,0.192838028,-0.724502385,0.018668251
0.179967493,-0.657585382,-0.146995187,-0.739043117,0.001257095,-0.00452648,0.010615151,0.463991642,0.011464274,0.056710541,0.192812085,-0.724525511,0.018693602
0.184967682,-0.659526229,-0.145884782,-0.738611817,-0.000180982,-0.002650784,0.009284155,0.464020252,0.011540622,0.056229848,0.192771181,-0.724536598,0.01871758
0.189969152,-0.658141077,-0.14571023,-0.740200877,0.000898142,-0.002425615,0.009463636,0.464085907,0.011676008,0.055500872,0.192737445,-0.724540114,0.018738676
0.194965497,-0.656594932,-0.145339981,-0.740596592,0.002857034,-0.000443435,0.008672317,0.464136422,0.011780177,0.05493997,0.192707628,-0.724539399,0.018767426
0.199962884,-0.654203117,-0.144672185,-0.741136432,0.002017919,-0.001031405,0.008353443,0.464153171,0.011814718,0.054753989,0.192676485,-0.724532187,0.018784417
0.204961285,-0.655022979,-0.147824541,-0.741036892,0.003022801,-0.003605089,0.008089622,0.464166075,0.011841295,0.054610889,0.192664474,-0.72454232,0.018801084
0.209960699,-0.654292583,-0.148089901,-0.741847336,0.001526664,-0.003961591,0.008658906,0.464466095,0.011743304,0.054611038,0.192646682,-0.724552214,0.018816667
0.214960903,-0.65690434,-0.147489533,-0.74383986,0.001346198,-0.004385795,0.008311907,0.464696944,0.011667906,0.054611154,0.192629293,-0.72456038,0.018825786
0.219962627,-0.655851543,-0.14788124,-0.741670966,0.000702095,-0.005302487,0.009860217,0.464773476,0.011642906,0.054611191,0.192600071,-0.724583745,0.018851573
0.224959239,-0.656679571,-0.146947369,-0.742787302,0.003623055,-0.006134168,0.009175407,0.464832395,0.011623669,0.054611221,0.192593321,-0.724600554,0.018860633
0.229956612,-0.655183136,-0.14843078,-0.742852986,0.003407771,-0.006051923,0.007490513,0.464710921,0.01170787,0.054760974,0.192590147,-0.724620581,0.018866625
0.234955013,-0.652697206,-0.149201721,-0.745509863,0.003798583,-0.006594379,0.00846118,0.464474916,0.011864248,0.055027619,0.192586645,-0.724636495,0.018871823
0.239954427,-0.65369302,-0.151025593,-0.744452119,0.004865506,-0.006856817,0.010628784,0.464396656,0.011916099,0.055116035,0.192583114,-0.724661648,0.018895589
0.244961277,-0.655283093,-0.15049243,-0.743845522,0.003578818,-0.008737426,0.010099599,0.464336455,0.011955996,0.055184063,0.192574352,-0.724699676,0.018920572
0.249963269,-0.656802833,-0.150304899,-0.7415061,0.002367721,-0.009163301,0.010522425,0.464316487,0.011969225,0.055206615,0.192552686,-0.724741697,0.018947694
0.25496012,-0.658012629,-0.147652894,-0.741615772,0.002080491,-0.008725456,0.009524398,0.464240074,0.011709427,0.05508966,0.192532092,-0.724777043,0.018968847
0.259957492,-0.657663226,-0.147277683,-0.740178764,0.002409624,-0.009392152,0.010748062,0.464214742,0.011623283,0.05505088,0.19250831,-0.724819362,0.019002503
0.264955908,-0.65599066,-0.145849258,-0.7411533,0.00107215,-0.009446123,0.009127947,0.464195251,0.011557001,0.05502104,0.192484424,-0.724861145,0.01900967
0.269955337,-0.655442059,-0.146735251,-0.742143929,0.002442578,-0.011528676,0.010840668,0.464188784,0.011535023,0.055011146,0.192467257,-0.724903822,0.01903075
0.274955779,-0.65607971,-0.148454234,-0.741680622,0.000948666,-0.010525987,0.009870633,0.46408391,0.011670957,0.054847337,0.192443937,-0.724947631,0.019045539
0.279957235,-0.656939983,-0.14714399,-0.740020156,0.002263974,-0.010620113,0.010665921,0.464024425,0.011753852,0.054754369,0.192421481,-0.724995494,0.01907037
0.284953862,-0.658925474,-0.146984085,-0.740922511,0.003174498,-0.008457246,0.011286676,0.463978678,0.011817635,0.054682832,0.192402124,-0.725035489,0.019090282
0.289951235,-0.658769965,-0.145738006,-0.739308834,0.001028534,-0.008108718,0.012351559,0.463963509,0.011838784,0.054659113,0.192367017,-0.725080013,0.019116998
0.294949621,-0.656297684,-0.144988,-0.738901198,0.000740582,-0.008049061,0.010042506,0.463979542,0.011855058,0.05469954,0.192342341,-0.72511065,0.019132938
0.29994905,-0.658355117,-0.142949775,-0.740409911,0.003743667,-0.006311235,0.008743024,0.464012802,0.011860456,0.054772113,0.192322761,-0.725142062,0.019138958
0.304949492,-0.658110201,-0.146842942,-0.741069496,0.004937561,-0.007444817,0.006977401,0.464038402,0.011864609,0.054827951,0.192333281,-0.725171089,0.019134948
0.309950978,-0.655737519,-0.146603525,-0.74167031,0.002649064,-0.007808229,0.006792406,0.464046896,0.011865987,0.054846469,0.192319945,-0.725193858,0.019139033
0.314947575,-0.658469081,-0.144326448,-0.742201924,0.004179654,-0.007160701,0.005829781,0.464053392,0.011867046,0.054860715,0.192321241,-0.725225091,0.019128352
0.319944948,-0.657095432,-0.143747672,-0.741289735,0.003986305,-0.00727574,0.006919779,0.464205116,0.011711697,0.054812167,0.192314431,-0.725251913,0.019135231
0.324943602,-0.65732044,-0.145083129,-0.741773427,0.004864729,-0.007070141,0.006387199,0.464321822,0.011592166,0.054774813,0.192322508,-0.725282371,0.019128568
0.329943031,-0.656541944,-0.145516112,-0.741093874,0.005772017,-0.006141248,0.005655913,0.464360505,0.011552533,0.054762427,0.192331746,-0.725294828,0.019128392
0.334943473,-0.65706563,-0.146688819,-0.742580116,0.005883867,-0.008312967,0.006388853,0.464390278,0.011522038,0.054752897,0.192343771,-0.725331604,0.019121351
0.339945227,-0.655205011,-0.148904532,-0.741569936,0.006265662,-0.007547258,0.006551415,0.464457273,0.011396286,0.054838758,0.192369103,-0.725350797,0.019117389
0.344941825,-0.657319427,-0.14847666,-0.739212215,0.006672967,-0.007059105,0.007681884,0.464566559,0.011182599,0.054994833,0.192377239,-0.725386202,0.019127674
0.349939197,-0.657255709,-0.146553218,-0.74047488,0.005451522,-0.008403809,0.004705957,0.464602798,0.011111744,0.055046584,0.192394674,-0.725416422,0.019112339
0.354937613,-0.657510519,-0.146572828,-0.740153253,0.004465298,-0.008537808,0.005624882,0.464630693,0.011057227,0.055086404,0.192392752,-0.725453734,0.019117417
0.359937012,-0.657868683,-0.148531944,-0.741629481,0.003235422,-0.009216698,0.007150589,0.464639932,0.011039149,0.05509961,0.192401096,-0.725489736,0.019118883
0.364937216,-0.65786016,-0.148231715,-0.741671264,0.00294454,-0.009118487,0.008378046,0.464641601,0.011429565,0.055036008,0.192392111,-0.725526869,0.019130573
0.36993894,-0.658403814,-0.148139492,-0.740487576,0.002769847,-0.009599332,0.008044279,0.464642137,0.011559019,0.055014919,0.192390725,-0.725560069,0.019132236
0.374935538,-0.658372104,-0.148155287,-0.741166711,0.00013956,-0.007009281,0.009127077,0.464642555,0.011658626,0.054998692,0.192367524,-0.725591004,0.019153439
0.379939079,-0.657869995,-0.145847648,-0.742540538,0.001069369,-0.007841315,0.008488089,0.464642704,0.011691653,0.054993313,0.192347512,-0.725622773,0.019152591
0.384937465,-0.65752244,-0.146390021,-0.741823673,0.000562491,-0.00861327,0.009521586,0.464443147,0.01182864,0.05566955,0.192326739,-0.725656807,0.019162955
0.389936894,-0.656619132,-0.147518352,-0.741560936,0.00041107,-0.008705094,0.008065613,0.464327604,0.011901673,0.05606214,0.192313328,-0.725690484,0.019168913
0.394937336,-0.659077704,-0.145907238,-0.741498113,0.001652379,-0.008260035,0.008331927,0.464238703,0.011957866,0.056364212,0.192288741,-0.725725651,0.019184751
0.39993906,-0.660251915,-0.145953253,-0.740493298,0.001956857,-0.007814359,0.008537672,0.464209229,0.011976498,0.05646437,0.192271367,-0.725759149,0.019197648
0.404935688,-0.660719454,-0.146670625,-0.7391994,0.001735473,-0.007411159,0.009770208,0.464301109,0.011868434,0.056007683,0.192248836,-0.725793302,0.019212779
0.409933299,-0.658592701,-0.146294624,-0.739018559,0.002101117,-0.005311328,0.009774506,0.464447111,0.011709173,0.055318013,0.19222939,-0.725818217,0.019235987
0.414931715,-0.657175004,-0.145012066,-0.739498794,0.003606181,-0.006946246,0.009762563,0.464559466,0.011586633,0.05478736,0.192218199,-0.725850105,0.019248333
0.419931382,-0.657225311,-0.145859346,-0.741058648,0.003039374,-0.008045764,0.008435156,0.464596719,0.011546,0.054611407,0.192204326,-0.725878,0.019256346
0.424931854,-0.656632662,-0.148093477,-0.742081344,0.002427335,-0.006914853,0.00973531,0.464625388,0.011514736,0.054476023,0.192199185,-0.725902081,0.01927444
0.429933578,-0.655679882,-0.147686392,-0.741095424,0.004770014,-0.005887105,0.008755185,0.464585245,0.011555634,0.054379378,0.192194298,-0.725916624,0.019286115
0.434930176,-0.656500041,-0.147594839,-0.740978897,0.0045731,-0.003425494,0.008320916,0.464554369,0.011587102,0.054305017,0.192188337,-0.725928664,0.01929914
0.439927548,-0.657866299,-0.146707088,-0.739637315,0.002269928,-0.003002421,0.005713517,0.464544147,0.011597536,0.054280359,0.192178428,-0.725937128,0.019302556
0.444925964,-0.654626667,-0.146023035,-0.740590632,0.003717345,-0.004216161,0.008266444,0.46453625,0.011605564,0.05426139,0.192169443,-0.725948215,0.019312814
0.449925125,-0.655577004,-0.147396788,-0.739008307,0.00430044,-0.002209238,0.006187576,0.464507043,0.011494474,0.054375332,0.192177236,-0.725952148,0.019323764
0.454925567,-0.654259443,-0.146848768,-0.740363002,0.00425504,-0.003490559,0.007374221,0.464457691,0.011293977,0.054584578,0.192181572,-0.725957811,0.019326625
0.459927291,-0.656537116,-0.147175014,-0.740441382,0.0029977,-0.005273242,0.006916464,0.464441329,0.011227495,0.054653957,0.192170992,-0.725975156,0.019333642
0.464924425,-0.656450927,-0.145422935,-0.739477277,0.003588448,-0.004311357,0.007722563,0.464428753,0.011176343,0.054707341,0.192161828,-0.725991249,0.019336518
0.469921798,-0.658082306,-0.143849209,-0.739388168,0.004593102,-0.004685221,0.005839984,0.46442458,0.011159382,0.054725043,0.192159712,-0.726004839,0.019345379
0.474920183,-0.657430768,-0.145940244,-0.738971055,0.00163489,-0.004083822,0.008622906,0.464485079,0.011278789,0.054597363,0.19214642,-0.726016462,0.019354718
0.479919612,-0.658800423,-0.145144835,-0.739871204,0.004091199,-0.003793154,0.006554977,0.464505136,0.011318383,0.054555025,0.192149803,-0.726031065,0.019352654
0.484920055,-0.66035372,-0.144050509,-0.74072665,0.0034217,-0.003887516,0.006551838,0.464520603,0.011348846,0.054522451,0.192140549,-0.726044238,0.019350162
0.48992154,-0.659035563,-0.142423972,-0.739856958,0.005638751,-0.004343628,0.004170016,0.464525729,0.011358948,0.054511651,0.192149684,-0.726057947,0.019339681
0.494918138,-0.658061266,-0.144278362,-0.739947796,0.003702817,-0.003327539,0.004799442,0.464430481,0.011468774,0.054347709,0.192154184,-0.726062477,0.019329952
0.49991551,-0.659191012,-0.145315334,-0.740643799,0.00523378,-0.004044231,0.004279073,0.464374363,0.011530443,0.054254837,0.192174658,-0.726074219,0.019318635
0.504914165,-0.659028351,-0.144760936,-0.742288828,0.005392353,-0.005476575,0.002741375,0.46433118,0.011577894,0.054183375,0.192191944,-0.726081491,0.019288903
0.5099141,-0.658458471,-0.147424027,-0.742837667,0.007444352,-0.005603098,0.00497773,0.464316845,0.011593628,0.054159682,0.192221656,-0.726094663,0.019276727
0.514920712,-0.658541858,-0.149411082,-0.741473854,0.007839449,-0.005375573,0.004636493,0.464335322,0.01148982,0.054142192,0.192256883,-0.726114035,0.019270089
0.519922435,-0.65951246,-0.148494884,-0.742081046,0.005122442,-0.003462237,0.004280278,0.464371204,0.011338512,0.054137141,0.192277521,-0.726120055,0.019255634
0.524919033,-0.657986641,-0.147437811,-0.742112279,0.005959016,-0.004410825,0.004034885,0.464398801,0.011222092,0.054133255,0.192297816,-0.726132154,0.019248731
0.529916644,-0.657783031,-0.147355527,-0.74251014,0.008293084,-0.005130217,0.003208432,0.46440798,0.011183489,0.054131962,0.192332864,-0.726136029,0.019227518
0.53491509,-0.656342208,-0.148286074,-0.742190957,0.006872214,-0.005597977,0.004421556,0.464415014,0.011153787,0.054130968,0.192362845,-0.726151347,0.019208584
0.539914489,-0.655670941,-0.14994967,-0.742093265,0.006634071,-0.006022272,0.004796993,0.464462459,0.011398378,0.054283284,0.192389593,-0.726168573,0.019197989
0.544914961,-0.656975806,-0.149914458,-0.742254138,0.006748752,-0.006729729,0.004658601,0.464498937,0.011586574,0.054400478,0.192420974,-0.726189852,0.019182941
0.549916685,-0.657863081,-0.152534246,-0.742918849,0.005878856,-0.008294331,0.005774109,0.464511037,0.011648976,0.05443934,0.192449108,-0.726214349,0.019175392
0.554913282,-0.657911241,-0.151786476,-0.741656184,0.004703647,-0.00757919,0.005893721,0.464520365,0.01169699,0.054469239,0.192472935,-0.726244152,0.019164473
0.559910655,-0.658100367,-0.148974702,-0.739023209,0.004082095,-0.007976811,0.007267922,0.464469492,0.011625565,0.054273944,0.192475691,-0.726279497,0.019170173
0.564909041,-0.657802939,-0.147485211,-0.738722205,0.004288697,-0.008184657,0.005874779,0.464375764,0.011482286,0.053916182,0.19249098,-0.726307392,0.019154076
0.569908738,-0.657512128,-0.149569556,-0.739923954,0.005074169,-0.008624617,0.007598551,0.46434468,0.011434779,0.053797554,0.192502007,-0.72634083,0.019162048
0.57490921,-0.656916022,-0.150311425,-0.739786804,0.004778909,-0.009040634,0.006549459,0.464320779,0.011398224,0.053706277,0.192507163,-0.726376414,0.019167999
0.579910636,-0.658114672,-0.150184616,-0.741836846,0.005674407,-0.007310815,0.008706757,0.464312851,0.011386103,0.053676009,0.192522541,-0.72640121,0.01917785
0.584907293,-0.659419119,-0.148029655,-0.740712166,0.004971007,-0.009954852,0.008559244,0.464497417,0.011453782,0.055103004,0.192525581,-0.726447821,0.019182568
0.589904904,-0.656439066,-0.147759035,-0.741273701,0.003617686,-0.010243679,0.007909499,0.464558601,0.011476222,0.055576168,0.192521796,-0.726488173,0.019192206
0.59490329,-0.65425694,-0.14441894,-0.7433725,0.006548339,-0.01074103,0.007634834,0.464605689,0.011493489,0.055940237,0.192529976,-0.726517379,0.019191179
0.599902749,-0.655077636,-0.147406131,-0.743884206,0.006989424,-0.010009193,0.006926793,0.464621305,0.011499215,0.056060955,0.19254519,-0.72655195,0.01919559
0.604903162,-0.655778527,-0.147163466,-0.742435396,0.006783522,-0.01282365,0.005785222,0.464535058,0.011699631,0.055162951,0.192568108,-0.726602733,0.019178007
0.609904885,-0.654934227,-0.146483943,-0.74036026,0.007582594,-0.01477409,0.007415663,0.464482158,0.011814589,0.05461999,0.19259423,-0.726664424,0.019165527
0.614901781,-0.655535698,-0.148644373,-0.742881894,0.007772016,-0.015685998,0.005750957,0.464441448,0.011903041,0.054202221,0.192627192,-0.726727545,0.019141635
0.619899154,-0.657863557,-0.147866815,-0.742046535,0.008036702,-0.016022488,0.00845049,0.464427948,0.01193237,0.054063696,0.192655295,-0.726797342,0.019135984
0.62489754,-0.65878582,-0.146221802,-0.739790022,0.010659192,-0.019250857,0.006921948,0.464419335,0.011729061,0.054492556,0.192701757,-0.726884246,0.019118367
0.629896939,-0.658106863,-0.147085726,-0.741338253,0.010738722,-0.01785728,0.008268336,0.464418232,0.011433874,0.055174697,0.192735583,-0.726962805,0.019122761
0.634897411,-0.659389019,-0.146135166,-0.740802407,0.010320458,-0.016404741,0.007366511,0.464417398,0.011206749,0.055699561,0.192777097,-0.727037072,0.01911696
0.639898896,-0.66099757,-0.145455956,-0.740986228,0.009781645,-0.017009424,0.007590186,0.46441713,0.011131438,0.055873591,0.192806169,-0.727119148,0.01911656
0.644895732,-0.660901666,-0.148018882,-0.737696171,0.009460159,-0.015927169,0.006993236,0.464416921,0.011073492,0.056007501,0.192840621,-0.727193415,0.019116519
0.649899244,-0.660974443,-0.148317069,-0.738180757,0.008477462,-0.016229806,0.008566272,0.464563996,0.011197134,0.055317529,0.192867532,-0.727267623,0.019124322
0.654897928,-0.660860837,-0.147525325,-0.738270342,0.008401978,-0.013093047,0.007058864,0.464677155,0.011292268,0.054786641,0.192897707,-0.727326035,0.01911879
0.659897327,-0.659850061,-0.145329311,-0.73894912,0.008266117,-0.014049397,0.006950188,0.464714676,0.011323811,0.05461061,0.192909241,-0.72739321,0.019117635
0.664897799,-0.65947175,-0.144654527,-0.739310265,0.008518791,-0.015798315,0.007411198,0.464743555,0.011348083,0.054475166,0.192942396,-0.727461398,0.019102657
0.669899285,-0.658739507,-0.14608568,-0.739859283,0.007647273,-0.014425825,0.009613822,0.46475336,0.011355318,0.054341439,0.192949817,-0.727520585,0.019119021
0.674896121,-0.658351123,-0.148164287,-0.739472449,0.006345708,-0.013469453,0.008049436,0.464761168,0.011360065,0.054148737,0.192970455,-0.727577865,0.019116409
0.679893494,-0.657647908,-0.147742331,-0.738934875,0.007266023,-0.01322868,0.00768502,0.464763761,0.011361639,0.054084841,0.192996636,-0.727630019,0.019111825
0.684892178,-0.658970475,-0.149899289,-0.738356829,0.00556428,-0.011715058,0.007595753,0.464765728,0.011362851,0.054035675,0.193007112,-0.727682292,0.019116599
0.689891577,-0.659948528,-0.149391279,-0.737578034,0.004505906,-0.011615406,0.007369616,0.464766413,0.011363252,0.054019373,0.193025321,-0.727739513,0.019115172
0.694892049,-0.658661246,-0.148586124,-0.739799142,0.004917515,-0.009420231,0.007574026,0.464640826,0.01115854,0.053457376,0.19304201,-0.727778792,0.019118251
0.699893773,-0.659052551,-0.146597758,-0.738920987,0.00328493,-0.008200906,0.009622465,0.464599192,0.011090661,0.053271029,0.193013728,-0.727812648,0.019145558
0.70489037,-0.66070509,-0.144930303,-0.738228142,0.005638269,-0.007552564,0.008326042,0.464567155,0.011038434,0.05312765,0.193008065,-0.727846026,0.019159356
0.709887743,-0.65958333,-0.146554083,-0.737839937,0.005384257,-0.006732129,0.008811224,0.464556545,0.011021116,0.053080108,0.193012729,-0.727873087,0.019174188
0.714886129,-0.659067869,-0.145577341,-0.738312006,0.006191987,-0.005101151,0.005990335,0.464690566,0.011118439,0.054342896,0.193023562,-0.727891088,0.019171774
0.719885588,-0.660464048,-0.145203754,-0.737882912,0.005283622,-0.004296345,0.006192622,0.464770198,0.011178089,0.055083144,0.19302249,-0.727908015,0.019184491
0.724886,-0.659405231,-0.145938918,-0.738933086,0.005728813,-0.005641314,0.004587676,0.464831471,0.011223987,0.055652719,0.193035498,-0.72792232,0.019173831
0.729887724,-0.658090532,-0.145194039,-0.740036964,0.00614619,-0.005644997,0.003865496,0.464851797,0.011239205,0.055841576,0.193056673,-0.727934301,0.019162618
0.734884381,-0.658581138,-0.144320011,-0.739515722,0.006659036,-0.006463609,0.004714862,0.464869797,0.011215576,0.055276688,0.1930684,-0.727953255,0.019155806
0.739881754,-0.658857107,-0.14743717,-0.739570618,0.006762159,-0.00691125,0.004431842,0.464878142,0.011172106,0.054373216,0.193095833,-0.727971137,0.019144053
0.74488014,-0.659751594,-0.146897107,-0.73874557,0.005549817,-0.005382834,0.003493593,0.464884609,0.011138659,0.053678054,0.193120435,-0.727992952,0.019120319
0.749879539,-0.658619881,-0.149614096,-0.73766619,0.005969351,-0.003929207,0.003741592,0.464886755,0.011127569,0.053447548,0.19316189,-0.728000879,0.019099023
0.754880011,-0.657797754,-0.151801184,-0.7408548,0.005669494,-0.005845357,0.004599493,0.464888394,0.011119035,0.053270191,0.193193212,-0.728019655,0.019091688
0.759881735,-0.659995854,-0.150538251,-0.738423765,0.005299754,-0.006527422,0.004169283,0.464693427,0.011020326,0.053424809,0.193227872,-0.728041947,0.019071694
0.764878333,-0.65955478,-0.149403095,-0.737518072,0.004950638,-0.005956347,0.005019756,0.464543432,0.010944377,0.05354378,0.193230167,-0.728064954,0.019071423
0.769875944,-0.659798622,-0.146475866,-0.738761604,0.002239989,-0.003932443,0.005271193,0.464493692,0.010919193,0.053583227,0.193216309,-0.728072882,0.019073982
0.774874389,-0.661351919,-0.147204578,-0.7390697,0.002885602,-0.003020083,0.005542113,0.464455426,0.010899817,0.053613577,0.193218723,-0.728078961,0.019078068
0.779874027,-0.661925137,-0.145352259,-0.736605287,0.004073126,-0.002878867,0.005006986,0.464415252,0.010865088,0.053624496,0.193217456,-0.728092253,0.019075854
0.784880877,-0.661189377,-0.14389357,-0.736608803,0.002637045,-0.00015834,0.004497771,0.464356601,0.010809748,0.053633761,0.193209082,-0.728088915,0.019072758
0.7898826,-0.66251272,-0.144748762,-0.736834347,0.001816121,0.001768172,0.005126401,0.46433714,0.010791398,0.05363683,0.193190917,-0.728074074,0.019080529
0.794879496,-0.661338806,-0.144083977,-0.738253057,0.001920794,0.002758927,0.004801606,0.46432218,0.010777279,0.053639196,0.193178013,-0.728051245,0.019079031
0.799876869,-0.660821736,-0.145737752,-0.737077951,0.002814468,0.002398818,0.002428537,0.464317203,0.010772597,0.053639982,0.193179891,-0.728035688,0.019066647
0.804875255,-0.661367953,-0.145001546,-0.734846652,-0.000176879,0.006140304,0.001393742,0.464959711,0.010968986,0.054734223,0.193169266,-0.727996528,0.019059543
0.809874415,-0.662504137,-0.141049117,-0.735777915,0.001304548,0.007812361,0.000674308,0.465172738,0.011034104,0.055097051,0.1931483,-0.727954388,0.019048646
0.814874887,-0.660006404,-0.141037315,-0.737910867,0.001651429,0.010267082,-0.0006239,0.465336651,0.011084209,0.055376224,0.193141341,-0.727888584,0.019019596
0.819876611,-0.660555065,-0.142777085,-0.738966703,0.003189628,0.011470087,-0.000832988,0.46539101,0.011100823,0.055468794,0.193156824,-0.727819264,0.018985795
0.824873447,-0.662073493,-0.14519462,-0.738035321,0.004582411,0.012223152,-0.001996185,0.464845151,0.011169122,0.05482091,0.193176076,-0.727743447,0.018956469
0.82987082,-0.66055727,-0.14512302,-0.738490045,0.004121141,0.012249269,-0.0027494,0.464518726,0.011205506,0.054428138,0.193199351,-0.727668047,0.018911846
0.834869266,-0.660454214,-0.146441981,-0.73821044,0.002704763,0.01443019,-0.00326801,0.464267582,0.0112335,0.054125927,0.193215623,-0.727575302,0.018877516
0.839868665,-0.657763898,-0.148432776,-0.737520278,0.00350781,0.014730867,-0.003181519,0.464184314,0.011242783,0.054025717,0.193246529,-0.72748667,0.018844463
0.844869137,-0.655001283,-0.152137727,-0.739034355,0.002931722,0.015505616,-0.000876734,0.464206129,0.011103279,0.053859793,0.193267971,-0.72739017,0.018826645
0.849870563,-0.656111956,-0.153016865,-0.738470495,0.002247047,0.015309842,0.000647543,0.464299947,0.010909145,0.053715203,0.193287238,-0.727295399,0.018821305
0.854867458,-0.65875715,-0.152326554,-0.739809334,0.001039489,0.013349224,0.001419178,0.464372158,0.010759771,0.053603951,0.193285868,-0.727215409,0.018820336
0.859864831,-0.657150507,-0.150516242,-0.741547763,0.000884879,0.012818546,0.000848934,0.464396089,0.010710241,0.053567063,0.193284273,-0.727136612,0.018812491
0.864863515,-0.656622708,-0.147500306,-0.742937326,0.000181207,0.01174969,0.001204248,0.464414507,0.010672132,0.05353868,0.193276033,-0.727062404,0.018804226
0.869862914,-0.657136261,-0.146678656,-0.742335796,0.000321753,0.011512291,0.002609624,0.464462787,0.010875054,0.054985799,0.193252996,-0.726989925,0.018807679
0.874863088,-0.658898354,-0.145185247,-0.742138982,0.00195524,0.009681094,0.001930424,0.46449998,0.011031188,0.056099258,0.193245366,-0.726929128,0.018806471
0.879864812,-0.659296632,-0.143232167,-0.740983009,0.003016295,0.009168006,3.28E-05,0.464512318,0.011082959,0.056468461,0.193242773,-0.72687006,0.018790063
0.884861469,-0.662293375,-0.142949298,-0.741385639,0.00572854,0.010774294,-0.001378552,0.464521796,0.011122794,0.056752536,0.193269059,-0.726811886,0.018761523
0.88985908,-0.659047723,-0.141904071,-0.741389394,0.004584318,0.008780923,-0.000260858,0.464523375,0.011388828,0.056103729,0.193269089,-0.726753354,0.018741496
0.894857466,-0.658935666,-0.14430736,-0.742132008,0.007564561,0.007937121,-0.005439293,0.464522988,0.01184917,0.054853227,0.193330467,-0.726692438,0.018670263
0.899856925,-0.660076439,-0.149622604,-0.740262985,0.007962861,0.009118597,-0.000601779,0.464522839,0.012001811,0.054438584,0.193372741,-0.726638079,0.018642651
0.904857099,-0.659337342,-0.150076538,-0.738983393,0.007522415,0.009714981,-0.002184623,0.464522749,0.012119258,0.054119546,0.193421036,-0.726579189,0.018597955
0.909858823,-0.658346832,-0.148247689,-0.738490999,0.009005622,0.008744938,-0.00245575,0.464522719,0.012158201,0.054013759,0.193473101,-0.726518154,0.018552449
0.914855421,-0.65721792,-0.14816384,-0.738632739,0.006860151,0.009361107,-0.002630848,0.465049148,0.011840607,0.053926073,0.193513021,-0.726456285,0.018514829
0.919858932,-0.656492829,-0.149156541,-0.740649819,0.008202591,0.009850312,-0.003645567,0.4652237,0.011735299,0.053896997,0.193572953,-0.726383686,0.01846632
0.924857318,-0.656840324,-0.147999346,-0.741969526,0.009631427,0.009444381,-0.002475927,0.465358019,0.011654271,0.053874627,0.19362992,-0.726313293,0.01842379
0.929857016,-0.657920301,-0.147888139,-0.740730464,0.00657517,0.009256644,-0.002932626,0.465402573,0.011627404,0.05386721,0.193668842,-0.726248622,0.018380515
0.934857488,-0.657368779,-0.149376586,-0.740763843,0.005791066,0.009987098,-0.002503743,0.464992046,0.011576875,0.055226006,0.193706587,-0.726180494,0.018352497
0.939859211,-0.657978952,-0.150843367,-0.740123749,0.006738586,0.009510629,-0.001879678,0.464745849,0.011552732,0.056014206,0.193751723,-0.726112008,0.018318649
0.944855809,-0.656861126,-0.152388573,-0.739908934,0.005527986,0.009100068,-0.000207751,0.464556426,0.011534156,0.056620676,0.193792477,-0.72604835,0.018296035
0.94985342,-0.655875266,-0.154946446,-0.742785454,0.003797288,0.008049679,0.000649371,0.464493603,0.011527997,0.056821767,0.193819344,-0.725993872,0.018284338
0.954851866,-0.656278789,-0.157780796,-0.743431926,0.001936678,0.008592497,0.003549444,0.464473993,0.011492522,0.056828253,0.193831429,-0.725927413,0.018293465
0.959851503,-0.656361461,-0.160045713,-0.742795169,-0.001714107,0.004475461,0.005147033,0.464496404,0.011449765,0.056680914,0.193831548,-0.725894034,0.018304566
0.964851975,-0.658582211,-0.157975689,-0.742171347,-0.002527666,0.005131318,0.008530895,0.46451363,0.011416867,0.05656755,0.193795949,-0.72585851,0.018345015
0.969853461,-0.658075988,-0.154254735,-0.742855072,-0.004391935,0.004007663,0.011388919,0.464519352,0.011405959,0.056529962,0.193737075,-0.725830019,0.018394155
0.974850059,-0.655900419,-0.147849455,-0.743114054,-0.003971349,0.00223433,0.010654483,0.464523762,0.011397566,0.056501038,0.19367522,-0.72580719,0.018432517
0.979847193,-0.657942057,-0.145490557,-0.743301928,-0.004505627,0.000282286,0.010350124,0.464428663,0.01143985,0.055658646,0.193598449,-0.725800157,0.018469822
0.984845579,-0.65606612,-0.14505659,-0.743864655,-0.002946109,-0.001743248,0.009709229,0.464355469,0.011472384,0.055010479,0.193535507,-0.725791693,0.018493829
0.989844978,-0.655941844,-0.147542387,-0.744320154,-0.003437693,-0.001720389,0.009506603,0.46433121,0.011483171,0.054795559,0.193485305,-0.725790262,0.018521078
0.994845688,-0.656916201,-0.150973096,-0.742714465,-0.001536619,-0.004639907,0.011640677,0.464312524,0.011491472,0.054630194,0.193450481,-0.725806117,0.018557845
0.999847174,-0.657307744,-0.150304541,-0.740707636,-0.002833544,-0.003754151,0.012160026,0.464696378,0.011404744,0.05507211,0.193391651,-0.725818872,0.018601066
1.004844069,-0.656406224,-0.147951379,-0.74152112,-0.003562311,-0.004894212,0.012768867,0.465386122,0.011247536,0.055914428,0.193333983,-0.725844681,0.01864239
1.009841442,-0.656757474,-0.145178631,-0.74142921,-0.002068119,-0.005642155,0.011025727,0.465614825,0.011195409,0.056193728,0.193282202,-0.725864828,0.018675704
1.014840007,-0.65667206,-0.140596062,-0.741985321,-0.001160638,-0.005842993,0.007995675,0.465790778,0.0111553,0.056408629,0.193229705,-0.725886524,0.01868912
1.019839525,-0.65714097,-0.140715048,-0.741099656,-0.00011291,-0.00531406,0.007637131,0.465849131,0.011142001,0.056479882,0.193193436,-0.725907266,0.01869872
1.024839878,-0.659122944,-0.142818943,-0.741095841,0.002255214,-0.004249493,0.006133306,0.464912355,0.011612381,0.055370592,0.193194374,-0.725918531,0.01868779
1.029841661,-0.66021055,-0.145610124,-0.740343511,0.00236261,-0.005146742,0.004754693,0.464601725,0.01176835,0.055002771,0.193194807,-0.725939035,0.018672766
1.034838557,-0.657118678,-0.146897212,-0.740897417,0.00442563,-0.005662815,0.004350401,0.464362741,0.011888358,0.054719761,0.19321695,-0.725954294,0.018649261
1.03983593,-0.658532023,-0.14751336,-0.739439845,0.005446639,-0.003119379,0.003755892,0.464283496,0.011928149,0.054625921,0.193229884,-0.725953102,0.018642582
1.044834614,-0.657009721,-0.150619984,-0.738079071,0.003445054,-0.00274782,0.00428021,0.464570642,0.011646418,0.054446224,0.193248212,-0.72595942,0.018630836
1.049834013,-0.655604959,-0.150669828,-0.73829782,0.00348738,-0.00313541,0.006340899,0.464752018,0.011475709,0.05436004,0.193253294,-0.725962162,0.018637434
1.054840565,-0.657071888,-0.149711475,-0.735835314,0.002334127,0.000507738,0.005434353,0.464891553,0.011344361,0.054293726,0.193247184,-0.725950837,0.018643603
1.059842348,-0.657740533,-0.150465995,-0.735646367,-9.79E-05,0.00272413,0.005900448,0.464937836,0.011300809,0.054271735,0.193237275,-0.72593236,0.018649619
1.064839125,-0.657877624,-0.150091365,-0.73620981,-0.001345702,0.003543568,0.008089345,0.464778543,0.01124277,0.054318093,0.193206221,-0.725915074,0.018676274
1.069836855,-0.66044122,-0.150287881,-0.737126052,-0.001460804,0.005197564,0.008907214,0.464529246,0.011198791,0.054397274,0.19316943,-0.725887001,0.018712422
1.074835181,-0.657898962,-0.149405792,-0.737699628,-0.002398659,0.005799088,0.008473841,0.464337409,0.011164952,0.054458197,0.193132281,-0.725854218,0.01873496
1.079834938,-0.658433437,-0.14676623,-0.737872779,-0.003728221,0.007195878,0.009278743,0.46427381,0.011153731,0.054478396,0.193064928,-0.725812197,0.0187761
1.084835291,-0.655433536,-0.14655757,-0.740713656,-0.003233019,0.006614168,0.007995921,0.464224875,0.011145098,0.054493938,0.19301413,-0.725773454,0.018799221
1.089837074,-0.656649768,-0.145995542,-0.741589427,-0.003414642,0.005277155,0.008359687,0.464301378,0.011497308,0.054649673,0.192955166,-0.725735724,0.018828381
1.094833612,-0.656721652,-0.148205757,-0.741001308,-0.002221992,0.003194457,0.00667459,0.464360267,0.011768308,0.054769497,0.192928389,-0.725711405,0.018833457
1.099831343,-0.658862352,-0.146887749,-0.742869258,-0.002964464,0.00443095,0.006282034,0.464379787,0.011858168,0.054809231,0.192881986,-0.725681543,0.018846724
1.104829669,-0.657663763,-0.144785225,-0.742598891,-0.002844088,0.003192597,0.006701063,0.464394808,0.011927309,0.054839805,0.192836255,-0.725654066,0.018860064
1.109829068,-0.658362627,-0.144089654,-0.742288232,-0.000533231,0.002785552,0.00488521,0.464512914,0.011860195,0.054700732,0.192802668,-0.725628018,0.018862307
1.11482954,-0.65740931,-0.144977733,-0.743399024,-0.000445052,0.003720327,0.00362219,0.464718133,0.01171751,0.054442853,0.19278644,-0.725596845,0.018853731
1.119831324,-0.657147408,-0.147121102,-0.744825363,-4.30E-05,0.001233745,0.002613105,0.464786202,0.011670199,0.054357342,0.192778125,-0.725571752,0.018842222
1.124828219,-0.656129241,-0.147574484,-0.743622243,0.002956389,-0.000525349,0.003045292,0.464838564,0.011633797,0.05429155,0.192786738,-0.725561559,0.018829355
1.129826069,-0.654435098,-0.151214942,-0.744740248,0.004343599,-0.002458052,0.002478321,0.464855939,0.011621726,0.054269735,0.192811653,-0.725550592,0.01880439
1.134824395,-0.655105352,-0.151713014,-0.743670583,0.003025631,-0.003005204,0.003608365,0.464605153,0.011628249,0.055435639,0.192825809,-0.725548744,0.018798932
1.139823914,-0.656004965,-0.151340827,-0.743883312,0.00201115,-0.006195013,0.00532057,0.464521974,0.011630412,0.055822235,0.192830652,-0.725563705,0.018790746
1.144824266,-0.658345282,-0.151630595,-0.740736604,0.001316362,-0.005166456,0.005457037,0.464457989,0.011632076,0.056119692,0.192832217,-0.725581169,0.018784026
1.149825811,-0.658437967,-0.151829615,-0.740038037,0.00305769,-0.005687402,0.006919517,0.464436769,0.011632629,0.056218322,0.192839369,-0.725603223,0.018794985
1.15482235,-0.654384375,-0.151061773,-0.740958631,0.000740551,-0.005388157,0.006574551,0.464372694,0.011678124,0.055564728,0.19282791,-0.725612044,0.018799758
1.159819722,-0.65745157,-0.145561501,-0.739236236,-0.000206223,-0.004451237,0.008581389,0.464339614,0.011704362,0.055167492,0.192792997,-0.725628018,0.018817021
1.164818168,-0.660215259,-0.14130953,-0.737777531,0.001308398,-0.002510832,0.006630305,0.464314163,0.011724551,0.054861851,0.192759499,-0.72564435,0.018822554
1.169818163,-0.659187317,-0.136335105,-0.737968922,0.002072319,-0.003095316,0.003219201,0.464305729,0.011731246,0.054760505,0.192736059,-0.725645483,0.018796349
1.174818516,-0.655615866,-0.138840497,-0.738808572,0.004020822,-0.001010941,0.001506505,0.464411139,0.011732887,0.05453236,0.192743734,-0.725633085,0.018767402
1.179820061,-0.655127168,-0.142433435,-0.739058375,0.006609602,-0.001673703,-0.000977309,0.464558929,0.01172989,0.054305285,0.192779154,-0.725628197,0.018721936
1.184816599,-0.656749427,-0.145865977,-0.738434136,0.006651809,-0.00090046,-0.000413618,0.464672655,0.011727585,0.054130565,0.192817688,-0.725619078,0.018687166
1.18982017,-0.658252299,-0.148400441,-0.738113582,0.007944619,-0.000142534,-0.000685562,0.464710385,0.011726821,0.054072633,0.192869559,-0.725609124,0.018646892
1.194818854,-0.657007813,-0.146795109,-0.740126908,0.007061249,0.001544384,-0.000365135,0.464739412,0.011726233,0.054028057,0.192907512,-0.725584269,0.018613217
1.199818254,-0.655565977,-0.145907506,-0.739782572,0.008209095,0.00157308,-0.000300069,0.464701891,0.011526681,0.054329265,0.192956299,-0.725560009,0.018575415
1.204818726,-0.657344997,-0.14595665,-0.738973141,0.00913484,0.002415168,-0.002409491,0.464673012,0.011373138,0.054561026,0.193007171,-0.725533843,0.018532991
1.20982039,-0.658275485,-0.146211013,-0.739280522,0.009120806,0.003618468,-0.001976198,0.464663446,0.011322226,0.054637875,0.193064466,-0.725499392,0.018485615
1.214817286,-0.656476498,-0.147046492,-0.740618885,0.011485375,0.003225278,-0.003263801,0.464656115,0.011283053,0.054697003,0.193136588,-0.725465417,0.01843683
1.219814897,-0.658082783,-0.148158953,-0.739651263,0.009633314,0.003561569,-0.003362119,0.464571506,0.011184339,0.054630358,0.193199992,-0.725433111,0.01838778
1.224813342,-0.657193601,-0.148182124,-0.738806725,0.010601271,0.003690687,-0.003615199,0.464423329,0.011021704,0.054491866,0.193274617,-0.72539413,0.01834226
1.229812741,-0.656997502,-0.1477485,-0.741933227,0.010326533,0.003458268,-0.004114998,0.464374214,0.010967778,0.054445945,0.193354771,-0.725354195,0.018282559
1.234813213,-0.657344103,-0.150449559,-0.741534293,0.010529165,0.003393504,-0.004815706,0.464336395,0.010926285,0.05441061,0.193437874,-0.725316644,0.018225122
1.239814878,-0.654198587,-0.154654205,-0.742531538,0.011525651,0.00124912,-0.001548077,0.464323848,0.010912526,0.054398894,0.193518668,-0.725284338,0.018193021
1.244811535,-0.653965473,-0.154127941,-0.745026648,0.009827879,0.000688647,-0.00102567,0.464373797,0.011305637,0.054384142,0.193588123,-0.725257754,0.018152596
1.249809146,-0.653196096,-0.155073553,-0.745968342,0.008146341,-0.002987488,0.002266732,0.464390337,0.011435985,0.054379255,0.193637386,-0.725244164,0.018136283
1.254807591,-0.655521691,-0.156439528,-0.744836926,0.006271813,-0.003351789,0.004884822,0.464403093,0.011536279,0.054375492,0.193671554,-0.725242853,0.018133491
1.259806991,-0.657915652,-0.157709107,-0.74448967,0.005249954,-0.005866616,0.007386908,0.464407295,0.011569534,0.054374244,0.193693459,-0.725260854,0.018144757
1.264807463,-0.654026806,-0.153505981,-0.745458126,0.003855747,-0.008821117,0.007584814,0.46421361,0.011600827,0.054585584,0.193700299,-0.725288272,0.018149722
1.269809365,-0.656032085,-0.150369704,-0.746093214,0.003429718,-0.009852149,0.009815614,0.464100659,0.011612614,0.054708194,0.193680629,-0.72532773,0.018174017
1.274806261,-0.657023251,-0.147092372,-0.743403256,0.002644836,-0.011295763,0.009342073,0.464013755,0.011621684,0.054802537,0.193662181,-0.725367069,0.018188199
1.279803872,-0.656833947,-0.148186639,-0.742142618,0.003840341,-0.011266804,0.011686338,0.463984936,0.011624691,0.054833818,0.193650499,-0.725420177,0.018212892
1.284802556,-0.656764507,-0.147519365,-0.741108775,0.005630117,-0.014047565,0.009222191,0.46404767,0.011538587,0.054827634,0.193657279,-0.725482821,0.018230231
1.289802194,-0.655989945,-0.147313982,-0.741812468,0.005372853,-0.0133066,0.010317648,0.464154094,0.011420875,0.054795079,0.193650484,-0.725540638,0.018248664
1.294802666,-0.65506351,-0.144286841,-0.741328955,0.006462208,-0.014031524,0.012213302,0.464235991,0.011330304,0.054770026,0.193641007,-0.725608945,0.018274706
1.299804449,-0.656565487,-0.143191129,-0.74164325,0.006667497,-0.013541043,0.008838299,0.464263171,0.011300272,0.054761723,0.193640351,-0.725670636,0.018277109
1.304800987,-0.657253087,-0.140103906,-0.74065876,0.008090941,-0.015241158,0.008381866,0.464284062,0.011277165,0.05475533,0.193644837,-0.725737095,0.018275373
1.309798598,-0.655519664,-0.143138573,-0.740074933,0.009446281,-0.014544087,0.007385194,0.464146733,0.011117117,0.054444924,0.193671331,-0.725799263,0.018276079
1.314797282,-0.655396402,-0.144633815,-0.740769923,0.011446918,-0.014234543,0.004784993,0.464041084,0.010993971,0.054206088,0.193724096,-0.725857317,0.01825059
1.319796681,-0.653734803,-0.147894889,-0.74181515,0.012320507,-0.017951453,0.00497705,0.464006037,0.010953139,0.054126896,0.193785682,-0.725926399,0.018230353
1.324803352,-0.65521425,-0.15020819,-0.739320695,0.010916066,-0.016386606,0.006126102,0.463979065,0.01092172,0.054065965,0.193847194,-0.725995362,0.018217495
1.329805017,-0.659110785,-0.152994007,-0.736243904,0.01105448,-0.015683612,0.006100774,0.464217424,0.011055809,0.054601844,0.193903625,-0.726068377,0.018212885
1.334801912,-0.659853935,-0.149816066,-0.735472918,0.007906287,-0.014896533,0.006607334,0.464650869,0.011305098,0.055576459,0.193931878,-0.726139665,0.018215813
1.339799285,-0.658729076,-0.147434056,-0.735301435,0.007094923,-0.012077443,0.007151968,0.464794576,0.011387758,0.05589962,0.193945199,-0.726191401,0.018219719
1.344797969,-0.657242298,-0.143390521,-0.736240804,0.00794463,-0.009277567,0.007882422,0.464905173,0.01145136,0.056148272,0.193959743,-0.726232052,0.018221371
1.349797368,-0.658883035,-0.142888486,-0.736550808,0.007523169,-0.006144664,0.00426262,0.464941829,0.011472449,0.05623072,0.193968624,-0.726256132,0.01821469
1.35479784,-0.660193205,-0.143455371,-0.734310031,0.009145859,-0.003553406,0.003360834,0.464778036,0.011480429,0.054981679,0.194013193,-0.726272404,0.018188979
1.359799504,-0.658271492,-0.141458496,-0.736734629,0.009701339,-0.00183323,-0.000173038,0.464723706,0.011483076,0.05456752,0.194051966,-0.726267934,0.018151835
1.3647964,-0.657860756,-0.143319339,-0.737210214,0.011004539,0.000287304,-0.001476089,0.464681923,0.011485112,0.054248855,0.194113091,-0.726257563,0.018108694
1.369793773,-0.658406675,-0.145001441,-0.738726497,0.011236736,0.001128869,-0.001170587,0.464668065,0.011485787,0.05414319,0.194176778,-0.72623539,0.018066032
1.374792457,-0.658794999,-0.144959822,-0.73879385,0.011930249,0.001890476,-0.003183105,0.464653075,0.01159742,0.055103425,0.194247976,-0.726210833,0.018019935
1.379791856,-0.658106208,-0.147957757,-0.738794506,0.013110553,0.003179469,-0.004320703,0.464647055,0.011661931,0.055679552,0.194336966,-0.726173997,0.01795993
1.384792328,-0.658941507,-0.148468673,-0.739024401,0.011654658,0.00661623,-0.004843789,0.464642406,0.011711569,0.056122843,0.194412068,-0.726124287,0.017913856
1.389793992,-0.66041398,-0.148357242,-0.73926723,0.012975301,0.006042104,-0.003438173,0.464640886,0.011728027,0.056269832,0.194497213,-0.726081312,0.017861692
1.394791126,-0.659643531,-0.153008029,-0.73938334,0.010143756,0.008810221,-0.000312622,0.464585423,0.011736898,0.055851109,0.194557279,-0.726025164,0.017836386
1.399788499,-0.659830034,-0.157072499,-0.737247825,0.004657667,0.0080998,0.002097465,0.464512318,0.011736015,0.055175979,0.194590405,-0.7259776,0.017839355
1.404786944,-0.661166906,-0.158971757,-0.734469771,0.002073163,0.012079308,0.004040276,0.464456052,0.011735336,0.054656513,0.194600314,-0.725917101,0.017856011
1.409786344,-0.661195695,-0.155712306,-0.734517395,-0.001055366,0.01364886,0.006900682,0.464437425,0.011735111,0.054484267,0.194577649,-0.725850284,0.017888581
1.414786816,-0.661143661,-0.148417503,-0.736352861,-0.002857192,0.01652213,0.005526353,0.46442306,0.011734937,0.05435174,0.194520578,-0.725766659,0.017916787
1.419788599,-0.661078513,-0.141564697,-0.736196935,-0.003273889,0.018758532,0.008002007,0.464516312,0.011685048,0.054619264,0.194438621,-0.725675225,0.01795949
1.424785137,-0.660945654,-0.144393757,-0.737464786,-0.003752761,0.024048274,0.004976754,0.464588046,0.011646662,0.054825108,0.194375545,-0.725553811,0.01799468
1.429782748,-0.661307573,-0.142377466,-0.737818956,-0.001919006,0.024532666,0.006900848,0.464611828,0.011633934,0.05489336,0.194314376,-0.725435734,0.018032428
1.434781194,-0.659435034,-0.14947167,-0.737359524,-0.002510882,0.025347527,0.004653444,0.464630127,0.01162414,0.054945879,0.19426854,-0.725300729,0.018068038
1.439780831,-0.658843696,-0.151799485,-0.738652587,-0.00249479,0.028507827,0.003421669,0.464691639,0.011675877,0.054783951,0.194229037,-0.725144148,0.018096996
1.444781303,-0.658363402,-0.152043462,-0.738444269,-0.004206497,0.028841283,0.007960131,0.464794993,0.011771283,0.054478027,0.194160119,-0.725004196,0.018155212
1.449783325,-0.656578422,-0.150981903,-0.741290271,-0.003292031,0.028845342,0.007447818,0.464829266,0.011802918,0.054376587,0.194091067,-0.724845111,0.018209325
1.454780459,-0.654825628,-0.147900701,-0.743138552,-0.004072296,0.030215107,0.007358788,0.464855641,0.011827258,0.054298535,0.194022894,-0.724681199,0.018261503
1.45978415,-0.656103551,-0.144129649,-0.745890498,-0.002958792,0.028633369,0.005396584,0.464864403,0.011835329,0.054272655,0.193949431,-0.724526763,0.018294493
1.464782834,-0.654584646,-0.14641045,-0.745343149,-0.003261624,0.027178865,0.006004112,0.464609802,0.011590546,0.055784799,0.19388561,-0.724381626,0.018338507
1.469782472,-0.653661013,-0.151653886,-0.74619925,-0.001872589,0.026389785,0.002376496,0.464525372,0.01150938,0.056286193,0.193858519,-0.724227607,0.018360719
1.474783182,-0.655081272,-0.149673447,-0.746576369,-0.001659947,0.024195572,0.004011746,0.464460433,0.01144693,0.056671984,0.19382076,-0.724099696,0.018383868
1.479784966,-0.653243721,-0.152193874,-0.747612059,-0.001981452,0.022958472,0.004790137,0.464438915,0.011426222,0.056799907,0.193782404,-0.723957539,0.018419163
1.484781861,-0.650791943,-0.152808562,-0.746104777,-0.002020884,0.018263016,0.003944132,0.4646191,0.011501878,0.056215711,0.19374913,-0.72384572,0.018432122
1.489779234,-0.653109968,-0.153037295,-0.745748341,-0.00161207,0.01649317,0.004270795,0.464727551,0.011549629,0.055853084,0.19371745,-0.723752737,0.018449176
1.494777799,-0.655098379,-0.153226778,-0.744835317,-0.000696536,0.014232599,0.004387172,0.464810997,0.01158637,0.055574067,0.193703696,-0.723668218,0.018457768
1.499777317,-0.655321479,-0.155269325,-0.746366799,-0.001485617,0.012206255,0.006044002,0.464838654,0.011598553,0.055481549,0.193673015,-0.723593354,0.01848767
1.504778028,-0.654082656,-0.159210384,-0.743759155,-0.005945778,0.014132764,0.007487423,0.464718759,0.011699047,0.055619322,0.19362098,-0.723508,0.018534474
1.509779453,-0.654022276,-0.162236273,-0.739704907,-0.008912205,0.011970174,0.013322731,0.464536697,0.011824255,0.055875715,0.193549275,-0.723449886,0.018608889
1.514776349,-0.655607522,-0.158322439,-0.742097437,-0.010380232,0.012110848,0.015586963,0.464396596,0.011920594,0.056072991,0.193450272,-0.723390996,0.018694568
1.519773722,-0.655232012,-0.150151685,-0.742123365,-0.014399415,0.013246609,0.016406579,0.464350134,0.011952538,0.056138404,0.193292007,-0.723321795,0.018790411
1.524772048,-0.656368732,-0.146946177,-0.74208492,-0.014095512,0.014700493,0.017383069,0.464314371,0.011977117,0.056188732,0.193139985,-0.7232548,0.018883884
1.529771805,-0.656419635,-0.143116161,-0.741406858,-0.014079007,0.016828027,0.018138636,0.464209676,0.01167908,0.055845749,0.192969084,-0.72317934,0.018996002
1.534772277,-0.657001376,-0.141308069,-0.739723086,-0.011285723,0.018252024,0.017469499,0.46412909,0.011449762,0.055581845,0.192805529,-0.723101199,0.019103469
1.539773941,-0.657080293,-0.142632946,-0.739013255,-0.011419076,0.019245928,0.015848136,0.464102358,0.011373724,0.055494342,0.192670539,-0.72301662,0.01919001
1.544770837,-0.655552268,-0.138603985,-0.740707695,-0.010842819,0.020725172,0.012978449,0.464081794,0.011315217,0.055427011,0.192527637,-0.722910821,0.019266736
1.549768209,-0.656122983,-0.134756967,-0.744871914,-0.00466253,0.022232305,0.009073298,0.46418494,0.011326293,0.055816699,0.192427322,-0.72279644,0.019314941
1.554766893,-0.654298544,-0.133527309,-0.747363865,-0.002684746,0.02208117,0.006666912,0.464375466,0.01136563,0.056533147,0.192333892,-0.722671926,0.019357495
1.559766293,-0.654451668,-0.138154417,-0.748761237,0.00345244,0.017576057,0.003528779,0.464438647,0.011378673,0.056770705,0.192318037,-0.722573578,0.019356979
1.564767003,-0.654472291,-0.144492477,-0.749854624,0.00450559,0.013824293,0.001029908,0.464487255,0.011388709,0.05695349,0.192325622,-0.722488403,0.019348035
1.569768667,-0.654304326,-0.153041601,-0.750305891,0.00347939,0.00772666,0.001404396,0.464503378,0.011392036,0.057014097,0.192358747,-0.722430587,0.019333335
1.574765325,-0.65680778,-0.154574618,-0.751544356,0.004135418,0.0011311,0.001579502,0.464255482,0.011526398,0.056163669,0.192379802,-0.722404718,0.019321306
1.579762936,-0.654379427,-0.154012933,-0.756775975,0.003621667,-0.004622549,0.001544904,0.464173287,0.011570951,0.055881687,0.192412749,-0.722397923,0.019287784
1.584761381,-0.656189024,-0.151755974,-0.757149398,0.00309989,-0.010048653,0.003258286,0.464110047,0.01160523,0.055664718,0.192433104,-0.722421288,0.019250279
1.589761019,-0.654715121,-0.15021278,-0.758408487,0.0041706,-0.017203316,0.001305068,0.464089066,0.011616597,0.055592775,0.192464471,-0.722480357,0.019197321
1.59476757,-0.656616807,-0.147211894,-0.758196235,0.005815644,-0.022945434,-0.001278809,0.464120448,0.011629635,0.056109939,0.192510843,-0.722560525,0.019130625
1.599769592,-0.66024518,-0.146707013,-0.7574265,0.003918404,-0.029019207,-0.00280616,0.464142591,0.01163502,0.05642309,0.192566484,-0.722682595,0.019033249
1.604766488,-0.663166881,-0.149096221,-0.756958008,0.004405941,-0.034107462,-0.003842193,0.464159638,0.011639164,0.056664038,0.192640692,-0.722829521,0.018933589
1.609764099,-0.664721787,-0.143734634,-0.756494343,0.004929733,-0.036238622,-0.009603551,0.4641653,0.011640538,0.056743935,0.192730188,-0.722981453,0.018784449
1.614763021,-0.6676898,-0.145871282,-0.755514741,0.003386586,-0.03943672,-0.012002372,0.464224875,0.011642139,0.056981966,0.192827806,-0.723154247,0.018622793
1.619762421,-0.669808686,-0.145655185,-0.753946602,0.002187236,-0.042680677,-0.015935292,0.464300334,0.011643221,0.057238936,0.192951143,-0.723344803,0.018418126
1.624762893,-0.67437017,-0.1530139,-0.754698992,-0.003311374,-0.040525995,-0.017276213,0.464358419,0.011644052,0.057436656,0.193062901,-0.723521292,0.018219203
1.629764557,-0.679013968,-0.163198292,-0.750019789,-0.009172439,-0.040604223,-0.014446505,0.464377671,0.011644328,0.057502218,0.19315204,-0.72371316,0.018048288
1.634761214,-0.680440962,-0.164852962,-0.747187257,-0.01594932,-0.037526678,-0.012766282,0.464392513,0.011644539,0.057552662,0.193191335,-0.723884106,0.017896147
1.639758825,-0.68095839,-0.156609759,-0.748046637,-0.02424054,-0.035894535,-0.012373338,0.464199543,0.011798877,0.057362944,0.193165824,-0.724051476,0.017736658
1.644757271,-0.669300675,-0.153243914,-0.752004743,-0.029855443,-0.032958709,-0.011369752,0.464051038,0.011917629,0.057216968,0.193095103,-0.724186957,0.017590124
1.649756908,-0.665080428,-0.161746755,-0.756231666,-0.035176817,-0.037950523,-0.009547323,0.464001805,0.011957006,0.057168566,0.193021774,-0.724339426,0.017453281
1.65475738,-0.662350714,-0.169029891,-0.763352931,-0.039035499,-0.045794409,-0.007747254,0.463963896,0.011987302,0.057131324,0.192939445,-0.724515438,0.017314892
1.659758806,-0.653054059,-0.18555221,-0.766337752,-0.047179282,-0.057624295,-0.002293911,0.464149803,0.011872518,0.056494795,0.192847893,-0.724741459,0.01720068
1.664755464,-0.644140482,-0.195344359,-0.777555168,-0.053501718,-0.077823743,0.007083593,0.464493513,0.011657975,0.055373885,0.192705527,-0.72505796,0.0171331
1.669752836,-0.630707502,-0.204767838,-0.787613451,-0.064243421,-0.103497244,0.022117551,0.464607477,0.011586837,0.055002213,0.192479387,-0.725480974,0.017131642
1.67475152,-0.617995679,-0.209735692,-0.800770283,-0.074419096,-0.142145604,0.039601475,0.464695156,0.0115321,0.054716237,0.192174748,-0.726088166,0.017189601
1.679750919,-0.61568445,-0.214273438,-0.80414629,-0.085994124,-0.177960902,0.057474926,0.464724243,0.01151395,0.054621413,0.191743821,-0.726889133,0.017337011
1.68475163,-0.605448008,-0.228491828,-0.818664432,-0.094764195,-0.221393198,0.079893716,0.464546621,0.01183997,0.054409929,0.191247568,-0.727885187,0.017582286
1.689753056,-0.602384448,-0.217553735,-0.836763799,-0.090235673,-0.277491122,0.098022684,0.464487731,0.011948071,0.054339804,0.190689027,-0.729162097,0.017861834
1.694749951,-0.582282305,-0.19776985,-0.859640837,-0.066325694,-0.347960651,0.116911553,0.464442402,0.012031248,0.054285847,0.190210983,-0.730763137,0.01815491
1.699747324,-0.578388214,-0.177984998,-0.875795722,-0.04408408,-0.422685921,0.140969783,0.464427382,0.012058828,0.054267958,0.189725295,-0.732736051,0.018517599
1.704746008,-0.569872797,-0.189813584,-0.918541789,-0.021096997,-0.508381009,0.169069558,0.463985652,0.011517499,0.052913401,0.189347386,-0.735103846,0.018966742
1.709745407,-0.54386878,-0.195711583,-0.965606689,-0.021888886,-0.618955553,0.189212978,0.463732749,0.011198799,0.052132472,0.188935131,-0.737925172,0.019418016
1.714746118,-0.539896667,-0.150789142,-1.023610353,0.042137064,-0.75754869,0.206576973,0.46353811,0.010953581,0.051531602,0.188733071,-0.741427302,0.019732853
1.719747543,-0.470108151,-0.20663625,-1.001412153,0.074282281,-0.893437207,0.255396485,0.463473588,0.010872271,0.051332362,0.188847676,-0.745543003,0.02025901
1.724744439,-0.537508607,-0.252545595,-1.021404028,0.065881602,-1.029611468,0.298803598,0.463740915,0.010301803,0.049905576,0.188885257,-0.750483871,0.02093029
1.729748011,-0.542803526,-0.27102828,-1.041531086,0.024658281,-1.147373796,0.324197441,0.464149207,0.009600478,0.048148304,0.188639596,-0.7559672,0.021643197
1.734746933,-0.535902023,-0.269344628,-1.047256231,0.013993609,-1.293115854,0.363287479,0.464463383,0.009060856,0.046796203,0.188318044,-0.762146711,0.022392984
1.739746332,-0.519342244,-0.25196296,-1.062786341,0.015804868,-1.460646033,0.422730893,0.464567572,0.008881927,0.046347871,0.187785536,-0.769158185,0.023343226
1.744747281,-0.557091534,-0.258281171,-1.096641541,0.06060319,-1.639673948,0.50061518,0.46464774,0.008744254,0.04600291,0.187275648,-0.777184486,0.024612231
1.749748945,-0.639568985,-0.381849766,-1.149674773,0.092976667,-1.812818289,0.655975819,0.464607358,0.007241169,0.041839775,0.186684415,-0.786184669,0.026794756
1.754745603,-0.672074139,-0.473007113,-1.179365396,0.048742082,-1.972363114,0.776269555,0.464576274,0.006084647,0.038636528,0.185419813,-0.796058178,0.029784516
1.759743214,-0.787085116,-0.468995184,-1.175197721,0.032796584,-2.101079702,0.827446997,0.464565992,0.005701166,0.037574392,0.183887586,-0.806696236,0.032873724
1.764741659,-1.013483524,-0.413406253,-1.162135243,0.025938403,-2.157302618,0.810652494,0.464558035,0.005406104,0.036757153,0.182296842,-0.817948699,0.035811581
1.769741297,-1.077692389,-0.350244194,-1.176434755,0.02831962,-2.145283222,0.753487527,0.464425802,0.003564279,0.031534545,0.18083486,-0.828910053,0.038289506
1.774741769,-0.875835478,-0.450736076,-1.175951481,0.05835972,-2.265085936,0.779982328,0.464193016,0.000383676,0.02250924,0.179763347,-0.8401016,0.040821742
1.779743433,-0.959995389,-0.540369391,-1.13211751,0.086691394,-2.520779371,0.896646619,0.464115828,-0.000670952,0.019516619,0.17863223,-0.853040636,0.04404502
1.784740329,-1.220069647,-0.59409374,-1.155722976,0.119065523,-2.580727339,1.002335191,0.464056432,-0.001482416,0.017214,0.177127063,-0.866600513,0.048082571
1.78973794,-1.4448843,-0.67959857,-1.177709699,-0.010998964,-2.560510159,1.131621242,0.464036763,-0.001751482,0.016450495,0.174306646,-0.880213082,0.053212218
1.794736385,-1.605057836,-0.574505091,-1.231359243,-0.255714536,-2.354008913,1.235316992,0.462562352,-0.007170402,0.003618834,0.168600544,-0.892920613,0.059762705
1.799736023,-1.666040063,-0.575862706,-1.255099535,-0.471759945,-2.084351778,1.317328691,0.462073445,-0.008967211,-0.000635901,0.160911277,-0.904098928,0.067373134
1.804736495,-2.078966618,-0.509633839,-1.303167701,-0.565839171,-1.70785284,1.382213235,0.46169728,-0.010349736,-0.003909631,0.151416242,-0.913913786,0.076422773
1.809738278,-2.260614634,-0.564710677,-1.530789495,-0.582640946,-1.113269925,1.377985716,0.461572558,-0.010808155,-0.004995138,0.141491562,-0.920348883,0.086193457
1.814735055,-1.907375336,-0.700391412,-1.66898334,-0.673019648,-0.462070614,1.39452076,0.459515989,-0.016637182,-0.014645372,0.130646467,-0.922582209,0.096935935
1.819732785,-1.36173594,-0.734465063,-1.606443405,-0.757481337,-0.00567653,1.440853596,0.4583489,-0.019925104,-0.020026505,0.118732683,-0.922059476,0.108471379
1.824731112,-0.863732457,-0.709754765,-1.48294723,-0.808334708,0.215292841,1.586765528,0.457450897,-0.022454938,-0.024166921,0.105465516,-0.920348465,0.121359847
1.829730868,-0.504935443,-0.657269537,-1.395145178,-0.828445792,0.275886655,1.810034037,0.457153141,-0.023293782,-0.025539806,0.090464808,-0.918318152,0.136165276
1.834731221,-0.307793915,-0.61964643,-1.342775583,-0.79291153,0.274015367,2.028949022,0.454940319,-0.027369453,-0.027436526,0.074231163,-0.916267991,0.152767166
1.839732766,-0.199557245,-0.607108831,-1.310399175,-0.727671266,0.249961972,2.214779377,0.452206194,-0.032179903,-0.028912876,0.057301853,-0.914229989,0.170751303
1.844729543,-0.131051525,-0.628290474,-1.279707551,-0.65188235,0.24506487,2.364161491,0.450102508,-0.035881214,-0.030048827,0.040052753,-0.912063241,0.189766571
1.849727035,-0.085645147,-0.661304474,-1.265282869,-0.578381896,0.280497372,2.469738483,0.449404955,-0.0371085,-0.030425487,0.022754056,-0.909510374,0.209462419
1.854725361,-0.043778803,-0.700355947,-1.263326526,-0.512330532,0.365731031,2.515167713,0.448868215,-0.038052812,-0.030715302,0.005819706,-0.90625596,0.229293764
1.85972476,0.018925,-0.730892181,-1.265775681,-0.45446068,0.495208085,2.504067659,0.444491446,-0.046867106,-0.03073772,-0.010423832,-0.902053833,0.248811871
1.864731669,0.106652334,-0.744835794,-1.257424235,-0.387629211,0.636777461,2.445105791,0.441123813,-0.053649105,-0.030754969,-0.025634313,-0.89686197,0.267505974
1.869733334,0.205720022,-0.741668463,-1.237497687,-0.30496043,0.774182916,2.341046095,0.44000718,-0.055897888,-0.030760689,-0.039441496,-0.8907637,0.284984291
1.874730229,0.310573548,-0.736869931,-1.203194737,-0.210002214,0.900723994,2.196445942,0.439148009,-0.057628173,-0.030765088,-0.051550973,-0.883877397,0.30093044
1.879727602,0.412070781,-0.729293108,-1.160494566,-0.100605488,1.002953172,2.016340971,0.436897367,-0.063369669,-0.029189439,-0.061701506,-0.876390159,0.315193713
1.884726286,0.503411472,-0.724002779,-1.112375379,0.019931527,1.076487422,1.814124346,0.433177978,-0.073012777,-0.026382379,-0.069749594,-0.868517756,0.327583313
1.889725924,0.573519468,-0.712580323,-1.072547555,0.152600512,1.124256015,1.588201046,0.431944698,-0.076210253,-0.025451612,-0.075582109,-0.86042726,0.337965906
1.894726396,0.612898529,-0.697363555,-1.042501926,0.29558441,1.151830673,1.342013478,0.430995792,-0.078670494,-0.024735451,-0.079130515,-0.852287412,0.346273869
1.899728179,0.625521719,-0.68355298,-1.019745231,0.439502478,1.164964676,1.074090481,0.430681139,-0.079486258,-0.024497984,-0.080335952,-0.844214916,0.352476925
1.904724956,0.614849508,-0.680653214,-1.009198904,0.57189554,1.175710082,0.787422597,0.427556962,-0.089265063,-0.020068079,-0.079187833,-0.836242437,0.356498003
1.909722328,0.591244996,-0.68216306,-1.000951886,0.683569551,1.195290923,0.486262232,0.426521063,-0.092507526,-0.018599207,-0.075787954,-0.828330159,0.358251691
1.914721012,0.567683876,-0.67916137,-0.994971275,0.774218142,1.230613112,0.179955408,0.425724,-0.09500239,-0.017469009,-0.07030081,-0.820384026,0.35775876
1.91972065,0.556832492,-0.661877036,-0.987657607,0.84604919,1.274925709,-0.124937341,0.425459713,-0.095829636,-0.017094258,-0.062953785,-0.81231612,0.355104268
1.924721122,0.552924097,-0.639901638,-0.978482306,0.912575662,1.319184065,-0.421860844,0.424946308,-0.099961542,-0.010921072,-0.053875551,-0.804101527,0.350466073
1.929722905,0.558028877,-0.611350298,-0.967983782,0.965579569,1.362298131,-0.702816129,0.424699336,-0.102196552,-0.007417941,-0.043307289,-0.795720577,0.343962908
1.934719801,0.565818608,-0.579439521,-0.957580388,1.005388737,1.405788183,-0.969968677,0.424509317,-0.103916235,-0.004722519,-0.031459894,-0.787113428,0.335765898
1.939717412,0.575693548,-0.544386089,-0.952342153,1.034582138,1.441591144,-1.209205985,0.424446315,-0.104486451,-0.003828769,-0.018589208,-0.778285384,0.326120138
1.944715738,0.581563592,-0.508534789,-0.954589725,1.054506898,1.473559141,-1.424187779,0.425714701,-0.104221486,0.000911067,-0.004938753,-0.769209445,0.31525296
1.949715495,0.566568434,-0.46558857,-0.965745389,1.072167158,1.501180053,-1.619318247,0.427463204,-0.10342402,0.006568884,0.009361924,-0.759900749,0.303336352
1.954715848,0.524410367,-0.411596,-0.982789934,1.0933882,1.543841958,-1.798583508,0.42880857,-0.102810428,0.010922188,0.024166847,-0.750277102,0.29052937
1.959717631,0.472036839,-0.365554422,-0.995947182,1.118475556,1.598924041,-1.962348104,0.429254651,-0.102606975,0.012365662,0.039429408,-0.740258813,0.276965767
1.964714527,0.418502241,-0.331411302,-1.004062295,1.138817787,1.663694739,-2.10444808,0.429597884,-0.10245043,0.013476316,0.054995436,-0.729786038,0.262840897
1.969712138,0.369302154,-0.302903473,-1.006759167,1.147438049,1.733165145,-2.21939826,0.434672236,-0.097290128,0.022032,0.070660271,-0.718829215,0.248343378
1.974710584,0.315610588,-0.270713031,-1.013775349,1.150831699,1.797501922,-2.313906193,0.438576579,-0.093319625,0.028615018,0.086255237,-0.707417905,0.233678132
1.979710221,0.248464316,-0.236414447,-1.029311776,1.149307966,1.866236091,-2.385648012,0.439871192,-0.092003077,0.030797822,0.101628155,-0.695550919,0.219008401
1.984710693,0.165363818,-0.201193526,-1.049372911,1.147963405,1.937705159,-2.438076973,0.440867305,-0.090990089,0.032477342,0.116680443,-0.683242738,0.204480737
1.989712358,0.066577412,-0.168291003,-1.068517327,1.151553631,2.023380041,-2.473332405,0.445018202,-0.085948773,0.038443111,0.13137123,-0.670441628,0.19016774
1.994709015,-0.036225215,-0.146505877,-1.083774328,1.153839946,2.138342857,-2.489994287,0.452075243,-0.077311888,0.048502579,0.14562811,-0.657034039,0.176255748
1.999712825,-0.127949104,-0.124129474,-1.096309304,1.149735212,2.271454573,-2.486571074,0.454415232,-0.074448064,0.051838107,0.159298256,-0.642937779,0.162929237
2.00471139,-0.201392427,-0.101537406,-1.104691863,1.150275946,2.41241312,-2.463482857,0.45621568,-0.07224454,0.054404572,0.172350734,-0.62811923,0.150301099
2.009710789,-0.262105405,-0.073901065,-1.107177973,1.159115791,2.556883574,-2.4196105,0.45681268,-0.071513899,0.055255562,0.184729934,-0.612615526,0.138472378
2.01471138,-0.313233376,-0.043698005,-1.102938533,1.184643149,2.693695784,-2.362707853,0.466677338,-0.056288227,0.070525609,0.196525961,-0.596478343,0.127456158
2.019712925,-0.354127258,-0.015482487,-1.09128654,1.217145324,2.820689917,-2.291614294,0.469948262,-0.051239684,0.075588867,0.207767352,-0.57979846,0.117368415
2.02470994,-0.390927643,0.001992935,-1.074143529,1.255308151,2.934061766,-2.211711884,0.472465038,-0.047355175,0.079484701,0.218521073,-0.562670827,0.108227864
2.029707193,-0.419027984,0.01052677,-1.056190848,1.290621519,3.028680563,-2.127425432,0.473299533,-0.046067141,0.080776483,0.2288142,-0.545199573,0.10002248
2.034705877,-0.439498574,0.009218617,-1.036598921,1.321653605,3.104415178,-2.033824682,0.479721814,-0.032927889,0.09517993,0.238671333,-0.527476966,0.092651024
2.039705276,-0.459522039,0.007646039,-1.019155979,1.347835302,3.161555767,-1.94344008,0.483281642,-0.025565058,0.103274062,0.248112202,-0.509619653,0.08615201
2.044706106,-0.480895698,0.009373237,-1.006152153,1.37485826,3.201358557,-1.854157805,0.486020684,-0.019899858,0.109501943,0.257192552,-0.491722524,0.080450073
2.04970789,-0.505563676,0.013062097,-0.991678536,1.401848435,3.227291107,-1.775238633,0.48692891,-0.018021386,0.111566991,0.265985012,-0.473846883,0.075449288
2.054704666,-0.534602642,0.008739965,-0.973306954,1.433173776,3.23559165,-1.708649039,0.490000665,-0.008611708,0.121871896,0.27461648,-0.456089973,0.070968971
2.059702158,-0.579325795,-0.013097771,-0.959813893,1.455345392,3.233024359,-1.651883721,0.493412048,0.002539549,0.134077966,0.283110142,-0.438503206,0.066971742
2.064700842,-0.645397425,-0.056863174,-0.948118329,1.461627603,3.229534388,-1.604643583,0.496036887,0.011119682,0.143469721,0.291479468,-0.421116322,0.063438244
2.069700718,-0.727778673,-0.105825461,-0.931364357,1.439875007,3.229012966,-1.574262381,0.496907234,0.013964692,0.14658384,0.299624622,-0.403907686,0.060296476
2.074701309,-0.825599968,-0.14739947,-0.912607014,1.385821581,3.234507084,-1.566584229,0.497576892,0.016153734,0.148979947,0.307416648,-0.386853039,0.057385501
2.079703093,-0.911632836,-0.16784969,-0.89320308,1.303465962,3.247659922,-1.582853913,0.49887085,0.032029308,0.165014014,0.314720929,-0.369858027,0.054507382
2.084699869,-0.95638603,-0.172566622,-0.871727347,1.201896906,3.242952824,-1.626471996,0.499866456,0.044244483,0.177351132,0.321492434,-0.352889717,0.051550359
2.089697599,-0.983618021,-0.151581511,-0.848055065,1.103372574,3.207431316,-1.692656636,0.500196576,0.048294805,0.181441888,0.327758878,-0.336045086,0.048300434
2.094696283,-0.98626554,-0.135285243,-0.812839985,1.014378905,3.138573885,-1.763663292,0.500450552,0.051411249,0.184589446,0.333636999,-0.319457173,0.044688929
2.099695683,-0.996135116,-0.107027844,-0.773981512,0.935610771,3.025037289,-1.842446923,0.499160349,0.061347563,0.194529697,0.339199662,-0.303352177,0.040497847
2.104696274,-1.019570351,-0.087427758,-0.71770519,0.862099349,2.877532721,-1.922013521,0.496777833,0.077995166,0.211173862,0.344492584,-0.287914753,0.035740871
2.109698057,-1.06684041,-0.047650658,-0.659910619,0.796822429,2.701915741,-1.987632751,0.495987833,0.08351519,0.216692761,0.349511832,-0.273331553,0.030433061
2.114694834,-1.114940405,-0.029958528,-0.598074198,0.728409648,2.499423027,-2.030168295,0.495379955,0.087762475,0.220939174,0.354253173,-0.259746373,0.024674047
2.119692564,-1.176547408,-0.01309743,-0.542750597,0.656199932,2.273724079,-2.044443369,0.495178431,0.089170799,0.2223472,0.35865885,-0.247342795,0.018503994
2.12469101,-1.256038666,0.013155933,-0.498254806,0.588772297,2.043845892,-2.033573389,0.486730009,0.111087665,0.241021588,0.362699986,-0.236201853,0.01198105
2.129690647,-1.337558508,0.070720121,-0.46681872,0.544032335,1.817146182,-2.000929832,0.48392868,0.118354887,0.247213677,0.36641258,-0.22632058,0.005234708
2.134697437,-1.430449247,0.158140033,-0.44104895,0.527714074,1.604390621,-1.962034702,0.481773227,0.12394651,0.25197804,0.369877636,-0.217685252,-0.001767155
2.139699459,-1.537264466,0.259267062,-0.418219388,0.544847667,1.420705914,-1.919812441,0.481058508,0.125800595,0.253557831,0.373277992,-0.21014902,-0.008960534
2.144696236,-1.629837751,0.339274108,-0.398155868,0.5807634,1.276664376,-1.886184096,0.473263919,0.141721174,0.264134169,0.376752734,-0.20347634,-0.01643399
2.149693966,-1.700762272,0.378203064,-0.370542467,0.594401062,1.165944576,-1.846043229,0.468886703,0.150586724,0.269957453,0.380227238,-0.197469532,-0.023902969
2.15469265,-1.736878514,0.376347303,-0.32599628,0.555392683,1.064704537,-1.785641074,0.465518713,0.157408163,0.274438053,0.383469522,-0.192068517,-0.031219419
2.159692526,-1.73698175,0.352801532,-0.27001214,0.458946586,0.963550389,-1.694065809,0.464401931,0.159670025,0.275923759,0.386180103,-0.187289074,-0.038182478
2.164692879,-1.711382151,0.339633197,-0.211950079,0.326871693,0.853107214,-1.570001602,0.459783018,0.168523505,0.280730516,0.388149917,-0.183227688,-0.044766244
2.169694662,-1.676490188,0.35329026,-0.155592769,0.186526567,0.716984987,-1.407197237,0.454460263,0.178632006,0.286018699,0.389274418,-0.180065915,-0.050855935
2.174691677,-1.643311739,0.386078238,-0.095933527,0.069845662,0.550415754,-1.211366296,0.450364769,0.186409816,0.29008761,0.389661789,-0.178043783,-0.056348935
2.179689407,-1.62678051,0.422914505,-0.035997216,-0.000636028,0.361140519,-0.99075675,0.449006796,0.18898879,0.291436791,0.389564037,-0.177352801,-0.061187398
2.184688091,-1.631328106,0.444255948,0.016491637,-0.025696578,0.152990356,-0.750078499,0.447961897,0.190973148,0.292474866,0.38925916,-0.178130925,-0.065317072
2.189687729,-1.653601289,0.443979651,0.066592328,-0.018335056,-0.06674093,-0.490088105,0.441934824,0.200610936,0.296633542,0.388924122,-0.180501014,-0.068687744
2.194688559,-1.699745297,0.418951392,0.114055336,0.011080058,-0.292707622,-0.216939092,0.437297404,0.208026558,0.299833387,0.388684958,-0.184544593,-0.071153827
2.199690342,-1.769362211,0.358240038,0.165624976,0.045377098,-0.509002745,0.065329716,0.435759723,0.210485443,0.30089438,0.388601512,-0.19026877,-0.07259433
2.204687119,-1.855577826,0.271744668,0.213751957,0.068312384,-0.712246656,0.35485667,0.434576571,0.212377384,0.301710725,0.388635099,-0.197634414,-0.072921842
2.209684372,-1.935228944,0.179958075,0.266323745,0.079993829,-0.902133405,0.640018225,0.433595479,0.21523726,0.302056372,0.388699621,-0.206551552,-0.072147474
2.214683056,-1.994380593,0.087155432,0.322330683,0.07553719,-1.073976636,0.910312057,0.432245255,0.219695196,0.302398086,0.388708353,-0.216867223,-0.070303693
2.219682455,-2.009545565,-0.024648417,0.364889085,0.044737719,-1.239273429,1.157178283,0.431797534,0.221173361,0.302511394,0.388547957,-0.22840561,-0.067424387
2.224683523,-1.10485065,-0.564015985,-0.32037136,-0.281163454,-1.427369952,1.456614852,0.431453049,0.222310707,0.302598566,0.387318105,-0.2395643,-0.063104242
2.229685307,0.097979255,-0.602699339,-0.762287617,-0.902253091,-2.123312473,1.625689507,0.431338847,0.222687826,0.302627474,0.381550491,-0.250763327,-0.059065942
2.234682083,-0.398585886,-1.047025561,-0.814165294,-1.488143325,-2.377712011,1.831989884,0.435845464,0.221892849,0.296891928,0.373969167,-0.267091811,-0.054453377
2.239679813,0.168480203,-1.214362621,-1.526733637,-1.493192554,-2.232098818,1.737961292,0.437339783,0.221629247,0.294990122,0.365957856,-0.278631389,-0.049506351
2.244678497,0.150542557,-1.096596122,-1.575486183,-1.35522604,-2.376770973,1.578146219,0.438489556,0.221426427,0.293526828,0.359001517,-0.291618109,-0.046144985
2.249678135,0.524530649,-0.946194112,-1.884265304,-1.034880638,-2.60739851,1.309704781,0.438870788,0.221359178,0.293041617,0.354032099,-0.303892463,-0.044712823
2.254678726,0.207801536,-1.154080987,-1.754651904,-1.199935555,-3.052645445,1.113873601,0.4469271,0.214753643,0.286387622,0.349050701,-0.318981647,-0.044861928
2.25968051,-0.004902897,-1.153432965,-1.272406816,-1.337349415,-3.371925592,1.088285565,0.4515194,0.210941613,0.282627136,0.343778431,-0.336146683,-0.045188338
2.264677286,-0.216340393,-0.609312534,-0.946308196,-1.453409672,-3.841109276,1.173699379,0.455052853,0.208008528,0.279733688,0.337139696,-0.356286883,-0.0464404
2.269680977,-0.364165604,0.1081312,-0.963338792,-1.484869719,-4.27281332,1.336019993,0.456224471,0.207035974,0.278774291,0.328761995,-0.379166663,-0.048273992
2.274679661,-1.048709631,0.532880008,-0.990459025,-1.448737025,-4.572812557,1.40725708,0.462406754,0.202604339,0.2710177,0.320109725,-0.404935688,-0.05055356
2.279679537,-1.320010066,0.784138143,-1.073605895,-1.267507792,-4.450562477,1.422139168,0.469781786,0.197420642,0.261368424,0.311815262,-0.430058867,-0.052513491
2.28467989,-1.398121357,0.870695055,-1.181149244,-1.117443562,-4.268731594,1.506354809,0.475456387,0.193432152,0.25394398,0.303768694,-0.454087406,-0.053528924
2.289681673,-1.501889229,0.873870134,-1.284062386,-0.956857622,-4.027928352,1.690696001,0.477337956,0.192109644,0.251482189,0.295623958,-0.477262139,-0.052764203
2.294678211,-1.555343986,0.789604664,-1.310775161,-0.69807446,-3.635241508,1.785224795,0.478785723,0.191092059,0.249587998,0.288177073,-0.498638064,-0.050400842
2.299675941,-1.562473059,0.579699159,-1.265672684,-0.448703021,-3.277049065,1.790301919,0.489467472,0.183801249,0.231792226,0.282223195,-0.517976403,-0.047030538
2.304674625,-1.521104574,0.33581847,-1.088101149,-0.254263669,-2.948622227,1.700175166,0.497686356,0.178191483,0.218099594,0.277600646,-0.535683393,-0.043221399
2.309674263,-1.395535707,-0.015457079,-0.956250608,-0.14315331,-2.735310555,1.569290876,0.50041157,0.176331386,0.213559374,0.274436355,-0.551833153,-0.039504103
2.314674616,-1.294342399,-0.371776521,-0.857006788,-0.151735291,-2.584232807,1.425258994,0.502508461,0.174900174,0.210065991,0.272096664,-0.567068219,-0.035945784
2.319676638,-1.353733897,-0.647582471,-0.823569834,-0.236531466,-2.506344318,1.319625735,0.507908106,0.170311481,0.200869113,0.26997444,-0.58182168,-0.03262208
2.324673653,-1.604617476,-0.795359313,-0.774145365,-0.41138497,-2.320655346,1.184925318,0.516819656,0.162620768,0.185664505,0.267276168,-0.595965862,-0.029628569
2.329671383,-1.567352533,-0.829170346,-0.762587965,-0.550825775,-2.015253782,1.009396076,0.519774556,0.160070673,0.18062295,0.264177561,-0.608008921,-0.027141431
2.334669828,-1.444426179,-0.697143137,-0.72704047,-0.69543457,-1.748456717,0.941118538,0.522048116,0.158108562,0.17674382,0.260001838,-0.618566096,-0.024646282
2.339669466,-1.175494075,-0.437735349,-0.732762039,-0.787597001,-1.493892431,0.923673153,0.522802055,0.157457963,0.175457582,0.254437327,-0.627451062,-0.02187638
2.344670296,-0.927974403,-0.231914029,-0.780557454,-0.844114721,-1.341495872,0.97220546,0.530037999,0.149952725,0.16028513,0.247892246,-0.635381162,-0.018599838
2.349672079,-0.823826432,-0.107989505,-0.84101361,-0.850579917,-1.213589072,1.022820711,0.532437325,0.147464126,0.15525423,0.240638405,-0.642632484,-0.014748974
2.354669094,-0.839855492,-0.113567285,-0.898664773,-0.849812686,-1.078805685,1.025581479,0.5342834,0.145549327,0.151383296,0.233325839,-0.649190664,-0.010650987
2.359666348,-1.017152429,-0.188727811,-0.888622284,-0.834222078,-0.888253331,0.979407489,0.534895539,0.144914418,0.150099769,0.226230517,-0.655013442,-0.006411846
2.364665031,-1.049140334,-0.236252069,-0.846196115,-0.779603601,-0.675718725,0.865736604,0.538100302,0.139303833,0.144477084,0.219850972,-0.659633756,-0.002524834
2.369664431,-0.979902327,-0.249496922,-0.792286098,-0.78282553,-0.507200301,0.765136957,0.539839387,0.136176005,0.141465738,0.213698044,-0.663173318,0.000961362
2.374665022,-0.819771588,-0.228852779,-0.779926777,-0.808133543,-0.414031446,0.721328318,0.541177511,0.133769363,0.139148712,0.207381845,-0.666019142,0.004346196
2.379666805,-0.719970584,-0.256514341,-0.787849188,-0.826905668,-0.344501287,0.710803211,0.541621208,0.132971376,0.138380423,0.200944468,-0.668434978,0.007828072
2.384663582,-0.690843225,-0.298680067,-0.848352194,-0.829044163,-0.275593132,0.703260303,0.542979658,0.129725531,0.135934144,0.194576368,-0.670379877,0.011441495
2.389660835,-0.709224939,-0.238324419,-0.803667784,-0.8154037,-0.175780579,0.700988412,0.544455707,0.125995338,0.133252293,0.188053757,-0.671945632,0.01513425
2.394659519,-0.662622213,-0.201415688,-0.809891462,-0.783927441,-0.138904765,0.692192554,0.545591414,0.123125218,0.131188795,0.18159771,-0.673176289,0.018861348
2.399658918,-0.6389184,-0.156245187,-0.816628873,-0.754617393,-0.104029432,0.66968441,0.545967996,0.12217354,0.130504578,0.175306067,-0.674212575,0.022389702
2.404665947,-0.566323757,-0.08368139,-0.844885349,-0.708427131,-0.120695695,0.652702391,0.546257734,0.121441282,0.129978105,0.16913195,-0.675176024,0.025774274
2.409667492,-0.561054468,-0.044801526,-0.873612404,-0.662276506,-0.154935762,0.631922305,0.547002435,0.117114708,0.12884666,0.163222522,-0.676300406,0.02900609
2.414664507,-0.668991268,0.035064757,-0.902555525,-0.587831855,-0.173108831,0.60526979,0.547575414,0.113785699,0.12797609,0.1576363,-0.677630663,0.032000232
2.419661999,-0.723739266,0.123108163,-0.883920848,-0.504103541,-0.170460626,0.570062399,0.547765434,0.112681858,0.127687424,0.152431101,-0.678981662,0.034746159
2.424660921,-0.642704487,0.082771257,-0.875476301,-0.445054829,-0.19074887,0.522734344,0.547911644,0.111832537,0.127465323,0.147878751,-0.680235386,0.03720066
2.429660559,-0.660978854,-0.000890804,-0.87503916,-0.395885676,-0.21914193,0.484424144,0.548322558,0.10958147,0.127229318,0.143932879,-0.681636393,0.039455362
2.434661388,-0.653286099,-0.010292623,-0.843751669,-0.355447143,-0.245617658,0.450463057,0.549005151,0.105858006,0.126883581,0.14031063,-0.683143616,0.041502617
2.439663172,-0.658425868,-0.041628458,-0.826097369,-0.32681796,-0.257445455,0.430939198,0.549231529,0.104623377,0.126768932,0.136997998,-0.684731662,0.04342876
2.44465971,-0.675609171,-0.069032341,-0.81191355,-0.302693397,-0.260195106,0.420751721,0.549405694,0.103673406,0.126680717,0.133867562,-0.686336696,0.045350786
2.44965744,-0.713412583,-0.064758047,-0.800075889,-0.273394227,-0.256124437,0.408887327,0.549463451,0.103358418,0.126651481,0.130918503,-0.687957287,0.047224708
2.454656363,-0.707936347,-0.045241073,-0.784202039,-0.250765473,-0.259893298,0.384797662,0.549424827,0.099743307,0.12659955,0.128131375,-0.689588308,0.048940849
2.459655762,-0.671738029,-0.002351602,-0.798178256,-0.223163441,-0.264580935,0.355325639,0.549412012,0.098544605,0.126582339,0.125497505,-0.69113481,0.050426058
2.464656115,-0.660197079,0.029344432,-0.808193326,-0.190425873,-0.278557032,0.321416438,0.549402118,0.097622283,0.126569092,0.123104423,-0.692708313,0.051657155
2.469657898,-0.646865785,0.025231067,-0.804753542,-0.158351943,-0.292656541,0.285618126,0.549398899,0.097316459,0.126564696,0.121059649,-0.694317639,0.052662812
2.474654436,-0.647844911,0.011604201,-0.804013014,-0.126400694,-0.307706237,0.258544266,0.550363302,0.094769858,0.125734568,0.119324043,-0.695976734,0.053519517
2.479652405,-0.652136803,-0.0174312,-0.798983932,-0.096542731,-0.323565632,0.237101465,0.550922334,0.09335351,0.12525472,0.11791309,-0.697710931,0.054249182
2.484651089,-0.658054471,-0.054564904,-0.789508939,-0.08065889,-0.332329452,0.22595568,0.551352501,0.092263736,0.124885522,0.116705768,-0.699497521,0.054919206
2.489650726,-0.654792547,-0.086379424,-0.781257272,-0.068578742,-0.337243378,0.220329478,0.551495135,0.091902383,0.124763101,0.115634412,-0.701298356,0.055588838
2.494651318,-0.66614604,-0.107941009,-0.767385066,-0.065449841,-0.336565286,0.219502881,0.551921725,0.091034517,0.123899668,0.11460945,-0.703116655,0.056279894
2.499653101,-0.659753144,-0.104444228,-0.769422591,-0.065794721,-0.330695778,0.225687668,0.552382588,0.090151958,0.12283767,0.113532126,-0.704885602,0.0570242
2.504649878,-0.658952296,-0.100973986,-0.768618047,-0.07021939,-0.323321491,0.230542555,0.552737236,0.089472897,0.122020535,0.112376504,-0.706614852,0.057812244
2.509647846,-0.66012764,-0.103524163,-0.763850391,-0.074754,-0.316803515,0.236636087,0.552854776,0.089247733,0.121749587,0.111173965,-0.708323956,0.058657698
2.514646292,-0.671199799,-0.100665174,-0.755377114,-0.079498947,-0.307909131,0.235222518,0.552945316,0.089074485,0.121541113,0.109943323,-0.710007429,0.059495687
2.519645929,-0.674380839,-0.097119354,-0.751578271,-0.077357344,-0.299065381,0.235287294,0.5533427,0.087672181,0.119551085,0.108726904,-0.711646736,0.06034961
2.524646282,-0.675353289,-0.086585119,-0.75179261,-0.072099961,-0.290032297,0.225494772,0.553648412,0.086593203,0.118019894,0.107535012,-0.713234186,0.061137233
2.529648066,-0.655685127,-0.074686542,-0.761579871,-0.071927764,-0.286908329,0.216437265,0.5537498,0.086235434,0.117512174,0.106365658,-0.714753091,0.061854582
2.534645081,-0.649692118,-0.061258018,-0.759745598,-0.06151893,-0.288000733,0.208016083,0.553827822,0.085960157,0.117121525,0.10525874,-0.716280043,0.062508576
2.53964901,-0.655027568,-0.045740463,-0.75529784,-0.048520699,-0.289251685,0.20065257,0.554032624,0.085166641,0.116256312,0.104198232,-0.717816114,0.063138992
2.544648409,-0.654929817,-0.038035758,-0.754536331,-0.032553531,-0.290799648,0.186445013,0.554371238,0.083846003,0.114846699,0.10327442,-0.719355166,0.063659854
2.549647808,-0.654427946,-0.037787903,-0.756606817,-0.012196843,-0.291791856,0.171384841,0.554483533,0.083408102,0.114379302,0.102529831,-0.720887601,0.06408193
2.554648638,-0.645176291,-0.064260475,-0.765049279,-0.000138106,-0.303223997,0.16167216,0.5545699,0.083071165,0.11401967,0.101957656,-0.722430706,0.064448722
2.559650421,-0.642035663,-0.086350724,-0.768144727,0.008773454,-0.31470564,0.158543289,0.55459857,0.082959443,0.113900423,0.101489522,-0.7240327,0.064795911
2.564647436,-0.643123388,-0.101960391,-0.77394551,0.019587351,-0.327558786,0.163455829,0.554710627,0.081760675,0.110355593,0.101083182,-0.725688577,0.065180622
2.56964469,-0.64084959,-0.120214224,-0.779130638,0.026098946,-0.342705548,0.177539244,0.55474776,0.081363186,0.109180197,0.100692689,-0.727420211,0.06567242
2.574643373,-0.643720925,-0.127657801,-0.770991385,0.02422669,-0.36055696,0.195159107,0.554776371,0.08105734,0.108275808,0.100210562,-0.729258239,0.066288337
2.579642773,-0.646101296,-0.121139213,-0.768993974,0.03798544,-0.380890638,0.207037613,0.554785848,0.08095593,0.10797593,0.099729761,-0.731209695,0.066952996
2.584643602,-0.649577022,-0.139158919,-0.77079618,0.047175009,-0.398456097,0.222372025,0.555154145,0.079844937,0.106602907,0.099301144,-0.733257055,0.067737319
2.589645624,-0.649491012,-0.143377304,-0.772843063,0.048031069,-0.41709733,0.233115941,0.555365622,0.079220943,0.105864979,0.098816678,-0.735387683,0.068579592
2.594642639,-0.642940462,-0.122372665,-0.786714673,0.048325676,-0.439973354,0.245490909,0.555528283,0.07874082,0.105297193,0.09823066,-0.737607419,0.069486544
2.599640369,-0.645731926,-0.095958643,-0.798910975,0.061087817,-0.466542244,0.254456818,0.555582225,0.078581624,0.105108924,0.097618535,-0.739959836,0.07041686
2.604639053,-0.641796231,-0.093382701,-0.798440218,0.054730158,-0.504171908,0.253513187,0.555884659,0.077843152,0.104373842,0.097012267,-0.74249655,0.0713204
2.609638691,-0.650574088,-0.052737348,-0.787138164,0.053810615,-0.539954305,0.241036847,0.556248128,0.076977141,0.103534929,0.096322313,-0.745246589,0.07210657
2.614639044,-0.643197119,-0.063877888,-0.796310306,0.061173081,-0.569893539,0.229544774,0.556527793,0.076310806,0.102889448,0.095842883,-0.748078227,0.072784789
2.619640827,-0.638865232,-0.044749171,-0.786226749,0.063044399,-0.59943974,0.211781651,0.556620479,0.076089866,0.102675416,0.095358759,-0.751080036,0.073336467
2.624637604,-0.646145999,-0.000685474,-0.795580745,0.095539846,-0.624965072,0.188016951,0.556691825,0.075919867,0.102510735,0.095057942,-0.754181147,0.073686086
2.629635334,-0.639035463,-0.014693989,-0.791408658,0.128573656,-0.655535698,0.166741744,0.557182014,0.074755922,0.0989144,0.095124446,-0.75741905,0.073887803
2.63463378,-0.657715321,-0.033931602,-0.787161708,0.12432012,-0.686469436,0.14417541,0.557559192,0.073860347,0.096147269,0.095328428,-0.760813653,0.073923148
2.639633417,-0.649476051,-0.017505333,-0.779068232,0.126350418,-0.718339205,0.127731189,0.557684243,0.073563389,0.095229745,0.095547348,-0.764360905,0.073815994
2.644634008,-0.647107244,-0.017229795,-0.773464978,0.148449272,-0.747349441,0.114423372,0.557780445,0.073334903,0.094523765,0.095976941,-0.768046618,0.073607787
2.649635792,-0.643025517,-0.034531336,-0.768059194,0.167240009,-0.773456693,0.098898724,0.558043301,0.072925918,0.093015887,0.096637577,-0.771846056,0.07327985
2.654632807,-0.6489411,-0.044456471,-0.769021332,0.174481392,-0.798227966,0.089315534,0.55847913,0.072274283,0.090567671,0.097424388,-0.775756121,0.072863318
2.659630299,-0.662757576,-0.056306016,-0.765444517,0.181888834,-0.821535289,0.081331439,0.558623672,0.072058208,0.089755885,0.098296441,-0.779789746,0.072406076
2.664628983,-0.677976251,-0.075759329,-0.760195434,0.169904351,-0.84505403,0.080004267,0.558734834,0.071891956,0.089131273,0.099199004,-0.783959627,0.07191132
2.669634819,-0.688353896,-0.074012145,-0.758143365,0.155247599,-0.868928254,0.080474973,0.55877167,0.071836837,0.088924162,0.099987902,-0.78825891,0.071417779
2.67463541,-0.680647433,-0.085686579,-0.751755893,0.152504086,-0.88922143,0.085200012,0.559420824,0.070706092,0.081698649,0.100794911,-0.792637229,0.070923209
2.679637432,-0.675135076,-0.117823064,-0.747716904,0.146517292,-0.91119349,0.096733429,0.559636116,0.070331156,0.079302803,0.101619571,-0.797118425,0.070514724
2.684634686,-0.681064904,-0.143192813,-0.74113071,0.135995075,-0.933609128,0.115825035,0.559801757,0.07004267,0.077459365,0.102359012,-0.80173862,0.070235871
2.689632177,-0.692498386,-0.141393095,-0.737327754,0.122514009,-0.953640223,0.142599151,0.559856653,0.069947012,0.076848112,0.102872983,-0.806480527,0.070135914
2.694630861,-0.714095414,-0.146148443,-0.717669487,0.107426986,-0.977621317,0.174460351,0.560112357,0.069377214,0.07252124,0.103166677,-0.811405301,0.070264854
2.69963026,-0.722816229,-0.14981547,-0.704614758,0.088082604,-0.995573282,0.201474652,0.560249984,0.069065504,0.070132211,0.103245772,-0.816437602,0.070569649
2.70463109,-0.716724217,-0.151105419,-0.714216352,0.072343692,-1.015295029,0.230906159,0.560355842,0.068825662,0.068294019,0.103084877,-0.821554303,0.071079992
2.709632874,-0.710325062,-0.150922015,-0.728875875,0.058490511,-1.037832022,0.264622629,0.560390949,0.068746135,0.067684509,0.102686934,-0.826755285,0.071818046
2.71462965,-0.707247257,-0.140208721,-0.719375491,0.045053076,-1.063293934,0.295066655,0.5607391,0.068053275,0.065025568,0.102018856,-0.832109809,0.072783798
2.719627619,-0.732981622,-0.128607512,-0.711849928,0.033515349,-1.088732243,0.325063139,0.561178386,0.067186564,0.061935559,0.101116024,-0.837650537,0.073946014
2.724626064,-0.732354701,-0.116902433,-0.703634739,0.020850997,-1.110334516,0.355086625,0.561516404,0.066519685,0.059558008,0.099938899,-0.843302131,0.075359322
2.729625702,-0.726866066,-0.102051839,-0.707481086,0.014083513,-1.138780713,0.3782323,0.56162852,0.066298559,0.058769654,0.098564997,-0.849085212,0.076928839
2.734626293,-0.734709203,-0.09222243,-0.712463558,0.013073735,-1.165255308,0.395055711,0.561714709,0.066128418,0.058163073,0.097058363,-0.855003834,0.078622341
2.739628077,-0.750627637,-0.090116553,-0.722415745,0.014162392,-1.197018623,0.411553144,0.562074482,0.064588875,0.051924597,0.09547051,-0.861084282,0.080443382
2.744624853,-0.737262428,-0.091376655,-0.722705603,0.013527072,-1.231319427,0.435488254,0.562351286,0.063404292,0.047124512,0.09372507,-0.867304802,0.082450978
2.749622583,-0.733643234,-0.091162272,-0.731737018,0.006146715,-1.277379513,0.455434293,0.562443137,0.063011512,0.045532893,0.091803983,-0.873749197,0.084612742
2.754621267,-0.689591706,-0.075506717,-0.598690331,-0.082662493,-1.158892989,0.437728524,0.562513709,0.062709294,0.044308253,0.089366175,-0.879651189,0.086767286
2.759620905,-0.83904171,0.066066176,-0.902526498,0.078008957,-1.390565395,0.449768603,0.562538445,0.061220426,0.04024668,0.087711304,-0.88667953,0.088761948
2.764621735,-0.768893957,-0.197836936,-0.667783499,0.037896637,-1.446245909,0.504257977,0.56255877,0.058670696,0.03342529,0.085806333,-0.894243658,0.091477461
2.769623518,-0.69976753,-0.330078185,-0.805136025,-0.092350252,-1.535295129,0.519099057,0.562565506,0.057825252,0.031163447,0.083826177,-0.901727557,0.093969159
2.774620533,-0.681303263,-0.120532282,-0.790255845,-0.094126612,-1.614482045,0.599410594,0.562570691,0.057174742,0.029423112,0.08019083,-0.909741998,0.097344913
2.779618025,-0.719743907,-0.180435151,-0.785381615,-0.102650858,-1.698407769,0.62935096,0.56257242,0.056959044,0.02884605,0.076811559,-0.918190837,0.100955226
2.784616947,-0.757601917,-0.155469805,-0.781653047,-0.159634709,-1.78055191,0.661177576,0.562450349,0.053275574,0.019784464,0.072756387,-0.927118063,0.104854077
2.789616585,-0.720740557,-0.129128963,-0.800558329,-0.212485343,-1.861061096,0.689095974,0.562409818,0.052054208,0.016779814,0.068068206,-0.936316252,0.109042503
2.794617176,-0.709954083,-0.123726726,-0.807669342,-0.257032752,-1.967623353,0.714021266,0.562378705,0.051114444,0.01446794,0.062888056,-0.946017802,0.113522135
2.799618721,-0.713290215,-0.128633305,-0.806716025,-0.300365478,-2.080909491,0.741544306,0.562368393,0.050802838,0.013701366,0.057257496,-0.956295371,0.118305475
2.80462122,-0.689270198,-0.152248546,-0.820959151,-0.334497124,-2.201863527,0.789002478,0.562581539,0.047167759,0.00318784,0.051066101,-0.967100918,0.12362241
2.80961895,-0.688274086,-0.178594217,-0.831661224,-0.372698605,-2.347081423,0.851520598,0.562706947,0.045122255,-0.002753893,0.04413959,-0.978605807,0.129647344
2.814617634,-0.694979012,-0.180409238,-0.84877038,-0.394381881,-2.499820709,0.922456205,0.562803388,0.043548375,-0.007325654,0.036358081,-0.990833342,0.136513695
2.819617271,-0.673426509,-0.171299502,-0.875103772,-0.407517612,-2.670782089,0.988382161,0.562835395,0.043026507,-0.008841563,0.027654277,-1.003807664,0.14430891
2.824617624,-0.660342991,-0.120672226,-0.924354255,-0.3993119,-2.869737625,1.035914898,0.562128246,0.040361214,-0.016303889,0.018119957,-1.017656207,0.152891934
2.829619646,-0.657199383,-0.043207455,-0.985079765,-0.361064881,-3.09615612,1.060128212,0.561155856,0.037194692,-0.025127053,0.007887054,-1.032484293,0.162198424
2.834616661,-0.640115142,0.023322597,-1.039603949,-0.265636057,-3.356859922,1.036173224,0.560407698,0.034758266,-0.031915877,-0.002367383,-1.048478127,0.171813667
2.839614153,-0.63549912,0.071115859,-1.105814934,-0.109408125,-3.661427259,0.970878065,0.560159624,0.033950396,-0.034166925,-0.0118845,-1.065824747,0.181339145
2.844612837,-0.740632653,0.133340031,-1.179666519,0.033910755,-3.983814478,0.872264743,0.55996877,0.033328794,-0.03589895,-0.020648768,-1.084735751,0.190569475
2.849612474,-0.861077011,0.132256851,-1.209014297,0.149922878,-4.270514965,0.750250459,0.557908416,0.027896322,-0.05139026,-0.028295893,-1.105117798,0.199213579
2.854613066,-0.906460166,-0.075646833,-1.218894124,0.155338436,-4.525838852,0.700626016,0.556323111,0.023716403,-0.063309774,-0.035270132,-1.126665711,0.207689717
2.859615088,-0.9576841,-0.389286458,-1.28527844,0.047680378,-4.798418999,0.716709554,0.555797458,0.022330422,-0.067262053,-0.042861041,-1.149434686,0.216880739
2.864611864,-0.973811746,-0.509857059,-1.316689014,-0.009685447,-5.170396328,0.862949371,0.555392981,0.021264004,-0.070303068,-0.053159259,-1.173957109,0.228929192
2.869609833,-1.215488434,-0.57513386,-1.337064624,-0.1479709,-5.393353939,1.033137918,0.552707374,0.018369064,-0.083430968,-0.068190888,-1.199608445,0.245117471
2.874608278,-1.575124621,-0.54523015,-1.432974696,-0.181407407,-5.55253458,1.181618214,0.548061132,0.013571917,-0.105786763,-0.088148512,-1.225801229,0.266149431
2.879608154,-1.703322768,-0.46369493,-1.369758725,-0.112558976,-5.668509483,1.313401222,0.546520531,0.011981274,-0.113199525,-0.113190681,-1.252292156,0.292699993
2.884608746,-1.697378635,-0.650760174,-1.302959204,-0.206808299,-5.752323151,1.564305425,0.545335174,0.010757383,-0.118903138,-0.146160141,-1.278838277,0.327360272
2.889610529,-1.673128247,-0.779268742,-1.299118996,-0.347842187,-5.836356163,1.920670629,0.544942081,0.010351564,-0.120794341,-0.193166569,-1.305040836,0.375758827
2.894607306,-2.024034262,-0.735187948,-1.373481989,-0.479869157,-5.746545792,2.193852663,0.533565462,0.001650131,-0.155400932,-0.255896866,-1.329610109,0.439224124
2.899604797,-1.982763052,-0.8730582,-1.369920969,-0.594703317,-5.612243652,2.469043493,0.529793203,-0.0012351,-0.166875824,-0.335946739,-1.351730108,0.519931138
2.904603481,-2.179189444,-1.027388334,-1.411346316,-0.850774169,-5.493225098,2.680939198,0.526890635,-0.003455088,-0.175704971,-0.436549962,-1.371337175,0.620322883
2.909603119,-2.256843567,-1.000471711,-1.311684608,-1.079689503,-5.284861088,2.834321737,0.525928259,-0.004191194,-0.178632557,-0.559002936,-1.387318134,0.741205394
2.91460371,-2.264585972,-0.977469563,-1.329951882,-1.332024813,-5.09008646,2.987496853,0.512682319,-0.014834564,-0.204093218,-0.702410817,-1.398848772,0.881888628
2.919605494,-2.332766056,-0.805350482,-1.333139658,-1.528473496,-4.758649826,3.096030235,0.505195677,-0.020857282,-0.218278408,-0.858299732,-1.404668808,1.033568859
2.92460227,-2.000543356,-0.625707746,-1.302521825,-1.640389681,-4.446465492,3.17143774,0.499435246,-0.025491355,-0.229192942,-1.01560998,-1.404850841,1.185686469
2.9296,-1.738455415,-0.567119837,-1.182907939,-1.644345641,-4.162203312,3.174195766,0.497525185,-0.027027925,-0.232812002,-1.162459373,-1.400716543,1.327208877
2.934598684,-1.419486642,-0.424454123,-1.043549538,-1.600118041,-3.918002605,3.195384026,0.4868958,-0.03473267,-0.245943904,-1.295181155,-1.392550349,1.454523325
2.939604282,-1.092390418,-0.342542261,-1.229556322,-1.276055455,-3.685158014,3.184468269,0.474134624,-0.043864638,-0.260732353,-1.404157162,-1.381363034,1.559400916
2.944605112,-1.508166313,-0.32314074,-1.169671535,-0.883549035,-3.563567877,3.258544207,0.464315772,-0.050891064,-0.272111058,-1.496914506,-1.367946863,1.650476456
2.949607134,-2.568114996,0.050943922,-1.346522331,-0.428835601,-3.197134733,3.210718393,0.461060017,-0.053220894,-0.275884032,-1.566664338,-1.353230834,1.720469594
2.954604149,-2.128243208,-0.166509792,-1.422664165,-0.055662185,-2.561123848,3.116651535,0.458554924,-0.055013541,-0.278787047,-1.608978271,-1.338513374,1.764720678
2.959601641,-1.216611147,-0.528960288,-1.293621659,0.168153852,-2.104495049,3.010542393,0.442325324,-0.067962073,-0.291405857,-1.637299418,-1.324477911,1.796227336
2.964600086,-0.73368156,-0.710343301,-1.059831023,0.30524236,-1.988713861,3.00497508,0.429837734,-0.077925086,-0.301115215,-1.662313223,-1.310407043,1.825056672
2.969599724,-0.98710233,-0.587493718,-1.046871662,0.330906898,-1.89910686,3.081489801,0.425697088,-0.081228636,-0.304334641,-1.683701396,-1.295497894,1.850147605
2.974600077,-1.091219187,-0.539276183,-1.109139562,0.375366867,-1.643973708,3.047754526,0.422511131,-0.083770491,-0.30681178,-1.69722867,-1.280820727,1.867254615
2.97960186,-1.023973942,-0.601658702,-1.113981724,0.460448742,-1.347288728,2.917304516,0.414444149,-0.09303052,-0.309325963,-1.704338789,-1.267184973,1.878483415
2.984598875,-0.982582748,-0.674242616,-1.094070673,0.506707251,-0.995805383,2.76964736,0.401148349,-0.108666584,-0.312972158,-1.705637574,-1.254656315,1.884056807
2.989596605,-0.943222046,-0.705975592,-1.080159187,0.484813392,-0.576444387,2.601292849,0.396739721,-0.113851205,-0.314181149,-1.701000929,-1.243264794,1.883223176
2.994595289,-0.863797367,-0.754615724,-1.053937435,0.419005871,-0.108342186,2.378698111,0.393347591,-0.117840424,-0.315111399,-1.690737009,-1.233333349,1.876033783
2.999595165,-0.751285374,-0.807584941,-1.014658689,0.323572934,0.359967649,2.115831852,0.392222822,-0.11916317,-0.315419853,-1.675587654,-1.225013971,1.863199592
3.004595757,-0.602495432,-0.832972527,-0.959367871,0.188393965,0.791893423,1.844375491,0.378977329,-0.139698908,-0.313809842,-1.656578064,-1.218137622,1.845520496
3.009597778,-0.416552842,-0.82907033,-0.90712595,0.035481077,1.170253515,1.573168159,0.37458539,-0.146508172,-0.313275963,-1.634603858,-1.212487698,1.823652267
3.014594555,-0.234177738,-0.796764851,-0.862784326,-0.104884669,1.488936067,1.288705111,0.371206075,-0.151747435,-0.312865198,-1.61029768,-1.208004951,1.798322678
3.019592285,-0.07437133,-0.734989226,-0.8215276,-0.201411381,1.75656867,0.994727015,0.370085567,-0.153484687,-0.312729001,-1.583922148,-1.204604983,1.770043492
3.024590731,0.052141465,-0.656238914,-0.79003644,-0.242654234,1.981420159,0.691748261,0.365325898,-0.165094808,-0.305758655,-1.555473089,-1.202247024,1.73928082
3.029590607,0.140771329,-0.572050869,-0.762227774,-0.218514934,2.177241564,0.383950889,0.362783223,-0.171486691,-0.301748544,-1.524765491,-1.200898528,1.706074834
3.034591198,0.191587076,-0.490976512,-0.745827734,-0.134337097,2.355510473,0.068401426,0.36082679,-0.176404819,-0.29866302,-1.491367221,-1.20054388,1.670333028
3.03959322,0.201721445,-0.415797859,-0.737091124,0.00458057,2.523988247,-0.249216974,0.360178083,-0.178035572,-0.297639906,-1.4547894,-1.201124668,1.631875873
3.044589996,0.200618774,-0.344653964,-0.724636495,0.181730285,2.701338291,-0.559629321,0.361377448,-0.182242692,-0.29128617,-1.414382696,-1.202491283,1.590262651
3.049587488,0.208684519,-0.292907178,-0.708206177,0.382568657,2.886466503,-0.85026145,0.363487899,-0.186614826,-0.283566117,-1.369669557,-1.204407692,1.5451231
3.054586172,0.243848845,-0.268375993,-0.689368665,0.592100739,3.063978434,-1.116527319,0.365111768,-0.189978883,-0.277626067,-1.320467591,-1.206598401,1.496303082
3.059586048,0.282356024,-0.258140713,-0.669585526,0.800566077,3.214135408,-1.343726993,0.365650207,-0.191094339,-0.275656492,-1.267088413,-1.208736062,1.444151044
3.064586639,0.305785865,-0.246096224,-0.651506722,1.003326535,3.34696269,-1.529491067,0.366064519,-0.191952616,-0.274141014,-1.209828854,-1.210474491,1.388959527
3.069588423,0.330811292,-0.234174147,-0.640193939,1.18705523,3.447880983,-1.673476338,0.373175472,-0.195243403,-0.260028243,-1.149380684,-1.211483598,1.331361651
3.07459116,0.34843716,-0.222292304,-0.629340887,1.360046744,3.52084446,-1.780966401,0.378646851,-0.197775453,-0.249169409,-1.086547613,-1.211524129,1.272122502
3.079589128,0.339271784,-0.20356892,-0.62615478,1.523745418,3.578634262,-1.866638422,0.380461037,-0.198615029,-0.245568842,-1.021958351,-1.210436821,1.211833358
3.084587812,0.303520083,-0.17468901,-0.632686198,1.684017777,3.626691103,-1.928263068,0.381856948,-0.199261025,-0.242798448,-0.956257224,-1.208061337,1.151144028
3.08958745,0.248012111,-0.148722634,-0.643909693,1.840312004,3.671247959,-1.97812891,0.388578266,-0.200599506,-0.231803983,-0.890015066,-1.204319715,1.090653539
3.094588041,0.178541586,-0.12588197,-0.662480354,1.985046506,3.725741386,-2.015611172,0.400078118,-0.202766225,-0.213156238,-0.823726535,-1.199102759,1.030770659
3.099590063,0.097812258,-0.105810903,-0.684066772,2.120142698,3.789808273,-2.046558619,0.403891265,-0.203484654,-0.206973001,-0.757880688,-1.192347765,0.971951604
3.104587555,0.011805087,-0.081358194,-0.722310543,2.248954296,3.876386404,-2.072659969,0.406825215,-0.204037458,-0.202215418,-0.692802429,-1.183940768,0.914459467
3.109585047,-0.086678028,-0.059610851,-0.746389747,2.378199816,3.994473696,-2.094619989,0.407798052,-0.204220742,-0.200637892,-0.628840268,-1.173768282,0.858644128
3.114583731,-0.192735374,-0.03219077,-0.773154497,2.513382673,4.136344433,-2.125630856,0.424086154,-0.206564113,-0.171365961,-0.566188812,-1.161762357,0.804733515
3.119583607,-0.295044512,-0.000760597,-0.804473519,2.653002024,4.302306175,-2.170447588,0.42948699,-0.207341135,-0.161659941,-0.505007982,-1.14786458,0.752852142
3.124584198,-0.384525418,0.026645837,-0.833414853,2.794108391,4.488734245,-2.225810766,0.433642536,-0.207938999,-0.154191822,-0.44547981,-1.132033944,0.703176737
3.129585981,-0.448561788,0.051992472,-0.870946467,2.931391001,4.687438011,-2.301743031,0.435020447,-0.208137244,-0.151715532,-0.387715697,-1.114229679,0.655748487
3.134582758,-0.47273913,0.077296279,-0.897402942,3.06502533,4.872124195,-2.385738373,0.447841227,-0.208681449,-0.123392925,-0.331998885,-1.094563365,0.610862732
3.139580488,-0.462692261,0.100988418,-0.917437792,3.186676502,5.024638653,-2.475775957,0.455002546,-0.20895882,-0.107464664,-0.278592527,-1.073226094,0.56869179
3.144579172,-0.451637238,0.124876559,-0.934599042,3.293065071,5.144308567,-2.561084747,0.460512698,-0.209172234,-0.09520895,-0.227757365,-1.050428987,0.529443562
3.14957881,-0.439923882,0.143667206,-0.950365007,3.387702942,5.224276543,-2.638800144,0.462339759,-0.209243,-0.091145188,-0.179549962,-1.026427269,0.493151277
3.154579163,-0.42027846,0.151540563,-0.96542573,3.4705019,5.261450291,-2.698553085,0.470861197,-0.207674563,-0.068960324,-0.134024948,-1.001472235,0.459892869
3.159580946,-0.401513249,0.167482644,-0.973705888,3.545429707,5.255367279,-2.735390663,0.480862081,-0.205517977,-0.042386159,-0.091240168,-0.975857437,0.429706633
3.164577723,-0.404984325,0.183032647,-0.989351809,3.614572287,5.220207691,-2.738933802,0.48855713,-0.203858629,-0.021939145,-0.051130183,-0.949816883,0.402566671
3.169575453,-0.424134344,0.188655093,-1.009410024,3.67816329,5.172971249,-2.70734024,0.491108656,-0.203308418,-0.015159303,-0.013585744,-0.923492074,0.378435463
3.174574137,-0.458916962,0.190563649,-1.037396193,3.721317053,5.125302315,-2.646930695,0.493071884,-0.202885076,-0.009942675,0.021398759,-0.896953583,0.357246548
3.179573774,-0.503108799,0.205935061,-1.071429849,3.762732029,5.087212563,-2.56020999,0.503948569,-0.194053724,0.030904381,0.053940915,-0.870249987,0.338908136
3.184574366,-0.548522472,0.230080575,-1.11266923,3.807967424,5.057850838,-2.457537413,0.512317419,-0.187258601,0.062333416,0.084256433,-0.843430996,0.323235631
3.189576387,-0.593881905,0.255900711,-1.157589197,3.85810113,5.043642044,-2.355220079,0.515092373,-0.185005471,0.072754689,0.11267481,-0.816494167,0.309942842
3.194573402,-0.647452474,0.273020804,-1.208063602,3.918825865,5.04656601,-2.258141041,0.51722753,-0.183271825,0.080773152,0.13951458,-0.789412379,0.298793256
3.199571133,-0.689376354,0.289293319,-1.265751243,3.976323843,5.063404083,-2.174634695,0.520148396,-0.174020499,0.106709406,0.164992556,-0.762157381,0.289516687
3.204569817,-0.735043466,0.28740111,-1.327395916,4.031254292,5.074671268,-2.11622715,0.524633408,-0.158128962,0.150202781,0.189472437,-0.734791815,0.28175509
3.209575653,-0.782174468,0.275831729,-1.391624331,4.064638615,5.07857275,-2.086606979,0.526120484,-0.152859628,0.164624363,0.213088751,-0.707369328,0.275220513
3.214576721,-0.821210325,0.269767195,-1.45469594,4.072197437,5.069141388,-2.092200279,0.527264774,-0.148805231,0.175720766,0.235954449,-0.679941118,0.269561529
3.219578266,-0.859126806,0.285287052,-1.510267854,4.067128181,5.033831596,-2.127617359,0.527644217,-0.147460878,0.179400131,0.258177519,-0.652629912,0.264456749
3.224575281,-0.900100827,0.336953342,-1.562875867,4.062130451,4.961386681,-2.195711613,0.519464672,-0.119405366,0.234325618,0.279900193,-0.625611901,0.259581447
3.229572535,-0.974872053,0.405183733,-1.606604457,4.06831789,4.85995245,-2.288445473,0.516752481,-0.110102691,0.252537876,0.301309645,-0.599075913,0.254713386
3.234571218,-1.091273189,0.437831938,-1.640481234,4.073676586,4.745262146,-2.39490962,0.514665544,-0.102944911,0.266550958,0.322609782,-0.573104203,0.249751002
3.239570618,-1.260398984,0.446488738,-1.660950422,4.052499771,4.635141373,-2.503503323,0.513973594,-0.100571528,0.271197438,0.34370631,-0.547736049,0.244717315
3.244571447,-1.47999692,0.455736488,-1.687926054,3.983649731,4.548563957,-2.616453409,0.497653782,-0.073987834,0.305819273,0.364304811,-0.522899151,0.239566445
3.249573469,-1.747144222,0.458085746,-1.710871339,3.868453979,4.508594036,-2.731394053,0.488335818,-0.059046857,0.324981838,0.384159446,-0.498408675,0.234444216
3.254570484,-2.029963732,0.4921453,-1.735529423,3.713760614,4.524393559,-2.844585657,0.481166273,-0.047550794,0.33972609,0.402937651,-0.474032938,0.229419112
3.259568214,-2.282164574,0.608548641,-1.7305758,3.551707506,4.58702898,-2.947121859,0.478788972,-0.043738917,0.344615012,0.420428067,-0.449558318,0.224582791
3.264566898,-2.478344202,0.816991508,-1.686342716,3.440438271,4.671026707,-3.027097225,0.464850545,-0.025851412,0.35951525,0.436723441,-0.424920261,0.219925851
3.269566536,-2.633172035,1.078921556,-1.574407578,3.426297188,4.74584341,-3.096246481,0.448017895,-0.004840176,0.375687987,0.452375203,-0.400175929,0.215443924
3.274567127,-2.749928236,1.36622715,-1.383679986,3.508894682,4.794942379,-3.126265287,0.435066313,0.011326544,0.388131827,0.467973351,-0.375553846,0.211262837
3.279568911,-2.830030918,1.403000236,-1.114974141,3.594872952,4.802643776,-3.089534998,0.430771798,0.016687121,0.392257959,0.483992875,-0.351296902,0.207903937
3.284565926,-2.793389797,1.260982037,-0.796239436,3.566309452,4.73026228,-2.942762613,0.427467465,0.020811722,0.39543274,0.500073373,-0.327776253,0.20587565
3.289563656,-2.747340918,1.014473081,-0.450567544,3.33125186,4.548374653,-2.661652327,0.401712745,0.046229474,0.409204334,0.515133083,-0.305866778,0.2055206
3.29456234,-2.679836512,0.741480708,-0.117680371,2.879187584,4.276284218,-2.229732037,0.381896228,0.065786704,0.419800639,0.527994275,-0.286297411,0.207357541
3.299562216,-2.570925236,0.633505881,0.168146789,2.329929113,3.876362801,-1.711896777,0.375325441,0.072271511,0.423314184,0.537861764,-0.269817322,0.211050659
3.304562807,-2.480694056,0.759220302,0.388282537,1.861540437,3.368317366,-1.196590304,0.370269686,0.077261128,0.426017612,0.545013845,-0.256979316,0.215808451
3.309564352,-2.44239378,1.050637007,0.544555008,1.576168656,2.784542322,-0.757887602,0.355375171,0.089168333,0.429245472,0.550394952,-0.247937769,0.220643446
3.314561367,-2.43817544,1.31686914,0.661264598,1.469424367,2.175944805,-0.405782253,0.33054924,0.108697243,0.434086531,0.55516237,-0.242558345,0.225154236
3.319558859,-2.424385309,1.469664812,0.730207026,1.467932343,1.571283937,-0.146406174,0.322317421,0.115172654,0.435691744,0.560074031,-0.240458012,0.229047015
3.324557304,-2.378610373,1.467085123,0.758174837,1.478784323,0.978913486,0.055601694,0.315983593,0.120155051,0.436926842,0.565391362,-0.241296217,0.232245907
3.329556942,-2.39127779,1.380819321,0.735021055,1.406725049,0.428055406,0.224446028,0.313883424,0.121807113,0.437336355,0.570672154,-0.244925097,0.234780982
3.334557772,-2.505729437,1.240509748,0.692926049,1.197223186,-0.031569257,0.367170095,0.293224037,0.132367805,0.439509481,0.575168848,-0.251042306,0.236878261
3.339560032,-2.648884296,1.067250967,0.630354226,0.842483759,-0.375252664,0.495877028,0.286373764,0.135869533,0.440230042,0.578072906,-0.259085685,0.238853917
3.344562531,-2.776514292,0.89811343,0.561123669,0.372550547,-0.605770707,0.630452156,0.281102955,0.138563871,0.440784484,0.578719497,-0.268547416,0.24101685
3.349560022,-1.787137389,-0.123789459,-0.032041099,-0.835323751,-1.011934757,1.076406598,0.279355258,0.139457271,0.440968305,0.574348807,-0.278024852,0.244145557
3.354558706,-3.061837196,-0.041103341,0.840817213,-2.208342791,-2.017177105,2.044090033,0.274449497,0.142967016,0.436819673,0.561881244,-0.298280954,0.250433743
3.359558344,-2.528238297,0.345531106,1.447070241,-2.732984066,-2.223637581,2.855040789,0.271941632,0.144829199,0.434382498,0.546264052,-0.321880579,0.26006183
3.364559174,-0.022585526,0.327343643,0.402026206,-3.110568762,-2.384209394,3.495749235,0.270012021,0.14626202,0.432507217,0.526987076,-0.339807034,0.269833475
3.369561195,-1.149050713,-0.029490702,-0.59268558,-3.499057531,-2.704424143,3.873674154,0.269372195,0.146737099,0.431885421,0.504536569,-0.363550991,0.281141102
3.374557972,-0.991595924,-0.959806204,-1.581162572,-3.265113831,-2.385243654,3.963950872,0.272243559,0.139988512,0.429971576,0.483651847,-0.384016931,0.294708133
3.379555702,-0.425186336,-2.045562983,-2.242223501,-3.386026382,-2.124362469,3.821451664,0.276587576,0.130576938,0.427889526,0.46369803,-0.40012601,0.308827192
3.384554148,-0.017540276,-2.571335316,-2.036593437,-3.806115389,-2.155799389,3.699275017,0.279929996,0.123335369,0.426287532,0.44231081,-0.415498674,0.323231101
3.389554024,0.238060981,-2.193617344,-1.497411728,-4.272549629,-2.639585257,3.712718725,0.281038284,0.120934203,0.425756335,0.417993009,-0.433194965,0.336709619
3.394554615,0.246062458,-1.086536527,-0.935755789,-4.539965153,-3.365853071,3.7061975,0.281891018,0.119086668,0.425347626,0.390867352,-0.45524928,0.348394573
3.399556398,0.271708459,-0.249811873,-0.763171434,-4.635785103,-4.281182766,3.684427977,0.290976435,0.097080611,0.419913679,0.362627447,-0.481312335,0.35816434
3.404553413,-0.318096161,0.260826349,-0.888651252,-4.577429771,-5.022558689,3.559874773,0.297967046,0.080148444,0.415732622,0.333882749,-0.511914432,0.366798282
3.409551144,-1.521867514,0.74590677,-1.262186527,-4.174063206,-5.298871994,3.124079704,0.300285012,0.074534059,0.414346248,0.307029396,-0.544082403,0.373864949
3.414549828,-3.322212934,1.566537261,-1.516744018,-3.53888154,-4.825639725,2.425018549,0.302068532,0.070214167,0.413279563,0.282911658,-0.575212538,0.379002392
3.419549227,-4.535153389,2.200486422,-1.369567633,-2.89326787,-3.760091782,1.829920769,0.30947414,0.055146378,0.405664861,0.261255234,-0.601404727,0.384071589
3.424550056,-3.924221516,2.151088953,-1.287408829,-2.238185883,-2.518301249,1.401103854,0.322062522,0.029765222,0.392463833,0.243235916,-0.618883491,0.388814092
3.429552078,-2.703136921,1.930621624,-1.132839322,-1.606493354,-1.720546484,1.197473764,0.326236576,0.021349313,0.388086617,0.228659257,-0.630374849,0.393476546
3.434549332,-1.552976251,1.237697601,-1.117668033,-1.166917682,-1.338442802,1.126036048,0.329448253,0.014873842,0.384718657,0.217650115,-0.638514161,0.398119509
3.439546824,-0.532663226,0.324361622,-1.03494823,-0.951351345,-1.298593879,1.14461422,0.330513179,0.012726699,0.383601904,0.209358513,-0.645151138,0.403155386
3.444545746,-0.107305728,-0.354263783,-0.949292779,-0.913383126,-1.464102149,1.175452948,0.344255358,-0.005767613,0.368549645,0.202386096,-0.652501106,0.408531725
3.449545383,-0.330333292,-0.589422047,-0.893655062,-0.946416497,-1.565552592,1.136273026,0.348812014,-0.011899976,0.36355862,0.195606157,-0.660932481,0.413975239
3.454546213,-0.764292479,-0.505879939,-0.847869217,-1.00221312,-1.44077158,1.058083892,0.352318048,-0.016618414,0.359718353,0.188390687,-0.66926384,0.419301748
3.459547997,-1.277944565,-0.046913259,-0.746807992,-1.009315133,-1.113958716,0.988384962,0.353480577,-0.018182959,0.358444989,0.179773301,-0.676624417,0.424999952
3.464545012,-1.471911073,0.357508868,-0.710349619,-0.858412385,-0.671046972,0.855569124,0.357033014,-0.025888782,0.351700246,0.171341181,-0.681751132,0.430322587
3.469542742,-1.36262691,0.497155398,-0.669042408,-0.699398398,-0.3083781,0.740464926,0.358868659,-0.030052828,0.348037273,0.163843468,-0.684696913,0.435196817
3.474540949,-1.037371993,0.363922805,-0.744446039,-0.522469759,-0.118819296,0.575240195,0.36028105,-0.033256777,0.345218837,0.158151135,-0.685986996,0.438955009
3.479546785,-0.753992319,0.133971453,-0.817712247,-0.408882737,-0.053980753,0.449091733,0.360749394,-0.034319147,0.344284326,0.15409565,-0.686481953,0.441785097
3.484547615,-0.640775681,-0.027728042,-0.864214599,-0.334541559,-0.056218795,0.378091723,0.362013996,-0.037789397,0.3423343,0.150952563,-0.686860204,0.444202781
3.489549398,-0.660394907,-0.098099947,-0.860889494,-0.293333918,-0.056744378,0.353845865,0.363345146,-0.041615169,0.340446383,0.148136944,-0.687339664,0.446632028
3.494546175,-0.677806675,-0.124954008,-0.858067691,-0.259596437,-0.069002092,0.335207611,0.364369392,-0.044558845,0.338993788,0.145558357,-0.687888443,0.448989064
3.499543905,-0.687132716,-0.127754048,-0.856441379,-0.224886999,-0.075916409,0.314624727,0.36470902,-0.045534912,0.338512123,0.143258348,-0.688471317,0.451185644
3.504542351,-0.633649051,-0.124609895,-0.846339822,-0.21496433,-0.088489249,0.317914575,0.364970326,-0.046285931,0.338141531,0.140975624,-0.689024627,0.453375399
3.509542227,-0.609164476,-0.153507039,-0.836515725,-0.215909734,-0.107703194,0.329074293,0.364693493,-0.048512995,0.337526768,0.138713405,-0.689681649,0.4556517
3.514542818,-0.616770804,-0.138927013,-0.831083894,-0.219375357,-0.118758857,0.339554667,0.364480495,-0.050226569,0.337053776,0.136329889,-0.690412045,0.458011866
3.519545078,-0.674814045,-0.072764106,-0.808400631,-0.210256606,-0.124822028,0.331239492,0.364409864,-0.050794758,0.336896926,0.133878708,-0.691298544,0.460329831
3.524542093,-0.711326897,-0.012143457,-0.785742581,-0.177178696,-0.115426451,0.302404881,0.364355534,-0.051231943,0.336776227,0.131592825,-0.692173302,0.462465227
3.529539824,-0.681595802,-0.01445872,-0.793660343,-0.137334272,-0.110070363,0.261267245,0.364351958,-0.052360017,0.336480618,0.129748076,-0.692908645,0.464291096
3.534538507,-0.619040489,-0.063120104,-0.826862693,-0.107089572,-0.115689769,0.234454975,0.364363879,-0.054222073,0.33599472,0.128290087,-0.693504214,0.465884984
3.539538145,-0.57927537,-0.126604021,-0.847297251,-0.095058866,-0.141062886,0.231982678,0.364367813,-0.054839496,0.335833609,0.127030998,-0.694165349,0.467466116
3.544538975,-0.596294403,-0.158585072,-0.848129153,-0.09319447,-0.181567952,0.239067018,0.364370853,-0.055314559,0.335709631,0.125807375,-0.695081174,0.469107568
3.549540758,-0.631261706,-0.14634566,-0.831188142,-0.089291483,-0.218650028,0.241779864,0.364371866,-0.05547208,0.335668534,0.12455669,-0.696272373,0.470782101
3.554537773,-0.655883074,-0.131318107,-0.81943965,-0.082327195,-0.24631606,0.240254194,0.364715725,-0.05687879,0.335991204,0.12332318,-0.697636545,0.472457081
3.559535265,-0.635553777,-0.127979681,-0.824276567,-0.072335936,-0.269742489,0.234476686,0.364829749,-0.057345226,0.336098194,0.122197658,-0.699043572,0.474039465
3.564534426,-0.625524879,-0.106510594,-0.828544319,-0.066924863,-0.297730148,0.223469377,0.364917487,-0.057704121,0.336180508,0.121092193,-0.700576484,0.475504339
3.569534063,-0.617373526,-0.070145436,-0.829070032,-0.04943233,-0.319622904,0.206050202,0.364946574,-0.057823122,0.336207807,0.120069712,-0.702191234,0.476804972
3.574534655,-0.629513621,-0.038370207,-0.822670937,-0.033589862,-0.343126088,0.186877921,0.365186721,-0.059054963,0.334152102,0.119166523,-0.703935146,0.477957398
3.579536438,-0.651837707,-0.003327595,-0.815074801,-0.012093609,-0.359745115,0.161897689,0.365320235,-0.059745584,0.332956582,0.118400373,-0.7057935,0.47894612
3.584533215,-0.657320976,0.012907199,-0.804019451,0.022725593,-0.375357211,0.136110604,0.365422964,-0.060276967,0.332036704,0.117911592,-0.707727015,0.479762971
3.589530945,-0.661137223,-0.007611095,-0.792152941,0.049777143,-0.389242858,0.10959781,0.365457028,-0.060453162,0.331731677,0.117759392,-0.70972085,0.480419546
3.594529629,-0.659479022,-0.035560705,-0.780139863,0.07400398,-0.402968884,0.085989706,0.3659347,-0.060973138,0.331403762,0.117893912,-0.711774707,0.480935663
3.599529266,-0.660542428,-0.058236569,-0.77363348,0.093793109,-0.411701113,0.064852372,0.36654833,-0.061533179,0.331201017,0.118261367,-0.713849604,0.481323153
3.604530096,-0.655293107,-0.06944178,-0.776015341,0.116089635,-0.41903618,0.04352238,0.367020488,-0.061964095,0.331045032,0.118843995,-0.715931535,0.481572092
3.609532118,-0.652417898,-0.071546987,-0.777617514,0.131976396,-0.429170758,0.028689492,0.367177039,-0.062106978,0.330993295,0.119583189,-0.718040884,0.481710464
3.614534855,-0.654126167,-0.076160423,-0.770456553,0.154912591,-0.435465872,0.012370981,0.3672975,-0.062216919,0.330953479,0.12052609,-0.720184207,0.48174578
3.619532585,-0.661504269,-0.103176512,-0.764312923,0.169490755,-0.435159802,0.000501681,0.368321866,-0.062233008,0.329669684,0.121660948,-0.722326636,0.481719643
3.624531507,-0.665888846,-0.120180964,-0.759298146,0.177888662,-0.430083781,-0.007188413,0.369110018,-0.062245388,0.328681886,0.122900873,-0.724441648,0.481654316
3.629531145,-0.660727382,-0.139762118,-0.761856318,0.174308568,-0.426539868,-0.003728391,0.369371355,-0.062249493,0.328354359,0.124143578,-0.726520658,0.481623054
3.634531736,-0.659649968,-0.156645164,-0.759453297,0.169070989,-0.424419224,0.012250559,0.369572461,-0.062252652,0.32810235,0.125289887,-0.728596687,0.481727183
3.63953352,-0.668143928,-0.182624325,-0.75104022,0.164950863,-0.415463597,0.034954868,0.370168269,-0.061987419,0.326702803,0.12640062,-0.730654001,0.481989354
3.644530535,-0.673346937,-0.197859004,-0.741802573,0.155491963,-0.405164123,0.060529511,0.371161789,-0.061514087,0.324295282,0.127351433,-0.73270309,0.482462943
3.649528265,-0.667193055,-0.20752494,-0.741808534,0.141824603,-0.400681019,0.087322332,0.371491224,-0.061357137,0.323496997,0.12814799,-0.734712362,0.483108878
3.654526949,-0.664334476,-0.186185747,-0.737054586,0.136723638,-0.396556258,0.107466057,0.371744722,-0.061236374,0.322882771,0.128738433,-0.736730993,0.48388046
3.659526587,-0.654565096,-0.141017348,-0.747118592,0.150685698,-0.395105958,0.125647843,0.371828765,-0.061196331,0.322679102,0.129205436,-0.738717437,0.484744817
3.664527416,-0.646951556,-0.124522053,-0.756121874,0.167136014,-0.403204978,0.136429474,0.373325706,-0.06086278,0.321729034,0.129723012,-0.740742266,0.485619366
3.6695292,-0.646992445,-0.104933545,-0.756884038,0.18145588,-0.410279334,0.140270367,0.373822063,-0.060752179,0.321413994,0.13023831,-0.742807806,0.48651123
3.674525976,-0.644387841,-0.1047346,-0.762567103,0.198609084,-0.421616644,0.139169857,0.37420398,-0.060667083,0.321171612,0.130874857,-0.744914353,0.487367541
3.679523468,-0.640475094,-0.101979598,-0.770030737,0.216196045,-0.440882534,0.141584352,0.37433061,-0.060638867,0.321091264,0.131578162,-0.747097731,0.48821345
3.684522152,-0.651806891,-0.100806057,-0.766936541,0.235146403,-0.461322397,0.142403707,0.375516921,-0.060861703,0.318769187,0.132389724,-0.749409199,0.489045471
3.689522028,-0.648572445,-0.112856813,-0.764297307,0.248709023,-0.48075816,0.140534848,0.376179725,-0.060996104,0.317439944,0.133332983,-0.751812458,0.489842951
3.694522858,-0.650071025,-0.113486387,-0.764760196,0.259738892,-0.499283671,0.138981596,0.376689702,-0.061099518,0.316417187,0.134331048,-0.754312754,0.490612984
3.699524879,-0.640327573,-0.100319535,-0.765686274,0.256363481,-0.520915806,0.137549847,0.376858801,-0.061133809,0.316078067,0.135276869,-0.756889701,0.491360545
3.704521656,-0.641390502,-0.071742266,-0.770420015,0.270599693,-0.546326876,0.126589641,0.377546489,-0.061088778,0.315331787,0.13631472,-0.759581208,0.49195379
3.709519625,-0.634788632,-0.092831478,-0.780442953,0.247878522,-0.574101329,0.119125657,0.378336757,-0.061001826,0.314594924,0.137370899,-0.762390733,0.492469221
3.714518309,-0.644466817,-0.047573108,-0.76917547,0.230186373,-0.606929839,0.102056049,0.378944814,-0.060934924,0.314027935,0.138240352,-0.765381157,0.492832124
3.719518185,-0.648078918,-0.031954974,-0.770157993,0.244858205,-0.639051497,0.076966882,0.379146427,-0.060912743,0.313839942,0.139354751,-0.768515825,0.492969453
3.724519014,-0.643650591,-0.041346606,-0.771813095,0.259464651,-0.676161826,0.05592937,0.379301578,-0.060895674,0.313695312,0.140711367,-0.771807969,0.492925525
3.729520559,-0.645279825,-0.062160052,-0.774010956,0.276527196,-0.71541822,0.041048333,0.380334288,-0.060617123,0.312217534,0.142328486,-0.77526325,0.492724895
