Time,inertial-6253.76535:estCompensatedAccelX,inertial-6253.76535:estCompensatedAccelX:valid,inertial-6253.76535:estCompensatedAccelY,inertial-6253.76535:estCompensatedAccelY:valid,inertial-6253.76535:estCompensatedAccelZ,inertial-6253.76535:estCompensatedAccelZ:valid,inertial-6253.76535:estAngularRateX,inertial-6253.76535:estAngularRateX:valid,inertial-6253.76535:estAngularRateY,inertial-6253.76535:estAngularRateY:valid,inertial-6253.76535:estAngularRateZ,inertial-6253.76535:estAngularRateZ:valid,inertial-6253.76535:estRoll,inertial-6253.76535:estRoll:valid,inertial-6253.76535:estPitch,inertial-6253.76535:estPitch:valid,inertial-6253.76535:estYaw,inertial-6253.76535:estYaw:valid
0,-6.435206413,1,0.790037155,1,-7.309293747,1,0.004091416,1,-0.005261277,1,-0.009896628,1,-0.097533904,1,-0.713068962,1,0.161644101,1
0.003999744,-6.455211639,1,0.775757551,1,-7.346281052,1,0.009150755,1,-0.0016803,1,-0.010916714,1,-0.097471625,1,-0.713084579,1,0.161590636,1
0.008001792,-6.452308178,1,0.797801077,1,-7.323781013,1,0.006578174,1,-0.001961746,1,-0.009907562,1,-0.097408913,1,-0.713097572,1,0.161541179,1
0.011999744,-6.455245018,1,0.742832124,1,-7.331767082,1,0.00765503,1,-0.002737448,1,-0.006649148,1,-0.097355098,1,-0.713100672,1,0.161504492,1
0.015999231,-6.447551727,1,0.768408477,1,-7.332127094,1,0.006446319,1,0.001211015,1,-0.008997798,1,-0.09729743,1,-0.713111281,1,0.161458597,1
0.020000769,-6.4663167,1,0.769529939,1,-7.354921818,1,0.005281222,1,0.001623407,1,-0.007513152,1,-0.097250186,1,-0.713113666,1,0.161413968,1
0.023998464,-6.443929672,1,0.795896053,1,-7.370969296,1,0.003277317,1,0.000264971,1,-0.006886771,1,-0.097206526,1,-0.713114381,1,0.161380917,1
0.027997952,-6.451001167,1,0.789463103,1,-7.337896347,1,0.00549824,1,0.003334542,1,-0.006412707,1,-0.097157165,1,-0.713110805,1,0.161336049,1
0.031999487,-6.461255074,1,0.807212234,1,-7.327879429,1,0.00753473,1,4.29E-05,1,-0.006983715,1,-0.097111106,1,-0.713107586,1,0.161294237,1
0.035996929,-6.479054451,1,0.794483304,1,-7.370259285,1,0.004245635,1,0.003477446,1,-0.008634556,1,-0.09705659,1,-0.71309942,1,0.161243528,1
0.039996415,-6.470059872,1,0.789216936,1,-7.313612461,1,0.004484032,1,0.001900652,1,-0.008267838,1,-0.09700951,1,-0.713095129,1,0.161197916,1
0.044004098,-6.466724873,1,0.788908601,1,-7.331076145,1,0.004340168,1,0.00413755,1,-0.007054102,1,-0.096962273,1,-0.71308893,1,0.161153704,1
0.048007678,-6.479007721,1,0.799265623,1,-7.330988407,1,0.004457572,1,0.003382344,1,-0.010696881,1,-0.096903771,1,-0.71307689,1,0.161100388,1
0.052007426,-6.493936062,1,0.76643312,1,-7.326746941,1,0.008538832,1,0.005679454,1,-0.012395404,1,-0.096845023,1,-0.713070035,1,0.161046833,1
0.056009214,-6.507912636,1,0.789963245,1,-7.323593616,1,0.006894157,1,0.004625446,1,-0.009192562,1,-0.096788168,1,-0.71305114,1,0.160988361,1
0.06000717,-6.481673241,1,0.797122359,1,-7.320774078,1,0.00462804,1,0.006710774,1,-0.008719629,1,-0.096737064,1,-0.713031709,1,0.16094853,1
0.064006656,-6.495392323,1,0.765705347,1,-7.333210468,1,0.004646882,1,0.007135702,1,-0.008916596,1,-0.09668269,1,-0.713005543,1,0.160902709,1
0.068008192,-6.496897221,1,0.760451794,1,-7.351774216,1,0.007213334,1,0.008085113,1,-0.006305043,1,-0.09662956,1,-0.712977707,1,0.160859779,1
0.07200589,-6.475254536,1,0.750350893,1,-7.331806183,1,0.008807932,1,0.009333687,1,-0.004892636,1,-0.096579358,1,-0.712952018,1,0.160824329,1
0.076005377,-6.470954895,1,0.777681887,1,-7.337231159,1,0.004350347,1,0.007884455,1,-0.004985977,1,-0.096515261,1,-0.712920308,1,0.160772786,1
0.080006912,-6.450187683,1,0.799957514,1,-7.33621788,1,0.009975314,1,0.007753156,1,-0.008116566,1,-0.096456461,1,-0.712888658,1,0.160726786,1
0.084004611,-6.441562176,1,0.769152939,1,-7.332641602,1,0.00548403,1,0.007012444,1,-0.007783195,1,-0.096401684,1,-0.712858438,1,0.160680994,1
0.088004097,-6.456802368,1,0.775560617,1,-7.302632332,1,0.006071416,1,0.005820245,1,-0.00725746,1,-0.096339665,1,-0.712829113,1,0.160633475,1
0.092006654,-6.435940742,1,0.758529723,1,-7.352746487,1,0.004715718,1,0.009098293,1,-0.009655766,1,-0.096292213,1,-0.712796986,1,0.160595089,1
0.096005373,-6.452660561,1,0.752443075,1,-7.34637022,1,0.009189208,1,0.002232315,1,-0.01028892,1,-0.096231952,1,-0.712776542,1,0.160549894,1
0.100005634,-6.488370895,1,0.75948298,1,-7.35488081,1,0.007907639,1,0.005946058,1,-0.007006058,1,-0.096162923,1,-0.712760985,1,0.160493761,1
0.10400717,-6.459272385,1,0.769539595,1,-7.361867428,1,0.010580795,1,0.005949713,1,-0.009546917,1,-0.096108891,1,-0.712745249,1,0.160453022,1
0.108004861,-6.488729,1,0.798190415,1,-7.380233765,1,0.010252528,1,0.002907064,1,-0.00772954,1,-0.096039802,1,-0.712726593,1,0.160407454,1
0.112004861,-6.442427635,1,0.756799161,1,-7.385448456,1,0.006826366,1,0.001673253,1,-0.010545412,1,-0.095976792,1,-0.7127226,1,0.160360113,1
0.116006657,-6.452130318,1,0.750815213,1,-7.370512962,1,0.009928195,1,0.006284736,1,-0.008435815,1,-0.095915303,1,-0.712714553,1,0.160316989,1
0.120004348,-6.461209297,1,0.702164352,1,-7.377746582,1,0.007100296,1,0.004431784,1,-0.005930943,1,-0.095863581,1,-0.712703705,1,0.160276815,1
0.124003842,-6.479045391,1,0.724185526,1,-7.375257492,1,0.006711492,1,0.003982871,1,-0.006689487,1,-0.09580154,1,-0.712690175,1,0.160230577,1
0.128005639,-6.459298134,1,0.736849964,1,-7.401679993,1,0.001816902,1,-0.000305861,1,-0.005940183,1,-0.095768921,1,-0.71268332,1,0.160210475,1
0.13200359,-6.468196869,1,0.735283256,1,-7.34666872,1,0.002809427,1,0.00459731,1,-0.007653103,1,-0.095733255,1,-0.712671876,1,0.160173342,1
0.13600333,-6.457148552,1,0.745557487,1,-7.38630724,1,0.005070245,1,0.002574326,1,-0.007393594,1,-0.095698833,1,-0.71266669,1,0.160149947,1
0.14000538,-6.464058399,1,0.757219255,1,-7.343070507,1,0.001382733,1,0.001695839,1,0.000261177,1,-0.095679432,1,-0.712655663,1,0.160134673,1
0.144008964,-6.451441765,1,0.751993656,1,-7.33728981,1,0.002995602,1,0.004449845,1,-0.000866376,1,-0.095663793,1,-0.712649047,1,0.160122126,1
0.148008704,-6.473182201,1,0.768036485,1,-7.361051083,1,0.00139291,1,0.001304127,1,-0.004932224,1,-0.095640972,1,-0.712646961,1,0.160100311,1
0.152010247,-6.473698139,1,0.776889622,1,-7.334645271,1,0.002899671,1,7.30E-05,1,-0.002119058,1,-0.095628344,1,-0.712644637,1,0.160082698,1
0.156008199,-6.447350502,1,0.793870807,1,-7.34847641,1,0.001556809,1,0.001653238,1,-0.003198878,1,-0.095601626,1,-0.712640405,1,0.160064429,1
0.160007939,-6.432222366,1,0.774532557,1,-7.349376202,1,8.10E-06,1,-0.00026825,1,-0.003462954,1,-0.095577024,1,-0.712635398,1,0.160038635,1
0.164009735,-6.453571796,1,0.774306893,1,-7.326932907,1,0.0043607,1,0.000868443,1,-0.003571407,1,-0.09554325,1,-0.712634981,1,0.160013437,1
0.16800794,-6.462613583,1,0.788386226,1,-7.349320412,1,0.001370212,1,0.000109664,1,-0.006227286,1,-0.095517613,1,-0.712628841,1,0.159993932,1
0.172007427,-6.446364403,1,0.800861716,1,-7.33353138,1,0.008705607,1,0.001143302,1,-0.008566407,1,-0.095487423,1,-0.712624848,1,0.159967244,1
0.176008955,-6.47245121,1,0.756198227,1,-7.363521099,1,0.004592819,1,-0.001615176,1,-0.004099342,1,-0.095453344,1,-0.712631226,1,0.159933254,1
0.180006653,-6.454764843,1,0.744431257,1,-7.351061821,1,0.00323254,1,0.005845118,1,-0.002696188,1,-0.095412388,1,-0.712626934,1,0.159902588,1
0.18400614,-6.44005394,1,0.76631999,1,-7.344902515,1,0.003166666,1,0.003007786,1,-0.004647098,1,-0.095381111,1,-0.712613821,1,0.159876242,1
0.188007683,-6.447960377,1,0.789988399,1,-7.334619522,1,0.002833506,1,0.001153617,1,-0.004528837,1,-0.095348202,1,-0.712606668,1,0.159846097,1
0.192005381,-6.422821999,1,0.803459704,1,-7.332987309,1,0.001943833,1,-0.003259344,1,-0.006338863,1,-0.095308498,1,-0.712604463,1,0.159813374,1
0.196005374,-6.473498344,1,0.796464205,1,-7.35345459,1,0.004803551,1,0.001755866,1,-0.005471271,1,-0.095268637,1,-0.712600708,1,0.159785882,1
0.200007424,-6.467054844,1,0.786682785,1,-7.349596024,1,0.006723378,1,0.005751428,1,-0.0046806,1,-0.095214851,1,-0.71259439,1,0.159745738,1
0.204005629,-6.493441105,1,0.786593258,1,-7.352579117,1,0.003755499,1,0.003978554,1,-0.005037107,1,-0.095174789,1,-0.712575734,1,0.159718081,1
0.208005115,-6.476111889,1,0.786905646,1,-7.350122929,1,0.006487918,1,0.004537874,1,-0.003514903,1,-0.095132239,1,-0.712566137,1,0.159684747,1
0.212006912,-6.455033302,1,0.791047513,1,-7.352020264,1,0.002711612,1,0.003145211,1,-0.007063761,1,-0.095205739,1,-0.712629497,1,0.159709737,1
0.21600461,-6.470291615,1,0.749978244,1,-7.341990948,1,0.003476648,1,0.001575103,1,-0.005742036,1,-0.095158055,1,-0.712580085,1,0.159209237,1
0.220004097,-6.478414536,1,0.794480562,1,-7.334214687,1,0.006048808,1,0.003725438,1,-0.006781648,1,-0.095113933,1,-0.712570071,1,0.159180537,1
0.224005625,-6.491830349,1,0.822955608,1,-7.327605724,1,0.006388018,1,0.003379749,1,-0.007360036,1,-0.095069751,1,-0.712560833,1,0.159149542,1
0.22800307,-6.487034321,1,0.772795796,1,-7.348135471,1,0.007391444,1,0.006198708,1,-0.006514787,1,-0.095013872,1,-0.71254313,1,0.159106344,1
0.23200281,-6.452425957,1,0.759804368,1,-7.33243084,1,0.007839192,1,0.005785417,1,-0.006472011,1,-0.09497045,1,-0.712522745,1,0.159073472,1
0.236004353,-6.486209869,1,0.778275788,1,-7.335819721,1,0.006249226,1,0.0019279,1,-0.003045738,1,-0.094919145,1,-0.712508142,1,0.159038499,1
0.240007937,-6.501595974,1,0.729472399,1,-7.347166538,1,0.004410322,1,0.004977251,1,-0.009817131,1,-0.094878472,1,-0.712492585,1,0.159010068,1
0.24400793,-6.451929569,1,0.733281314,1,-7.33860445,1,0.003696706,1,0.000880007,1,-0.004105581,1,-0.094842702,1,-0.712482452,1,0.15898104,1
0.248009473,-6.454822063,1,0.735957742,1,-7.337422371,1,0.005805937,1,0.003856603,1,-0.007292097,1,-0.094799787,1,-0.712468624,1,0.158951506,1
0.252007425,-6.492146492,1,0.721947134,1,-7.336812973,1,0.002508953,1,0.006582405,1,-0.002005068,1,-0.094758816,1,-0.712453485,1,0.158921376,1
0.256006926,-6.502128601,1,0.744169235,1,-7.343874454,1,0.003173158,1,0.005538139,1,-0.003585076,1,-0.094734162,1,-0.712430418,1,0.158908337,1
0.260008454,-6.471457481,1,0.771268547,1,-7.358995914,1,-0.000368518,1,0.005873408,1,-0.005014736,1,-0.094699681,1,-0.712403059,1,0.158883423,1
0.264006138,-6.462111473,1,0.750167608,1,-7.347508907,1,0.005586414,1,0.000677089,1,-0.000684044,1,-0.09467344,1,-0.712383151,1,0.158865303,1
0.268005639,-6.418325424,1,0.763494253,1,-7.368360996,1,0.00248405,1,0.007143714,1,-0.006769446,1,-0.094634458,1,-0.712362409,1,0.158834249,1
0.272007167,-6.464224815,1,0.77584821,1,-7.363500595,1,0.001085103,1,0.005084195,1,-0.005680726,1,-0.094609886,1,-0.712340951,1,0.158811837,1
0.276004851,-6.40588665,1,0.775813103,1,-7.356044769,1,0.002351619,1,0.002726269,1,-0.001257261,1,-0.094579674,1,-0.712318897,1,0.158791691,1
0.280004352,-6.432350636,1,0.77461338,1,-7.367291451,1,0.001765129,1,0.012702862,1,-0.008949565,1,-0.09455689,1,-0.712291777,1,0.158771008,1
0.284006149,-6.484100819,1,0.768036485,1,-7.35295248,1,7.99E-05,1,0.006112298,1,-0.002460785,1,-0.094521299,1,-0.712267697,1,0.158739984,1
0.288003832,-6.464392662,1,0.763275385,1,-7.330365181,1,0.003894527,1,0.005814388,1,-0.006441895,1,-0.094492182,1,-0.712242126,1,0.158717513,1
0.292003334,-6.476131439,1,0.7880463,1,-7.348304749,1,0.003425105,1,0.008725168,1,3.27E-05,1,-0.094452947,1,-0.712218404,1,0.158684671,1
0.29600513,-6.451337814,1,0.780753434,1,-7.358865261,1,0.001899793,1,0.002619669,1,-0.007492615,1,-0.094416589,1,-0.71219933,1,0.158658832,1
0.300002813,-6.451799393,1,0.769733131,1,-7.331561565,1,0.006932613,1,0.008514592,1,-0.004725059,1,-0.094380617,1,-0.71216774,1,0.158629924,1
0.304002047,-6.466197491,1,0.794268489,1,-7.338873863,1,0.007862078,1,0.004413072,1,-0.007546742,1,-0.094325542,1,-0.712145329,1,0.158595502,1
0.308003575,-6.471665382,1,0.736629069,1,-7.386759758,1,0.005479425,1,0.007749953,1,-0.004669392,1,-0.094281867,1,-0.712120473,1,0.158563167,1
0.31200102,-6.476645947,1,0.736527979,1,-7.362276077,1,0.004295727,1,0.002243486,1,-0.003050499,1,-0.09425512,1,-0.71209234,1,0.158542529,1
0.31600076,-6.426895142,1,0.745639265,1,-7.343423843,1,0.004386369,1,0.007291053,1,-0.002391815,1,-0.094217479,1,-0.712074161,1,0.158512875,1
0.320003331,-6.437854767,1,0.725350499,1,-7.368440628,1,0.003631278,1,0.006058075,1,-0.003401794,1,-0.094185121,1,-0.712053776,1,0.158487737,1
0.324001789,-6.457398891,1,0.731815636,1,-7.38839817,1,0.004196536,1,0.001848667,1,-0.004362316,1,-0.094160147,1,-0.712033272,1,0.158463791,1
0.328001529,-6.459182262,1,0.746293366,1,-7.378483295,1,0.001280049,1,0.005330635,1,-0.001486353,1,-0.09414117,1,-0.712022543,1,0.158448383,1
0.332003087,-6.42845583,1,0.712024152,1,-7.384278297,1,0.002823169,1,0.001279663,1,-0.003240715,1,-0.094123408,1,-0.712005496,1,0.158433244,1
0.33600691,-6.475422859,1,0.735214055,1,-7.367299557,1,0.002314477,1,0.000571396,1,-0.001894492,1,-0.094106793,1,-0.71200788,1,0.158419356,1
0.340006918,-6.486098289,1,0.742155373,1,-7.373244286,1,0.00184746,1,-4.78E-05,1,-0.004207478,1,-0.094081029,1,-0.711996436,1,0.158394679,1
0.344008714,-6.451275826,1,0.778800249,1,-7.350624561,1,0.00136551,1,0.004204167,1,-0.006395824,1,-0.094064899,1,-0.711987317,1,0.158373743,1
0.348006904,-6.471896172,1,0.792219281,1,-7.34580946,1,0.000784647,1,0.004524193,1,-0.002292621,1,-0.094047278,1,-0.711978078,1,0.158352688,1
0.352006406,-6.441090584,1,0.770810544,1,-7.364817142,1,-0.000334123,1,0.002260971,1,-0.003444058,1,-0.09403453,1,-0.711973727,1,0.158341944,1
0.356007934,-6.427265167,1,0.779575586,1,-7.329756737,1,0.000485022,1,-0.000177586,1,-0.00201788,1,-0.094027996,1,-0.711959839,1,0.158327043,1
0.360005885,-6.471047401,1,0.765936673,1,-7.363045216,1,-0.001928305,1,0.00207071,1,-0.00327395,1,-0.094019569,1,-0.711956024,1,0.158315539,1
0.364005387,-6.434222698,1,0.715605795,1,-7.370456219,1,0.000208062,1,0.006177408,1,-0.001727842,1,-0.094010592,1,-0.71194905,1,0.158299118,1
0.368006647,-6.435214996,1,0.743750453,1,-7.342541695,1,0.000215293,1,0.000871279,1,-0.003563015,1,-0.094004579,1,-0.711942792,1,0.158286974,1
0.37200436,-6.442186356,1,0.7283234,1,-7.347553253,1,0.001214814,1,-5.65E-06,1,-0.002168899,1,-0.093996763,1,-0.7119385,1,0.158274069,1
0.376004338,-6.457403183,1,0.769558191,1,-7.330836296,1,-0.000299506,1,-0.001419105,1,-0.00171895,1,-0.093989536,1,-0.7119385,1,0.158260375,1
0.380006135,-6.485367298,1,0.76940006,1,-7.317743301,1,-0.004386628,1,0.002379666,1,-0.00015346,1,-0.093988791,1,-0.711934209,1,0.158252418,1
0.384003848,-6.453810215,1,0.792592406,1,-7.356018543,1,-0.002189487,1,-0.000880359,1,-0.00176603,1,-0.093983002,1,-0.711925507,1,0.158238307,1
0.388003081,-6.450905323,1,0.773963869,1,-7.338168144,1,0.002171818,1,-7.02E-05,1,-0.006801227,1,-0.09397392,1,-0.711930513,1,0.158227339,1
0.392004877,-6.436512947,1,0.776882768,1,-7.358678818,1,-0.000899987,1,-0.000601469,1,0.000901995,1,-0.093956247,1,-0.711926758,1,0.158208996,1
0.396002561,-6.45612669,1,0.771816254,1,-7.365020275,1,0.004365671,1,0.001505891,1,-0.002168213,1,-0.093950719,1,-0.711929798,1,0.158195168,1
0.400001794,-6.439819336,1,0.778400719,1,-7.355903625,1,0.004004045,1,0.001762592,1,-0.009398757,1,-0.093931317,1,-0.711934805,1,0.158182099,1
0.404003322,-6.430005074,1,0.775887132,1,-7.355576038,1,-0.000984829,1,0.000234712,1,-0.001686926,1,-0.093912348,1,-0.711930454,1,0.158157542,1
0.408000767,-6.462233067,1,0.780628443,1,-7.365860939,1,-0.000596467,1,0.003046762,1,-0.00184266,1,-0.093909256,1,-0.711924911,1,0.15816012,1
0.412000507,-6.485761166,1,0.753573716,1,-7.364726067,1,0.00451107,1,0.002399822,1,-0.002317087,1,-0.093895592,1,-0.711917996,1,0.158140689,1
0.416002035,-6.476180553,1,0.729631126,1,-7.35727787,1,0.00272337,1,0.000183818,1,0.001187076,1,-0.093870528,1,-0.711911738,1,0.158116698,1
0.41999948,-6.457197666,1,0.736074865,1,-7.36019516,1,0.000844849,1,-0.001110677,1,-0.000958703,1,-0.093861446,1,-0.711907864,1,0.158114702,1
0.423999488,-6.474368095,1,0.74807781,1,-7.381502151,1,0.002517514,1,0.002334746,1,-0.002235885,1,-0.093844354,1,-0.711905479,1,0.158096999,1
0.428001285,-6.466028214,1,0.727349401,1,-7.366808891,1,0.000975235,1,0.003078195,1,-0.001592908,1,-0.093834661,1,-0.711896539,1,0.158087045,1
0.431999236,-6.463695049,1,0.7228356,1,-7.383705139,1,0.000306569,1,0.002090569,1,0.001258876,1,-0.09382952,1,-0.711890578,1,0.158072397,1
0.436005116,-6.453565598,1,0.703448832,1,-7.331746578,1,-0.000304119,1,-0.000658649,1,-0.002489572,1,-0.093837865,1,-0.711887121,1,0.158075318,1
0.440006912,-6.452383995,1,0.734784961,1,-7.373420238,1,-0.004018574,1,-0.000300962,1,-0.000792569,1,-0.093838595,1,-0.711893141,1,0.158066973,1
0.444004864,-6.46814537,1,0.749660373,1,-7.357256889,1,-0.002622969,1,-0.001555474,1,0.00193164,1,-0.09385477,1,-0.711898148,1,0.158074647,1
0.448004365,-6.440468788,1,0.762687624,1,-7.38497591,1,-0.003226172,1,-0.00206855,1,-2.65E-05,1,-0.093873635,1,-0.711902738,1,0.158079505,1
0.452005625,-6.430343151,1,0.790394127,1,-7.352482796,1,-0.008273507,1,-0.003228362,1,0.001654534,1,-0.093892731,1,-0.711915374,1,0.158088446,1
0.456003338,-6.44809866,1,0.780090153,1,-7.342726231,1,-0.002651512,1,-0.00428664,1,-0.002879815,1,-0.093914934,1,-0.711928308,1,0.158090189,1
0.460003078,-6.451162338,1,0.758757591,1,-7.353752136,1,-0.002816295,1,-0.002475874,1,-0.001136922,1,-0.093922801,1,-0.711948395,1,0.158091322,1
0.464004606,-6.454502583,1,0.736319959,1,-7.373038769,1,-0.001811617,1,-0.002491001,1,0.001240871,1,-0.094027176,1,-0.71198827,1,0.157669663,1
0.46800229,-6.437960148,1,0.763252676,1,-7.384736538,1,-0.002397441,1,-0.0015667,1,-0.002946834,1,-0.094035231,1,-0.711996257,1,0.157667682,1
0.472002059,-6.427418232,1,0.762114584,1,-7.353604317,1,-0.002692326,1,-0.006624798,1,0.001251501,1,-0.094047539,1,-0.712016642,1,0.157667577,1
0.476003826,-6.449085236,1,0.7776106,1,-7.38280201,1,-0.006782093,1,-0.006925378,1,0.000147909,1,-0.094054624,1,-0.712038159,1,0.157667682,1
0.480001539,-6.461113453,1,0.766313374,1,-7.369546413,1,0.000415551,1,-0.003760574,1,-0.001998769,1,-0.094064698,1,-0.712053418,1,0.15767321,1
0.484000772,-6.465985775,1,0.776736796,1,-7.348022461,1,-0.004745051,1,-0.007806529,1,-0.001714462,1,-0.094076931,1,-0.712068439,1,0.157674983,1
0.488002568,-6.446644783,1,0.797851205,1,-7.342205524,1,-0.000754925,1,-0.005312399,1,-0.003278781,1,-0.094072789,1,-0.712091029,1,0.157672495,1
0.49200052,-6.437912464,1,0.807747066,1,-7.341426849,1,0.002002223,1,-0.002091866,1,-0.003976608,1,-0.094077528,1,-0.712105274,1,0.157663465,1
0.495999992,-6.435501575,1,0.779438317,1,-7.333896637,1,-0.001630318,1,-0.005657283,1,-0.000645014,1,-0.094062246,1,-0.712114096,1,0.157646,1
0.500001788,-6.47070694,1,0.793561637,1,-7.347595692,1,0.00107756,1,-0.003884862,1,-0.001221091,1,-0.094055198,1,-0.71212846,1,0.157630175,1
0.503999472,-6.467545986,1,0.799038827,1,-7.336854935,1,-0.001604137,1,-0.00196015,1,-0.0013274,1,-0.094044685,1,-0.712131798,1,0.157621413,1
0.507999003,-6.456032753,1,0.802225232,1,-7.371695518,1,0.000150399,1,-0.000590447,1,-0.001022443,1,-0.094035797,1,-0.712137938,1,0.157609239,1
0.512000501,-6.469833374,1,0.739262104,1,-7.338219643,1,0.000679074,1,-0.000335601,1,-0.000907919,1,-0.094026111,1,-0.712142944,1,0.157599762,1
0.515997946,-6.465017319,1,0.742355645,1,-7.350008011,1,0.001384882,1,-0.001921994,1,-0.000939373,1,-0.094006777,1,-0.71214056,1,0.157583967,1
0.519997418,-6.455236912,1,0.720382214,1,-7.355627537,1,-0.003128446,1,0.000579073,1,0.000348856,1,-0.093999103,1,-0.712140918,1,0.15757595,1
0.523998976,-6.415756702,1,0.734402359,1,-7.35842371,1,0.00217291,1,0.00067163,1,0.003340941,1,-0.093997456,1,-0.71214807,1,0.157581106,1
0.527996421,-6.46571207,1,0.707559764,1,-7.343767166,1,0.003053394,1,0.003275988,1,-0.001316247,1,-0.09399455,1,-0.712136567,1,0.157575309,1
0.532002032,-6.431773663,1,0.750465631,1,-7.350910664,1,-0.000347798,1,0.00188766,1,-0.000407129,1,-0.093983047,1,-0.712136269,1,0.157569319,1
0.53600359,-6.4302001,1,0.730330229,1,-7.37555027,1,-0.003532984,1,0.002186913,1,-0.0021243,1,-0.093976565,1,-0.712132037,1,0.15756163,1
0.540001273,-6.43447113,1,0.749392211,1,-7.365042686,1,0.000549685,1,-0.00191176,1,0.001874949,1,-0.093987837,1,-0.712140918,1,0.157562837,1
0.544001281,-6.49190712,1,0.71960783,1,-7.368215561,1,-0.002586397,1,-0.003497916,1,0.003315418,1,-0.094001964,1,-0.712143004,1,0.157575548,1
0.548002839,-6.421723843,1,0.727945566,1,-7.362362385,1,-0.003166721,1,-0.000406723,1,0.00142856,1,-0.094011948,1,-0.712149978,1,0.157578796,1
0.552000523,-6.488630295,1,0.739104331,1,-7.372894287,1,-0.003960398,1,-0.002896484,1,0.002051012,1,-0.094032966,1,-0.712150097,1,0.157589346,1
0.555999994,-6.463819981,1,0.744334579,1,-7.365477085,1,-0.004053148,1,-0.000110465,1,0.00085097,1,-0.094061568,1,-0.712152004,1,0.157596096,1
0.560001552,-6.439731121,1,0.733763754,1,-7.368618965,1,-0.002882396,1,-0.008397182,1,-0.000647326,1,-0.094076172,1,-0.712166488,1,0.157601088,1
0.563999236,-6.489780426,1,0.76427561,1,-7.362307549,1,-0.001878686,1,-0.00636586,1,0.001766359,1,-0.094092511,1,-0.712183297,1,0.157610968,1
0.567998707,-6.458879948,1,0.776131272,1,-7.386567593,1,-0.004746802,1,-0.003126331,1,0.000582471,1,-0.094108209,1,-0.712198019,1,0.157616422,1
0.572000265,-6.453955173,1,0.81211549,1,-7.364165306,1,-0.006364176,1,-0.004645183,1,-0.000255452,1,-0.094132431,1,-0.712216377,1,0.157620892,1
0.575997949,-6.465923786,1,0.742698073,1,-7.340359688,1,-0.002730173,1,-0.004817062,1,0.000133368,1,-0.094145015,1,-0.712232172,1,0.157622188,1
0.579997718,-6.476713181,1,0.796810091,1,-7.344240665,1,-0.001251238,1,-0.002719434,1,-0.003349904,1,-0.094159886,1,-0.712245762,1,0.157626882,1
0.583999217,-6.45328474,1,0.808772624,1,-7.345057011,1,0.000661314,1,-0.003506714,1,0.001109278,1,-0.094171844,1,-0.712263584,1,0.15762493,1
0.5879969,-6.475961208,1,0.767444968,1,-7.35586071,1,-0.001605911,1,-0.004551549,1,0.000627568,1,-0.094181046,1,-0.712280989,1,0.15763402,1
0.591996431,-6.446461678,1,0.774589777,1,-7.311336517,1,-0.00567158,1,-0.000212724,1,0.001177083,1,-0.094201036,1,-0.712291777,1,0.157643244,1
0.59599793,-6.436454773,1,0.729556262,1,-7.370009899,1,-0.001844701,1,-0.002141502,1,-0.001529241,1,-0.094214395,1,-0.712303758,1,0.157646805,1
0.599995375,-6.452158451,1,0.800181806,1,-7.34669733,1,-0.000518021,1,-0.002704073,1,0.004282998,1,-0.094232105,1,-0.712312758,1,0.15765588,1
0.603994906,-6.462340355,1,0.773985863,1,-7.334301949,1,-0.002488919,1,-0.004115773,1,-0.000969525,1,-0.094240986,1,-0.71232456,1,0.157661542,1
0.607996643,-6.478624344,1,0.721717834,1,-7.338435173,1,-0.003567021,1,-0.00370457,1,0.000848158,1,-0.094249606,1,-0.712342322,1,0.157662064,1
0.611994624,-6.484041214,1,0.72115618,1,-7.337508678,1,-0.00231618,1,-0.002901365,1,0.00123603,1,-0.094265878,1,-0.712351799,1,0.157668293,1
0.615994096,-6.465809822,1,0.739237964,1,-7.377002239,1,-0.002840439,1,-0.003379846,1,0.004957172,1,-0.09429542,1,-0.71236074,1,0.15768455,1
0.619995654,-6.455312252,1,0.764137268,1,-7.358006001,1,-0.003625482,1,-0.002435698,1,0.000591088,1,-0.094325945,1,-0.712368786,1,0.157701865,1
0.623993576,-6.473983765,1,0.794590175,1,-7.360915661,1,-0.004857413,1,-0.002700849,1,-0.000346443,1,-0.094348423,1,-0.712377131,1,0.157708868,1
0.627999246,-6.476750851,1,0.791908145,1,-7.357149601,1,-0.00459325,1,-0.002630374,1,0.003780341,1,-0.094372846,1,-0.712395072,1,0.157722697,1
0.632000744,-6.472503185,1,0.772704482,1,-7.33907938,1,-0.005662059,1,-0.000609493,1,0.004367874,1,-0.094410025,1,-0.712401092,1,0.15774332,1
0.635998726,-6.458501339,1,0.811139286,1,-7.316339493,1,-0.000855834,1,-0.002648055,1,0.001087735,1,-0.09442021,1,-0.712415338,1,0.157751426,1
0.639998972,-6.463184834,1,0.8058635,1,-7.328705788,1,-0.003349675,1,-0.007418548,1,0.001531825,1,-0.094437815,1,-0.712431431,1,0.1577636,1
0.64400053,-6.467067719,1,0.834079921,1,-7.354770184,1,0.001380199,1,-0.004786715,1,-0.001869723,1,-0.094440706,1,-0.712449908,1,0.157763109,1
0.647998214,-6.42935276,1,0.828970492,1,-7.350450516,1,-0.001027595,1,-0.005729648,1,-0.001286463,1,-0.094437666,1,-0.712474048,1,0.15775758,1
0.651997685,-6.477191448,1,0.809811294,1,-7.345582962,1,0.00441059,1,-0.005561092,1,-0.003217705,1,-0.094430178,1,-0.712494016,1,0.157758415,1
0.655999243,-6.486707211,1,0.767436743,1,-7.346350193,1,0.00288408,1,-0.006378975,1,-0.001898328,1,-0.094415903,1,-0.712519884,1,0.157745898,1
0.659996927,-6.491462708,1,0.786027014,1,-7.356178284,1,0.003422922,1,-0.002509471,1,-0.003575775,1,-0.09440241,1,-0.712538183,1,0.157733545,1
0.66399616,-6.466835976,1,0.7506603,1,-7.327046394,1,0.001978158,1,-0.006643598,1,-0.001770464,1,-0.094380796,1,-0.712561071,1,0.157716349,1
0.667997718,-6.489310741,1,0.733417869,1,-7.341139317,1,0.002984389,1,-0.003055194,1,-0.003204456,1,-0.094363391,1,-0.712581277,1,0.157706007,1
0.671995401,-6.480587959,1,0.742875576,1,-7.367125988,1,0.001062385,1,-0.006356061,1,0.002953069,1,-0.094340734,1,-0.712595522,1,0.157694802,1
0.675994873,-6.465419292,1,0.743623555,1,-7.334712029,1,0.000195266,1,-0.002210113,1,-0.001588901,1,-0.094326727,1,-0.712612092,1,0.157689199,1
0.679996669,-6.484786034,1,0.745628536,1,-7.342015266,1,0.004145478,1,0.00127853,1,-0.002125514,1,-0.094313934,1,-0.712612629,1,0.157679215,1
0.683994353,-6.488139153,1,0.751016676,1,-7.347670078,1,0.000792881,1,-0.000600186,1,-0.000909449,1,-0.094307199,1,-0.712621689,1,0.157677382,1
0.687993884,-6.447452068,1,0.719360888,1,-7.347475052,1,-0.000641989,1,-0.002224026,1,0.001557445,1,-0.094304278,1,-0.712629318,1,0.157675803,1
0.691995382,-6.453979492,1,0.758792818,1,-7.318772316,1,-0.000413669,1,-0.003337061,1,-0.001311369,1,-0.094303213,1,-0.712639987,1,0.157672822,1
0.695992827,-6.491147041,1,0.755058289,1,-7.351512432,1,-0.000901736,1,0.000164598,1,-0.000755044,1,-0.094305851,1,-0.712649405,1,0.157670572,1
0.699992299,-6.481365204,1,0.759267509,1,-7.359400272,1,-0.00389138,1,-0.001474014,1,0.002549367,1,-0.094316438,1,-0.712642431,1,0.157675207,1
0.703993857,-6.411254883,1,0.775013804,1,-7.345057011,1,-0.001568878,1,0.00043981,1,0.003126564,1,-0.094321087,1,-0.712645471,1,0.157674745,1
0.707991302,-6.423968792,1,0.754980505,1,-7.341720581,1,0.001897252,1,-0.002697719,1,0.00027696,1,-0.094323069,1,-0.712650061,1,0.157683879,1
0.711991012,-6.467412472,1,0.753011584,1,-7.339718342,1,-0.001230241,1,-0.00073785,1,-0.003711204,1,-0.094444901,1,-0.712722182,1,0.157737821,1
0.71599257,-6.463380337,1,0.749182701,1,-7.340085983,1,-0.001805521,1,0.000782303,1,0.000844402,1,-0.09443704,1,-0.712677836,1,0.15728426,1
0.719990253,-6.493029118,1,0.747010648,1,-7.344939709,1,-0.0002388,1,-0.002413644,1,0.005063162,1,-0.094449848,1,-0.712678373,1,0.157292336,1
0.723990262,-6.494403362,1,0.760480702,1,-7.364206314,1,-0.001025905,1,0.004225257,1,0.000606342,1,-0.0944563,1,-0.712675512,1,0.157300413,1
0.727997959,-6.443212509,1,0.742732167,1,-7.363791466,1,-0.004415745,1,1.22E-05,1,-0.002320192,1,-0.094465703,1,-0.712675095,1,0.157305166,1
0.732001781,-6.44890976,1,0.761969864,1,-7.348067284,1,-0.002316754,1,0.001332692,1,-4.09E-05,1,-0.094481513,1,-0.712670922,1,0.157309428,1
0.736001551,-6.422455788,1,0.751090407,1,-7.368285656,1,-0.0027436,1,0.005775074,1,0.003384588,1,-0.094496526,1,-0.712661922,1,0.157315612,1
0.740003347,-6.415448189,1,0.746956825,1,-7.347482204,1,-0.00262501,1,0.000743014,1,0.000819311,1,-0.094510183,1,-0.712660789,1,0.157324433,1
0.744001269,-6.446173668,1,0.72734046,1,-7.338959694,1,-0.002986041,1,0.002687473,1,0.001785764,1,-0.094531715,1,-0.712651014,1,0.157338634,1
0.748000741,-6.432800293,1,0.760867536,1,-7.368980408,1,-0.002845812,1,0.001301064,1,0.003483917,1,-0.094555974,1,-0.712644637,1,0.15734987,1
0.75200206,-6.471766949,1,0.798744142,1,-7.31155777,1,-0.002710429,1,0.000473908,1,0.000883049,1,-0.094574727,1,-0.712642252,1,0.157362133,1
0.755999506,-6.452741146,1,0.770887911,1,-7.33237648,1,-0.005800577,1,0.004564074,1,0.001855901,1,-0.094596669,1,-0.712639868,1,0.157366991,1
0.759999216,-6.4268713,1,0.799724758,1,-7.348158836,1,-0.00208041,1,0.000969666,1,0.002064961,1,-0.094618022,1,-0.712629497,1,0.157383859,1
0.76400125,-6.416230202,1,0.803510368,1,-7.34879446,1,-0.002222536,1,-0.000101852,1,0.002100763,1,-0.094634168,1,-0.712630033,1,0.157391623,1
0.767999232,-6.478793621,1,0.778721154,1,-7.355035782,1,-0.002241912,1,-0.000391099,1,0.002098568,1,-0.094653323,1,-0.712637305,1,0.157402039,1
0.771998703,-6.456528664,1,0.783124089,1,-7.372410297,1,-0.000642665,1,-0.000465422,1,-0.002376578,1,-0.094654664,1,-0.712638855,1,0.157398716,1
0.776000261,-6.466655731,1,0.770036221,1,-7.344447613,1,-0.001154426,1,0.002627604,1,0.003278318,1,-0.094657809,1,-0.712633252,1,0.157400355,1
0.779997706,-6.474764824,1,0.787661493,1,-7.349696636,1,0.002017647,1,-0.00018306,1,-0.003096869,1,-0.094664112,1,-0.71263361,1,0.157402799,1
0.78399694,-6.452752113,1,0.75029552,1,-7.381389618,1,-0.000734036,1,-0.00092141,1,-0.000872065,1,-0.094657674,1,-0.712631226,1,0.157393962,1
0.787998974,-6.491052628,1,0.805354416,1,-7.322257519,1,0.00015925,1,0.001265456,1,0.001165964,1,-0.094658017,1,-0.712636828,1,0.157399237,1
0.791996956,-6.462172985,1,0.757073164,1,-7.353510857,1,0.001510574,1,0.000754842,1,-0.001760902,1,-0.094656661,1,-0.712632716,1,0.15739055,1
0.795997202,-6.457199574,1,0.768162191,1,-7.359019756,1,0.001025678,1,0.001691646,1,-0.000158678,1,-0.094651788,1,-0.71263659,1,0.157384068,1
0.799998701,-6.492738247,1,0.735921502,1,-7.343384266,1,-0.000241045,1,-0.003380659,1,-0.00459203,1,-0.094648756,1,-0.71263659,1,0.157376319,1
0.803996444,-6.461961269,1,0.757777214,1,-7.341025829,1,-0.002429556,1,0.000517034,1,0.002082725,1,-0.094645418,1,-0.712640703,1,0.157373354,1
0.807995915,-6.451795578,1,0.751944184,1,-7.366476059,1,-0.001790127,1,9.91E-06,1,-0.000270137,1,-0.094646238,1,-0.712642908,1,0.157372445,1
0.811997414,-6.470814705,1,0.738751113,1,-7.391165733,1,-0.002543159,1,-2.72E-05,1,-0.000295493,1,-0.094654456,1,-0.712647915,1,0.15737237,1
0.815994859,-6.48380661,1,0.723139048,1,-7.352991104,1,0.000609201,1,-0.002432785,1,-5.74E-05,1,-0.094653904,1,-0.712649047,1,0.157372534,1
0.81999439,-6.436665535,1,0.735144734,1,-7.379840374,1,-0.001857061,1,-3.61E-05,1,-0.000181817,1,-0.094656363,1,-0.712658584,1,0.157370463,1
0.824002326,-6.492572308,1,0.767937243,1,-7.36756134,1,-0.00100293,1,-0.00070584,1,0.003254375,1,-0.094672635,1,-0.712661743,1,0.157385156,1
0.828006685,-6.437478542,1,0.73811996,1,-7.362325191,1,-0.003831322,1,-0.004381891,1,0.001753116,1,-0.094692677,1,-0.712665439,1,0.157393277,1
0.83200717,-6.44696331,1,0.752376854,1,-7.380494595,1,-0.005659884,1,0.000522223,1,0.001138902,1,-0.094712876,1,-0.712676883,1,0.157401472,1
0.836008728,-6.449258327,1,0.763826787,1,-7.336389542,1,-0.003589127,1,-0.001698817,1,0.0002208,1,-0.094730318,1,-0.712684095,1,0.157418877,1
0.840006411,-6.45653677,1,0.785854638,1,-7.343616962,1,-0.004451463,1,-0.000814156,1,0.001909653,1,-0.094755828,1,-0.712688208,1,0.157431439,1
0.844005883,-6.461934566,1,0.746664882,1,-7.334445477,1,-0.005176985,1,-0.002760162,1,0.00113889,1,-0.094787247,1,-0.712689281,1,0.157451004,1
0.848007143,-6.462077141,1,0.781253636,1,-7.336070538,1,-0.004573524,1,0.000928604,1,0.000192349,1,-0.094805315,1,-0.712683022,1,0.157455176,1
0.852004588,-6.47292614,1,0.784576416,1,-7.344657421,1,-0.00462333,1,0.000200813,1,0.002804456,1,-0.094826438,1,-0.712683022,1,0.157465845,1
0.856004119,-6.475471497,1,0.782473505,1,-7.3428936,1,0.00158317,1,-0.000973593,1,0.004947254,1,-0.09484674,1,-0.71268189,1,0.157481968,1
0.860006154,-6.475782871,1,0.803152442,1,-7.352445602,1,-0.000273043,1,0.000231723,1,0.001466656,1,-0.094856016,1,-0.712688923,1,0.157501534,1
0.864004076,-6.465672016,1,0.834855735,1,-7.357364655,1,-0.000771873,1,-0.000172035,1,0.00026458,1,-0.094857499,1,-0.71269542,1,0.157504454,1
0.868003607,-6.442660809,1,0.823551595,1,-7.366562843,1,-0.001551179,1,-0.001904582,1,0.000826102,1,-0.094866082,1,-0.712698102,1,0.157507375,1
0.872005105,-6.429351807,1,0.794784367,1,-7.352444649,1,0.002374135,1,-0.005261392,1,-0.004574541,1,-0.094856948,1,-0.712706387,1,0.157497182,1
0.87600255,-6.472439766,1,0.81237644,1,-7.366235256,1,0.000763886,1,9.11E-05,1,0.00262301,1,-0.09485434,1,-0.712724268,1,0.157504365,1
0.88000232,-6.470377445,1,0.806058943,1,-7.324579716,1,0.004549798,1,-0.003094396,1,-0.006036575,1,-0.094841123,1,-0.712730765,1,0.157498851,1
0.884004116,-6.458604813,1,0.778888643,1,-7.36400938,1,0.002141369,1,-0.002307691,1,-0.000849479,1,-0.094824389,1,-0.712744176,1,0.157488927,1
0.8880018,-6.440379143,1,0.771232128,1,-7.333408833,1,0.006618181,1,-0.000681307,1,-0.000577483,1,-0.094809212,1,-0.712754309,1,0.157483712,1
0.89200151,-6.435898781,1,0.731959879,1,-7.354086399,1,0.000694392,1,-0.001758318,1,-0.00096194,1,-0.094803363,1,-0.712754965,1,0.157482058,1
0.896003067,-6.440415859,1,0.757498384,1,-7.33690691,1,-0.001054902,1,-0.002853751,1,0.001286226,1,-0.094798133,1,-0.712778568,1,0.157480985,1
0.900000751,-6.453401566,1,0.777791381,1,-7.37762785,1,0.004043452,1,-0.003622978,1,0.002651791,1,-0.094791353,1,-0.712786436,1,0.157472208,1
0.904000282,-6.482283592,1,0.72586,1,-7.364022732,1,-0.001000945,1,-0.007388998,1,-0.00269493,1,-0.094791271,1,-0.712803781,1,0.157477573,1
0.908002019,-6.480829239,1,0.688905954,1,-7.347098827,1,-0.003228203,1,-0.005510036,1,-0.004773944,1,-0.09478385,1,-0.712827563,1,0.157471359,1
0.912,-6.498506546,1,0.65302366,1,-7.381349087,1,-0.000433838,1,-0.0033797,1,0.002216249,1,-0.094780102,1,-0.712843537,1,0.157469973,1
0.916000485,-6.457975388,1,0.6781829,1,-7.398761749,1,-0.0055462,1,-0.003997686,1,-0.001555201,1,-0.094804153,1,-0.712863445,1,0.157483831,1
0.920002043,-6.437139988,1,0.681422174,1,-7.411130428,1,-0.007275139,1,-0.006128844,1,-0.000889312,1,-0.094830438,1,-0.712879777,1,0.157489002,1
0.924006164,-6.463222504,1,0.726232469,1,-7.374824047,1,-0.005924785,1,-0.006396621,1,0.004037468,1,-0.09485136,1,-0.712904334,1,0.157503575,1
0.928006172,-6.466497421,1,0.737171948,1,-7.343214035,1,-0.007647073,1,-0.006696041,1,0.003563212,1,-0.094893783,1,-0.712929606,1,0.15752396,1
0.932007432,-6.511421204,1,0.752200425,1,-7.33792305,1,-0.01058463,1,-0.004271267,1,0.004502024,1,-0.094929755,1,-0.712946951,1,0.157536879,1
0.936005116,-6.469202042,1,0.799007475,1,-7.369481087,1,-0.007696056,1,-0.00780527,1,0.002800528,1,-0.094976701,1,-0.712967575,1,0.157563224,1
0.940004349,-6.456014156,1,0.759400368,1,-7.365083694,1,-0.010777247,1,-0.004561118,1,0.003988668,1,-0.095020518,1,-0.712982416,1,0.157581657,1
0.944006145,-6.469809532,1,0.818890929,1,-7.372197628,1,-0.001777018,1,-0.008667179,1,0.000110141,1,-0.095051736,1,-0.713007927,1,0.157597721,1
0.948004067,-6.458264828,1,0.837653577,1,-7.348188877,1,-0.009140927,1,-0.008290633,1,0.004699191,1,-0.095082894,1,-0.713044763,1,0.15761216,1
0.952003837,-6.494001865,1,0.846268296,1,-7.327306747,1,-0.004482169,1,-0.003412729,1,0.001070067,1,-0.09511482,1,-0.713067114,1,0.157629222,1
0.956005394,-6.488068104,1,0.800096691,1,-7.303931236,1,-0.003029941,1,-0.007940797,1,0.000731687,1,-0.095136926,1,-0.713094473,1,0.157634482,1
0.96000284,-6.443244934,1,0.781290114,1,-7.277043343,1,0.000139706,1,-0.006904805,1,-0.001644862,1,-0.095151611,1,-0.713119626,1,0.157630518,1
0.964002788,-6.464819908,1,0.815558851,1,-7.317809582,1,-0.001700286,1,-0.001605697,1,-0.001256519,1,-0.095262885,1,-0.713158607,1,0.157220125,1
0.968004882,-6.49826622,1,0.841193318,1,-7.301030636,1,-0.000405867,1,-0.003528196,1,-0.002707606,1,-0.09525533,1,-0.713171959,1,0.157211065,1
0.972002804,-6.455485821,1,0.815554738,1,-7.3229146,1,0.002308318,1,0.000141329,1,-0.00054187,1,-0.095250383,1,-0.713185012,1,0.157204807,1
0.976002038,-6.489714622,1,0.827266514,1,-7.311655045,1,0.000962686,1,-0.00082474,1,-0.003592587,1,-0.095235877,1,-0.713192701,1,0.15720129,1
0.980003595,-6.49037981,1,0.777866006,1,-7.327629089,1,0.004386145,1,-0.001664979,1,-0.003741286,1,-0.095212899,1,-0.713200927,1,0.157182589,1
0.98400104,-6.499337673,1,0.762173057,1,-7.315160275,1,0.003640844,1,0.000421552,1,-0.001776476,1,-0.095192499,1,-0.713200033,1,0.15717043,1
0.988000512,-6.482875824,1,0.78145957,1,-7.324886799,1,0.000504318,1,0.001085792,1,-0.001051478,1,-0.095177121,1,-0.7131899,1,0.157160103,1
0.992002547,-6.456942081,1,0.763542056,1,-7.311745167,1,0.006469273,1,0.004189025,1,-0.004489277,1,-0.095161572,1,-0.713186502,1,0.157151297,1
0.996000767,-6.452135086,1,0.780556083,1,-7.316616058,1,-0.00019761,1,0.002543918,1,-0.005501343,1,-0.095129453,1,-0.713173509,1,0.157134041,1
1.000000715,-6.464949608,1,0.737550318,1,-7.343391895,1,0.000763532,1,0.004282647,1,-0.002690169,1,-0.09511219,1,-0.713162243,1,0.157119334,1
1.004002333,-6.45996809,1,0.76567024,1,-7.355446815,1,0.001544422,1,0.003246068,1,-0.00151949,1,-0.095108084,1,-0.713154316,1,0.157114878,1
1.008000016,-6.488245964,1,0.762485683,1,-7.349012852,1,0.004432416,1,0.000701937,1,-0.001262061,1,-0.09510348,1,-0.713132501,1,0.157106757,1
1.011999726,-6.470654964,1,0.741410196,1,-7.347475052,1,0.000564332,1,0.003781997,1,0.002318188,1,-0.095084153,1,-0.713112295,1,0.157096729,1
1.016000986,-6.477405548,1,0.762465596,1,-7.351480961,1,-0.003605413,1,0.006347761,1,0.001434488,1,-0.095084108,1,-0.713089108,1,0.157104522,1
1.02000463,-6.499715328,1,0.765737891,1,-7.341108799,1,0.005533094,1,0.008485942,1,-0.000779249,1,-0.095073543,1,-0.713060021,1,0.157098532,1
1.024004102,-6.457043171,1,0.73402667,1,-7.371679306,1,-0.000202257,1,0.006455972,1,-0.00114767,1,-0.095062077,1,-0.713037372,1,0.157087266,1
1.028006196,-6.457762718,1,0.741548717,1,-7.345080376,1,0.000209857,1,0.007444264,1,0.002410359,1,-0.09505295,1,-0.713007212,1,0.157074988,1
1.032004595,-6.501598835,1,0.766011298,1,-7.357833862,1,-3.31E-05,1,0.008048305,1,0.000972266,1,-0.095059417,1,-0.712973595,1,0.15708299,1
1.036004066,-6.46506691,1,0.77430582,1,-7.359095573,1,0.000407565,1,0.008054976,1,0.001395023,1,-0.095055155,1,-0.712952375,1,0.157074541,1
1.040005922,-6.447421074,1,0.745680869,1,-7.338071823,1,-0.003266509,1,0.005167242,1,0.00282398,1,-0.095059752,1,-0.712926209,1,0.157081112,1
1.044004083,-6.453351974,1,0.726715863,1,-7.403864861,1,0.00271932,1,0.004982532,1,-0.00130284,1,-0.095060371,1,-0.712901592,1,0.157072172,1
1.048003554,-6.45370245,1,0.69616133,1,-7.365800858,1,-0.001621317,1,0.009035717,1,0.001417231,1,-0.095072918,1,-0.712877274,1,0.157077447,1
1.052005172,-6.483791351,1,0.768450975,1,-7.360795975,1,-0.00346655,1,0.002865253,1,0.003982328,1,-0.095087089,1,-0.712865353,1,0.157077134,1
1.056002855,-6.481111526,1,0.752291441,1,-7.33971262,1,-0.003012256,1,0.00613048,1,-0.001116052,1,-0.095117003,1,-0.712843776,1,0.157094985,1
1.060002804,-6.43941021,1,0.757821858,1,-7.3666749,1,-0.001457436,1,0.005108002,1,0.000390783,1,-0.095129885,1,-0.712831736,1,0.157098457,1
1.06400466,-6.46983242,1,0.78431195,1,-7.372387886,1,-0.00174866,1,0.002173642,1,-0.004755326,1,-0.095139474,1,-0.712817073,1,0.157095179,1
1.068002343,-6.452508926,1,0.76810056,1,-7.349895477,1,3.42E-05,1,0.004493603,1,0.000458218,1,-0.095151015,1,-0.712800562,1,0.157099068,1
1.072001815,-6.482509136,1,0.755205214,1,-7.348572254,1,-0.004178496,1,0.001453089,1,-0.000511021,1,-0.095167749,1,-0.71278739,1,0.157105073,1
1.07600379,-6.484303951,1,0.761739671,1,-7.35500288,1,-0.003224308,1,0.002937586,1,1.34E-05,1,-0.095178343,1,-0.712773144,1,0.15710029,1
1.080001831,-6.452524662,1,0.780300319,1,-7.343389988,1,-0.004767486,1,0.005729442,1,-0.003498123,1,-0.095183633,1,-0.712755442,1,0.157085389,1
1.084001303,-6.427100658,1,0.756313503,1,-7.337933064,1,0.001626902,1,0.00218123,1,0.002043574,1,-0.095177293,1,-0.712739944,1,0.15707688,1
1.088002801,-6.446427822,1,0.755982399,1,-7.376038074,1,-0.00579348,1,0.00153415,1,-0.001115186,1,-0.095181942,1,-0.712722361,1,0.157076314,1
1.092000246,-6.460102558,1,0.768612921,1,-7.33148098,1,-0.003256696,1,-0.002206587,1,-0.00299624,1,-0.095197439,1,-0.712716699,1,0.157073274,1
1.096000314,-6.458244324,1,0.765914977,1,-7.327448845,1,-0.001462603,1,0.007422175,1,0.000252842,1,-0.095207214,1,-0.712709248,1,0.157072276,1
1.10000205,-6.456208229,1,0.802737594,1,-7.318566322,1,-0.004631492,1,0.004654471,1,-0.001708797,1,-0.095210761,1,-0.712688625,1,0.157062814,1
1.103999972,-6.469862461,1,0.79332459,1,-7.339333534,1,-0.001361791,1,0.001358407,1,-0.004760434,1,-0.095225811,1,-0.712675691,1,0.157057151,1
1.107999444,-6.470263481,1,0.772160709,1,-7.307053566,1,-0.002587734,1,0.005041072,1,-0.003495286,1,-0.095231839,1,-0.71266377,1,0.157054827,1
1.112000823,-6.437808037,1,0.778742611,1,-7.307571888,1,0.002167973,1,0.006526385,1,-0.001027311,1,-0.095235221,1,-0.712647438,1,0.157050148,1
1.116004348,-6.422943115,1,0.762722194,1,-7.329167843,1,-0.002460151,1,0.001837668,1,0.000588236,1,-0.095225319,1,-0.712626934,1,0.157040253,1
1.120003819,-6.440207005,1,0.794007599,1,-7.34896183,1,0.000565306,1,0.006372509,1,-0.003404415,1,-0.095218323,1,-0.712606251,1,0.157025769,1
1.124006152,-6.453918457,1,0.780319214,1,-7.353857517,1,-4.49E-05,1,0.005153522,1,-0.002551008,1,-0.095212474,1,-0.712587535,1,0.157016292,1
1.128004551,-6.440596581,1,0.776280046,1,-7.356511593,1,-0.000510543,1,0.003207579,1,-0.002322644,1,-0.09518943,1,-0.712571502,1,0.156993896,1
1.132004619,-6.460027695,1,0.743124962,1,-7.320937634,1,0.000903143,1,0.003143257,1,-0.005379097,1,-0.095176786,1,-0.712557018,1,0.156983986,1
1.136006117,-6.457817078,1,0.742132127,1,-7.314069748,1,0.001091009,1,0.005746072,1,-0.000878378,1,-0.095156565,1,-0.7125386,1,0.156959042,1
1.1400038,-6.439646721,1,0.726516187,1,-7.3370471,1,-0.000869525,1,0.003848201,1,-0.002851603,1,-0.095135972,1,-0.712525606,1,0.15693672,1
1.144003272,-6.497720242,1,0.744878769,1,-7.341578484,1,0.000515181,1,0.001322137,1,-0.003397513,1,-0.095128536,1,-0.712515116,1,0.156926885,1
1.148004889,-6.503764629,1,0.733501554,1,-7.355610371,1,-0.001089733,1,0.005939315,1,-0.003679777,1,-0.095123231,1,-0.712497354,1,0.156911537,1
1.152002335,-6.43091011,1,0.741186261,1,-7.334430695,1,6.86E-05,1,0.007950776,1,-0.001154938,1,-0.095109142,1,-0.712477803,1,0.156888634,1
1.156001568,-6.45168972,1,0.749784291,1,-7.361436844,1,0.000633694,1,7.00E-05,1,-0.002009344,1,-0.095105544,1,-0.71246475,1,0.15687798,1
1.160003543,-6.46269989,1,0.771931231,1,-7.350602627,1,-0.000783582,1,0.007022367,1,-0.001363967,1,-0.095102616,1,-0.712444425,1,0.156861141,1
1.164001822,-6.44487524,1,0.744445264,1,-7.368215084,1,0.000352999,1,0.002909159,1,-0.001545517,1,-0.095100172,1,-0.712427914,1,0.1568508,1
1.168001056,-6.439020157,1,0.792932868,1,-7.365052223,1,-0.001396255,1,0.004203381,1,-0.004647636,1,-0.095094673,1,-0.712417483,1,0.156832322,1
1.172002554,-6.438019753,1,0.769239485,1,-7.324111938,1,0.000638284,1,0.003498225,1,-0.002382894,1,-0.095078819,1,-0.712398291,1,0.156815276,1
1.176000237,-6.451658726,1,0.771338344,1,-7.354074955,1,7.72E-05,1,0.004717939,1,-0.003685042,1,-0.095065638,1,-0.712378681,1,0.156794801,1
1.179999709,-6.453084469,1,0.786186695,1,-7.382592201,1,0.004862267,1,0.005109287,1,-0.004219033,1,-0.095047593,1,-0.712360263,1,0.156771109,1
1.184001327,-6.471098423,1,0.778407395,1,-7.3404212,1,0.000998617,1,0.003489126,1,-0.00337984,1,-0.095030487,1,-0.712343156,1,0.156756327,1
1.18799901,-6.441952229,1,0.805893004,1,-7.356568336,1,0.002355748,1,0.002193658,1,-0.001455138,1,-0.095016733,1,-0.712329507,1,0.156739369,1
1.19199872,-6.435966969,1,0.794948995,1,-7.348294258,1,-0.000431238,1,0.002657657,1,0.000601611,1,-0.095005654,1,-0.712322295,1,0.156732976,1
1.196000218,-6.453832626,1,0.785118461,1,-7.357654572,1,0.002043863,1,0.002005884,1,-0.000858215,1,-0.094989106,1,-0.712320626,1,0.15671356,1
1.199997663,-6.431093693,1,0.744745612,1,-7.360773563,1,0.001936757,1,-0.000851346,1,-0.003341788,1,-0.094973326,1,-0.712312937,1,0.156701639,1
1.203997135,-6.426118851,1,0.749546349,1,-7.369333267,1,0.000767559,1,0.00016471,1,-0.002473984,1,-0.094959237,1,-0.712312102,1,0.156684652,1
1.207998514,-6.449090958,1,0.741930664,1,-7.398273945,1,-0.003700057,1,-0.00307344,1,-0.001049437,1,-0.094948471,1,-0.712319493,1,0.15667285,1
1.211996198,-6.479685307,1,0.710281849,1,-7.350169659,1,0.000812203,1,-0.000239371,1,-0.001831776,1,-0.095054284,1,-0.712397873,1,0.156710088,1
1.216001749,-6.491562366,1,0.735514939,1,-7.344763279,1,-0.006030125,1,-0.002314211,1,0.001676526,1,-0.095045902,1,-0.712360978,1,0.156243891,1
1.220003366,-6.470818043,1,0.711900055,1,-7.375998497,1,-0.003058813,1,-0.001551354,1,-0.000258763,1,-0.095064439,1,-0.712372541,1,0.156248659,1
1.224001288,-6.481492996,1,0.7283746,1,-7.337016106,1,-0.002889446,1,0.00168582,1,0.002117089,1,-0.095074289,1,-0.712371767,1,0.156250492,1
1.228000998,-6.489803314,1,0.729792356,1,-7.348995209,1,-0.003037775,1,0.000721597,1,0.002951685,1,-0.095103189,1,-0.712363124,1,0.156265184,1
1.232002258,-6.489074707,1,0.764218509,1,-7.357652664,1,-0.001543441,1,0.002451357,1,0.001528678,1,-0.095124543,1,-0.712355435,1,0.15627186,1
1.235999942,-6.456272125,1,0.785847664,1,-7.348628521,1,-0.005961081,1,0.003093571,1,0.001605775,1,-0.095142804,1,-0.712354779,1,0.156276166,1
1.239999175,-6.454353333,1,0.759082556,1,-7.346530437,1,-0.00370017,1,-0.001878914,1,0.000158136,1,-0.095170945,1,-0.712349296,1,0.156283572,1
1.244000793,-6.467888832,1,0.769348383,1,-7.326137066,1,-0.006453475,1,0.002266662,1,0.004259742,1,-0.09520033,1,-0.712345123,1,0.156299114,1
1.247998476,-6.450183392,1,0.78351146,1,-7.343726635,1,-0.004716326,1,0.002132442,1,0.002978326,1,-0.095228769,1,-0.712346613,1,0.156303212,1
1.251998186,-6.424301147,1,0.830267966,1,-7.3121171,1,-0.003918291,1,0.001428604,1,0.004461885,1,-0.095258169,1,-0.712339818,1,0.156326294,1
1.255999804,-6.466772556,1,0.81336838,1,-7.303744316,1,-0.001689544,1,0.003404598,1,-0.002169049,1,-0.095267609,1,-0.71232897,1,0.156323537,1
1.259997129,-6.471981049,1,0.843629301,1,-7.276884556,1,0.003369577,1,-0.000332993,1,0.000616213,1,-0.095276073,1,-0.712317348,1,0.156327114,1
1.263996363,-6.449237347,1,0.864457428,1,-7.333810806,1,-0.002378954,1,-0.000326709,1,-0.005659337,1,-0.09527263,1,-0.712307692,1,0.156322464,1
1.267998219,-6.456464291,1,0.83464998,1,-7.327232838,1,0.003358953,1,0.005645944,1,-0.002312094,1,-0.095247082,1,-0.712285578,1,0.156299397,1
1.271995902,-6.475651264,1,0.81841445,1,-7.354958534,1,0.00608839,1,0.003635793,1,-0.002672059,1,-0.095219038,1,-0.712277055,1,0.156275779,1
1.275995612,-6.457974434,1,0.782431722,1,-7.393145084,1,0.003960003,1,0.006180984,1,-0.008028394,1,-0.095181338,1,-0.712254941,1,0.156252548,1
1.27999723,-6.450644016,1,0.753240287,1,-7.406082153,1,0.008730438,1,-0.000491679,1,-0.002737005,1,-0.095143937,1,-0.712248385,1,0.15621914,1
1.283994913,-6.449223995,1,0.753134429,1,-7.383926868,1,0.002671447,1,0.005383386,1,-0.001673409,1,-0.095103569,1,-0.712244153,1,0.156200528,1
1.287994385,-6.474876404,1,0.756651402,1,-7.382653713,1,0.003089012,1,0.001651451,1,-0.004959538,1,-0.095072389,1,-0.712239325,1,0.156171694,1
1.291995883,-6.456970215,1,0.730464041,1,-7.39200449,1,0.000997543,1,-0.003311225,1,-0.000722819,1,-0.095045686,1,-0.712242484,1,0.156150132,1
1.295993567,-6.441923141,1,0.735120237,1,-7.417126656,1,0.000939708,1,-0.002852096,1,-0.003292584,1,-0.095024027,1,-0.71224618,1,0.156135142,1
1.299993396,-6.454851627,1,0.735221267,1,-7.389735222,1,0.004363056,1,-0.004797095,1,-0.000921183,1,-0.095004201,1,-0.712260723,1,0.156126082,1
1.303994894,-6.442998886,1,0.738129556,1,-7.367417336,1,0.00347085,1,-0.004236216,1,-0.001119928,1,-0.094993368,1,-0.712276697,1,0.156125113,1
1.307992816,-6.458935738,1,0.695694983,1,-7.391217232,1,-0.004698319,1,-0.002890098,1,-0.005486936,1,-0.094993979,1,-0.7122944,1,0.156112522,1
1.311998487,-6.473341942,1,0.692525625,1,-7.35661602,1,-0.001798931,1,-0.006865665,1,0.003787875,1,-0.095000029,1,-0.712311029,1,0.156111628,1
1.316000223,-6.491911888,1,0.764947712,1,-7.388278008,1,-0.003038166,1,-0.001866683,1,-0.003322106,1,-0.095008582,1,-0.712321103,1,0.156113252,1
1.319998264,-6.458694458,1,0.760716677,1,-7.365903854,1,-0.003333308,1,-0.007352828,1,0.001760534,1,-0.095030151,1,-0.712339401,1,0.156120852,1
1.323997736,-6.436449528,1,0.764225662,1,-7.355110645,1,-0.005711205,1,-0.005675383,1,-0.000631403,1,-0.0950443,1,-0.712357938,1,0.156123698,1
1.327998996,-6.462323189,1,0.767858565,1,-7.37879467,1,-0.000813739,1,-0.005887398,1,-0.000215943,1,-0.095063776,1,-0.712382257,1,0.156135559,1
1.331996679,-6.48986721,1,0.804377079,1,-7.36529541,1,-0.0081376,1,-0.003058571,1,-0.00022169,1,-0.095081575,1,-0.712397218,1,0.156135663,1
1.335996151,-6.458940983,1,0.792157948,1,-7.348226547,1,-0.000445956,1,-0.006002128,1,0.001625469,1,-0.095091887,1,-0.712412596,1,0.156136438,1
1.339998007,-6.473273277,1,0.810928702,1,-7.308878422,1,-0.003900433,1,-0.007377919,1,0.000205391,1,-0.095112056,1,-0.712431848,1,0.156141639,1
1.34399569,-6.490853786,1,0.795917988,1,-7.313633442,1,-0.003170603,1,-0.003311254,1,-0.000272098,1,-0.095126741,1,-0.712442756,1,0.156149909,1
1.347994924,-6.458544254,1,0.833782673,1,-7.303518295,1,-0.003826881,1,-0.002526568,1,-0.003528929,1,-0.095125616,1,-0.71245873,1,0.15613839,1
1.35199666,-6.426865578,1,0.789716721,1,-7.339543819,1,-0.000342948,1,0.001400989,1,-0.000892689,1,-0.095129386,1,-0.712469935,1,0.156134561,1
1.355994582,-6.434939384,1,0.814151585,1,-7.290216446,1,-0.000539626,1,-0.002314775,1,-0.005378742,1,-0.095129438,1,-0.712476432,1,0.156127766,1
1.35999465,-6.465718269,1,0.855015337,1,-7.345365047,1,0.000947853,1,0.000354441,1,-0.003734811,1,-0.095115937,1,-0.712485492,1,0.15610528,1
1.363996148,-6.492622852,1,0.81701076,1,-7.328838825,1,0.006390772,1,-0.003908127,1,-0.004944234,1,-0.095084824,1,-0.712495148,1,0.156076148,1
1.367993832,-6.464200974,1,0.845915556,1,-7.320638657,1,0.007115048,1,0.000851459,1,-0.006015562,1,-0.095035501,1,-0.712505221,1,0.156046048,1
1.371993303,-6.440400124,1,0.831499517,1,-7.278324127,1,0.007636034,1,-0.001084614,1,-0.007846988,1,-0.094983451,1,-0.712510347,1,0.156004623,1
1.375994921,-6.486811638,1,0.825832009,1,-7.339980602,1,0.009253347,1,0.001967686,1,-0.010524718,1,-0.094920695,1,-0.712514758,1,0.155954525,1
1.379992366,-6.432080746,1,0.824490428,1,-7.337211609,1,0.009745991,1,-0.001395653,1,-0.008063104,1,-0.09484797,1,-0.712512732,1,0.155906036,1
1.383992314,-6.458978176,1,0.798117161,1,-7.356446266,1,0.011733415,1,0.001432214,1,-0.008989121,1,-0.094776779,1,-0.712509513,1,0.15585649,1
1.38799417,-6.442901611,1,0.797387481,1,-7.374743938,1,0.011818465,1,-0.001136217,1,-0.010826248,1,-0.094687134,1,-0.712520897,1,0.155792013,1
1.391992092,-6.494636059,1,0.73578316,1,-7.399544716,1,0.009243034,1,-0.004302818,1,-0.011036131,1,-0.09460932,1,-0.712530017,1,0.155740157,1
1.395991564,-6.460276604,1,0.715911746,1,-7.38307333,1,0.011390919,1,0.001189148,1,-0.010588723,1,-0.094528891,1,-0.71253562,1,0.15568462,1
1.399993062,-6.480377674,1,0.706500351,1,-7.357444286,1,0.007486564,1,-0.004954825,1,-0.008496713,1,-0.094447702,1,-0.712550461,1,0.155628815,1
1.403990746,-6.484738827,1,0.740279078,1,-7.34786129,1,0.011865344,1,-0.003339645,1,-0.010487711,1,-0.094378099,1,-0.712559581,1,0.155572027,1
1.407996416,-6.470555305,1,0.753163815,1,-7.335720062,1,0.0108562,1,-0.00179671,1,-0.011677848,1,-0.0942977,1,-0.712572813,1,0.155514181,1
1.411997914,-6.439662933,1,0.772838414,1,-7.355912209,1,0.006423886,1,-0.00150836,1,-0.008164866,1,-0.094226159,1,-0.712581277,1,0.155460253,1
1.415995598,-6.457944393,1,0.737514138,1,-7.347706318,1,0.011552114,1,-0.002224471,1,-0.00828464,1,-0.094171785,1,-0.712592721,1,0.155423,1
1.419995189,-6.455063343,1,0.772326291,1,-7.358344078,1,0.007311396,1,-0.000361345,1,-0.010925785,1,-0.094108813,1,-0.712602019,1,0.155374572,1
1.423996687,-6.437277317,1,0.778315902,1,-7.344982624,1,0.007400312,1,-0.002183557,1,-0.010938851,1,-0.094045714,1,-0.712610781,1,0.15532054,1
1.42799437,-6.482673168,1,0.800940096,1,-7.370848179,1,0.008363074,1,-0.002964039,1,-0.011096547,1,-0.093977429,1,-0.712621868,1,0.155267715,1
1.431993842,-6.474741459,1,0.803840101,1,-7.303706646,1,0.011890559,1,-0.00079361,1,-0.004479799,1,-0.093924634,1,-0.712631106,1,0.155229032,1
1.435995936,-6.463702202,1,0.793527424,1,-7.351906776,1,0.0064453,1,-4.35E-05,1,-0.011281675,1,-0.093857184,1,-0.712633729,1,0.155177951,1
1.439994097,-6.435090065,1,0.800062418,1,-7.34000206,1,0.010135012,1,-0.00164388,1,-0.009882087,1,-0.093781658,1,-0.712635756,1,0.155125141,1
1.443993568,-6.460342884,1,0.819722533,1,-7.359166622,1,0.010870589,1,0.002564827,1,-0.011712292,1,-0.093698502,1,-0.712643147,1,0.155072182,1
1.447995186,-6.456178665,1,0.780284107,1,-7.303577423,1,0.012994861,1,0.001884465,1,-0.009668514,1,-0.093611658,1,-0.712647855,1,0.155012995,1
1.451992631,-6.444356441,1,0.771749198,1,-7.324991226,1,0.012362344,1,-0.001112336,1,-0.013064303,1,-0.093526706,1,-0.712655306,1,0.154953048,1
1.455992341,-6.452717781,1,0.751420081,1,-7.342728615,1,0.012464646,1,0.001020304,1,-0.012138978,1,-0.093429133,1,-0.712658167,1,0.154886842,1
1.459993839,-6.459172249,1,0.774226487,1,-7.353360653,1,0.013825817,1,0.000449408,1,-0.008611319,1,-0.093337655,1,-0.712665439,1,0.154827982,1
1.463991523,-6.474031925,1,0.787872016,1,-7.360533714,1,0.011496996,1,-0.001377275,1,-0.012579996,1,-0.093374215,1,-0.712700009,1,0.15438059,1
1.467990994,-6.438770294,1,0.814428568,1,-7.345814228,1,0.013631187,1,-0.000538968,1,-0.007531504,1,-0.09329956,1,-0.712704062,1,0.154333815,1
1.471992612,-6.464106083,1,0.767023802,1,-7.321870327,1,0.015070042,1,-0.001544754,1,-0.009241518,1,-0.093202807,1,-0.71271044,1,0.154276758,1
1.475990295,-6.482906818,1,0.712981582,1,-7.31256485,1,0.012575839,1,0.002421241,1,-0.011528155,1,-0.093112282,1,-0.712711811,1,0.154226124,1
1.479989767,-6.453156471,1,0.674514055,1,-7.359654903,1,0.013720647,1,0.001017661,1,-0.007075759,1,-0.093028434,1,-0.712712169,1,0.154171988,1
1.483991265,-6.469424248,1,0.651672423,1,-7.365438938,1,0.009839458,1,-0.001341076,1,-0.009414416,1,-0.092948012,1,-0.712709904,1,0.154120654,1
1.487988949,-6.481102467,1,0.585018277,1,-7.360730648,1,0.007462027,1,0.002992039,1,-0.005598087,1,-0.092887588,1,-0.712705076,1,0.154085428,1
1.491988778,-6.468976498,1,0.596853793,1,-7.367138386,1,0.007344789,1,0.004017834,1,-0.002574585,1,-0.092838421,1,-0.712692797,1,0.154059321,1
1.495990038,-6.489818573,1,0.662113726,1,-7.377941132,1,0.003983019,1,0.003593294,1,-0.002811354,1,-0.092810579,1,-0.712680578,1,0.154042348,1
1.499987721,-6.482129574,1,0.669389307,1,-7.386446953,1,0.000716827,1,0.002074815,1,-0.002036315,1,-0.092793338,1,-0.712663174,1,0.154037684,1
1.50398767,-6.417129517,1,0.669549763,1,-7.345293999,1,0.001572984,1,0.005709183,1,-0.000321032,1,-0.092790961,1,-0.712653518,1,0.154034346,1
1.507995129,-6.520481586,1,0.708099902,1,-7.344511032,1,-0.002794776,1,0.004960897,1,0.001742918,1,-0.092793636,1,-0.712633908,1,0.15403375,1
1.511999011,-6.453540325,1,0.733869672,1,-7.306609154,1,-0.001866802,1,0.00324363,1,0.005792428,1,-0.092805594,1,-0.712617815,1,0.15405041,1
1.515998721,-6.471946239,1,0.801833689,1,-7.324807644,1,0.002061928,1,0.004142461,1,0.002863678,1,-0.092817023,1,-0.712592483,1,0.154066801,1
1.520000219,-6.476495266,1,0.824747443,1,-7.320120811,1,0.002208431,1,0.006097635,1,6.16E-05,1,-0.092817031,1,-0.712571681,1,0.154074818,1
1.523997903,-6.437663555,1,0.858191192,1,-7.349986076,1,0.001638613,1,0.004449553,1,-0.001527352,1,-0.092807926,1,-0.712551355,1,0.154075459,1
1.527997136,-6.459744453,1,0.804793894,1,-7.353804588,1,0.006736749,1,0.004986457,1,-0.003013134,1,-0.092777647,1,-0.712533116,1,0.154063106,1
1.531998754,-6.455661297,1,0.770096481,1,-7.330993176,1,0.008312252,1,0.003827425,1,-0.000908837,1,-0.092742994,1,-0.712514579,1,0.154049993,1
1.535996199,-6.449522495,1,0.765806735,1,-7.357497215,1,0.005970997,1,0.006127334,1,0.000763223,1,-0.092708088,1,-0.712500334,1,0.154041946,1
1.53999567,-6.42540741,1,0.746346474,1,-7.339355946,1,0.007364549,1,0.002192108,1,-0.002188651,1,-0.092674769,1,-0.71249342,1,0.154031456,1
1.543997169,-6.46490097,1,0.767716169,1,-7.347033024,1,0.008502823,1,-0.000117477,1,-0.002689156,1,-0.092636019,1,-0.712486386,1,0.154021487,1
1.547994614,-6.460170746,1,0.776249051,1,-7.336658001,1,0.010089369,1,0.003576483,1,-0.001082045,1,-0.092601515,1,-0.712479949,1,0.154009983,1
1.551994085,-6.440668583,1,0.76075238,1,-7.344923496,1,0.009801054,1,0.004402935,1,0.001185538,1,-0.092557922,1,-0.712469518,1,0.154006436,1
1.555995941,-6.473929882,1,0.732109785,1,-7.365464687,1,0.012214316,1,0.000671125,1,-0.006485377,1,-0.092511259,1,-0.712460577,1,0.15398787,1
1.559993625,-6.447257519,1,0.706558704,1,-7.39381218,1,0.008431558,1,0.002015329,1,-0.002407557,1,-0.092452556,1,-0.712459147,1,0.153967887,1
1.563993335,-6.433859825,1,0.744988143,1,-7.369466782,1,0.010476506,1,-0.003407026,1,-0.00383745,1,-0.092408277,1,-0.712460518,1,0.153955519,1
1.567994833,-6.469241142,1,0.691190839,1,-7.360593319,1,0.012465893,1,0.00111199,1,-0.004839933,1,-0.0923554,1,-0.712473869,1,0.153943509,1
1.571992517,-6.427927971,1,0.729195595,1,-7.346125603,1,0.00844544,1,0.000858928,1,-0.002505425,1,-0.092298158,1,-0.712471962,1,0.153921559,1
1.575992346,-6.485732079,1,0.735060275,1,-7.334620953,1,0.008434618,1,-0.000481491,1,-0.001583156,1,-0.092260636,1,-0.712460935,1,0.153922558,1
1.579993844,-6.51760149,1,0.75726676,1,-7.32166338,1,0.008394619,1,-2.82E-05,1,0.000637875,1,-0.092227101,1,-0.712469935,1,0.15392077,1
1.583991528,-6.490983486,1,0.77274549,1,-7.301085472,1,0.0087995,1,0.00431041,1,-0.001879349,1,-0.092187919,1,-0.712465763,1,0.153917715,1
1.587991238,-6.492001057,1,0.77737087,1,-7.30892086,1,0.013651637,1,0.006932773,1,0.000597328,1,-0.092139229,1,-0.712444007,1,0.153906435,1
1.591993093,-6.508605957,1,0.793750584,1,-7.327578068,1,0.012277446,1,0.005845833,1,-0.001012733,1,-0.092087753,1,-0.712421238,1,0.153905228,1
1.595991015,-6.480233669,1,0.760368884,1,-7.316696644,1,0.011611819,1,0.002294515,1,0.00290679,1,-0.092033081,1,-0.712399006,1,0.153896198,1
1.599990487,-6.482513905,1,0.710627735,1,-7.34114933,1,0.015541444,1,0.006823545,1,-0.004409391,1,-0.091978021,1,-0.712373018,1,0.153892472,1
1.603997946,-6.456651211,1,0.682400703,1,-7.327661037,1,0.010452506,1,0.008928373,1,0.001775869,1,-0.091917031,1,-0.712339044,1,0.153878346,1
1.608001828,-6.472187996,1,0.716666222,1,-7.331919193,1,0.011642705,1,0.011469118,1,0.00137722,1,-0.091869652,1,-0.712303281,1,0.153869271,1
1.612001538,-6.482792854,1,0.764170408,1,-7.3517313,1,0.009701605,1,0.01091842,1,0.001099959,1,-0.09183564,1,-0.712257147,1,0.15388307,1
1.616003633,-6.439956188,1,0.817156315,1,-7.356080055,1,0.011686183,1,0.006537846,1,0.000254581,1,-0.091783211,1,-0.712228775,1,0.153873861,1
1.620001793,-6.475445747,1,0.805901647,1,-7.334494591,1,0.012664165,1,0.010232306,1,-0.000335483,1,-0.091730773,1,-0.712186158,1,0.153869122,1
1.624001741,-6.461865902,1,0.854238868,1,-7.345314503,1,0.018985869,1,0.011318802,1,-0.003898583,1,-0.091655374,1,-0.712147534,1,0.153849706,1
1.628003597,-6.474850178,1,0.827955186,1,-7.352882385,1,0.014245186,1,0.005839009,1,-0.004266395,1,-0.091585167,1,-0.712111413,1,0.153835967,1
1.632001281,-6.45697546,1,0.771572351,1,-7.359983444,1,0.018466301,1,0.00942957,1,-0.005976751,1,-0.091502018,1,-0.712074697,1,0.153801307,1
1.636000752,-6.473061085,1,0.747205198,1,-7.324919701,1,0.019576149,1,0.008305846,1,-0.003896229,1,-0.091396041,1,-0.712037146,1,0.153769374,1
1.640002251,-6.416711807,1,0.790549994,1,-7.401983738,1,0.021363443,1,0.004622988,1,-0.010615057,1,-0.091286339,1,-0.712009132,1,0.153732419,1
1.644000053,-6.41934824,1,0.779206157,1,-7.384374142,1,0.019314731,1,0.00925028,1,-0.002714248,1,-0.091181152,1,-0.711984158,1,0.153702661,1
1.647999525,-6.463003159,1,0.796677947,1,-7.372209549,1,0.024452407,1,0.008163562,1,-0.007893657,1,-0.091068007,1,-0.711956322,1,0.153669745,1
1.652001023,-6.457917213,1,0.772920787,1,-7.360994339,1,0.020311987,1,0.003891247,1,-0.007186223,1,-0.090935558,1,-0.711924911,1,0.15361549,1
1.655998468,-6.505334854,1,0.770355701,1,-7.350803852,1,0.02215476,1,0.01023854,1,-0.009595095,1,-0.090815946,1,-0.711902499,1,0.153561056,1
1.65999794,-6.438259125,1,0.78575021,1,-7.380779266,1,0.022262555,1,0.010056311,1,-0.004627983,1,-0.09068878,1,-0.711878777,1,0.153516307,1
1.663999438,-6.449904919,1,0.772671044,1,-7.35464859,1,0.027279846,1,0.007560949,1,-0.008930742,1,-0.090560049,1,-0.711848736,1,0.153476208,1
1.667997241,-6.444719315,1,0.748565078,1,-7.350477219,1,0.024917671,1,0.008286528,1,-0.012105818,1,-0.090412624,1,-0.711815953,1,0.153412983,1
1.671996951,-6.48865509,1,0.737092793,1,-7.358402252,1,0.025863212,1,0.01014496,1,-0.010824354,1,-0.090270564,1,-0.711790085,1,0.153355569,1
1.675998449,-6.451379299,1,0.742519081,1,-7.319007874,1,0.025380731,1,0.005005885,1,-0.008601317,1,-0.090119816,1,-0.711756766,1,0.153293803,1
1.679995894,-6.500066757,1,0.736107349,1,-7.343267441,1,0.024815172,1,0.011535347,1,-0.012637028,1,-0.089972764,1,-0.711723983,1,0.153229982,1
1.683995366,-6.435423851,1,0.742568851,1,-7.30148077,1,0.032061432,1,0.009863493,1,-0.009073783,1,-0.089823417,1,-0.71168679,1,0.153171688,1
1.687997222,-6.447792053,1,0.760590911,1,-7.305577278,1,0.024783328,1,0.009767304,1,-0.007060302,1,-0.089676045,1,-0.711650252,1,0.153122514,1
1.691995382,-6.429964066,1,0.778413415,1,-7.330188751,1,0.03080824,1,0.011198546,1,-0.009822872,1,-0.089520954,1,-0.711613297,1,0.153058067,1
1.695995092,-6.458099842,1,0.806284308,1,-7.346729755,1,0.032121632,1,0.013866798,1,-0.01259343,1,-0.089356191,1,-0.711569309,1,0.152990356,1
1.69999671,-6.407182217,1,0.813865364,1,-7.329476357,1,0.038189881,1,0.010545624,1,-0.008824586,1,-0.089167759,1,-0.711528778,1,0.152921885,1
1.704000235,-6.43150568,1,0.817941844,1,-7.326372147,1,0.035139289,1,0.010244555,1,-0.017643716,1,-0.088978112,1,-0.711485267,1,0.152843893,1
1.707999706,-6.446837902,1,0.796800196,1,-7.329116821,1,0.036266956,1,0.015016679,1,-0.019467836,1,-0.088773832,1,-0.711443484,1,0.152753875,1
1.712001324,-6.445577145,1,0.770398736,1,-7.361643314,1,0.03863309,1,0.011570847,1,-0.015423637,1,-0.088692486,1,-0.711469591,1,0.152722344,1
1.715999007,-6.435191154,1,0.770670056,1,-7.345800877,1,0.039290294,1,0.013133122,1,-0.017472586,1,-0.088458605,1,-0.711386263,1,0.152166516,1
1.719998479,-6.451096535,1,0.707977712,1,-7.367492676,1,0.042410105,1,0.012293986,1,-0.01893146,1,-0.088217571,1,-0.71134007,1,0.152062058,1
1.724000216,-6.426855564,1,0.701578379,1,-7.365983486,1,0.038859047,1,0.017144259,1,-0.020328505,1,-0.088001877,1,-0.711283326,1,0.151968136,1
1.727997899,-6.432945251,1,0.693626106,1,-7.375168324,1,0.041420881,1,0.013112462,1,-0.014049873,1,-0.087763511,1,-0.711237967,1,0.151862293,1
1.73199749,-6.459575176,1,0.650437653,1,-7.393684387,1,0.034729864,1,0.016912859,1,-0.014423108,1,-0.087549925,1,-0.711186886,1,0.151773289,1
1.735998988,-6.440696239,1,0.622978866,1,-7.336816311,1,0.035197947,1,0.01285057,1,-0.01418509,1,-0.087345041,1,-0.711131692,1,0.151690915,1
1.739996433,-6.489928246,1,0.604066968,1,-7.342233658,1,0.031187525,1,0.011457928,1,-0.007134176,1,-0.087160662,1,-0.711080313,1,0.151621684,1
1.743995667,-6.466960907,1,0.605136216,1,-7.342514038,1,0.028261909,1,0.014637545,1,-0.005857549,1,-0.087008543,1,-0.711030841,1,0.151584342,1
1.747997165,-6.440577507,1,0.598614275,1,-7.396317482,1,0.029011345,1,0.014648801,1,-0.005122758,1,-0.086862713,1,-0.710971773,1,0.151545063,1
1.751994848,-6.458072186,1,0.68028599,1,-7.364118576,1,0.027860029,1,0.015119893,1,-0.002306706,1,-0.086724848,1,-0.710910976,1,0.151510999,1
1.755995154,-6.467373848,1,0.617072344,1,-7.36237812,1,0.026317852,1,0.016132252,1,-0.00212706,1,-0.08660692,1,-0.710848868,1,0.151494741,1
1.759997129,-6.476842403,1,0.618752718,1,-7.387255192,1,0.023349082,1,0.018072458,1,0.001669033,1,-0.086491197,1,-0.710783601,1,0.151481926,1
1.763995409,-6.462547779,1,0.585732758,1,-7.403535366,1,0.022200326,1,0.013481337,1,0.002873139,1,-0.086394832,1,-0.710719347,1,0.151474714,1
1.767995119,-6.435760975,1,0.585123062,1,-7.415443897,1,0.021321081,1,0.015564505,1,0.001155596,1,-0.086308904,1,-0.710660219,1,0.151481599,1
1.771996617,-6.457685947,1,0.65365684,1,-7.389614582,1,0.016139075,1,0.013117193,1,0.001894512,1,-0.086241357,1,-0.710596323,1,0.151487768,1
1.775994062,-6.411653042,1,0.68125385,1,-7.399490356,1,0.012082903,1,0.012444705,1,0.003516692,1,-0.086180858,1,-0.710547805,1,0.15150556,1
1.779993653,-6.462500095,1,0.727196574,1,-7.38445282,1,0.017757101,1,0.010855382,1,0.002638115,1,-0.086128458,1,-0.710499406,1,0.151520148,1
1.783994913,-6.477714062,1,0.635243058,1,-7.400055885,1,0.012918039,1,0.009842531,1,0.006450696,1,-0.086082272,1,-0.710450411,1,0.151548609,1
1.787992597,-6.409182549,1,0.624549091,1,-7.408618927,1,0.016783599,1,0.006737521,1,0.003336853,1,-0.086037703,1,-0.710409224,1,0.151569381,1
1.791992307,-6.416483879,1,0.610664785,1,-7.416645527,1,0.010172091,1,0.011453796,1,0.002659231,1,-0.085999474,1,-0.710375249,1,0.151595652,1
1.795993567,-6.442369938,1,0.640223265,1,-7.427913189,1,0.00802488,1,0.005487735,1,0.007177691,1,-0.085981622,1,-0.71034646,1,0.151635617,1
1.799997449,-6.472518444,1,0.604086637,1,-7.39935112,1,0.007584564,1,0.008992665,1,0.011127785,1,-0.085973002,1,-0.710319519,1,0.151680216,1
1.803997159,-6.44986105,1,0.632760286,1,-7.420008183,1,0.004240775,1,-0.000126033,1,0.006368117,1,-0.085986935,1,-0.710302353,1,0.151736334,1
1.807998419,-6.404892445,1,0.679965436,1,-7.414294243,1,0.005412579,1,0.001380138,1,0.011751791,1,-0.085985757,1,-0.710285544,1,0.151784688,1
1.811996102,-6.42932272,1,0.649178267,1,-7.351611614,1,0.008651803,1,0.001971551,1,0.00963841,1,-0.086011417,1,-0.710271001,1,0.151854232,1
1.815995336,-6.444442749,1,0.630396485,1,-7.368025303,1,0.003344504,1,0.001914112,1,0.015806993,1,-0.086029753,1,-0.710272908,1,0.151915252,1
1.819997668,-6.414798737,1,0.655695498,1,-7.366065979,1,0.000686529,1,0.002445508,1,0.014425641,1,-0.086068265,1,-0.710265875,1,0.15199481,1
1.823996186,-6.426259041,1,0.692819178,1,-7.411704063,1,0.009418234,1,-0.004261445,1,0.016825989,1,-0.086092807,1,-0.710263014,1,0.152074084,1
1.827995658,-6.424182892,1,0.730603874,1,-7.405032635,1,0.006088059,1,-0.000689496,1,0.01422306,1,-0.086123981,1,-0.710267901,1,0.152159616,1
1.831997156,-6.402900219,1,0.757374823,1,-7.384263039,1,0.002402367,1,-0.008926831,1,0.017475946,1,-0.08616095,1,-0.710278988,1,0.152240902,1
1.83599484,-6.456149101,1,0.696097016,1,-7.35656023,1,0.006820695,1,0.003830489,1,0.016210584,1,-0.086200386,1,-0.710285068,1,0.152327284,1
1.839994669,-6.45837307,1,0.611938894,1,-7.33289957,1,0.0049195,1,-0.003365213,1,0.015041383,1,-0.086225338,1,-0.710290074,1,0.152408376,1
1.843996167,-6.448412895,1,0.612835944,1,-7.368174553,1,0.004772136,1,-0.000344952,1,0.019100491,1,-0.086263642,1,-0.710288525,1,0.152497947,1
1.847993851,-6.416475296,1,0.612320304,1,-7.403151512,1,0.001088817,1,-0.000944902,1,0.021189328,1,-0.086327121,1,-0.710284233,1,0.152601629,1
1.851993322,-6.492589951,1,0.565577507,1,-7.402452469,1,-0.004348342,1,-0.005324241,1,0.02413201,1,-0.086408883,1,-0.71028161,1,0.15272373,1
1.855994821,-6.433027744,1,0.583030462,1,-7.378183842,1,-0.002949437,1,-0.003110359,1,0.030873936,1,-0.086518921,1,-0.7102862,1,0.15287149,1
1.859992623,-6.476687431,1,0.570444763,1,-7.352293968,1,-0.010141046,1,-8.85E-06,1,0.030404855,1,-0.086650193,1,-0.710276484,1,0.153019875,1
1.863992333,-6.435921192,1,0.544719577,1,-7.354686737,1,-0.014204316,1,-0.003459215,1,0.035399899,1,-0.086813182,1,-0.710275412,1,0.153195962,1
1.867993832,-6.452205181,1,0.56749922,1,-7.352374554,1,-0.016880944,1,0.000832286,1,0.041387968,1,-0.087003507,1,-0.710262895,1,0.153397292,1
1.871991754,-6.483146191,1,0.544954062,1,-7.370436668,1,-0.020604931,1,0.002329248,1,0.04238366,1,-0.087221645,1,-0.710242033,1,0.153612286,1
1.875991344,-6.449516773,1,0.613872945,1,-7.384889603,1,-0.024179947,1,0.006479068,1,0.042711575,1,-0.087455451,1,-0.710213959,1,0.153841272,1
1.879992843,-6.449765205,1,0.652176023,1,-7.404605865,1,-0.026893863,1,0.004226501,1,0.045479596,1,-0.087699838,1,-0.71017158,1,0.154072195,1
1.883990765,-6.473422527,1,0.734629333,1,-7.413341522,1,-0.024480877,1,-0.002908224,1,0.045458272,1,-0.087954149,1,-0.710144043,1,0.154310063,1
1.887990236,-6.4207201,1,0.731608331,1,-7.417455673,1,-0.026268668,1,0.00505444,1,0.046907756,1,-0.088215008,1,-0.710118055,1,0.154547468,1
1.891991854,-6.474514484,1,0.723150611,1,-7.368943214,1,-0.028016627,1,-0.000337438,1,0.0420934,1,-0.088476561,1,-0.710089862,1,0.154781297,1
1.895995378,-6.457087517,1,0.668468058,1,-7.370810509,1,-0.027787121,1,0.004155609,1,0.04694036,1,-0.08874023,1,-0.710064352,1,0.15501371,1
1.89999485,-6.475326061,1,0.647841334,1,-7.359100819,1,-0.026978234,1,0.000312361,1,0.041214481,1,-0.088996209,1,-0.710044563,1,0.155237898,1
1.903996468,-6.438448429,1,0.714133084,1,-7.426650047,1,-0.026215233,1,0.000675191,1,0.042683922,1,-0.089252166,1,-0.710020661,1,0.155464664,1
1.907993913,-6.414596081,1,0.773829877,1,-7.381919861,1,-0.030965848,1,0.001692647,1,0.042141818,1,-0.089512639,1,-0.709998548,1,0.155693397,1
1.911993623,-6.410029888,1,0.771819353,1,-7.405414581,1,-0.024194706,1,2.74E-06,1,0.039403722,1,-0.089774728,1,-0.709975362,1,0.155919239,1
1.915995121,-6.389593124,1,0.797612846,1,-7.419885159,1,-0.027941655,1,-0.000416472,1,0.040717967,1,-0.090025507,1,-0.709966719,1,0.15613623,1
1.919992805,-6.418807983,1,0.764826715,1,-7.374384403,1,-0.02409609,1,-0.001603815,1,0.033004399,1,-0.090260468,1,-0.709962666,1,0.156337723,1
1.923992276,-6.449956417,1,0.685347617,1,-7.389939308,1,-0.026669132,1,-0.003014449,1,0.040614601,1,-0.09049084,1,-0.70995903,1,0.156535745,1
1.927993894,-6.434104919,1,0.7290892,1,-7.399744987,1,-0.025261367,1,-0.009839558,1,0.03722043,1,-0.090721011,1,-0.709974408,1,0.156736195,1
1.931991577,-6.419919014,1,0.784167469,1,-7.463647366,1,-0.022351122,1,-0.007562441,1,0.034874413,1,-0.090940855,1,-0.709992528,1,0.156930104,1
1.935991287,-6.354168892,1,0.840747833,1,-7.436663628,1,-0.02196189,1,-0.012720292,1,0.031821024,1,-0.091153122,1,-0.710022688,1,0.157119989,1
1.939993143,-6.395439625,1,0.829070687,1,-7.48298502,1,-0.022752449,1,-0.019080514,1,0.036340728,1,-0.091363735,1,-0.71007216,1,0.157306865,1
1.943991065,-6.392008781,1,0.859226584,1,-7.439706326,1,-0.020529699,1,-0.022266453,1,0.029915676,1,-0.09157443,1,-0.710140526,1,0.157486543,1
1.947990537,-6.415066719,1,0.764653265,1,-7.460868359,1,-0.023118598,1,-0.024860272,1,0.026847959,1,-0.09176024,1,-0.710224748,1,0.157640517,1
1.951992035,-6.402047634,1,0.831931651,1,-7.478231907,1,-0.017725706,1,-0.033158511,1,0.02328014,1,-0.091947176,1,-0.710324585,1,0.157791391,1
1.95598948,-6.389194489,1,0.801682413,1,-7.473186493,1,-0.019357644,1,-0.033342417,1,0.022274684,1,-0.092112847,1,-0.710456908,1,0.157931834,1
1.959988952,-6.379498005,1,0.953794658,1,-7.530787468,1,-0.01890084,1,-0.04538475,1,0.013825985,1,-0.092274122,1,-0.710603714,1,0.158058658,1
1.963990808,-6.377595425,1,0.904278994,1,-7.564237595,1,-0.014723378,1,-0.045218963,1,0.023291476,1,-0.092453815,1,-0.710780323,1,0.157745078,1
1.967988968,-6.339245796,1,0.99469322,1,-7.52155304,1,-0.018632943,1,-0.051723741,1,0.010985618,1,-0.092591375,1,-0.710973382,1,0.157861307,1
1.971988678,-6.413111687,1,1.000600219,1,-7.506447315,1,-0.009469933,1,-0.058137592,1,0.006713029,1,-0.092681378,1,-0.711194396,1,0.157928243,1
1.975990295,-6.403401852,1,0.85449636,1,-7.481349468,1,-0.008676026,1,-0.06249192,1,0.004821162,1,-0.092757702,1,-0.711438417,1,0.157983139,1
1.979987979,-6.430067539,1,0.856282711,1,-7.558385849,1,-0.002496147,1,-0.075107202,1,0.000535891,1,-0.092812747,1,-0.71170795,1,0.158026889,1
1.983987451,-6.361361027,1,0.936006725,1,-7.49843359,1,-0.001086744,1,-0.076661587,1,-0.002464459,1,-0.092842378,1,-0.712009549,1,0.158045575,1
1.98798871,-6.388556004,1,0.903437376,1,-7.580693245,1,0.001195627,1,-0.086901903,1,-0.008364594,1,-0.092853159,1,-0.712329984,1,0.158057824,1
1.991986394,-6.462692261,1,0.893113613,1,-7.607743263,1,0.001207631,1,-0.089837246,1,-0.012268107,1,-0.092846036,1,-0.712685108,1,0.158048868,1
1.995992303,-6.505954742,1,0.812795222,1,-7.558473587,1,-0.000801018,1,-0.095949844,1,-0.016423289,1,-0.092817336,1,-0.713069201,1,0.158011392,1
1.999994397,-6.564473629,1,0.756342173,1,-7.538061142,1,-0.001746183,1,-0.098076455,1,-0.021233609,1,-0.092790663,1,-0.713475943,1,0.157968476,1
2.003992558,-6.601273537,1,0.610965133,1,-7.592092514,1,-0.002195416,1,-0.104848169,1,-0.01744719,1,-0.092752375,1,-0.713889122,1,0.157905787,1
2.007992029,-6.584396362,1,0.558705449,1,-7.622126579,1,-0.011864679,1,-0.108953349,1,-0.023124561,1,-0.092744984,1,-0.714323163,1,0.15785031,1
2.011993647,-6.616978645,1,0.404980659,1,-7.610537052,1,-0.022964185,1,-0.112744071,1,-0.015274238,1,-0.092785485,1,-0.71477282,1,0.157802492,1
2.015991211,-6.583111286,1,0.488213122,1,-7.662339211,1,-0.034473658,1,-0.114346988,1,-0.014129894,1,-0.092882685,1,-0.715227544,1,0.15777421,1
2.019990921,-6.628486156,1,0.285702616,1,-7.708550453,1,-0.046527281,1,-0.120634608,1,-0.012622656,1,-0.093039788,1,-0.715702355,1,0.15776369,1
2.023992777,-6.572006226,1,0.256466419,1,-7.827058792,1,-0.066180013,1,-0.126047507,1,-0.005081903,1,-0.093281053,1,-0.716183484,1,0.1577847,1
2.02799058,-6.56381321,1,0.060940798,1,-7.974116802,1,-0.080777146,1,-0.131644055,1,0.006158991,1,-0.093623281,1,-0.716687262,1,0.157837883,1
2.03199029,-6.623137474,1,0.124457866,1,-7.951858997,1,-0.102498822,1,-0.150457963,1,0.00802674,1,-0.094061643,1,-0.717258692,1,0.157951996,1
2.035991907,-6.459722042,1,-0.002970316,1,-8.267642021,1,-0.104214348,1,-0.173023984,1,0.022627262,1,-0.094584525,1,-0.717888474,1,0.158107296,1
2.039989471,-6.097907543,1,0.187205687,1,-8.462615013,1,-0.113317296,1,-0.199264705,1,0.030675026,1,-0.095181599,1,-0.718621373,1,0.158332199,1
2.043988943,-6.254310131,1,0.277654827,1,-8.775635719,1,-0.149925813,1,-0.252295047,1,0.026004529,1,-0.095876895,1,-0.719512522,1,0.158592969,1
2.047990561,-5.892190456,1,0.509438097,1,-9.527832985,1,-0.143167496,1,-0.355073571,1,0.028356997,1,-0.09665212,1,-0.72069782,1,0.15889208,1
2.051987886,-5.850928783,1,-0.191915974,1,-9.662487984,1,-0.191982612,1,-0.464424223,1,0.032988291,1,-0.097550504,1,-0.722319841,1,0.159243613,1
2.055987358,-5.152942181,1,-0.454171062,1,-10.52900314,1,-0.12811698,1,-0.648690999,1,0.083014406,1,-0.098593362,1,-0.724493623,1,0.159813762,1
2.059989214,-5.390766144,1,-0.965549827,1,-10.28476524,1,-0.064009018,1,-0.830532074,1,0.160295606,1,-0.099677265,1,-0.727398872,1,0.160854965,1
2.063987494,-5.229532242,1,-1.850248337,1,-11.36359692,1,0.045435742,1,-1.039641261,1,0.268548846,1,-0.100794472,1,-0.731005132,1,0.162469119,1
2.067986965,-5.102949142,1,-1.654170632,1,-11.95586586,1,0.17972438,1,-1.317488432,1,0.389162004,1,-0.101962902,1,-0.735561252,1,0.16488193,1
2.071988106,-5.019900799,1,-1.041057467,1,-11.98883438,1,0.190848038,1,-1.55354929,1,0.420579433,1,-0.103224449,1,-0.741114974,1,0.167899832,1
2.075985909,-6.521673679,1,-0.348525375,1,-12.03643036,1,0.242387608,1,-1.702498913,1,0.378884494,1,-0.104480192,1,-0.747463048,1,0.171014771,1
2.07998538,-7.934148788,1,0.439175338,1,-10.40758896,1,0.2364133,1,-1.602792501,1,0.280939132,1,-0.105424359,1,-0.753951371,1,0.173773989,1
2.083986998,-8.094749451,1,0.567233741,1,-12.11834335,1,0.243783429,1,-1.509198666,1,0.19521445,1,-0.105919421,1,-0.760007739,1,0.175939053,1
2.087984562,-8.461728096,1,0.102108903,1,-12.91868496,1,0.166795149,1,-1.528623819,1,0.151073202,1,-0.106354587,1,-0.765962601,1,0.177809164,1
2.091990232,-7.763838291,1,-1.193662882,1,-12.27682209,1,0.056793787,1,-1.491163135,1,0.178675622,1,-0.107146829,1,-0.771906793,1,0.179590628,1
2.095992088,-8.721056938,1,-1.101443052,1,-13.01218796,1,0.048616238,1,-1.486128807,1,0.232162282,1,-0.108352676,1,-0.777732015,1,0.181610137,1
2.099990129,-9.852203369,1,-1.529477954,1,-12.06085777,1,-0.08060427,1,-1.522209167,1,0.305438846,1,-0.110080823,1,-0.783599019,1,0.184048787,1
2.103989363,-9.835001945,1,-1.134304762,1,-12.09967709,1,-0.221017286,1,-1.563855886,1,0.362982631,1,-0.112717979,1,-0.789578557,1,0.186882973,1
2.107990742,-11.86384869,1,-0.327302575,1,-11.66363811,1,-0.356880128,1,-1.588697195,1,0.423212886,1,-0.116210759,1,-0.795665741,1,0.190177709,1
2.111988544,-14.11267853,1,-0.640471101,1,-11.5114069,1,-0.487785876,1,-1.546940565,1,0.467604667,1,-0.120447963,1,-0.801706731,1,0.193756685,1
2.115988016,-13.89929867,1,-1.14207983,1,-11.22340965,1,-0.664072096,1,-1.427089572,1,0.507615268,1,-0.125519499,1,-0.807400405,1,0.197618455,1
2.119989395,-18.0015583,1,-0.916686594,1,-12.30864334,1,-0.816409588,1,-1.243541598,1,0.502247989,1,-0.131345719,1,-0.812450588,1,0.201530218,1
2.123986959,-18.71076775,1,-1.658987045,1,-12.73425961,1,-0.916612506,1,-0.937039196,1,0.555170894,1,-0.137627274,1,-0.816532254,1,0.205419049,1
2.127986908,-16.36426353,1,-1.796667218,1,-14.19498348,1,-1.075192928,1,-0.567331851,1,0.574257553,1,-0.144444272,1,-0.819181025,1,0.209315777,1
2.131988525,-13.20740604,1,-1.191377521,1,-14.61458874,1,-1.178685188,1,-0.276328385,1,0.607232034,1,-0.15173237,1,-0.820473075,1,0.213087842,1
2.13598609,-9.604722023,1,-0.30244571,1,-13.92499828,1,-1.217998028,1,-0.110888317,1,0.634302497,1,-0.159311131,1,-0.820844293,1,0.216851041,1
2.139985561,-5.569550991,1,-0.221909463,1,-14.24586391,1,-1.211069942,1,-0.130115822,1,0.706165969,1,-0.167075545,1,-0.820850968,1,0.220819831,1
2.143987417,-3.299578667,1,-0.313289016,1,-13.78605556,1,-1.103534102,1,-0.191065595,1,0.806429327,1,-0.17502366,1,-0.820957124,1,0.225348085,1
2.147985458,-2.088935852,1,-0.053716809,1,-13.82414246,1,-0.971849263,1,-0.33007443,1,0.912573934,1,-0.183002457,1,-0.821362376,1,0.230591446,1
2.15198493,-1.50909102,1,-0.199914977,1,-13.49666977,1,-0.830641448,1,-0.459247738,1,1.013942242,1,-0.190994084,1,-0.822212696,1,0.236586124,1
2.155986547,-1.276408195,1,-0.470685363,1,-13.12037182,1,-0.669698238,1,-0.545930743,1,1.112766981,1,-0.19892405,1,-0.823382914,1,0.243307084,1
2.15998435,-0.336775929,1,-1.495384336,1,-13.41553307,1,-0.593053341,1,-0.637471259,1,1.179332018,1,-0.206808656,1,-0.8247962,1,0.250632465,1
2.163983822,-1.041688681,1,-2.189802408,1,-13.4474659,1,-0.547289908,1,-0.630065501,1,1.258179903,1,-0.214813754,1,-0.826272368,1,0.258445442,1
2.167985201,-1.556130528,1,-2.487806559,1,-13.76939678,1,-0.544598043,1,-0.583727777,1,1.324293971,1,-0.223036528,1,-0.827519059,1,0.266666919,1
2.171982765,-1.684205055,1,-2.724403858,1,-13.61770916,1,-0.562392771,1,-0.488224626,1,1.37789619,1,-0.23151648,1,-0.828406811,1,0.275166929,1
2.175982237,-0.319917917,1,-2.782338381,1,-14.19531441,1,-0.579807103,1,-0.382757217,1,1.410238504,1,-0.240153253,1,-0.828723192,1,0.283792853,1
2.179983616,-0.370286524,1,-2.342548847,1,-13.44376945,1,-0.581776559,1,-0.280076206,1,1.419035792,1,-0.248837665,1,-0.828654766,1,0.29239738,1
2.183981419,0.043070458,1,-1.872571111,1,-13.38192368,1,-0.531668663,1,-0.156685859,1,1.418549776,1,-0.2573044,1,-0.828073025,1,0.300868392,1
2.187986851,1.435942292,1,-1.671849132,1,-13.90037632,1,-0.457306981,1,-0.042292845,1,1.395727992,1,-0.265334308,1,-0.826946139,1,0.309074998,1
2.191988707,1.521879196,1,-1.541692853,1,-13.2536602,1,-0.372079283,1,0.042874135,1,1.36166203,1,-0.272775233,1,-0.825506926,1,0.316911787,1
2.195986509,2.134611845,1,-1.640531778,1,-13.18388081,1,-0.261618137,1,0.121335946,1,1.319497943,1,-0.279524177,1,-0.823729992,1,0.324376643,1
2.199985981,2.817998886,1,-1.772573113,1,-12.97020531,1,-0.16171281,1,0.184102505,1,1.268708229,1,-0.285534501,1,-0.821698904,1,0.331423968,1
2.20398736,2.698877335,1,-2.139435053,1,-12.46389484,1,-0.053326838,1,0.269602835,1,1.221597791,1,-0.290821552,1,-0.819433093,1,0.338061333,1
2.207984924,3.394050837,1,-2.031718016,1,-12.83357906,1,0.019471234,1,0.275966078,1,1.126068354,1,-0.295325041,1,-0.817054391,1,0.344177604,1
2.211984396,3.061974049,1,-2.155383587,1,-12.54404259,1,0.096097663,1,0.346578896,1,1.032000065,1,-0.299105644,1,-0.814604759,1,0.349679291,1
2.215986013,2.716782331,1,-1.973870993,1,-12.38847733,1,0.158648029,1,0.434794873,1,0.920997322,1,-0.302049398,1,-0.811919332,1,0.35403344,1
2.219983339,2.687908173,1,-2.304448366,1,-11.90585899,1,0.238100603,1,0.499552429,1,0.833772123,1,-0.304179192,1,-0.809093714,1,0.358066529,1
2.223982811,2.175522804,1,-2.279050589,1,-11.94365215,1,0.298621237,1,0.609839201,1,0.741135597,1,-0.30555284,1,-0.806032479,1,0.361462593,1
2.227984428,1.830504537,1,-2.297013283,1,-11.86161518,1,0.344736993,1,0.748710692,1,0.64320004,1,-0.306169003,1,-0.802603781,1,0.364093602,1
2.231981754,1.892282724,1,-2.071292877,1,-11.80579662,1,0.403612316,1,0.891046822,1,0.534445107,1,-0.305974841,1,-0.798764288,1,0.365909457,1
2.235981226,2.001918554,1,-1.790449142,1,-11.68601799,1,0.470633388,1,1.02120769,1,0.421615988,1,-0.304905295,1,-0.794536412,1,0.366864353,1
2.239983082,1.474993467,1,-1.628837585,1,-11.36016941,1,0.541756809,1,1.160996556,1,0.331541181,1,-0.303001195,1,-0.78993398,1,0.367039353,1
2.243981123,2.78826952,1,-1.237613201,1,-11.95014191,1,0.614781439,1,1.256008983,1,0.198668256,1,-0.300243586,1,-0.784943461,1,0.366449773,1
2.247980833,2.302718639,1,-1.453564048,1,-11.15050983,1,0.672831059,1,1.356531262,1,0.089536391,1,-0.296702921,1,-0.779774368,1,0.36505872,1
2.25198245,2.403872013,1,-1.35352385,1,-11.16587162,1,0.725771546,1,1.446822286,1,-0.01514088,1,-0.292411894,1,-0.774374962,1,0.362960815,1
2.255980015,2.414875984,1,-1.319378734,1,-10.96246433,1,0.781810939,1,1.52729094,1,-0.117995605,1,-0.287486047,1,-0.768742919,1,0.360230684,1
2.259979486,2.441975117,1,-1.193232656,1,-10.83259392,1,0.834433198,1,1.599391699,1,-0.205773786,1,-0.281964719,1,-0.762925029,1,0.356929719,1
2.263981104,2.348214626,1,-1.025228739,1,-10.62247944,1,0.868937731,1,1.661597371,1,-0.297638863,1,-0.275925756,1,-0.756922364,1,0.353104234,1
2.267978668,2.202352524,1,-0.921497881,1,-10.47924328,1,0.906727672,1,1.725133657,1,-0.377282649,1,-0.269429862,1,-0.750761986,1,0.348810613,1
2.27197814,2.0338099,1,-0.742604613,1,-10.37677097,1,0.931743562,1,1.77560544,1,-0.459064692,1,-0.26254034,1,-0.744436085,1,0.344103336,1
2.275979996,1.722486615,1,-0.556021392,1,-10.26698208,1,0.953726828,1,1.835379362,1,-0.537240744,1,-0.255323142,1,-0.737967432,1,0.338989139,1
2.279978275,1.321404457,1,-0.416493654,1,-10.16072083,1,0.957922459,1,1.891340375,1,-0.612248838,1,-0.247813493,1,-0.731316566,1,0.333488464,1
2.283977509,0.816569865,1,-0.324023068,1,-10.09017086,1,0.965211749,1,1.962548852,1,-0.674268842,1,-0.240081534,1,-0.72446394,1,0.32764411,1
2.287985086,0.326967686,1,-0.32710743,1,-10.06239414,1,0.969009042,1,2.038576126,1,-0.724423051,1,-0.232174516,1,-0.71733737,1,0.321525961,1
2.29198885,-0.132239133,1,-0.257121474,1,-10.03621197,1,0.978358805,1,2.126327991,1,-0.766351819,1,-0.224128842,1,-0.709899485,1,0.315193117,1
2.29598856,-0.480658859,1,0.019218022,1,-9.93632412,1,0.983049333,1,2.211177826,1,-0.796831191,1,-0.216000959,1,-0.702112854,1,0.308694959,1
2.299989939,-0.733220458,1,0.118540369,1,-9.874908447,1,0.990564167,1,2.297082663,1,-0.811143339,1,-0.207814649,1,-0.69397366,1,0.302108228,1
2.303987741,-0.899573028,1,0.281546831,1,-9.810526848,1,1.010189891,1,2.376928568,1,-0.826788902,1,-0.199604169,1,-0.685480237,1,0.29549098,1
2.307987213,-1.010526776,1,0.603943169,1,-9.718353271,1,1.025904894,1,2.449404478,1,-0.828439891,1,-0.191384509,1,-0.676656127,1,0.288888842,1
2.311988831,-1.022439957,1,0.843818009,1,-9.615587234,1,1.047413349,1,2.501232862,1,-0.835323572,1,-0.183164895,1,-0.667550325,1,0.282344669,1
2.315986395,-1.112819433,1,1.001226783,1,-9.511336327,1,1.074709892,1,2.543548584,1,-0.834537745,1,-0.174946904,1,-0.658204734,1,0.275887042,1
2.319985867,-1.175771356,1,1.151958823,1,-9.426671028,1,1.102501869,1,2.581418991,1,-0.825108409,1,-0.166734695,1,-0.648667634,1,0.269551158,1
2.323987484,-1.243307471,1,1.191316128,1,-9.340252876,1,1.128565192,1,2.59928894,1,-0.825039089,1,-0.158568248,1,-0.638976455,1,0.263378084,1
2.32798481,-1.389422059,1,1.21020484,1,-9.231088638,1,1.14246428,1,2.607372999,1,-0.811487675,1,-0.150457233,1,-0.629178762,1,0.257364839,1
2.331984997,-1.5570575,1,1.245131016,1,-9.106651306,1,1.161642432,1,2.613974333,1,-0.795643985,1,-0.142456338,1,-0.619315982,1,0.25157249,1
2.335986376,-1.770871878,1,1.286485314,1,-9.05546093,1,1.179730415,1,2.603996038,1,-0.77506882,1,-0.134552851,1,-0.609411895,1,0.245994389,1
2.33998394,-2.02641964,1,1.320642591,1,-8.948345184,1,1.205857277,1,2.594926834,1,-0.755721807,1,-0.126749516,1,-0.599498868,1,0.240658626,1
2.343983412,-2.317887783,1,1.383562088,1,-8.879816055,1,1.231748939,1,2.57538867,1,-0.727271438,1,-0.119037725,1,-0.589593649,1,0.235578954,1
2.347984791,-2.667581558,1,1.517731428,1,-8.84873867,1,1.265459299,1,2.563667774,1,-0.703102946,1,-0.111386195,1,-0.57971251,1,0.230757222,1
2.351982832,-3.136981726,1,1.706910729,1,-8.771518707,1,1.293620825,1,2.548535109,1,-0.681973755,1,-0.10377299,1,-0.569841385,1,0.226169154,1
2.355982304,-3.64691329,1,1.655259252,1,-8.719949722,1,1.331936955,1,2.551184893,1,-0.664337456,1,-0.096168101,1,-0.559964836,1,0.221786752,1
2.359983683,-4.016409397,1,1.645009637,1,-8.676247597,1,1.36101222,1,2.552060843,1,-0.642488956,1,-0.088587619,1,-0.550054073,1,0.217614666,1
2.363981247,-4.33591938,1,1.777708888,1,-8.720032692,1,1.380948663,1,2.551706314,1,-0.628889799,1,-0.081039898,1,-0.540098488,1,0.21363458,1
2.367980719,-4.519386768,1,1.830928922,1,-8.735183716,1,1.401410222,1,2.55038166,1,-0.611368835,1,-0.073538013,1,-0.530120313,1,0.209827766,1
2.371982098,-4.583861351,1,2.050726891,1,-8.755207062,1,1.426172137,1,2.534855127,1,-0.595758379,1,-0.066082381,1,-0.520140111,1,0.206216156,1
2.375979662,-4.627529621,1,2.127615213,1,-8.743330002,1,1.441715121,1,2.50942874,1,-0.5784989,1,-0.058667067,1,-0.510221183,1,0.202799663,1
2.379978895,-4.644905567,1,2.074614763,1,-8.752922058,1,1.457727551,1,2.471069813,1,-0.561976492,1,-0.051299732,1,-0.500398457,1,0.199569926,1
2.383986712,-4.676552773,1,2.011549473,1,-8.685476303,1,1.472153425,1,2.426216841,1,-0.528717995,1,-0.0440077,1,-0.490713358,1,0.196556911,1
2.387990236,-4.634389877,1,1.966843486,1,-8.713513374,1,1.480386972,1,2.36784935,1,-0.492496938,1,-0.036824122,1,-0.481219441,1,0.193804458,1
2.391989946,-4.651538849,1,1.952929258,1,-8.707792282,1,1.481675148,1,2.300431728,1,-0.454882652,1,-0.029756937,1,-0.471956581,1,0.191320166,1
2.395991564,-4.645062447,1,2.003532171,1,-8.787506104,1,1.48603034,1,2.218430042,1,-0.41152966,1,-0.022821659,1,-0.462969363,1,0.189122289,1
2.39998889,-4.796114922,1,1.971434951,1,-8.881962776,1,1.489010334,1,2.141820192,1,-0.363286287,1,-0.016023817,1,-0.454285055,1,0.187210634,1
2.403988123,-5.264810085,1,1.962460756,1,-9.036834717,1,1.490565538,1,2.056462526,1,-0.31910339,1,-0.00935019,1,-0.445911378,1,0.185577542,1
2.40798974,-6.059853554,1,1.967796445,1,-9.120113373,1,1.492711782,1,1.99448514,1,-0.284283876,1,-0.002781424,1,-0.437811226,1,0.184193239,1
2.411987543,-7.122618198,1,2.110120535,1,-9.263543129,1,1.489468694,1,1.950539112,1,-0.259487718,1,0.003693138,1,-0.429922402,1,0.182996348,1
2.415987253,-8.165958405,1,2.263685465,1,-9.291337013,1,1.483237624,1,1.937162519,1,-0.253796726,1,0.010078845,1,-0.422136694,1,0.181927338,1
2.419989109,-9.212216377,1,2.456902742,1,-9.137237549,1,1.46995914,1,1.962953568,1,-0.25669089,1,0.016394617,1,-0.414343417,1,0.180925325,1
2.423986673,-10.07287312,1,2.677980423,1,-9.068532944,1,1.439779043,1,2.021974325,1,-0.284602076,1,0.022612801,1,-0.406361252,1,0.17991367,1
2.427986145,-10.53992271,1,2.755764246,1,-8.990124702,1,1.411172032,1,2.112575769,1,-0.324939221,1,0.028745197,1,-0.398066044,1,0.178818136,1
2.431987762,-10.58729935,1,2.81019783,1,-8.87598896,1,1.379384518,1,2.200084448,1,-0.372476041,1,0.034790464,1,-0.38940841,1,0.177611709,1
2.435985088,-10.32302761,1,2.968119621,1,-8.684894562,1,1.35247314,1,2.284903765,1,-0.422277153,1,0.04076482,1,-0.380385637,1,0.176261023,1
2.43998456,-9.892591476,1,3.154803514,1,-8.392516136,1,1.326510072,1,2.343013763,1,-0.473580658,1,0.046658482,1,-0.371062636,1,0.174775258,1
2.443986177,-9.297139168,1,3.260397911,1,-8.156042099,1,1.306065917,1,2.374445677,1,-0.523286521,1,0.052509487,1,-0.361529112,1,0.17313467,1
2.44798398,-8.661099434,1,3.192224503,1,-7.922152519,1,1.295102715,1,2.384457827,1,-0.570254147,1,0.058327161,1,-0.351891756,1,0.171356976,1
2.451983452,-8.066185951,1,2.845469952,1,-7.646878719,1,1.288036227,1,2.362814665,1,-0.591709375,1,0.064119726,1,-0.342268169,1,0.169509694,1
2.455984831,-7.684707642,1,2.581490517,1,-7.435481548,1,1.273902774,1,2.316570282,1,-0.604432762,1,0.069866829,1,-0.332766294,1,0.167637154,1
2.459982872,-7.49490118,1,2.373143435,1,-7.258667946,1,1.248346686,1,2.247734308,1,-0.602058232,1,0.075511239,1,-0.323483944,1,0.165795356,1
2.463982344,-7.571043491,1,2.104045391,1,-6.976617336,1,1.211525917,1,2.17385006,1,-0.582950294,1,0.080901012,1,-0.314401299,1,0.163654283,1
2.467983723,-7.722424984,1,1.988647699,1,-6.66620779,1,1.167665243,1,2.106334448,1,-0.56319952,1,0.086162396,1,-0.305674225,1,0.16200009,1
2.471981287,-7.647978306,1,2.106548071,1,-6.843851089,1,1.118987679,1,2.039560795,1,-0.539356828,1,0.091189817,1,-0.297222018,1,0.160474628,1
2.475980759,-7.682141781,1,2.156665564,1,-6.792919636,1,1.072024226,1,1.962545872,1,-0.52283591,1,0.095988862,1,-0.289057791,1,0.159053311,1
2.479982376,-8.019312859,1,2.113744974,1,-6.771486759,1,1.008787394,1,1.89026475,1,-0.502768934,1,0.100524418,1,-0.281181633,1,0.157713026,1
2.483985901,-8.26445961,1,2.144625902,1,-6.705502987,1,0.931135893,1,1.826771617,1,-0.495886356,1,0.104751661,1,-0.273578048,1,0.156437472,1
2.487985373,-8.469709396,1,2.092932463,1,-6.497738838,1,0.849370599,1,1.765177727,1,-0.482328534,1,0.108637601,1,-0.266228378,1,0.155218527,1
2.49198699,-8.649077415,1,2.096653461,1,-6.309029579,1,0.774157166,1,1.705402613,1,-0.467425197,1,0.112195373,1,-0.259121656,1,0.154045641,1
2.495984316,-8.685153961,1,2.100390434,1,-6.064387798,1,0.697234035,1,1.639243484,1,-0.462312341,1,0.11542359,1,-0.2522659,1,0.152915448,1
2.499983549,-8.527499199,1,2.189284563,1,-5.745549679,1,0.634809732,1,1.565646648,1,-0.450193256,1,0.118352979,1,-0.245679945,1,0.1518213,1
2.503985167,-8.344827652,1,2.202396393,1,-5.375249386,1,0.577644467,1,1.474088192,1,-0.43661204,1,0.121024013,1,-0.239429623,1,0.15075621,1
2.507982492,-8.084554672,1,2.394411802,1,-5.119214058,1,0.538975596,1,1.370348573,1,-0.423674911,1,0.12349996,1,-0.233562171,1,0.149717554,1
2.511982679,-7.785843372,1,2.595078945,1,-4.902848244,1,0.507570028,1,1.252869725,1,-0.424185902,1,0.125833213,1,-0.22814779,1,0.148663804,1
2.515984058,-7.639141083,1,2.662560225,1,-4.732185841,1,0.479290873,1,1.114830613,1,-0.416541636,1,0.128050625,1,-0.223246068,1,0.147573546,1
2.519981623,-7.71694231,1,2.554965258,1,-4.586741447,1,0.462511718,1,0.977976382,1,-0.40327993,1,0.130190372,1,-0.218881592,1,0.146456063,1
2.523981094,-7.976621151,1,2.467296124,1,-4.487587452,1,0.443962693,1,0.850545645,1,-0.391108364,1,0.132250935,1,-0.215047136,1,0.145332873,1
2.527982473,-8.417811394,1,2.341274977,1,-4.351736069,1,0.42333746,1,0.734788179,1,-0.385224491,1,0.134225711,1,-0.211705714,1,0.144186884,1
2.531980038,-9.064602852,1,2.315965414,1,-4.240132332,1,0.373510629,1,0.641952276,1,-0.385775477,1,0.136070594,1,-0.208775416,1,0.143011183,1
2.535979509,-9.691004753,1,2.278620005,1,-4.103158474,1,0.316547245,1,0.584069669,1,-0.397563726,1,0.137710884,1,-0.2061349,1,0.141780764,1
2.539981127,-10.14237976,1,2.10327363,1,-3.991673946,1,0.232670024,1,0.558074653,1,-0.40786165,1,0.139079943,1,-0.203659534,1,0.140467346,1
2.54397893,-10.31450844,1,1.930724382,1,-4.023187637,1,0.136937767,1,0.543025196,1,-0.430010527,1,0.140101194,1,-0.201252505,1,0.139089897,1
2.547978401,-10.18580437,1,1.940029383,1,-4.103055477,1,0.033513464,1,0.536840737,1,-0.454740047,1,0.14073275,1,-0.198862642,1,0.137612477,1
2.55197978,-9.763121605,1,2.007014036,1,-4.144296169,1,-0.070034616,1,0.519972205,1,-0.490261853,1,0.140973866,1,-0.196496397,1,0.136006072,1
2.555977106,-9.253768921,1,2.068268299,1,-4.165449619,1,-0.175715163,1,0.491212189,1,-0.534927845,1,0.140828326,1,-0.194213256,1,0.134224668,1
2.559976816,-8.632113457,1,2.067712069,1,-4.203477859,1,-0.276007622,1,0.43847698,1,-0.576578736,1,0.140300989,1,-0.192059517,1,0.132249519,1
2.563978195,-8.022251129,1,1.819688082,1,-4.133736134,1,-0.377386391,1,0.368943095,1,-0.617558241,1,0.13941668,1,-0.190122426,1,0.130061314,1
2.567976236,-7.512731552,1,1.389034271,1,-4.11549139,1,-0.477751791,1,0.276318729,1,-0.643511176,1,0.138149142,1,-0.188491032,1,0.12769188,1
2.571975946,-7.132962227,1,1.030259848,1,-4.056202888,1,-0.581060648,1,0.174244121,1,-0.661558151,1,0.136504248,1,-0.187240258,1,0.125178784,1
2.575977564,-6.885032654,1,0.687777936,1,-4.118007183,1,-0.682010055,1,0.065696329,1,-0.667446136,1,0.134458676,1,-0.186404809,1,0.122551009,1
2.579981089,-6.830221176,1,0.555115163,1,-4.138294697,1,-0.776182652,1,-0.04368256,1,-0.670897484,1,0.132030115,1,-0.18600361,1,0.119853117,1
2.58398056,-6.822291374,1,0.558524013,1,-4.259523869,1,-0.858442068,1,-0.159237921,1,-0.667497277,1,0.129265457,1,-0.186057076,1,0.117097013,1
2.587982178,-6.890504837,1,0.670993984,1,-4.362904549,1,-0.909810126,1,-0.260542303,1,-0.667274535,1,0.126245484,1,-0.186541647,1,0.114296556,1
2.591979504,-6.945179462,1,0.755979419,1,-4.481134892,1,-0.951059103,1,-0.354747653,1,-0.673262596,1,0.123051248,1,-0.187433571,1,0.111430809,1
2.595978737,-6.950025558,1,0.725610018,1,-4.641162872,1,-0.967452824,1,-0.438870072,1,-0.675780892,1,0.119764812,1,-0.188704014,1,0.108504005,1
2.599980593,-7.025807381,1,0.66340965,1,-4.846021652,1,-0.98131758,1,-0.521855116,1,-0.677461028,1,0.116427533,1,-0.190302745,1,0.105532683,1
2.603978395,-7.180592537,1,0.630031526,1,-5.030290127,1,-0.985243559,1,-0.587306499,1,-0.671124995,1,0.113063969,1,-0.192199498,1,0.10253416,1
2.607977867,-7.299974918,1,0.537593186,1,-5.113159657,1,-0.991418123,1,-0.647569835,1,-0.669992745,1,0.109692536,1,-0.19435212,1,0.099540599,1
2.611979485,-7.354937553,1,0.36938265,1,-5.215661526,1,-0.982067287,1,-0.691800892,1,-0.65817374,1,0.106324732,1,-0.196728453,1,0.096551202,1
2.615977049,-7.351302624,1,0.11385183,1,-5.273348331,1,-0.985855818,1,-0.734732866,1,-0.641291559,1,0.102957815,1,-0.199297935,1,0.093618415,1
2.619976759,-7.284132004,1,-0.124075823,1,-5.301077843,1,-0.98977375,1,-0.783182561,1,-0.617107928,1,0.099581659,1,-0.202063307,1,0.090751417,1
2.623978138,-7.460074425,1,-0.293857485,1,-5.307278156,1,-0.985008657,1,-0.827357769,1,-0.585520387,1,0.096198864,1,-0.205036059,1,0.087980717,1
2.627975702,-7.848833084,1,-0.47305876,1,-5.232973576,1,-0.977033019,1,-0.868722379,1,-0.55150497,1,0.092810452,1,-0.208206967,1,0.085334875,1
2.631975174,-8.454846382,1,-0.580453336,1,-5.163316727,1,-0.963243365,1,-0.899757028,1,-0.517392695,1,0.089443117,1,-0.211536124,1,0.082831994,1
2.635976791,-9.127111435,1,-0.646536171,1,-5.015459538,1,-0.939320982,1,-0.916542053,1,-0.487374723,1,0.086138129,1,-0.214981809,1,0.08045508,1
2.639974356,-9.771990776,1,-0.754912853,1,-4.831830025,1,-0.915170252,1,-0.920052648,1,-0.463203996,1,0.082926273,1,-0.21848537,1,0.078199781,1
2.643973827,-10.36196518,1,-0.956518829,1,-4.563420296,1,-0.880603135,1,-0.913166881,1,-0.43392846,1,0.079809256,1,-0.221997306,1,0.076059058,1
2.647975206,-10.71404552,1,-1.211082458,1,-4.335649014,1,-0.844703436,1,-0.904669881,1,-0.416700929,1,0.076798648,1,-0.225490019,1,0.07402695,1
2.651972532,-10.96576309,1,-1.341082811,1,-4.056708813,1,-0.806706667,1,-0.895034909,1,-0.392626405,1,0.073927447,1,-0.228949636,1,0.072089165,1
2.655972719,-11.04621792,1,-1.263558984,1,-3.872247934,1,-0.758788288,1,-0.896766722,1,-0.379089832,1,0.071201324,1,-0.232406765,1,0.070228331,1
2.659974098,13.12410831,1,2.586875916,1,-22.84542656,1,0.977646112,1,-1.538740516,1,0.095995978,1,0.071113728,1,-0.236770034,1,0.069217496,1
2.663972139,4.060097694,1,4.525414944,1,-12.87050343,1,1.189046383,1,-2.053975821,1,-0.15761143,1,0.076587953,1,-0.244389579,1,0.068763345,1
2.667971611,-4.785000801,1,-2.492577553,1,-12.7204237,1,-0.176212311,1,-1.42693007,1,-0.344439238,1,0.078766763,1,-0.25138852,1,0.067009725,1
2.671973467,8.792276382,1,-12.42827225,1,-17.13614273,1,-0.036923893,1,-1.346326709,1,-0.256203324,1,0.078530684,1,-0.256557167,1,0.065328114,1
2.675976753,6.805389404,1,-16.3617115,1,-17.02175903,1,-0.363329411,1,-1.563084006,1,0.01575651,1,0.078277849,1,-0.262409121,1,0.064312279,1
2.679975986,6.566093445,1,-13.9046011,1,-17.72607422,1,-0.914844632,1,-1.729478955,1,0.324802071,1,0.075553887,1,-0.268963397,1,0.064512014,1
2.683977365,4.061335564,1,-9.052864075,1,-14.94460106,1,-1.240312219,1,-2.030726433,1,0.51213789,1,0.070945129,1,-0.276592106,1,0.065729886,1
2.68797493,3.063343525,1,-3.752368927,1,-12.82797623,1,-1.390490532,1,-2.31739068,1,0.575515985,1,0.065092832,1,-0.28539151,1,0.067391105,1
2.69197464,2.258572578,1,1.137972593,1,-12.81285286,1,-1.315323234,1,-2.665791035,1,0.43794471,1,0.059316151,1,-0.295496285,1,0.068928428,1
2.695976257,-2.263571501,1,2.464025021,1,-12.63514614,1,-1.412439942,1,-2.933319569,1,0.182725817,1,0.053657904,1,-0.306758314,1,0.069562748,1
2.699973583,-7.80910778,1,2.065068245,1,-11.24152088,1,-1.486284375,1,-3.059786797,1,-0.039785512,1,0.047947578,1,-0.318779886,1,0.069188043,1
2.703973293,-10.90456676,1,2.345851183,1,-9.713253021,1,-1.417497873,1,-3.060158014,1,-0.153627798,1,0.042424791,1,-0.331008583,1,0.068175524,1
2.707974911,-12.3375845,1,3.744349003,1,-8.937864304,1,-1.295848966,1,-2.990862608,1,-0.220196038,1,0.037431911,1,-0.343071878,1,0.06685932,1
2.711972237,-12.42799282,1,5.28567791,1,-8.848755836,1,-1.157076478,1,-2.894450903,1,-0.252543956,1,0.033021349,1,-0.354802966,1,0.065403841,1
2.715971947,-11.257164,1,6.600649834,1,-9.579691887,1,-0.965324581,1,-2.841024399,1,-0.255284876,1,0.029270174,1,-0.366173595,1,0.063808784,1
2.719973803,-9.43860054,1,8.235952377,1,-10.58978271,1,-0.665590942,1,-2.864276886,1,-0.220717996,1,0.026496826,1,-0.377536863,1,0.062437475,1
2.723971844,-7.991719723,1,8.992534637,1,-12.58368301,1,-0.439412564,1,-2.925329924,1,-0.221732691,1,0.024828881,1,-0.389062345,1,0.061173983,1
2.727971315,-10.17377758,1,8.848155022,1,-11.33663082,1,-0.27782166,1,-2.889042377,1,-0.158707544,1,0.023818659,1,-0.400722951,1,0.06002542,1
2.731972933,-9.765358925,1,8.313897133,1,-10.58890057,1,-0.028423194,1,-2.778119802,1,-0.039499179,1,0.023496931,1,-0.412038624,1,0.059296045,1
2.735970736,-9.423804283,1,7.610583305,1,-9.914421082,1,0.154862285,1,-2.68659544,1,0.077082701,1,0.023842188,1,-0.42296645,1,0.059103973,1
2.739970207,-9.228975296,1,6.701360226,1,-9.426567078,1,0.323692471,1,-2.620480299,1,0.169961333,1,0.024690824,1,-0.433586061,1,0.059377536,1
2.743971586,-8.586046219,1,4.953657627,1,-9.565177917,1,0.399741024,1,-2.552629232,1,0.199583516,1,0.025945555,1,-0.443953812,1,0.059922919,1
2.747969389,-8.994008064,1,2.838769436,1,-9.092172623,1,0.456832737,1,-2.486063242,1,0.229494706,1,0.027355434,1,-0.454058707,1,0.06057867,1
2.751968861,-9.83314991,1,1.459551811,1,-8.636029243,1,0.532272398,1,-2.390412092,1,0.208754897,1,0.029040825,1,-0.463853538,1,0.061273508,1
2.75597024,-9.860882759,1,-0.255095273,1,-8.104709625,1,0.549164236,1,-2.259212017,1,0.143281907,1,0.030995563,1,-0.473174483,1,0.061750792,1
2.759968281,-9.233868599,1,-2.121342421,1,-8.451468468,1,0.517620564,1,-2.140482426,1,0.064164102,1,0.033096958,1,-0.481967866,1,0.061905876,1
2.763967514,-8.611061096,1,-4.085427761,1,-8.43372345,1,0.429159045,1,-2.088774204,1,0.044728316,1,0.035011534,1,-0.490423888,1,0.061818626,1
2.76796937,-7.294394493,1,-4.832015991,1,-8.224611282,1,0.36632967,1,-2.05284977,1,0.000779955,1,0.036724035,1,-0.498719394,1,0.061593384,1
2.771966934,-5.856796265,1,-4.965603828,1,-8.133050919,1,0.25824669,1,-2.037108421,1,-0.050578363,1,0.038195472,1,-0.50688231,1,0.061126929,1
2.775972605,-5.372416973,1,-4.810371399,1,-8.697476387,1,0.123717211,1,-2.050416231,1,-0.108878307,1,0.039324988,1,-0.515029907,1,0.060399085,1
2.779974461,-6.256751537,1,-5.516152859,1,-8.738414764,1,-0.050332498,1,-2.07440567,1,-0.078676172,1,0.039866649,1,-0.523259878,1,0.059546083,1
2.783972025,-6.730854988,1,-4.837273598,1,-7.991067886,1,-0.149827793,1,-2.042421341,1,-0.05473429,1,0.039804995,1,-0.531511366,1,0.058851343,1
2.787971258,-6.707025528,1,-2.886759996,1,-8.143104553,1,-0.193635821,1,-1.996906281,1,-0.020576578,1,0.039378572,1,-0.539563596,1,0.058323897,1
2.791972876,-7.98927784,1,-2.544808149,1,-8.729307175,1,-0.311050087,1,-1.968757749,1,0.017507929,1,0.038598701,1,-0.547472656,1,0.057915643,1
2.795970201,-8.585584641,1,-2.09875679,1,-8.027748108,1,-0.349479228,1,-1.925382376,1,0.109495096,1,0.037272256,1,-0.555274308,1,0.05787681,1
2.799969673,-8.356844902,1,-1.557958484,1,-8.224882126,1,-0.378142983,1,-1.826338291,1,0.161950752,1,0.035692107,1,-0.562796414,1,0.058184326,1
2.803971529,-8.911355972,1,-1.322799683,1,-8.237169266,1,-0.435743093,1,-1.785437584,1,0.247705042,1,0.033683073,1,-0.570042312,1,0.05886066,1
2.80796957,-8.68996048,1,-1.128990173,1,-7.970960617,1,-0.431439579,1,-1.70342648,1,0.305748492,1,0.031364594,1,-0.57705164,1,0.059905343,1
2.811969757,-8.490604401,1,-1.413868785,1,-8.426010132,1,-0.472394973,1,-1.631309867,1,0.335338175,1,0.028874502,1,-0.583755374,1,0.061202321,1
2.815971375,-9.320144653,1,-2.133446455,1,-8.215883255,1,-0.520327091,1,-1.565460086,1,0.369785637,1,0.026038084,1,-0.590176225,1,0.062695593,1
2.8199687,-8.997134209,1,-2.527311087,1,-7.722614765,1,-0.572186768,1,-1.480146885,1,0.374947309,1,0.022952212,1,-0.596314073,1,0.064310536,1
2.823968172,-7.754488468,1,-2.827235699,1,-7.708745003,1,-0.638393223,1,-1.415254116,1,0.39403832,1,0.019573731,1,-0.602120221,1,0.066011012,1
2.827969551,-6.916420937,1,-2.861105919,1,-7.801922321,1,-0.712830424,1,-1.407563329,1,0.43887341,1,0.015785325,1,-0.607781827,1,0.06790182,1
2.831967115,-6.581413269,1,-2.546737909,1,-7.739605904,1,-0.776259005,1,-1.394066691,1,0.496056527,1,0.011542241,1,-0.613410592,1,0.070102021,1
2.835966825,-6.438808918,1,-2.137722492,1,-8.006713867,1,-0.848029017,1,-1.381634831,1,0.557393014,1,0.006837434,1,-0.618980765,1,0.07261879,1
2.839968204,-7.693265915,1,-2.091516018,1,-8.048910141,1,-0.918343842,1,-1.344792366,1,0.607113481,1,0.00165341,1,-0.624454319,1,0.075466841,1
2.843966007,-8.277206421,1,-1.531895638,1,-7.528311729,1,-0.980645657,1,-1.276623607,1,0.65044111,1,-0.003975289,1,-0.629696667,1,0.078570716,1
2.847965479,-7.490890026,1,-1.217344761,1,-7.378968239,1,-1.020078301,1,-1.206209183,1,0.668559849,1,-0.009930095,1,-0.634635746,1,0.081887953,1
2.851966858,-6.721429825,1,-0.815764427,1,-7.485010147,1,-1.056286454,1,-1.18196249,1,0.684622765,1,-0.016136441,1,-0.639358759,1,0.08532422,1
2.855964661,-6.57180357,1,0.212572023,1,-7.672761917,1,-1.063876271,1,-1.194137573,1,0.68532747,1,-0.022503788,1,-0.644053876,1,0.088884406,1
2.859963894,-6.737278938,1,0.36408025,1,-7.928427696,1,-1.081096768,1,-1.158021092,1,0.667584777,1,-0.028929135,1,-0.648697555,1,0.092428975,1
2.863965511,-7.639884472,1,0.799390793,1,-7.84164238,1,-1.090610981,1,-1.10513413,1,0.666431785,1,-0.035428818,1,-0.653134823,1,0.095949613,1
2.867963076,-7.762273312,1,1.735569119,1,-8.106548309,1,-1.077725172,1,-1.045093656,1,0.662349582,1,-0.041934155,1,-0.657332122,1,0.099523559,1
2.871968746,-10.15521145,1,2.815757513,1,-8.052725792,1,-1.067224264,1,-0.927010238,1,0.614790082,1,-0.048341569,1,-0.661178946,1,0.102959715,1
2.87597084,-8.087351799,1,3.467489004,1,-7.629860401,1,-1.00108707,1,-0.829188704,1,0.608253956,1,-0.054532208,1,-0.664530158,1,0.106295303,1
2.879968882,-7.644920349,1,3.554181337,1,-7.856483936,1,-0.93522954,1,-0.768189669,1,0.567620099,1,-0.060403947,1,-0.667572975,1,0.109515861,1
2.883968115,-6.572478771,1,3.063225985,1,-7.720215321,1,-0.877640545,1,-0.741773069,1,0.530382514,1,-0.06592115,1,-0.670449555,1,0.112561181,1
2.887969494,-8.362394333,1,2.804882765,1,-8.316374779,1,-0.82703954,1,-0.672427416,1,0.461406767,1,-0.071059652,1,-0.67315948,1,0.115350343,1
2.891967058,-8.471395493,1,2.652092457,1,-7.588542461,1,-0.774371445,1,-0.592727959,1,0.425009429,1,-0.07581874,1,-0.675543547,1,0.117825374,1
2.895967007,-7.328374386,1,2.221568346,1,-7.558619976,1,-0.713329613,1,-0.554040015,1,0.386123389,1,-0.080220573,1,-0.677683949,1,0.120130189,1
2.899968863,-6.303107262,1,1.479434967,1,-7.60737133,1,-0.668868363,1,-0.558442652,1,0.357374579,1,-0.084335655,1,-0.679765761,1,0.122266836,1
2.903966665,-6.694529533,1,1.788281202,1,-7.845213413,1,-0.640400529,1,-0.536582887,1,0.318866402,1,-0.088201903,1,-0.681828976,1,0.124253139,1
2.907966137,-6.667022705,1,1.732833266,1,-7.932065487,1,-0.61446023,1,-0.518203914,1,0.296139091,1,-0.091854706,1,-0.683822393,1,0.126066402,1
2.911967754,-6.174820423,1,1.916533947,1,-7.819358826,1,-0.575122595,1,-0.521346867,1,0.26964274,1,-0.095329277,1,-0.68577975,1,0.127786219,1
2.91596508,-8.295300484,1,3.19649601,1,-7.305445194,1,-0.522247255,1,-0.478118569,1,0.250921428,1,-0.098559693,1,-0.687689006,1,0.129393667,1
2.91996479,-7.020196438,1,2.87642765,1,-7.209457397,1,-0.480137885,1,-0.453369945,1,0.215789527,1,-0.101460017,1,-0.689440787,1,0.130827606,1
2.923965931,-6.068389416,1,2.053858042,1,-7.768420696,1,-0.422222644,1,-0.461900532,1,0.187368676,1,-0.104076177,1,-0.691161633,1,0.132123411,1
2.927963734,-7.090189457,1,1.902772665,1,-7.454442978,1,-0.397755384,1,-0.435570806,1,0.169263035,1,-0.10645742,1,-0.692898929,1,0.133284509,1
2.931963205,-5.691355228,1,1.436647177,1,-8.158747673,1,-0.374348044,1,-0.429166973,1,0.153935894,1,-0.108696036,1,-0.694483995,1,0.134383634,1
2.935964346,-6.881405354,1,1.000469327,1,-7.226410389,1,-0.371266574,1,-0.423917413,1,0.142185211,1,-0.110833533,1,-0.696153998,1,0.135388076,1
2.93996191,-6.874348164,1,0.912082911,1,-6.922674179,1,-0.356230736,1,-0.361649603,1,0.145270169,1,-0.112924658,1,-0.697650194,1,0.136370137,1
2.943961382,-7.110607624,1,1.393236995,1,-7.144760609,1,-0.361439407,1,-0.397729695,1,0.111449905,1,-0.114925615,1,-0.699138403,1,0.137259185,1
2.947962761,-7.887011051,1,1.454829931,1,-6.737662315,1,-0.335368037,1,-0.335275978,1,0.129813522,1,-0.11687097,1,-0.700557768,1,0.138085842,1
2.951960564,-5.93184042,1,1.964014888,1,-7.929618835,1,-0.319787562,1,-0.354548991,1,0.099031612,1,-0.118685044,1,-0.701813817,1,0.138912976,1
2.955960035,-6.82755518,1,1.51341188,1,-7.067906857,1,-0.308751911,1,-0.334156424,1,0.07850448,1,-0.120393865,1,-0.703176498,1,0.139581501,1
2.959961891,-7.312880516,1,1.316785216,1,-6.993442535,1,-0.292399138,1,-0.297001511,1,0.08606752,1,-0.121985659,1,-0.704401731,1,0.140185177,1
2.963959694,-6.149365425,1,1.576047778,1,-7.984669685,1,-0.269203454,1,-0.311483324,1,0.058231946,1,-0.124558784,1,-0.707460165,1,0.138699472,1
2.967965126,-6.909625053,1,1.083077431,1,-6.942584991,1,-0.266713768,1,-0.291697353,1,0.05783112,1,-0.12597239,1,-0.708652556,1,0.139188439,1
2.971966982,-7.082866669,1,1.150890112,1,-7.019100189,1,-0.25244832,1,-0.258597344,1,0.059079763,1,-0.127303943,1,-0.709723055,1,0.139655113,1
2.975964785,-5.435824871,1,1.407940388,1,-8.086920738,1,-0.224331006,1,-0.244854078,1,0.041694466,1,-0.128579646,1,-0.710605502,1,0.140149444,1
2.979964256,-6.77902174,1,1.169327378,1,-6.851545811,1,-0.235118344,1,-0.251220584,1,0.034598939,1,-0.129756555,1,-0.71160996,1,0.140508905,1
2.983965635,-6.629107475,1,1.504743814,1,-7.069611073,1,-0.214598551,1,-0.230817273,1,0.038238969,1,-0.130874947,1,-0.712539554,1,0.140855238,1
2.9879632,-7.739640713,1,1.254936695,1,-6.057265759,1,-0.190908089,1,-0.16446963,1,0.078226164,1,-0.131980971,1,-0.713349462,1,0.141281262,1
2.991962671,-6.315735817,1,1.704690695,1,-7.51637125,1,-0.192517057,1,-0.239052698,1,0.029852409,1,-0.132981926,1,-0.714116633,1,0.141678229,1
2.995964527,-6.422106743,1,1.461041451,1,-7.184901714,1,-0.17172581,1,-0.220304891,1,0.036164694,1,-0.133934557,1,-0.715015471,1,0.142010301,1
2.99996233,-6.272995472,1,1.355321884,1,-7.394506931,1,-0.172224984,1,-0.217961028,1,0.029104993,1,-0.134850964,1,-0.715860009,1,0.142349079,1
3.00396204,-7.79155159,1,0.951305568,1,-6.649113178,1,-0.167066306,1,-0.173467159,1,0.065758601,1,-0.135765567,1,-0.716663361,1,0.142706171,1
3.007963896,-5.952566624,1,1.326969385,1,-8.247732162,1,-0.170646116,1,-0.236583859,1,0.016397376,1,-0.136641115,1,-0.717394233,1,0.14306736,1
3.011961937,-6.573689461,1,0.874974072,1,-7.285390854,1,-0.165005594,1,-0.214503929,1,0.030398563,1,-0.137516811,1,-0.71829021,1,0.143343195,1
3.015961409,-6.490992546,1,0.988243341,1,-7.380418777,1,-0.175635874,1,-0.21298708,1,0.026134565,1,-0.138404086,1,-0.719117582,1,0.143664569,1
3.019962788,-6.652051449,1,0.958086431,1,-7.232095718,1,-0.179194167,1,-0.20044291,1,0.025237862,1,-0.139302805,1,-0.719924629,1,0.143966496,1
3.02396059,-8.466797829,1,0.495098442,1,-6.33094883,1,-0.177602544,1,-0.134300128,1,0.075035997,1,-0.140235096,1,-0.720604837,1,0.144317523,1
3.027960062,-6.239364147,1,1.178476572,1,-7.911211491,1,-0.174789816,1,-0.20024541,1,0.029913206,1,-0.141139522,1,-0.72119236,1,0.144704059,1
3.031962156,-6.884455204,1,0.736458659,1,-6.941505432,1,-0.164560914,1,-0.178294241,1,0.047966465,1,-0.142064705,1,-0.721928358,1,0.145056933,1
3.035960436,-6.735099316,1,0.816432059,1,-7.153114796,1,-0.171360016,1,-0.158732325,1,0.048972517,1,-0.142994389,1,-0.722561717,1,0.145456105,1
3.039959908,-6.756868362,1,0.622257471,1,-7.160310745,1,-0.172957763,1,-0.156903431,1,0.061512109,1,-0.143950567,1,-0.723150313,1,0.145861685,1
3.043961287,-8.307691574,1,0.55377841,1,-6.612578869,1,-0.179332286,1,-0.096679345,1,0.106069438,1,-0.144987345,1,-0.723649144,1,0.146359086,1
3.047958851,-5.724873543,1,1.250869751,1,-8.313791275,1,-0.184993535,1,-0.148670852,1,0.056428123,1,-0.146025628,1,-0.723991334,1,0.146897197,1
3.051958323,-6.836106777,1,0.855230808,1,-6.964740753,1,-0.193987787,1,-0.147824302,1,0.066227235,1,-0.147089154,1,-0.724579751,1,0.147325516,1
3.055959702,-6.796778679,1,1.258410096,1,-7.014118671,1,-0.198518932,1,-0.136600822,1,0.051765155,1,-0.148169488,1,-0.725105405,1,0.147765741,1
3.059957504,-6.866939545,1,1.073178172,1,-6.857114315,1,-0.199211359,1,-0.131935522,1,0.046606809,1,-0.149211988,1,-0.725614309,1,0.148137406,1
3.063957214,-8.01305294,1,0.904929757,1,-6.584422112,1,-0.201760337,1,-0.093457386,1,0.09177272,1,-0.150300115,1,-0.726055205,1,0.148563415,1
3.067965031,-5.294474125,1,1.519766927,1,-8.360063553,1,-0.185775146,1,-0.12482556,1,0.053850494,1,-0.151379913,1,-0.726332724,1,0.149074867,1
3.071968555,-6.859621048,1,0.960481346,1,-6.865478992,1,-0.200163767,1,-0.139591098,1,0.055219259,1,-0.152435273,1,-0.726862192,1,0.149470508,1
3.075968027,-6.628930569,1,1.124163151,1,-7.102869511,1,-0.205559283,1,-0.130705073,1,0.041890591,1,-0.153498486,1,-0.72735852,1,0.149846032,1
3.079970121,-6.574852467,1,0.872567296,1,-7.178750038,1,-0.217003196,1,-0.144036308,1,0.04050963,1,-0.15455766,1,-0.727882147,1,0.150169477,1
3.083968163,-6.881300449,1,0.848822474,1,-7.031413078,1,-0.222053424,1,-0.14416635,1,0.048563618,1,-0.155669644,1,-0.728434443,1,0.150515512,1
3.087968349,-4.03407526,1,1.153477907,1,-7.943594456,1,-0.197788462,1,-0.104163639,1,0.049833603,1,-0.156846598,1,-0.728789568,1,0.150984675,1
3.091969728,-6.8622365,1,0.809036851,1,-6.993124485,1,-0.221026063,1,-0.176176861,1,0.048354529,1,-0.157951429,1,-0.729382515,1,0.151345327,1
3.095967293,-6.476558685,1,1.103384972,1,-7.218792915,1,-0.200917721,1,-0.153276652,1,0.061038744,1,-0.159080535,1,-0.729976833,1,0.151787937,1
3.099966764,-6.305497646,1,1.232565641,1,-7.347929955,1,-0.192178249,1,-0.166794807,1,0.056623299,1,-0.160162061,1,-0.73057282,1,0.152233422,1
3.103968143,-6.486775398,1,1.350169659,1,-7.447019577,1,-0.177692667,1,-0.176494703,1,0.062615417,1,-0.161219999,1,-0.731211305,1,0.152699068,1
3.107965708,-7.707734585,1,1.464755177,1,-7.183694839,1,-0.169679865,1,-0.15597114,1,0.103894636,1,-0.162279919,1,-0.731841743,1,0.153252259,1
3.111965179,-4.699145317,1,1.586878061,1,-8.954564095,1,-0.14754568,1,-0.186974287,1,0.063402303,1,-0.163305685,1,-0.732332528,1,0.153876603,1
3.115966797,-6.691243172,1,0.983590782,1,-7.353431225,1,-0.155318275,1,-0.219559327,1,0.076977961,1,-0.16429764,1,-0.733127356,1,0.154426381,1
3.119964361,-6.461448669,1,1.0683074,1,-7.414371014,1,-0.139509857,1,-0.206973314,1,0.088173322,1,-0.165313527,1,-0.73390305,1,0.155064404,1
3.123963833,-6.487555027,1,0.989832759,1,-7.4445467,1,-0.13819544,1,-0.218871653,1,0.088622965,1,-0.166310951,1,-0.734695256,1,0.155725032,1
3.12796545,-6.538449287,1,0.88395977,1,-7.358888149,1,-0.142181769,1,-0.220758662,1,0.10039448,1,-0.167345464,1,-0.735498607,1,0.156438351,1
3.131963253,-6.671184063,1,0.994448364,1,-7.240796089,1,-0.135110542,1,-0.213927016,1,0.121275365,1,-0.168428272,1,-0.73628217,1,0.157219484,1
3.135962725,-4.258938313,1,0.685409963,1,-7.047817707,1,-0.1044214,1,-0.150445789,1,0.136048809,1,-0.169560924,1,-0.736866891,1,0.15813382,1
3.139964342,-6.918124199,1,1.207311988,1,-7.077048302,1,-0.135827094,1,-0.25072062,1,0.130229384,1,-0.170656621,1,-0.737622917,1,0.15901494,1
3.143962145,-6.69203186,1,1.458446622,1,-6.898449421,1,-0.116084024,1,-0.220544115,1,0.141058028,1,-0.171794876,1,-0.738443315,1,0.159983218,1
3.147961855,-6.459932327,1,1.431264162,1,-7.008666992,1,-0.124810196,1,-0.226258621,1,0.132556111,1,-0.172902167,1,-0.739223182,1,0.160898298,1
3.151963711,-6.81725359,1,1.675288796,1,-6.89458847,1,-0.113701195,1,-0.234031752,1,0.127970487,1,-0.173999012,1,-0.74004662,1,0.161804318,1
3.155961275,-6.606728554,1,1.788298488,1,-6.94416666,1,-0.09516608,1,-0.225052506,1,0.126617178,1,-0.175004616,1,-0.740855575,1,0.162693918,1
3.159960508,-6.668278694,1,1.516713023,1,-6.996013165,1,-0.101576209,1,-0.230706066,1,0.115905613,1,-0.175979093,1,-0.741674244,1,0.163557738,1
3.163968325,-8.873072624,1,2.140149832,1,-6.595933914,1,-0.095139138,1,-0.192448676,1,0.143158734,1,-0.176959515,1,-0.742442727,1,0.16442363,1
3.167971849,-5.1887784,1,1.712109685,1,-8.557786942,1,-0.071790256,1,-0.225681573,1,0.10418386,1,-0.177815735,1,-0.743050992,1,0.165279374,1
3.171971321,-6.965954304,1,1.573223233,1,-6.900438309,1,-0.063318528,1,-0.253057659,1,0.11401739,1,-0.178664714,1,-0.74395752,1,0.166093931,1
3.175972939,-6.723207951,1,1.283388138,1,-7.021792412,1,-0.082834437,1,-0.240129337,1,0.101043634,1,-0.179498404,1,-0.744844258,1,0.166907609,1
3.179970264,-6.872965813,1,1.141451001,1,-6.998893261,1,-0.080258317,1,-0.242819086,1,0.109905899,1,-0.180388585,1,-0.745717168,1,0.167711392,1
3.183969736,-6.865533352,1,0.993284822,1,-6.936804295,1,-0.101965122,1,-0.237615213,1,0.112992197,1,-0.181298792,1,-0.746589661,1,0.168552384,1
3.187971354,-6.747052193,1,1.11572969,1,-6.858816147,1,-0.101450965,1,-0.230194822,1,0.120235413,1,-0.18229574,1,-0.747421741,1,0.169404462,1
3.191968679,-9.54519558,1,1.630002499,1,-5.049377918,1,-0.093814835,1,-0.1414309,1,0.153763413,1,-0.183308735,1,-0.748141408,1,0.170329273,1
3.195968628,-6.587487221,1,1.051247716,1,-7.554080963,1,-0.110654086,1,-0.239225715,1,0.129162908,1,-0.184288174,1,-0.748738348,1,0.171252593,1
3.199970245,-6.907866001,1,1.364361763,1,-6.72527504,1,-0.097822569,1,-0.214979485,1,0.14444764,1,-0.18537353,1,-0.749553323,1,0.172238171,1
3.203968048,-6.517441273,1,1.374061704,1,-6.627203465,1,-0.102898978,1,-0.213036418,1,0.136547521,1,-0.186439216,1,-0.750291944,1,0.173197582,1
3.20796752,-6.828640461,1,1.409769058,1,-6.72854805,1,-0.101385668,1,-0.210929975,1,0.146904916,1,-0.187517628,1,-0.751014352,1,0.174187452,1
3.211969376,-6.734546185,1,1.401945949,1,-6.796910763,1,-0.097395286,1,-0.213165596,1,0.151184872,1,-0.188725233,1,-0.75190413,1,0.175146341,1
3.215967178,-6.929736137,1,1.464687109,1,-6.999537468,1,-0.108180664,1,-0.208998129,1,0.161068082,1,-0.189849928,1,-0.752577066,1,0.176108345,1
3.21996665,-3.355384111,1,0.307123363,1,-8.324497223,1,-0.094515227,1,-0.16956231,1,0.157104552,1,-0.190989882,1,-0.753104985,1,0.177162707,1
3.223968029,-6.697863102,1,1.323932528,1,-7.252659321,1,-0.118728533,1,-0.265625358,1,0.167845175,1,-0.192219958,1,-0.753893852,1,0.178276002,1
3.227965355,-6.533374786,1,1.623115182,1,-7.412552357,1,-0.112614281,1,-0.264752954,1,0.158202425,1,-0.193459466,1,-0.754800558,1,0.179436833,1
3.23196578,-6.479854584,1,1.312927723,1,-7.624004841,1,-0.108985625,1,-0.28593725,1,0.1609658,1,-0.19468917,1,-0.755761623,1,0.180583954,1
3.235966921,-6.442352772,1,1.445452332,1,-7.800256729,1,-0.10265293,1,-0.30314517,1,0.159021422,1,-0.195922524,1,-0.756793916,1,0.181756735,1
3.239964485,-6.480120182,1,1.6190027,1,-7.874304771,1,-0.095521607,1,-0.33952111,1,0.162417144,1,-0.197154462,1,-0.757939994,1,0.182970971,1
3.243963957,-6.477879047,1,1.688615918,1,-7.851760387,1,-0.08713606,1,-0.370227128,1,0.163198262,1,-0.198386699,1,-0.759220243,1,0.184229597,1
3.247965813,-6.478326321,1,1.753669381,1,-7.872740269,1,-0.076926231,1,-0.403676718,1,0.156446084,1,-0.199600577,1,-0.760607004,1,0.185508355,1
3.251963377,-6.542642593,1,1.491550684,1,-8.104488373,1,-0.088517934,1,-0.436929703,1,0.148862273,1,-0.200790092,1,-0.762136698,1,0.186781853,1
3.255963087,-6.428605556,1,1.786787987,1,-7.922782421,1,-0.088095799,1,-0.479698151,1,0.145156801,1,-0.20206283,1,-0.763809204,1,0.188088492,1
3.259964705,-6.549435616,1,1.813531995,1,-7.999195576,1,-0.078450687,1,-0.511619627,1,0.1451561,1,-0.203319684,1,-0.765643597,1,0.189429656,1
3.263968229,-3.907254219,1,0.29007861,1,-7.478243351,1,-0.049648177,1,-0.483182818,1,0.132140458,1,-0.204503849,1,-0.767447829,1,0.190705821,1
3.267967701,-6.563270569,1,1.723814964,1,-8.044558525,1,-0.06724292,1,-0.618761122,1,0.12968263,1,-0.205673292,1,-0.769549727,1,0.192053765,1
3.271969318,-6.437396526,1,2.109715223,1,-7.730556488,1,-0.054105569,1,-0.641494155,1,0.115300767,1,-0.206883579,1,-0.771912456,1,0.193454489,1
3.275966644,-6.514387131,1,2.030142069,1,-8.101173401,1,-0.049129244,1,-0.680298388,1,0.088839076,1,-0.208009988,1,-0.774410367,1,0.194769308,1
3.279966116,-6.37977314,1,2.000274658,1,-7.897584438,1,-0.042782351,1,-0.730363309,1,0.083392814,1,-0.209110677,1,-0.777097106,1,0.196084499,1
3.283967733,-6.515734673,1,2.060967445,1,-8.074056625,1,-0.043155834,1,-0.759880364,1,0.066539399,1,-0.210198939,1,-0.779948473,1,0.197372422,1
3.287965536,-6.514789104,1,1.986107707,1,-7.99856472,1,-0.028811876,1,-0.812251508,1,0.046355553,1,-0.21119757,1,-0.782977283,1,0.198609963,1
3.291965246,-6.530579567,1,1.972951174,1,-8.033080101,1,-0.013426522,1,-0.847605705,1,0.037478834,1,-0.212140828,1,-0.786187291,1,0.199822098,1
3.295966625,-6.815820694,1,1.869130731,1,-8.095977783,1,-0.006005685,1,-0.897994459,1,0.022762537,1,-0.213022575,1,-0.789574027,1,0.201017573,1
3.29996419,-6.776046753,1,1.558282852,1,-8.1560812,1,-0.025953716,1,-0.93955195,1,0.009720083,1,-0.213928163,1,-0.793150187,1,0.202206105,1
3.303963661,-7.004296303,1,1.744126916,1,-8.191044807,1,-0.044288211,1,-0.995224297,1,0.011862015,1,-0.214963138,1,-0.796908021,1,0.20344086,1
3.307965279,-6.847097874,1,2.069445848,1,-8.220108032,1,-0.021193003,1,-1.039626241,1,0.002770335,1,-0.216026083,1,-0.800883412,1,0.204729289,1
3.311963081,-6.366825581,1,1.76710403,1,-8.164909363,1,-0.019980691,1,-1.091190457,1,0.003459099,1,-0.217038259,1,-0.805039525,1,0.206053317,1
3.315962553,-6.592171669,1,1.615444422,1,-8.416457176,1,-0.040920768,1,-1.139315128,1,-0.012363178,1,-0.218158811,1,-0.809405029,1,0.207419738,1
3.319964409,-6.907070637,1,1.292716622,1,-8.136994362,1,-0.062747665,1,-1.203451276,1,-0.005439112,1,-0.219387069,1,-0.813983917,1,0.208842054,1
3.32396245,-6.602801323,1,1.535211563,1,-8.127428055,1,-0.053338438,1,-1.244919658,1,0.005759348,1,-0.220779955,1,-0.818764091,1,0.210405648,1
3.327961683,-6.859689236,1,1.936225653,1,-8.438346863,1,-0.032054473,1,-1.310861945,1,0.010452598,1,-0.222189918,1,-0.823744655,1,0.212100029,1
3.331963301,-6.841500759,1,1.972665429,1,-8.520186424,1,-0.035773866,1,-1.382561564,1,0.017031567,1,-0.223663002,1,-0.828986108,1,0.213930532,1
3.335961103,-6.839140415,1,2.270564795,1,-8.661043167,1,-0.035813164,1,-1.449872851,1,-0.006264245,1,-0.225217655,1,-0.834507704,1,0.215844259,1
3.339960814,-6.935079098,1,2.590684175,1,-8.703883171,1,-0.024870785,1,-1.533467293,1,-0.020878296,1,-0.226766109,1,-0.840330899,1,0.217746601,1
3.343962669,-6.605795383,1,2.715852737,1,-8.743103027,1,-0.001442956,1,-1.633473992,1,-0.041534919,1,-0.228298739,1,-0.846536636,1,0.219733953,1
3.347960234,-6.704043388,1,2.850175381,1,-9.042794228,1,0.030717758,1,-1.727777362,1,-0.059211984,1,-0.229747131,1,-0.853135049,1,0.221741661,1
