Time,inertial-6253.76535:estCompensatedAccelX,inertial-6253.76535:estCompensatedAccelX:valid,inertial-6253.76535:estCompensatedAccelY,inertial-6253.76535:estCompensatedAccelY:valid,inertial-6253.76535:estCompensatedAccelZ,inertial-6253.76535:estCompensatedAccelZ:valid,inertial-6253.76535:estAngularRateX,inertial-6253.76535:estAngularRateX:valid,inertial-6253.76535:estAngularRateY,inertial-6253.76535:estAngularRateY:valid,inertial-6253.76535:estAngularRateZ,inertial-6253.76535:estAngularRateZ:valid,inertial-6253.76535:estRoll,inertial-6253.76535:estRoll:valid,inertial-6253.76535:estPitch,inertial-6253.76535:estPitch:valid,inertial-6253.76535:estYaw,inertial-6253.76535:estYaw:valid,inertial-6253.76535:estLinearAccelX,inertial-6253.76535:estLinearAccelX:valid,inertial-6253.76535:estLinearAccelY,inertial-6253.76535:estLinearAccelY:valid,inertial-6253.76535:estLinearAccelZ,inertial-6253.76535:estLinearAccelZ:valid
0,-4.964512348,1,-1.345584154,1,-8.369091034,1,-0.000732306,1,-0.027397733,1,0.000592391,1,0.1419226080179214,1,-0.529390275,1,-1.821933627,1,-0.02545929,1,-0.151574731,1,-0.012550354,1
0.004001024,-5.003157139,1,-1.316385984,1,-8.377717972,1,-0.002376054,1,-0.029306915,1,0.001481884,1,0.1419240683317184,1,-0.529495239,1,-1.82194376,1,-0.063217163,1,-0.122438073,1,-0.021695137,1
0.007998208,-5.00328207,1,-1.395647168,1,-8.336309433,1,-0.003170055,1,-0.020490147,1,0.001676901,1,0.1419231593608856,1,-0.529598653,1,-1.821958899,1,-0.062469482,1,-0.201778769,1,0.019210815,1
0.011997184,-4.966608524,1,-1.369647503,1,-8.327607155,1,-0.001670576,1,-0.024723707,1,0.004135766,1,0.1419131904840469,1,-0.529689133,1,-1.82195878,1,-0.02503252,1,-0.175925732,1,0.027482033,1
0.015998976,-5.012606621,1,-1.418886781,1,-8.301757813,1,-0.006527049,1,-0.020167857,1,0.006969493,1,0.1418964564800262,1,-0.529778361,1,-1.821956038,1,-0.070277214,1,-0.225367308,1,0.052914619,1
0.020001791,-4.962172985,1,-1.408666253,1,-8.317899704,1,-0.0051597,1,-0.018975729,1,0.009534566,1,0.1418731361627579,1,-0.529862583,1,-1.821950793,1,-0.019133568,1,-0.215400338,1,0.036388397,1
0.024000768,-5.005626678,1,-1.435863853,1,-8.312012672,1,-0.008563296,1,-0.01928387,1,0.004572483,1,0.1418277025222778,1,-0.529939592,1,-1.82192409,1,-0.061936855,1,-0.243031502,1,0.041952133,1
0.028002048,-4.990913868,1,-1.450947523,1,-8.322555542,1,-0.008514732,1,-0.014799423,1,0.014101225,1,0.141783744,1,-0.530006528,1,-1.821897984,1,-0.046659946,1,-0.258529425,1,0.031132698,1
0.03199923,-4.969686985,1,-1.380114794,1,-8.332736015,1,-0.011333033,1,-0.019793535,1,0.009550128,1,0.1417242288589478,1,-0.530079365,1,-1.821856022,1,-0.02481842,1,-0.188244224,1,0.020669937,1
0.035997953,-4.971770763,1,-1.313648224,1,-8.332607269,1,-0.009506875,1,-0.010016074,1,0.010760612,1,0.1416614502668381,1,-0.530143738,1,-1.821815252,1,-0.026358128,1,-0.122347116,1,0.02055645,1
0.039998975,-4.987914085,1,-1.352962136,1,-8.286571503,1,-0.008402348,1,-0.011370456,1,0.010377405,1,0.1416055709123611,1,-0.53019613,1,-1.821779728,1,-0.042060375,1,-0.16216445,1,0.066403389,1
0.043995906,-4.990664005,1,-1.30094409,1,-8.340846062,1,-0.006012816,1,-0.011233469,1,0.006770249,1,0.141547367,1,-0.530245662,1,-1.821742177,1,-0.044391632,1,-0.110667229,1,0.011953354,1
0.047994878,-4.955666065,1,-1.295877337,1,-8.34536171,1,-0.009540337,1,-0.014240167,1,0.009997039,1,0.1414977163076401,1,-0.530291796,1,-1.821707606,1,-0.00900507,1,-0.106047273,1,0.00727272,1
0.051995903,-4.994391441,1,-1.29409039,1,-8.333417892,1,-0.004663999,1,-0.006770905,1,0.005676934,1,0.1414493769407272,1,-0.530334473,1,-1.82167387,1,-0.047369957,1,-0.10469389,1,0.019064903,1
0.055992831,-4.994480133,1,-1.305486798,1,-8.345754623,1,-0.00646328,1,-0.006070038,1,0.008847791,1,0.1414120495319366,1,-0.530363441,1,-1.821641326,1,-0.047214508,1,-0.116422176,1,0.006630898,1
0.059991807,-4.99911499,1,-1.271679878,1,-8.343822479,1,-0.005380703,1,-0.002919627,1,0.006700504,1,0.1413720995187759,1,-0.530381739,1,-1.821611166,1,-0.05169487,1,-0.082961559,1,0.008522034,1
0.063992836,-4.97146225,1,-1.268758297,1,-8.334369659,1,-0.006867736,1,-0.002118763,1,0.005303774,1,0.1413417756557465,1,-0.530394614,1,-1.82159853,1,-0.023932934,1,-0.080302477,1,0.017946243,1
0.067989759,-4.977605343,1,-1.280674338,1,-8.354841232,1,-0.003851199,1,0.004615023,1,0.00223589,1,0.1413163542747498,1,-0.530391753,1,-1.821580172,1,-0.030100822,1,-0.092428684,1,-0.002479553,1
0.071988739,-4.97031498,1,-1.310125828,1,-8.352080345,1,-0.003923711,1,0.000981773,1,-0.000741516,1,0.1412889957427979,1,-0.530390501,1,-1.821569443,1,-0.02282095,1,-0.122107863,1,0.000318527,1
0.07598976,-4.96104908,1,-1.315231204,1,-8.368476868,1,-0.004417542,1,0.003644674,1,0.002581346,1,0.1412717550992966,1,-0.530378401,1,-1.821561337,1,-0.013657093,1,-0.1273489,1,-0.01599884,1
0.079986945,-4.952260971,1,-1.366491318,1,-8.358573914,1,0.000430954,1,0.005676377,1,0.007184588,1,0.141247883,1,-0.530357897,1,-1.821540356,1,-0.005042076,1,-0.178794026,1,-0.005965233,1
0.083985917,-4.947430134,1,-1.39089942,1,-8.329469681,1,-0.005781414,1,0.011644099,1,0.003523331,1,0.1412223130464554,1,-0.530335724,1,-1.821519852,1,-0.000398159,1,-0.203400493,1,0.023277283,1
0.087986685,-4.95624733,1,-1.337998033,1,-8.363705635,1,-0.006790545,1,0.008346079,1,0.000766514,1,0.1411851197481155,1,-0.53029424,1,-1.82149601,1,-0.009565353,1,-0.150780916,1,-0.010712624,1
0.09198387,-4.973298073,1,-1.28644383,1,-8.34877491,1,-0.006362187,1,0.011243792,1,0.00524883,1,0.1411521434783936,1,-0.530253947,1,-1.821478367,1,-0.026956558,1,-0.099474192,1,0.004454613,1
0.095988736,-4.930811882,1,-1.308930278,1,-8.3495121,1,-0.006161487,1,0.014133121,1,0.00269681,1,0.1411127746105194,1,-0.530202985,1,-1.821450949,1,0.015100002,1,-0.122254133,1,0.004013062,1
0.099989757,-4.950357437,1,-1.31257093,1,-8.37334156,1,-0.001724405,1,0.012293012,1,0.00587185,1,0.1410845220088959,1,-0.530154049,1,-1.821421623,1,-0.004858017,1,-0.126096487,1,-0.01954174,1
0.103986941,-4.973003387,1,-1.315959454,1,-8.368848801,1,-0.000822427,1,0.01471522,1,0.002342602,1,0.141293541,1,-0.53004849,1,-1.821513176,1,-0.028394699,1,-0.127665639,1,-0.014782906,1
0.107985921,-4.986748219,1,-1.366561174,1,-8.320025444,1,-0.002035747,1,0.018166309,1,0.001478634,1,0.1412242501974106,1,-0.530012608,1,-1.820257306,1,-0.042442799,1,-0.178821325,1,0.034298897,1
0.111986943,-5.002779961,1,-1.340721011,1,-8.360747337,1,-0.004306334,1,0.022431219,1,0.006071978,1,0.1411929279565811,1,-0.529938877,1,-1.820223093,1,-0.059096336,1,-0.153191328,1,-0.006024361,1
0.115984127,-4.994361877,1,-1.282329202,1,-8.316656113,1,0.000608541,1,0.027214052,1,0.00470533,1,0.1411582082509995,1,-0.529850483,1,-1.820182085,1,-0.051424503,1,-0.095028043,1,0.038541794,1
0.119983107,-4.972826481,1,-1.286420107,1,-8.395040512,1,-0.000607983,1,0.02856598,1,0.00519862,1,0.1411363780498505,1,-0.529746056,1,-1.820144892,1,-0.030770302,1,-0.099228978,1,-0.039306641,1
0.123984128,-4.920508385,1,-1.29260838,1,-8.334794998,1,-0.00202363,1,0.023315011,1,5.220132879912853e-05,1,0.1411185711622238,1,-0.529637754,1,-1.8201226,1,0.020633221,1,-0.105490685,1,0.021489143,1
0.127981305,-4.952764034,1,-1.289847136,1,-8.370235443,1,0.000973232,1,0.028651159,1,0.0037412,1,0.1411165297031403,1,-0.529530466,1,-1.820096493,1,-0.012527466,1,-0.102671862,1,-0.013422012,1
0.131980285,-4.968969822,1,-1.247934937,1,-8.337641716,1,0.002540244,1,0.030300424,1,0.001362846,1,0.141108364,1,-0.529409826,1,-1.820071101,1,-0.029751301,1,-0.060743928,1,0.019771576,1
0.135981306,-4.963134766,1,-1.267629862,1,-8.376896858,1,0.003513274,1,0.031198131,1,-0.004195126,1,0.141118512,1,-0.529283524,1,-1.820050001,1,-0.024982929,1,-0.080266714,1,-0.01887989,1
0.139978498,-4.932963848,1,-1.278627634,1,-8.374324799,1,0.003583188,1,0.036021933,1,0.00072072,1,0.1411329209804535,1,-0.529152632,1,-1.820035458,1,0.004083157,1,-0.09105289,1,-0.015684128,1
0.143977731,-4.910356998,1,-1.300289392,1,-8.414161682,1,0.006748106,1,0.033990242,1,-0.002100081,1,0.1411434710025787,1,-0.529017508,1,-1.820021033,1,0.025549412,1,-0.112532377,1,-0.054871559,1
0.147978753,-4.940912247,1,-1.292083502,1,-8.390804291,1,0.004212441,1,0.034919322,1,-0.002479432,1,0.141162172,1,-0.528882444,1,-1.820017338,1,-0.006145954,1,-0.104076505,1,-0.030878067,1
0.15197593,-4.94883728,1,-1.291110516,1,-8.389098167,1,0.007773652,1,0.033208519,1,-0.005518465,1,0.1411867588758469,1,-0.528743863,1,-1.820012569,1,-0.015241623,1,-0.1028018,1,-0.028523445,1
0.15597491,-4.916696548,1,-1.356485009,1,-8.400271416,1,0.006379993,1,0.037281699,1,-0.006846628,1,0.1412031203508377,1,-0.528597534,1,-1.820005298,1,0.015663147,1,-0.167937636,1,-0.038999557,1
0.159975931,-4.922310352,1,-1.360218287,1,-8.373612404,1,0.003432336,1,0.033029411,1,-0.005557875,1,0.1412273794412613,1,-0.528451383,1,-1.820004702,1,0.008815289,1,-0.171366572,1,-0.011656761,1
0.163973376,-4.911714554,1,-1.374615669,1,-8.406135559,1,0.005997355,1,0.039292656,1,-0.002108564,1,0.1412423849105835,1,-0.528309286,1,-1.819999218,1,0.018210888,1,-0.18554008,1,-0.043504715,1
0.167972356,-4.915721416,1,-1.337230682,1,-8.392709732,1,0.001745405,1,0.03537906,1,-0.006189955,1,0.1412542164325714,1,-0.528152406,1,-1.819998384,1,0.012878895,1,-0.147947669,1,-0.0293293,1
0.171973377,-4.898236275,1,-1.332229733,1,-8.412959099,1,0.003046474,1,0.030062394,1,-0.005625273,1,0.1412670761346817,1,-0.528017342,1,-1.81999886,1,0.029223442,1,-0.142745256,1,-0.048934937,1
0.175976455,-4.791388512,1,-1.280737758,1,-8.431712151,1,0.001097475,1,0.030201582,1,-0.002104184,1,0.1412820070981979,1,-0.527890682,1,-1.820002794,1,0.1350007057189941,1,-0.091040611,1,-0.067088127,1
0.17997542,-4.81914711,1,-1.296014547,1,-8.493339539,1,0.004233682,1,0.026766898,1,-0.00868455,1,0.1413086354732513,1,-0.527770698,1,-1.820017576,1,0.1062278747558594,1,-0.106011152,1,-0.128159523,1
0.183976442,-4.835053921,1,-1.283988118,1,-8.481225014,1,0.006153489,1,0.020604115,1,-0.005816627,1,0.1413362920284271,1,-0.527674198,1,-1.820029259,1,0.089506149,1,-0.093686342,1,-0.115607262,1
0.187973633,-4.918035507,1,-1.338306785,1,-8.447066307,1,0.003638298,1,0.020631433,1,-0.008000163,1,0.1413643807172775,1,-0.527590573,1,-1.820052028,1,0.00581789,1,-0.147712588,1,-0.081076622,1
0.191972613,-4.929122925,1,-1.384229064,1,-8.420310974,1,0.004673732,1,0.017176745,1,-0.003384999,1,0.141386405,1,-0.527507663,1,-1.820064902,1,-0.005970001,1,-0.193392634,1,-0.053941727,1
0.195973888,-4.901365757,1,-1.401159644,1,-8.413578987,1,0.004403604,1,0.019780613,1,-0.008202794,1,0.1414123177528381,1,-0.527432859,1,-1.820080876,1,0.021154404,1,-0.210054278,1,-0.046875,1
0.199971065,-4.923334599,1,-1.400766134,1,-8.400607109,1,-0.001054983,1,0.019545076,1,-0.002567274,1,0.1414190530776978,1,-0.527358711,1,-1.820078611,1,-0.001441002,1,-0.209553242,1,-0.033550262,1
0.203970045,-4.914433479,1,-1.363238931,1,-8.426832199,1,-0.000815632,1,0.014433369,1,-0.002737088,1,0.141419306,1,-0.527289033,1,-1.820091724,1,0.006871223,1,-0.171975732,1,-0.059438705,1
0.207971334,-4.926235676,1,-1.338754296,1,-8.426663399,1,-0.003563806,1,0.017484097,1,-0.005275718,1,0.1414092630147934,1,-0.527220249,1,-1.820090771,1,-0.005512238,1,-0.147527575,1,-0.058922768,1
0.211968511,-4.942071915,1,-1.375176191,1,-8.387248039,1,0.003144814,1,0.011085557,1,-0.002170665,1,0.1414072066545486,1,-0.527156055,1,-1.820089817,1,-0.021891117,1,-0.183922052,1,-0.019191742,1
0.215967491,-4.937602997,1,-1.395066619,1,-8.384679794,1,0.000847525,1,0.021697551,1,0.001426102,1,0.1413987874984741,1,-0.527098298,1,-1.820088744,1,-0.017910004,1,-0.203843117,1,-0.01633358,1
0.219968513,-4.938966751,1,-1.405734897,1,-8.388579369,1,-0.007116895,1,0.012106026,1,0.003700563,1,0.1413824558258057,1,-0.527043879,1,-1.820070624,1,-0.019733906,1,-0.214609623,1,-0.019945145,1
0.223965436,-4.921512127,1,-1.365737438,1,-8.377858162,1,-0.005561896,1,0.012772394,1,0.005597629,1,0.1413516253232956,1,-0.52699995,1,-1.820052743,1,-0.002651215,1,-0.174839735,1,-0.008973122,1
0.227964416,-4.92282629,1,-1.355304003,1,-8.362327576,1,-0.003185285,1,0.012694726,1,0.000746838,1,0.1413266956806183,1,-0.526947141,1,-1.820030808,1,-0.004411221,1,-0.164578438,1,0.006843567,1
0.231965438,-4.891932011,1,-1.357236743,1,-8.379410744,1,-0.004304979,1,0.012883369,1,0.006423545,1,0.1412899792194366,1,-0.526899517,1,-1.820005178,1,0.026080132,1,-0.166785598,1,-0.009963989,1
0.235962629,-4.85714674,1,-1.385789633,1,-8.424146652,1,-0.008722614,1,0.013098601,1,0.003347397,1,0.1412417143583298,1,-0.526857853,1,-1.81996727,1,0.060513496,1,-0.195713758,1,-0.054441452,1
0.239961863,-4.83926487,1,-1.367315531,1,-8.42580986,1,-0.007387823,1,0.012477182,1,0.007851339,1,0.1411868035793304,1,-0.526821434,1,-1.819921732,1,0.078087807,1,-0.177674294,1,-0.05586338,1
0.243962884,-4.879841328,1,-1.342366219,1,-8.463054657,1,-0.009718031,1,0.009091834,1,0.007662808,1,0.1411304473876953,1,-0.526788533,1,-1.819881201,1,0.037232399,1,-0.153173804,1,-0.092880249,1
0.247959808,-4.882239342,1,-1.273459077,1,-8.45345974,1,-0.008372711,1,0.008144686,1,0.006906468,1,0.1410747915506363,1,-0.526764333,1,-1.819840431,1,0.034630299,1,-0.084715486,1,-0.083099365,1
0.251958787,-4.902289391,1,-1.264050484,1,-8.449863434,1,-0.006070699,1,0.004023328,1,0.008370672,1,0.141024187,1,-0.526746094,1,-1.819805622,1,0.014426708,1,-0.075718164,1,-0.07935524,1
0.25596571,-4.896683216,1,-1.354976416,1,-8.41004467,1,-0.005495588,1,0.005544299,1,0.005233801,1,0.14098306,1,-0.526732862,1,-1.819775105,1,0.019920349,1,-0.166979194,1,-0.039422989,1
0.259969026,-4.848464012,1,-1.345603228,1,-8.40670681,1,-0.010193046,1,0.006594301,1,0.006821924,1,0.1409319937229156,1,-0.526713729,1,-1.819746017,1,0.067978382,1,-0.158020139,1,-0.035931587,1
0.263968259,-4.878923893,1,-1.328409433,1,-8.386116028,1,-0.004832981,1,0.005713726,1,0.005281648,1,0.1408870816230774,1,-0.526704669,1,-1.819721937,1,0.037441254,1,-0.141196012,1,-0.015242577,1
0.26796928,-4.87108326,1,-1.300885916,1,-8.436954498,1,-0.006495357,1,0.001060702,1,0.007415537,1,0.1408305019140244,1,-0.52669394,1,-1.819688678,1,0.045191288,1,-0.114138603,1,-0.065962791,1
0.271966457,-4.876420021,1,-1.302941561,1,-8.442070961,1,-0.008808961,1,0.00593534,1,0.006511658,1,0.1407870650291443,1,-0.526691437,1,-1.819664955,1,0.039833546,1,-0.116556406,1,-0.071015358,1
0.275965452,-4.855365276,1,-1.317356229,1,-8.437432289,1,-0.012308856,1,0.001380963,1,0.007995861,1,0.1407383978366852,1,-0.526694059,1,-1.81963706,1,0.060909748,1,-0.13138032,1,-0.066331863,1
0.279966474,-4.894319534,1,-1.319518566,1,-8.397949219,1,-0.00339859,1,1.662946306169033e-05,1,0.00670929,1,0.1406857073307037,1,-0.526696384,1,-1.819600463,1,0.021975517,1,-0.133985043,1,-0.026795387,1
0.28396365,-4.918736458,1,-1.296163201,1,-8.392530441,1,-0.00527672,1,0.003202419,1,0.006903729,1,0.1406477838754654,1,-0.526701331,1,-1.819574237,1,-0.002399445,1,-0.110950708,1,-0.021356583,1
0.287962615,-4.91852951,1,-1.332559347,1,-8.369187355,1,-0.007960699,1,-0.000640213,1,0.007619766,1,0.1406035870313644,1,-0.52670908,1,-1.819548368,1,-0.002127171,1,-0.147722363,1,0.001999855,1
0.291963905,-4.910771847,1,-1.351371169,1,-8.354089737,1,-0.007374313,1,0.000712183,1,0.00676656,1,0.1405597627162933,1,-0.526705801,1,-1.819523573,1,0.005602837,1,-0.16689837,1,0.017167091,1
0.295961082,-4.913124084,1,-1.366434336,1,-8.35782814,1,-0.010193218,1,0.000197137,1,0.008704619,1,0.140508235,1,-0.526712954,1,-1.819489837,1,0.00331068,1,-0.182397962,1,0.013453484,1
0.299959809,-4.946047783,1,-1.359066606,1,-8.357845306,1,-0.008381967,1,0.003518208,1,0.006583843,1,0.140462339,1,-0.526720107,1,-1.819457054,1,-0.02955246,1,-0.175419569,1,0.013455391,1
0.303961098,-4.921763897,1,-1.373122215,1,-8.390575409,1,-0.01125355,1,0.000311975,1,0.011874632,1,0.1404100209474564,1,-0.526711941,1,-1.819415092,1,-0.005337238,1,-0.189906955,1,-0.019169807,1
0.307958275,-4.963917255,1,-1.336879134,1,-8.39317894,1,-0.006798004,1,0.002546912,1,0.010841982,1,0.1403498500585556,1,-0.526712835,1,-1.819368362,1,-0.047482967,1,-0.154168487,1,-0.021707535,1
0.311957002,-4.899494171,1,-1.360966921,1,-8.35117054,1,-0.014218015,1,0.005975205,1,0.014722834,1,0.1402925699949265,1,-0.526705623,1,-1.819312334,1,0.016879082,1,-0.178730965,1,0.020402908,1
0.315958023,-4.879784584,1,-1.304548621,1,-8.382779121,1,-0.009494754,1,0.002654913,1,0.013295961,1,0.1402201354503632,1,-0.526704669,1,-1.819254875,1,0.036580563,1,-0.122918487,1,-0.011115074,1
0.319954932,-4.889153004,1,-1.298899889,1,-8.358938217,1,-0.009084137,1,-0.001267701,1,0.015753161,1,0.1401551961898804,1,-0.526708841,1,-1.819194436,1,0.027247429,1,-0.117816329,1,0.012779236,1
0.323954165,-4.878973961,1,-1.246093154,1,-8.427110672,1,-0.00695801,1,0.001840066,1,0.013232605,1,0.1400983035564423,1,-0.526721716,1,-1.819135308,1,0.037535667,1,-0.065494299,1,-0.05538559,1
0.327955186,-4.85148716,1,-1.21679914,1,-8.46177578,1,-0.007374131,1,0.000553073,1,0.011135682,1,0.1400421559810638,1,-0.526726723,1,-1.819078922,1,0.06506443,1,-0.036674261,1,-0.090010643,1
0.331958026,-4.838048935,1,-1.209937572,1,-8.468388557,1,-0.005409756,1,-0.001440795,1,0.008910376,1,0.1399946063756943,1,-0.526723027,1,-1.81903851,1,0.078471184,1,-0.030208111,1,-0.096549034,1
0.335957259,-4.894351482,1,-1.173477888,1,-8.46575737,1,-0.000675806,1,-0.008241214,1,0.005194177,1,0.1399592310190201,1,-0.526748955,1,-1.819012284,1,0.022388458,1,0.005937696,1,-0.09400177,1
0.33995828,-4.895471096,1,-1.240291476,1,-8.430527687,1,-0.002517227,1,-0.005849007,1,0.004317449,1,0.1399425268173218,1,-0.526775956,1,-1.818998814,1,0.021496773,1,-0.061033845,1,-0.058880806,1
0.343955457,-4.929185867,1,-1.271167397,1,-8.459935188,1,-0.003842174,1,-0.008034278,1,0.004230552,1,0.1399363875389099,1,-0.526805401,1,-1.818995833,1,-0.01196909,1,-0.091981888,1,-0.088427544,1
0.347954422,-4.899936199,1,-1.320900798,1,-8.423787117,1,-0.002786512,1,-0.006667856,1,0.002646994,1,0.1399290412664413,1,-0.526834846,1,-1.818993807,1,0.017529488,1,-0.141797066,1,-0.052414894,1
0.351955444,-4.92677021,1,-1.374631405,1,-8.432096481,1,-0.004231562,1,-0.007964553,1,0.002344156,1,0.1399147361516953,1,-0.526864052,1,-1.818991661,1,-0.009057045,1,-0.195667505,1,-0.060850143,1
0.35595265,-4.94369936,1,-1.310911417,1,-8.406636238,1,-0.004664763,1,-0.007150117,1,-0.001199126,1,0.1400718688964844,1,-0.526845932,1,-1.817886353,1,-0.026139736,1,-0.130619526,1,-0.035485268,1
0.359951615,-4.936282158,1,-1.355752945,1,-8.379014969,1,-0.00293087,1,-0.007785682,1,0.003305637,1,0.1400574594736099,1,-0.526876867,1,-1.817893744,1,-0.018461227,1,-0.175603032,1,-0.00799942,1
0.363952637,-4.917036057,1,-1.396170855,1,-8.367297173,1,-0.005464656,1,-0.007396605,1,0.003853631,1,0.1400319188833237,1,-0.526907265,1,-1.817877173,1,0.001042366,1,-0.216255307,1,0.003602982,1
0.367949814,-4.928082943,1,-1.430265903,1,-8.338262558,1,-0.006898505,1,-0.008320922,1,0.004573797,1,0.1399974077939987,1,-0.526929915,1,-1.817860842,1,-0.009813309,1,-0.250654459,1,0.032568932,1
0.371948808,-4.942236423,1,-1.423891544,1,-8.34325695,1,-0.007372934,1,-0.005300753,1,0.007744916,1,0.1399567425251007,1,-0.526961446,1,-1.817836285,1,-0.023700237,1,-0.244642735,1,0.02746582,1
0.375950068,-4.971896172,1,-1.415077806,1,-8.368969917,1,-0.009447139,1,-0.003353759,1,0.009926066,1,0.1399019956588745,1,-0.526980996,1,-1.817802668,1,-0.053195,1,-0.236300707,1,0.001722336,1
0.379947275,-4.981199265,1,-1.393333912,1,-8.356104851,1,-0.012471518,1,-0.003473036,1,0.011999412,1,0.1398363560438156,1,-0.527000844,1,-1.817759037,1,-0.062329769,1,-0.215119481,1,0.01457119,1
0.38394624,-4.920741081,1,-1.403160572,1,-8.421304703,1,-0.013215039,1,-0.001700793,1,0.014494533,1,0.1397565752267838,1,-0.527022004,1,-1.817700028,1,-0.001693249,1,-0.225628376,1,-0.050638199,1
0.38794753,-4.930547714,1,-1.361888289,1,-8.378162384,1,-0.011759602,1,-0.004379555,1,0.013548298,1,0.1396742016077042,1,-0.527035356,1,-1.817638516,1,-0.011386871,1,-0.185055137,1,-0.00746727,1
0.391944706,-4.925611973,1,-1.363962889,1,-8.386957169,1,-0.015990844,1,-0.006426917,1,0.013717601,1,0.1395872086286545,1,-0.527065516,1,-1.817579269,1,-0.006196022,1,-0.187878251,1,-0.016304016,1
0.395943433,-4.929442883,1,-1.370355129,1,-8.364914894,1,-0.013917041,1,-0.007474642,1,0.017577337,1,0.1394938975572586,1,-0.527085662,1,-1.817509532,1,-0.009856701,1,-0.195065379,1,0.005750656,1
0.399944454,-4.956729412,1,-1.281426191,1,-8.372455597,1,-0.011091492,1,-0.004814012,1,0.017873878,1,0.1394048631191254,1,-0.527114034,1,-1.817428231,1,-0.036903381,1,-0.10690105,1,-0.001823425,1
0.403941363,-4.918364048,1,-1.290577769,1,-8.362316132,1,-0.009146205,1,-0.006805588,1,0.01910856,1,0.1393137872219086,1,-0.527149081,1,-1.817345977,1,0.001758099,1,-0.11683929,1,0.008249283,1
0.407940596,-4.940400124,1,-1.280481458,1,-8.381277084,1,-0.011682459,1,-0.006395134,1,0.015907541,1,0.1392362415790558,1,-0.527170002,1,-1.817269206,1,-0.020101547,1,-0.107406259,1,-0.010721207,1
0.411947787,-4.975919724,1,-1.239020824,1,-8.400258064,1,-0.0083759,1,0.000978186,1,0.011226139,1,0.1391730457544327,1,-0.527198613,1,-1.817212105,1,-0.055379391,1,-0.066493988,1,-0.029767036,1
0.415950835,-4.962483406,1,-1.189214706,1,-8.360569,1,-0.005789548,1,0.003188188,1,0.011606906,1,0.139122799,1,-0.527199268,1,-1.817160249,1,-0.041937828,1,-0.017108917,1,0.009977341,1
0.419950068,-4.973689556,1,-1.247950077,1,-8.371706009,1,-0.006049643,1,0.002672118,1,0.007608613,1,0.1390779614448547,1,-0.527193308,1,-1.81711781,1,-0.053194046,1,-0.076215982,1,-0.001079559,1
0.423951089,-4.977683067,1,-1.294611096,1,-8.315284729,1,-0.003590306,1,0.00520234,1,0.002244808,1,0.1390514522790909,1,-0.527175307,1,-1.817091823,1,-0.057339668,1,-0.123086333,1,0.055461884,1
0.427948028,-4.980376244,1,-1.294155717,1,-8.328999519,1,-0.004550593,1,0.012426523,1,0.003936552,1,0.1390193104743958,1,-0.527146399,1,-1.817057252,1,-0.060276985,1,-0.122880101,1,0.041926384,1
0.431947261,-4.96320343,1,-1.286329985,1,-8.38021946,1,-0.001274949,1,0.01305408,1,0.003331638,1,0.138999417,1,-0.527101576,1,-1.817032099,1,-0.043483257,1,-0.115190625,1,-0.009054184,1
0.435948282,-4.95652914,1,-1.291585565,1,-8.364058495,1,-0.008213577,1,0.013491232,1,0.006770281,1,0.1389666199684143,1,-0.527041972,1,-1.816993117,1,-0.037312508,1,-0.120680332,1,0.007434845,1
0.439945459,-4.983160973,1,-1.307382822,1,-8.356068611,1,-0.004019242,1,0.023631312,1,0.003798776,1,0.1389395594596863,1,-0.526971519,1,-1.816963434,1,-0.064539909,1,-0.136655569,1,0.015803337,1
0.443944454,-4.971107483,1,-1.256889224,1,-8.340135574,1,-0.003784536,1,0.027749009,1,0.004473107,1,0.13891156,1,-0.526881635,1,-1.816939831,1,-0.053246021,1,-0.086335659,1,0.032203674,1
0.447945476,-4.957870007,1,-1.284337521,1,-8.361423492,1,-0.002097858,1,0.026029877,1,0.003779149,1,0.138885885,1,-0.526772678,1,-1.816909075,1,-0.040929794,1,-0.113924742,1,0.011475563,1
0.451942921,-4.956496716,1,-1.278365731,1,-8.373844147,1,0.002419011,1,0.02654933,1,-0.000504673,1,0.1388616412878036,1,-0.526667178,1,-1.816878319,1,-0.040448666,1,-0.108083606,1,-0.00039959,1
0.455942154,-4.98697567,1,-1.309138417,1,-8.346272469,1,-0.001262344,1,0.034150701,1,-0.000639986,1,0.1388496458530426,1,-0.52654022,1,-1.816857696,1,-0.07200098,1,-0.138870478,1,0.027804375,1
0.459943175,-4.906047344,1,-1.31629324,1,-8.344983101,1,0.000809999,1,0.03215513,1,0.00172662,1,0.1388300359249115,1,-0.526412606,1,-1.816829801,1,0.007848263,1,-0.146103024,1,0.029735565,1
0.463940352,-4.877289295,1,-1.300809503,1,-8.367030144,1,0.000589944,1,0.035824094,1,0.001442358,1,0.1388296782970428,1,-0.526266992,1,-1.816809177,1,0.035375118,1,-0.130523443,1,0.008397102,1
0.467939317,-4.909866333,1,-1.343137741,1,-8.400104523,1,0.000772334,1,0.03533832,1,-0.002420475,1,0.1388182938098907,1,-0.526125968,1,-1.816785812,1,0.001605511,1,-0.172850847,1,-0.023976326,1
0.471940607,-4.951174736,1,-1.266718507,1,-8.376725197,1,0.002123519,1,0.037503999,1,0.001105088,1,0.1388081461191177,1,-0.525975466,1,-1.816766143,1,-0.040976048,1,-0.096414328,1,0.000146866,1
0.475937784,-5.001733303,1,-1.243243098,1,-8.377303123,1,0.002789681,1,0.040786691,1,-0.002306568,1,0.1388119906187057,1,-0.525817871,1,-1.816747427,1,-0.092867374,1,-0.072799563,1,0.000331879,1
0.479936779,-5.002501965,1,-1.304098129,1,-8.350485802,1,-0.001953815,1,0.044131588,1,-0.001412049,1,0.1388147175312042,1,-0.52564919,1,-1.816730499,1,-0.09506321,1,-0.133517385,1,0.027965546,1
0.483938038,-4.978549957,1,-1.321255922,1,-8.374386787,1,0.003011098,1,0.051489074,1,-0.001384222,1,0.1388116925954819,1,-0.525458455,1,-1.816712737,1,-0.072724819,1,-0.150571108,1,0.004993439,1
0.487935245,-5.006266594,1,-1.339382052,1,-8.358979225,1,0.002244694,1,0.053194266,1,-0.002705131,1,0.1388093233108521,1,-0.525258124,1,-1.816682696,1,-0.102136612,1,-0.168581009,1,0.02137661,1
0.491940349,-5.044734001,1,-1.347093821,1,-8.356136322,1,0.0006361,1,0.057313327,1,0.002598814,1,0.1388050466775894,1,-0.525039315,1,-1.816655397,1,-0.142456055,1,-0.176180482,1,0.025286674,1
0.495941639,-5.028316975,1,-1.321226001,1,-8.346311569,1,0.002388637,1,0.066227041,1,-0.00098961,1,0.1387895345687866,1,-0.524793208,1,-1.816616654,1,-0.128120899,1,-0.150275826,1,0.036323547,1
0.499938816,-5.050226212,1,-1.286631584,1,-8.336167336,1,0.003317962,1,0.069399163,1,-0.003558743,1,0.1387922763824463,1,-0.52452296,1,-1.816597462,1,-0.152318478,1,-0.115474939,1,0.047777176,1
0.503938019,-5.10062027,1,-1.263424039,1,-8.321252823,1,0.003836686,1,0.077932708,1,-0.003605436,1,0.1388016939163208,1,-0.524230301,1,-1.816577792,1,-0.205190182,1,-0.091990232,1,0.064101219,1
0.507939339,-5.065438271,1,-1.275709271,1,-8.292262077,1,0.004684065,1,0.087034158,1,-0.008260149,1,0.1388166546821594,1,-0.523899496,1,-1.816557288,1,-0.172809124,1,-0.103926063,1,0.094676971,1
0.511936486,-5.03823185,1,-1.265313029,1,-8.329246521,1,0.003074138,1,0.094777502,1,-0.006412516,1,0.1388287395238876,1,-0.523538351,1,-1.816533804,1,-0.148661137,1,-0.093184233,1,0.059426308,1
0.515935719,-5.030903339,1,-1.226647735,1,-8.352673531,1,0.006675785,1,0.099055327,1,-0.009740191,1,0.1388423442840576,1,-0.523150384,1,-1.816509485,1,-0.144618988,1,-0.054142356,1,0.03786087,1
0.51993674,-5.036036491,1,-1.179214001,1,-8.363753319,1,0.00944881,1,0.1087119355797768,1,-0.011167709,1,0.1388739347457886,1,-0.522731125,1,-1.816498518,1,-0.153304577,1,-0.006159663,1,0.028775215,1
0.523933947,-5.074828148,1,-1.185705423,1,-8.337369919,1,0.011396806,1,0.1188202425837517,1,-0.016677378,1,0.1389115452766418,1,-0.522268653,1,-1.816490412,1,-0.196016312,1,-0.012022853,1,0.057350159,1
0.527932942,-5.107728958,1,-1.115626097,1,-8.351931572,1,0.015095036,1,0.1333799660205841,1,-0.023700152,1,0.1389755755662918,1,-0.521752059,1,-1.816498041,1,-0.233296871,1,0.058942914,1,0.045208931,1
0.531933963,-5.063393116,1,-1.164192557,1,-8.33186245,1,0.0192797,1,0.1414155662059784,1,-0.024491284,1,0.1390435099601746,1,-0.521194875,1,-1.81651032,1,-0.193686008,1,0.011323452,1,0.067887306,1
0.53593111,-4.91022253,1,-1.195041895,1,-8.255460739,1,0.019983653,1,0.1478907763957977,1,-0.029543266,1,0.1391416788101196,1,-0.520606279,1,-1.816537142,1,-0.045507908,1,-0.018304348,1,0.1470088958740234,1
0.539930105,-4.794264793,1,-1.092493176,1,-8.37640667,1,0.024324482,1,0.1467847377061844,1,-0.030578867,1,0.1392450034618378,1,-0.519996226,1,-1.816583395,1,0.065272331,1,0.085524082,1,0.028876305,1
0.543931365,-4.645964146,1,-1.076461673,1,-8.518102646,1,0.024190489,1,0.1471435874700546,1,-0.03523526,1,0.1393774002790451,1,-0.519400537,1,-1.816632152,1,0.2085170745849609,1,0.1030706167221069,1,-0.110108376,1
0.54792881,-4.720052242,1,-1.007048965,1,-8.565428734,1,0.039896999,1,0.1421987414360046,1,-0.039518736,1,0.1395514756441116,1,-0.518808126,1,-1.816716909,1,0.1293978691101074,1,0.1743466854095459,1,-0.154792786,1
0.551928043,-4.833332062,1,-0.86401701,1,-8.523174286,1,0.04714106,1,0.1378239244222641,1,-0.049573582,1,0.1397784948348999,1,-0.518225968,1,-1.816834211,1,0.011172771,1,0.319680929,1,-0.110013962,1
0.555929065,-4.93977356,1,-0.903626323,1,-8.473372459,1,0.062830262,1,0.1359021216630936,1,-0.057207052,1,0.1400638073682785,1,-0.517659605,1,-1.816989541,1,-0.100080967,1,0.2828549146652222,1,-0.057833672,1
0.559926271,-4.895078182,1,-1.092461944,1,-8.432937622,1,0.064529464,1,0.1327785402536392,1,-0.061173134,1,0.1404119282960892,1,-0.51709336,1,-1.817177892,1,-0.060198784,1,0.097331882,1,-0.015102386,1
0.563925266,-4.810798645,1,-1.260069132,1,-8.467679977,1,0.06439013,1,0.1361499577760696,1,-0.06736017,1,0.140771285,1,-0.516521931,1,-1.817387104,1,0.019221783,1,-0.066862822,1,-0.047537804,1
0.567926288,-4.788241863,1,-1.426905274,1,-8.460428238,1,0.07011608,1,0.1310060173273087,1,-0.061631259,1,0.1411463916301727,1,-0.515958726,1,-1.81758821,1,0.036987782,1,-0.230157971,1,-0.038041115,1
0.571929336,-4.851172447,1,-1.498762369,1,-8.40677166,1,0.06313999,1,0.130865067,1,-0.062301368,1,0.1414993107318878,1,-0.515402973,1,-1.817784309,1,-0.030671597,1,-0.298664808,1,0.0178442,1
0.575928569,-4.902197838,1,-1.614248872,1,-8.422997475,1,0.055715896,1,0.1302796304225922,1,-0.056963585,1,0.1418346017599106,1,-0.514848948,1,-1.817970395,1,-0.086411953,1,-0.410949111,1,0.00385952,1
0.579929829,-4.908344746,1,-1.608566165,1,-8.449205399,1,0.052643802,1,0.1295462846755981,1,-0.052898172,1,0.1421331167221069,1,-0.514302254,1,-1.81814003,1,-0.097212791,1,-0.402378321,1,-0.020103455,1
0.583927035,-4.747588634,1,-1.676654577,1,-8.339706421,1,0.044194154,1,0.1284349411725998,1,-0.041289587,1,0.1423868983983994,1,-0.51376313,1,-1.818279147,1,0.058951378,1,-0.467959404,1,0.091657639,1
0.58792603,-4.604743481,1,-1.749944568,1,-8.409734726,1,0.028457252,1,0.124182217,1,-0.039670166,1,0.1425759792327881,1,-0.51323384,1,-1.818373799,1,0.1972880363464355,1,-0.539293528,1,0.023919106,1
0.591927528,-4.47766304,1,-1.733529806,1,-8.577672958,1,0.01504822,1,0.1120714992284775,1,-0.029181089,1,0.1426941603422165,1,-0.512753129,1,-1.818447828,1,0.3202719688415527,1,-0.521554708,1,-0.141882896,1
0.595924973,-4.46340847,1,-1.561546326,1,-8.608325005,1,0.006297411,1,0.096592791,1,-0.016126461,1,0.1427566558122635,1,-0.512319982,1,-1.81847918,1,0.3308353424072266,1,-0.348748446,1,-0.170555115,1
0.599930346,-4.482996941,1,-1.428304195,1,-8.70303154,1,0.004031762,1,0.090098202,1,-0.013210127,1,0.1427733153104782,1,-0.511941493,1,-1.818483114,1,0.3080196380615234,1,-0.215107203,1,-0.263484001,1
0.603931665,-4.494155407,1,-1.446933985,1,-8.753783226,1,0.002809754,1,0.073736347,1,-0.008653557,1,0.1430179923772812,1,-0.511626363,1,-1.818491936,1,0.2941741943359375,1,-0.231456995,1,-0.313036919,1
0.607928813,-4.48826313,1,-1.563937783,1,-8.691770554,1,0.001341373,1,0.063316837,1,-0.005449488,1,0.14297685,1,-0.511376977,1,-1.817251325,1,0.2979393005371094,1,-0.348638415,1,-0.249796867,1
0.611927807,-4.567955017,1,-1.672832847,1,-8.628493309,1,-0.006028411,1,0.057380594,1,0.005594552,1,0.1429414004087448,1,-0.511146545,1,-1.817214608,1,0.2162823677062988,1,-0.457675576,1,-0.18538475,1
0.615929067,-4.532603264,1,-1.797819257,1,-8.553640366,1,-0.013875432,1,0.043764383,1,0.015361082,1,0.1428757309913635,1,-0.510951698,1,-1.81714344,1,0.2499723434448242,1,-0.583083749,1,-0.109529495,1
0.619926274,-4.638287067,1,-1.768571734,1,-8.526384354,1,-0.026271584,1,0.036804639,1,0.019924181,1,0.1427357792854309,1,-0.510803938,1,-1.817033172,1,0.1430273056030273,1,-0.554917455,1,-0.081403732,1
0.623925269,-4.6772542,1,-1.649201035,1,-8.539958954,1,-0.029795758,1,0.032895762,1,0.036587004,1,0.1425601243972778,1,-0.510672271,1,-1.81689167,1,0.1029367446899414,1,-0.436940551,1,-0.094141006,1
0.62792629,-4.662181854,1,-1.555353165,1,-8.52716732,1,-0.033685781,1,0.029559365,1,0.033908889,1,0.1423441022634506,1,-0.510572851,1,-1.816713333,1,0.1171612739562988,1,-0.344849706,1,-0.080615997,1
0.631923735,-4.702795029,1,-1.498526216,1,-8.520784378,1,-0.035153992,1,0.027404122,1,0.03958948,1,0.1421048492193222,1,-0.510481894,1,-1.816531658,1,0.075771809,1,-0.289982319,1,-0.073513985,1
0.63592267,-4.713184357,1,-1.449058771,1,-8.513821602,1,-0.041784756,1,0.02539083,1,0.040748209,1,0.1418495178222656,1,-0.510411739,1,-1.816324949,1,0.064783573,1,-0.242624164,1,-0.065911293,1
0.639923692,-4.750405788,1,-1.372004747,1,-8.465838432,1,-0.038201425,1,0.020279571,1,0.037041035,1,0.1416003555059433,1,-0.510345936,1,-1.816134334,1,0.027000427,1,-0.167630792,1,-0.017315865,1
0.643921137,-4.753262043,1,-1.322175145,1,-8.50041008,1,-0.040940009,1,0.020388661,1,0.039072912,1,0.1413495689630508,1,-0.510287046,1,-1.815947056,1,0.023642063,1,-0.119880319,1,-0.051306725,1
0.647926271,-4.756486416,1,-1.217580914,1,-8.484596252,1,-0.038200397,1,0.016765591,1,0.040542871,1,0.1410993784666061,1,-0.510237336,1,-1.815760016,1,0.019993782,1,-0.017366767,1,-0.034958839,1
0.651927292,-4.709871292,1,-1.224297047,1,-8.470305443,1,-0.038829524,1,0.022105685,1,0.03836152,1,0.1408581584692001,1,-0.510185003,1,-1.815574408,1,0.066161633,1,-0.026086092,1,-0.020132065,1
0.655924499,-4.675132275,1,-1.195815682,1,-8.460007668,1,-0.031930596,1,0.015500528,1,0.035564344,1,0.1406338214874268,1,-0.510133207,1,-1.815390587,1,0.1004581451416016,1,0.000534296,1,-0.009321213,1
0.659923434,-4.758509636,1,-1.168690324,1,-8.48315239,1,-0.027441042,1,0.016396845,1,0.035232026,1,0.1404244005680084,1,-0.510093212,1,-1.815223575,1,0.016739845,1,0.025916576,1,-0.032026291,1
0.663924754,-4.754552841,1,-1.157550335,1,-8.498728752,1,-0.027751291,1,0.016369324,1,0.031260028,1,0.1402368396520615,1,-0.510045111,1,-1.815068245,1,0.020286083,1,0.035503387,1,-0.047152519,1
0.667921901,-4.808743954,1,-1.19771421,1,-8.489042282,1,-0.022118898,1,0.022820458,1,0.028732015,1,0.1400658041238785,1,-0.509991944,1,-1.81491375,1,-0.034358978,1,-0.006070256,1,-0.037007332,1
0.671920896,-4.779418468,1,-1.326955438,1,-8.439843178,1,-0.026095528,1,0.019799164,1,0.029028742,1,0.1399091631174088,1,-0.509922802,1,-1.814771891,1,-0.005623341,1,-0.136589408,1,0.012704849,1
0.675922155,-4.771130085,1,-1.323432207,1,-8.383982658,1,-0.027076472,1,0.020829542,1,0.03191663,1,0.1397310346364975,1,-0.509861827,1,-1.814614058,1,0.002144337,1,-0.13453126,1,0.069066048,1
0.6799196,-4.71625185,1,-1.413845301,1,-8.364598274,1,-0.034982566,1,0.025872955,1,0.031880338,1,0.1395394802093506,1,-0.509782434,1,-1.814455748,1,0.056344509,1,-0.226510882,1,0.089053154,1
0.683918595,-4.687349319,1,-1.374247193,1,-8.439825058,1,-0.031188365,1,0.02566467,1,0.03155975,1,0.1393305510282516,1,-0.509699464,1,-1.814288855,1,0.084538937,1,-0.188624263,1,0.014463425,1
0.687919855,-4.706255436,1,-1.299985647,1,-8.500642776,1,-0.032421488,1,0.019451257,1,0.035547383,1,0.1391200721263885,1,-0.509632766,1,-1.814121604,1,0.065063477,1,-0.116098166,1,-0.045788765,1
0.691917062,-4.667261124,1,-1.198773384,1,-8.526304245,1,-0.034334857,1,0.015686829,1,0.037087869,1,0.1388968378305435,1,-0.50957197,1,-1.813943505,1,0.10353899,1,-0.01673305,1,-0.07089901,1
0.695916057,-4.703641415,1,-1.278106332,1,-8.48519516,1,-0.027837249,1,0.018238671,1,0.034689825,1,0.1386832147836685,1,-0.5095191,1,-1.813766003,1,0.066707134,1,-0.097837448,1,-0.029287338,1
0.699917316,-4.64166975,1,-1.332159281,1,-8.527479172,1,-0.033472072,1,0.015027825,1,0.03484549,1,0.1384711414575577,1,-0.509472787,1,-1.813599229,1,0.1282839775085449,1,-0.153652906,1,-0.071101189,1
0.703914523,-4.601811886,1,-1.404604316,1,-8.501766205,1,-0.039073944,1,0.013945834,1,0.040141996,1,0.1382442861795425,1,-0.50943917,1,-1.813428402,1,0.1678543090820313,1,-0.227994323,1,-0.044961929,1
0.707913458,-4.604421139,1,-1.454628468,1,-8.503082275,1,-0.041481189,1,0.008293158,1,0.04699102,1,0.1379843950271606,1,-0.509422004,1,-1.813228846,1,0.1650981903076172,1,-0.280205011,1,-0.045890808,1
0.71191448,-4.55115509,1,-1.530957818,1,-8.472579002,1,-0.049998611,1,0.004277126,1,0.048926912,1,0.1377122700214386,1,-0.509430766,1,-1.813022137,1,0.2184391021728516,1,-0.358841896,1,-0.015111923,1
0.715911686,-4.578249931,1,-1.541319728,1,-8.484075546,1,-0.051760036,1,-0.005638028,1,0.052397188,1,0.137399748,1,-0.509459138,1,-1.812791824,1,0.1915864944458008,1,-0.371865749,1,-0.026377678,1
0.71991092,-4.60607338,1,-1.526317596,1,-8.486996651,1,-0.058593292,1,-0.010543128,1,0.056440711,1,0.137055829,1,-0.509517968,1,-1.812540531,1,0.1642651557922363,1,-0.35981071,1,-0.029175758,1
0.723911941,-4.619794846,1,-1.516305685,1,-8.493775368,1,-0.06549605,1,-0.013155818,1,0.063961372,1,0.1366790384054184,1,-0.509597957,1,-1.812271237,1,0.1512269973754883,1,-0.353037357,1,-0.035889626,1
0.727914989,-4.701783657,1,-1.481481671,1,-8.489297867,1,-0.068798468,1,-0.01439975,1,0.070863478,1,0.1362539827823639,1,-0.509692669,1,-1.811967373,1,0.070046425,1,-0.321869731,1,-0.031365395,1
0.731914222,-4.75121212,1,-1.474793077,1,-8.455144882,1,-0.076522052,1,-0.021220166,1,0.075776316,1,0.135803148,1,-0.509798884,1,-1.811641693,1,0.021525383,1,-0.319063306,1,0.002804756,1
0.735915244,-4.781480312,1,-1.485489488,1,-8.43329525,1,-0.082366906,1,-0.019085314,1,0.078100905,1,0.1353227645158768,1,-0.509919822,1,-1.811307549,1,-0.007710934,1,-0.333901048,1,0.024635315,1
0.73991245,-4.883777142,1,-1.470506668,1,-8.419953346,1,-0.085214615,1,-0.021497875,1,0.077229425,1,0.1348275542259216,1,-0.510042131,1,-1.810971498,1,-0.10896349,1,-0.323185086,1,0.037970543,1
0.743911445,-4.855117321,1,-1.431176662,1,-8.316536903,1,-0.091227755,1,-0.016384805,1,0.079485878,1,0.1343035399913788,1,-0.510153055,1,-1.810612798,1,-0.079357147,1,-0.288358092,1,0.1414604187011719,1
0.747912705,-4.876286983,1,-1.410948873,1,-8.33764267,1,-0.097627454,1,-0.012597526,1,0.086434543,1,0.1337553262710571,1,-0.51024884,1,-1.810243726,1,-0.099709034,1,-0.272828102,1,0.1205282211303711,1
0.751909912,-4.849303722,1,-1.394213915,1,-8.342607498,1,-0.095518075,1,-0.010318564,1,0.08479441,1,0.1331806778907776,1,-0.510340333,1,-1.809857726,1,-0.071945667,1,-0.261012077,1,0.1157827377319336,1
0.755909145,-4.960496902,1,-1.28931725,1,-8.31461525,1,-0.100038096,1,-0.003432275,1,0.08975403,1,0.1325923204421997,1,-0.510412037,1,-1.809469938,1,-0.182526112,1,-0.161137462,1,0.1441001892089844,1
0.759910643,-4.937758446,1,-1.173841238,1,-8.316084862,1,-0.098780185,1,0.002086187,1,0.086737923,1,0.132009283,1,-0.510463178,1,-1.809079409,1,-0.159351349,1,-0.050625563,1,0.1430444717407227,1
0.763908327,-4.955796719,1,-1.067659974,1,-8.342516899,1,-0.097583108,1,0.007766076,1,0.082346879,1,0.1314310282468796,1,-0.510484755,1,-1.808694482,1,-0.177205563,1,0.050650358,1,0.117156982,1
0.767907321,-5.011254311,1,-1.051378131,1,-8.394702911,1,-0.09456002,1,0.013562171,1,0.076166697,1,0.1308660954236984,1,-0.510481834,1,-1.808330059,1,-0.232688427,1,0.062155008,1,0.065616608,1
0.771908581,-4.93918848,1,-1.068022847,1,-8.317541122,1,-0.091258101,1,0.02259721,1,0.072584316,1,0.1303319334983826,1,-0.510438025,1,-1.807982445,1,-0.160996437,1,0.041018128,1,0.1435794830322266,1
0.775905788,-4.953094006,1,-1.06703639,1,-8.315516472,1,-0.082913317,1,0.032854851,1,0.064259738,1,0.1298194378614426,1,-0.510357916,1,-1.80766058,1,-0.175585747,1,0.037717581,1,0.146550179,1
0.779905021,-4.905856133,1,-1.08212173,1,-8.389177322,1,-0.079395764,1,0.039478227,1,0.058930356,1,0.1293408423662186,1,-0.510244131,1,-1.807361841,1,-0.129318714,1,0.018652201,1,0.073955536,1
0.783906043,-4.854145527,1,-1.018503904,1,-8.47099781,1,-0.077887803,1,0.042801075,1,0.055565707,1,0.1288775354623795,1,-0.510108531,1,-1.807068944,1,-0.078765392,1,0.078432202,1,-0.006712914,1
0.787903249,-4.854936123,1,-0.95059365,1,-8.45313549,1,-0.069961153,1,0.046294112,1,0.053291045,1,0.1284473240375519,1,-0.509949863,1,-1.806790113,1,-0.080910206,1,0.1427978873252869,1,0.012371063,1
0.791902184,-4.871959209,1,-0.893633842,1,-8.491288185,1,-0.060485955,1,0.054659996,1,0.048972059,1,0.1280630230903625,1,-0.509776473,1,-1.806533813,1,-0.099413395,1,0.1966097354888916,1,-0.024542809,1
0.795903206,-4.866068363,1,-0.8875826,1,-8.522959709,1,-0.049666505,1,0.052169718,1,0.04151649,1,0.1277289092540741,1,-0.509590209,1,-1.806297421,1,-0.095112801,1,0.1999455094337463,1,-0.05496788,1
0.799900413,-4.843617916,1,-0.992004156,1,-8.507724762,1,-0.04462003,1,0.059612818,1,0.038527742,1,0.1274411231279373,1,-0.509382844,1,-1.806087732,1,-0.07443285,1,0.093212843,1,-0.038435936,1
0.803899407,-4.838900566,1,-0.970011532,1,-8.517598152,1,-0.03384297,1,0.060254034,1,0.027989591,1,0.1272003799676895,1,-0.509165704,1,-1.805911541,1,-0.07156992,1,0.1132978796958923,1,-0.04702282,1
0.807906806,-4.836180687,1,-1.072168231,1,-8.48331356,1,-0.02917272,1,0.063117184,1,0.026785273,1,0.1269998401403427,1,-0.508944094,1,-1.805755973,1,-0.070742607,1,0.009576082,1,-0.011474609,1
0.811910629,-4.841089249,1,-1.060047388,1,-8.499004364,1,-0.023408607,1,0.065066777,1,0.022117136,1,0.1268172711133957,1,-0.508695126,1,-1.805596709,1,-0.077777386,1,0.020300388,1,-0.025791168,1
0.815910637,-4.846717834,1,-1.082780242,1,-8.493171692,1,-0.019930605,1,0.066806369,1,0.01857068,1,0.1266709268093109,1,-0.508439124,1,-1.805471063,1,-0.085593224,1,-0.003518581,1,-0.018590927,1
0.819911659,-4.775574684,1,-1.12272644,1,-8.53705883,1,-0.01657092,1,0.064728796,1,0.016704444,1,0.1265427321195602,1,-0.508179188,1,-1.80535233,1,-0.016670704,1,-0.044394851,1,-0.061110497,1
0.823908865,-4.714624405,1,-1.157102108,1,-8.58005619,1,-0.013790458,1,0.065722302,1,0.012684066,1,0.1264336109161377,1,-0.507927716,1,-1.805246711,1,0.042131424,1,-0.079544902,1,-0.102806091,1
0.82790786,-4.741761684,1,-1.243963003,1,-8.52799511,1,-0.016122112,1,0.063462779,1,0.010307353,1,0.1263308078050613,1,-0.507677495,1,-1.805145144,1,0.012855053,1,-0.167127371,1,-0.049453735,1
0.831908882,-4.697892666,1,-1.281242132,1,-8.551324844,1,-0.013134751,1,0.060906745,1,0.012762336,1,0.1262286603450775,1,-0.507436514,1,-1.805041313,1,0.054664612,1,-0.205128074,1,-0.07153511,1
0.835906029,-4.765052795,1,-1.294442296,1,-8.620934486,1,-0.0102385,1,0.056297328,1,0.015955109,1,0.1261233687400818,1,-0.507205009,1,-1.804942131,1,-0.014474392,1,-0.219082713,1,-0.139940262,1
0.839905024,-4.690246105,1,-1.314514399,1,-8.547780037,1,-0.010874931,1,0.058566257,1,0.013861952,1,0.12602745,1,-0.506990373,1,-1.804839373,1,0.058497429,1,-0.239840269,1,-0.065670967,1
0.843906283,-4.693643093,1,-1.305075884,1,-8.643335342,1,-0.010344557,1,0.052042939,1,0.016367547,1,0.125926673,1,-0.506769896,1,-1.804735899,1,0.05321455,1,-0.231124997,1,-0.160079956,1
0.847903728,-4.723499775,1,-1.296835065,1,-8.628416061,1,-0.013853161,1,0.050362758,1,0.017229613,1,0.125825047,1,-0.506570399,1,-1.804633379,1,0.021652222,1,-0.223627329,1,-0.144111633,1
0.851902723,-4.716705322,1,-1.333941221,1,-8.621080399,1,-0.016131755,1,0.050477538,1,0.016179623,1,0.1257200539112091,1,-0.506384552,1,-1.804530025,1,0.026857376,1,-0.261513829,1,-0.135787964,1
0.855903983,-4.729458809,1,-1.321204424,1,-8.640501022,1,-0.013630645,1,0.044017188,1,0.018960647,1,0.1258244812488556,1,-0.50616163,1,-1.803323507,1,0.012197495,1,-0.247758269,1,-0.154273033,1
0.85990119,-4.716419697,1,-1.300371528,1,-8.612645149,1,-0.016806124,1,0.041759592,1,0.017090742,1,0.1257130354642868,1,-0.506003797,1,-1.803208113,1,0.023885727,1,-0.227777243,1,-0.125554085,1
0.863900185,-4.709231377,1,-1.380867362,1,-8.679171562,1,-0.013190132,1,0.036949888,1,0.022836786,1,0.1255979239940643,1,-0.505858898,1,-1.803104997,1,0.029834747,1,-0.309164047,1,-0.191275597,1
0.867901444,-4.75276804,1,-1.36819315,1,-8.62277317,1,-0.017696971,1,0.029934883,1,0.015381367,1,0.125476286,1,-0.505729258,1,-1.802996039,1,-0.014811039,1,-0.297445774,1,-0.134140015,1
0.87189889,-4.792944908,1,-1.332319975,1,-8.628972054,1,-0.012727037,1,0.029031016,1,0.016346388,1,0.1253631114959717,1,-0.505622625,1,-1.802894711,1,-0.05589962,1,-0.262469769,1,-0.139715195,1
0.875898123,-4.795473099,1,-1.323800683,1,-8.569814682,1,-0.013689008,1,0.029721105,1,0.020497017,1,0.1252649575471878,1,-0.505511642,1,-1.802798629,1,-0.059378147,1,-0.254718065,1,-0.079931259,1
0.879899144,-4.770968914,1,-1.26079309,1,-8.623651505,1,-0.011709178,1,0.025447426,1,0.016368475,1,0.1251693814992905,1,-0.505417705,1,-1.802706122,1,-0.03567791,1,-0.192466617,1,-0.133226395,1
0.883902192,-4.643897533,1,-1.145152926,1,-8.61219883,1,-0.009776426,1,0.021214513,1,0.012683612,1,0.1250878423452377,1,-0.505337417,1,-1.80262804,1,0.090706348,1,-0.077471256,1,-0.121307373,1
0.887901425,-4.656888008,1,-1.094884634,1,-8.69298172,1,-0.007960643,1,0.011837474,1,0.009271226,1,0.1250178068876266,1,-0.505280018,1,-1.80255723,1,0.077225208,1,-0.027763486,1,-0.201745033,1
0.891902447,-4.623572826,1,-1.064771295,1,-8.66298008,1,3.133551217615604e-05,1,0.005130228,1,0.001153278,1,0.1249864548444748,1,-0.505244255,1,-1.802521825,1,0.110234261,1,0.00210464,1,-0.171542168,1
0.895899653,-4.590563297,1,-0.930506647,1,-8.686737061,1,0.003852004,1,-0.003767622,1,-0.001094195,1,0.1249906942248344,1,-0.505238235,1,-1.802521229,1,0.1431922912597656,1,0.1364085078239441,1,-0.195278168,1
0.899898648,-4.615306854,1,-0.902045965,1,-8.71026516,1,0.014469016,1,-0.006062723,1,-0.008482523,1,0.1250409036874771,1,-0.505246818,1,-1.802542329,1,0.1185216903686523,1,0.1652907133102417,1,-0.21889782,1
0.90389967,-4.561252117,1,-0.931556165,1,-8.687139511,1,0.017381616,1,-0.017249996,1,-0.01809347,1,0.1251411288976669,1,-0.505288482,1,-1.802610278,1,0.1729331016540527,1,0.1366068720817566,1,-0.196075439,1
0.907896817,-4.574400425,1,-1.013604283,1,-8.734642982,1,0.029264268,1,-0.02348119,1,-0.025306452,1,0.1252885162830353,1,-0.505347788,1,-1.802719951,1,0.1602926254272461,1,0.055775404,1,-0.244013786,1
0.911895812,-4.605691433,1,-1.011356711,1,-8.622003555,1,0.032609887,1,-0.026292693,1,-0.031038567,1,0.1254788488149643,1,-0.505427241,1,-1.802867174,1,0.1296815872192383,1,0.059591532,1,-0.131953239,1
0.915896833,-4.730118752,1,-1.061592937,1,-8.573513985,1,0.040549904,1,-0.031498723,1,-0.04105328,1,0.125712126,1,-0.505529523,1,-1.803042173,1,0.006129742,1,0.011275053,1,-0.084195137,1
0.919894278,-4.725248337,1,-1.144178271,1,-8.519175529,1,0.042728055,1,-0.032461025,1,-0.040009867,1,0.1259716004133224,1,-0.505632937,1,-1.803241253,1,0.011884689,1,-0.069169164,1,-0.030621529,1
0.923893273,-4.73524332,1,-1.310448885,1,-8.446988106,1,0.041197121,1,-0.03605232,1,-0.043968804,1,0.1262380182743073,1,-0.505744398,1,-1.803452134,1,0.002842903,1,-0.233244538,1,0.040757179,1
0.927894294,-4.763525009,1,-1.380533099,1,-8.428650856,1,0.035686675,1,-0.030326907,1,-0.041794438,1,0.1264959573745728,1,-0.505852759,1,-1.803664207,1,-0.024511337,1,-0.301204205,1,0.058307648,1
0.931891441,-4.798856735,1,-1.338624477,1,-8.420467377,1,0.032927249,1,-0.028392714,1,-0.039860517,1,0.1267402917146683,1,-0.505951405,1,-1.803876281,1,-0.058999062,1,-0.257281184,1,0.06576252,1
0.935890436,-4.77200222,1,-1.269390106,1,-8.42031765,1,0.028466612,1,-0.023987889,1,-0.040376287,1,0.1269576251506805,1,-0.50603044,1,-1.804062009,1,-0.031468868,1,-0.186250091,1,0.065302849,1
0.939891696,-4.767594814,1,-1.322141886,1,-8.455348969,1,0.026824579,1,-0.023712024,1,-0.032482512,1,0.1271592527627945,1,-0.506110251,1,-1.804255724,1,-0.026378155,1,-0.237338543,1,0.029681206,1
0.943888903,-4.741605759,1,-1.321736217,1,-8.478925705,1,0.025705533,1,-0.023000386,1,-0.04013513,1,0.127351776,1,-0.506190062,1,-1.804437399,1,0.000292778,1,-0.235347629,1,0.00551796,1
0.947887897,-4.789822102,1,-1.304551363,1,-8.524969101,1,0.018919291,1,-0.021371856,1,-0.030741576,1,0.1275229603052139,1,-0.506253362,1,-1.804603815,1,-0.047381401,1,-0.216748714,1,-0.041007996,1
0.951889157,-4.786009312,1,-1.264110088,1,-8.476816177,1,0.014511894,1,-0.021956334,1,-0.033934329,1,0.1276769936084747,1,-0.506315768,1,-1.804769754,1,-0.043034554,1,-0.175038218,1,0.006682396,1
0.955886364,-4.826677799,1,-1.211494684,1,-8.468244553,1,0.017157642,1,-0.017319884,1,-0.033491321,1,0.1278306841850281,1,-0.506373823,1,-1.804933906,1,-0.083206654,1,-0.121153951,1,0.014813423,1
0.959885299,-4.82537508,1,-1.182103515,1,-8.465451241,1,0.018422326,1,-0.015802188,1,-0.04119594,1,0.1279899775981903,1,-0.506413639,1,-1.805116415,1,-0.081563473,1,-0.090435863,1,0.017244339,1
0.96389246,-4.804097176,1,-1.153693199,1,-8.47103405,1,0.026514815,1,-0.018915534,1,-0.047045685,1,0.1281781792640686,1,-0.506446481,1,-1.805327177,1,-0.060004711,1,-0.060448885,1,0.011302948,1
0.967895806,-4.809107304,1,-1.060100675,1,-8.469992638,1,0.023938525,1,-0.010235906,1,-0.048899613,1,0.1283756494522095,1,-0.506481647,1,-1.805548429,1,-0.064713955,1,0.034797311,1,0.011963844,1
0.971895278,-4.834323883,1,-1.074800491,1,-8.412282944,1,0.026097298,1,-0.011462684,1,-0.055933226,1,0.1286052763462067,1,-0.506493807,1,-1.80580163,1,-0.089827061,1,0.022037864,1,0.069364548,1
0.975896597,-4.820339203,1,-1.149459958,1,-8.384933472,1,0.031788602,1,-0.006029643,1,-0.062882721,1,0.1288608759641647,1,-0.506497324,1,-1.806076527,1,-0.075811863,1,-0.050456047,1,0.096416473,1
0.979893744,-4.861446381,1,-1.199010849,1,-8.377726555,1,0.032307602,1,-0.002472627,1,-0.064319536,1,0.1291359812021255,1,-0.506478071,1,-1.806373,1,-0.117084026,1,-0.097661853,1,0.1034116744995117,1
0.983892739,-4.870245457,1,-1.279639363,1,-8.364607811,1,0.036195617,1,0.005930651,1,-0.064199001,1,0.1294213533401489,1,-0.506436408,1,-1.806672692,1,-0.1262393,1,-0.17584455,1,0.1164121627807617,1
0.987893999,-4.857864857,1,-1.304510474,1,-8.364971161,1,0.035445958,1,0.006731576,1,-0.070739962,1,0.1297118067741394,1,-0.506368816,1,-1.806979299,1,-0.114437103,1,-0.198210835,1,0.1160459518432617,1
0.991891205,-4.867890835,1,-1.264830947,1,-8.347394943,1,0.03205112,1,0.01543879,1,-0.068714373,1,0.1300041228532791,1,-0.506284535,1,-1.807285905,1,-0.125183582,1,-0.156000495,1,0.1336956024169922,1
0.995890439,-4.825680733,1,-1.280226111,1,-8.393161774,1,0.033300705,1,0.022073377,1,-0.068682946,1,0.1302894204854965,1,-0.506172776,1,-1.807595611,1,-0.083929539,1,-0.168907046,1,0.088137627,1
0.99989146,-4.726250648,1,-1.301229596,1,-8.424283028,1,0.029732261,1,0.026277741,1,-0.069663353,1,0.1305581331253052,1,-0.506044626,1,-1.807899594,1,0.014404774,1,-0.18755281,1,0.05731678,1
1.003888845,-4.648836613,1,-1.292497396,1,-8.467013359,1,0.025659775,1,0.025926463,1,-0.065887332,1,0.1308132410049438,1,-0.505908132,1,-1.808191419,1,0.090651035,1,-0.176572323,1,0.014944077,1
1.00788784,-4.715338707,1,-1.348937154,1,-8.520956039,1,0.032134369,1,0.026133727,1,-0.066927321,1,0.1310674697160721,1,-0.505766571,1,-1.808479309,1,0.022937775,1,-0.230768085,1,-0.038615227,1
1.011888862,-4.713660717,1,-1.417442083,1,-8.493341446,1,0.02317505,1,0.028460952,1,-0.06288255,1,0.1313106715679169,1,-0.505618632,1,-1.808758259,1,0.023350239,1,-0.297118306,1,-0.010578156,1
1.015886307,-4.797088623,1,-1.391919971,1,-8.500599861,1,0.020844759,1,0.028814346,1,-0.063088074,1,0.1315319985151291,1,-0.505462229,1,-1.809028149,1,-0.061416149,1,-0.26962173,1,-0.017353058,1
1.019885302,-4.784113884,1,-1.377591848,1,-8.4709692,1,0.021610254,1,0.038525008,1,-0.058155656,1,0.1317384988069534,1,-0.505289257,1,-1.809290409,1,-0.049921513,1,-0.253434181,1,0.012859344,1
1.023886323,-4.711366177,1,-1.308184862,1,-8.457105637,1,0.01756289,1,0.03511738,1,-0.06436298,1,0.1319476217031479,1,-0.505103707,1,-1.809552312,1,0.021238327,1,-0.182137728,1,0.027356148,1
1.02788353,-4.549722195,1,-1.211767554,1,-8.444670677,1,0.018784637,1,0.034088463,1,-0.066650994,1,0.1321507394313812,1,-0.504925132,1,-1.80982852,1,0.1813535690307617,1,-0.083885908,1,0.040399551,1
1.031882763,-4.51585722,1,-1.058104992,1,-8.57352829,1,0.018411271,1,0.030209493,1,-0.066813454,1,0.1323514878749847,1,-0.504752636,1,-1.81010735,1,0.2137422561645508,1,0.07158792,1,-0.087874413,1
1.035884023,-4.454045296,1,-0.945957124,1,-8.584733009,1,0.023279589,1,0.03057777,1,-0.074402697,1,0.1325741410255432,1,-0.504602194,1,-1.810401201,1,0.2742657661437988,1,0.1857193112373352,1,-0.098624229,1
1.039881229,-4.591503143,1,-0.942885697,1,-8.572346687,1,0.028647572,1,0.022813095,1,-0.07843335,1,0.1328337788581848,1,-0.504466653,1,-1.810729742,1,0.1356472969055176,1,0.1910788416862488,1,-0.085897446,1
1.043886304,-4.612589359,1,-1.04054153,1,-8.50316143,1,0.032181978,1,0.017314579,1,-0.0845844,1,0.1331299543380737,1,-0.504343927,1,-1.811084747,1,0.1135106086730957,1,0.096013308,1,-0.016472816,1
1.047887921,-4.659012794,1,-1.137887001,1,-8.482607841,1,0.040027607,1,0.012075896,1,-0.089275472,1,0.1334574818611145,1,-0.504235566,1,-1.811471343,1,0.066158772,1,0.001515746,1,0.00421524,1
1.051885366,-4.66604805,1,-1.261393189,1,-8.490419388,1,0.036713403,1,0.013841799,1,-0.09102688,1,0.1337923407554626,1,-0.504140496,1,-1.811865568,1,0.058310032,1,-0.119088888,1,-0.003534317,1
1.055884242,-4.614495277,1,-1.30461216,1,-8.51407814,1,0.035973832,1,0.010009111,1,-0.085156813,1,0.1341248899698257,1,-0.504049778,1,-1.812250853,1,0.1090855598449707,1,-0.159428358,1,-0.027148247,1
1.059885621,-4.606928825,1,-1.310468316,1,-8.492880821,1,0.03483104,1,0.010780401,1,-0.076458372,1,0.1344411373138428,1,-0.503967583,1,-1.81261611,1,0.1159486770629883,1,-0.162548542,1,-0.005928993,1
1.063882709,-4.669371128,1,-1.349762321,1,-8.540035248,1,0.033246458,1,0.002129793,1,-0.071735933,1,0.1347371637821198,1,-0.503904939,1,-1.8129493,1,0.052969456,1,-0.199290514,1,-0.05313015,1
1.067881942,-4.646337986,1,-1.366771102,1,-8.553487778,1,0.031875283,1,0.00268985,1,-0.069496125,1,0.1350201368331909,1,-0.503855944,1,-1.813267589,1,0.075582504,1,-0.213866353,1,-0.066678047,1
1.071882963,-4.605228901,1,-1.397580028,1,-8.569779396,1,0.028421614,1,-0.001434221,1,-0.069140106,1,0.1352958679199219,1,-0.503809214,1,-1.813586712,1,0.1162919998168945,1,-0.242305279,1,-0.083067894,1
1.07588017,-4.586977005,1,-1.399825096,1,-8.592874527,1,0.028413795,1,-0.004935445,1,-0.064151548,1,0.1355521529912949,1,-0.503789485,1,-1.813885927,1,0.1343741416931152,1,-0.242362976,1,-0.106368065,1
1.079879403,-4.613629341,1,-1.353755951,1,-8.623574257,1,0.026113747,1,-0.011984276,1,-0.061749496,1,0.1357933729887009,1,-0.503785789,1,-1.814171672,1,0.1076908111572266,1,-0.194244385,1,-0.137330055,1
1.083880663,-4.62813139,1,-1.305435061,1,-8.612851143,1,0.023256877,1,-0.014295745,1,-0.057117682,1,0.1360298842191696,1,-0.503801227,1,-1.81445384,1,0.093320847,1,-0.143926859,1,-0.126957893,1
1.087878108,-4.693631649,1,-1.280613899,1,-8.646622658,1,0.025759378,1,-0.018591663,1,-0.059513949,1,0.1362627744674683,1,-0.503839374,1,-1.814735651,1,0.028147221,1,-0.117153525,1,-0.161174774,1
1.091877103,-4.657042503,1,-1.344406605,1,-8.631170273,1,0.024275335,1,-0.023869641,1,-0.060201861,1,0.1364935487508774,1,-0.50389421,1,-1.815016866,1,0.065206051,1,-0.179023147,1,-0.146247864,1
1.095878124,-4.640695095,1,-1.395868659,1,-8.583542824,1,0.025139539,1,-0.027365394,1,-0.060579583,1,0.1367318630218506,1,-0.503959894,1,-1.815300941,1,0.08211565,1,-0.228505254,1,-0.099204063,1
1.099875569,-4.657818794,1,-1.470511556,1,-8.578755379,1,0.019263582,1,-0.026658053,1,-0.061571166,1,0.1369542628526688,1,-0.504040599,1,-1.815590143,1,0.065683842,1,-0.301313281,1,-0.095053673,1
1.103874564,-4.65419817,1,-1.486675739,1,-8.555857658,1,0.017502235,1,-0.030738669,1,-0.058392074,1,0.1373802870512009,1,-0.50403583,1,-1.816021323,1,0.069263458,1,-0.313860655,1,-0.072636604,1
1.107875586,-4.718033791,1,-1.481255174,1,-8.56657505,1,0.014755137,1,-0.036246683,1,-0.050963808,1,0.1375128328800201,1,-0.504170001,1,-1.815066457,1,0.006576538,1,-0.307402492,1,-0.084136009,1
1.111872792,-4.707812309,1,-1.445708752,1,-8.537469864,1,0.005546133,1,-0.040370978,1,-0.051870402,1,0.1376737356185913,1,-0.504293799,1,-1.815324306,1,0.017858028,1,-0.270571709,1,-0.055800438,1
1.115871787,-4.649550915,1,-1.353338957,1,-8.605967522,1,0.005898193,1,-0.042212408,1,-0.055476833,1,0.137814924,1,-0.504431129,1,-1.815593958,1,0.07729578,1,-0.177093625,1,-0.125106812,1
1.119878888,-4.591284275,1,-1.274303317,1,-8.559660912,1,0.00331252,1,-0.047889423,1,-0.056592338,1,0.1379597634077072,1,-0.504579127,1,-1.815865159,1,0.1368298530578613,1,-0.096925855,1,-0.07966423,1
1.123882294,-4.571514606,1,-1.200578928,1,-8.574275017,1,0.004558108,1,-0.050064728,1,-0.060663421,1,0.1381097733974457,1,-0.504750609,1,-1.816149354,1,0.1580672264099121,1,-0.022040963,1,-0.095256805,1
1.127881765,-4.638767242,1,-1.193923235,1,-8.561092377,1,0.008305015,1,-0.053250946,1,-0.057989039,1,0.1382862031459808,1,-0.504924715,1,-1.816447616,1,0.092305183,1,-0.014002681,1,-0.083098412,1
1.131883025,-4.622614384,1,-1.144566178,1,-8.589971542,1,0.017445201,1,-0.05728307,1,-0.059094701,1,0.1384850144386292,1,-0.505112588,1,-1.816744328,1,0.1100654602050781,1,0.03691709,1,-0.113092422,1
1.135880232,-4.649763584,1,-1.20722568,1,-8.566948891,1,0.018525749,1,-0.060102012,1,-0.064014547,1,0.1387106627225876,1,-0.505307317,1,-1.817056894,1,0.084583282,1,-0.023956895,1,-0.091247559,1
1.139879227,-4.627696037,1,-1.187387228,1,-8.5773983,1,0.019948769,1,-0.06346859,1,-0.065498427,1,0.1389490067958832,1,-0.505517542,1,-1.817389011,1,0.1084494590759277,1,-0.002236247,1,-0.102965355,1
1.143880486,-4.654637814,1,-1.182457209,1,-8.551996231,1,0.023663251,1,-0.068621598,1,-0.072932199,1,0.1391972750425339,1,-0.505744159,1,-1.817741871,1,0.08344698,1,0.004648805,1,-0.078920364,1
1.147877574,-4.615947723,1,-1.109738111,1,-8.56876564,1,0.023756117,1,-0.07530465,1,-0.075155616,1,0.1394804716110229,1,-0.505984545,1,-1.818126798,1,0.1241936683654785,1,0.079608917,1,-0.097155571,1
1.151876807,-4.60572958,1,-1.087667942,1,-8.599284172,1,0.029244298,1,-0.077401802,1,-0.081273541,1,0.1397823691368103,1,-0.506242454,1,-1.818527937,1,0.1366176605224609,1,0.1040663719177246,1,-0.129243851,1
1.155878186,-4.593326569,1,-1.091816425,1,-8.57841301,1,0.034010056,1,-0.083469361,1,-0.088400364,1,0.1401248276233673,1,-0.506511927,1,-1.818962812,1,0.1513252258300781,1,0.1026397943496704,1,-0.11004734,1
1.159875274,-4.670654774,1,-1.092576265,1,-8.56540966,1,0.042708941,1,-0.087282442,1,-0.094275914,1,0.1405014991760254,1,-0.506792247,1,-1.81942606,1,0.076394081,1,0.1048834323883057,1,-0.09881115,1
1.163874865,-4.639063835,1,-1.174391508,1,-8.531618118,1,0.042651236,1,-0.09371534,1,-0.097894691,1,0.1409015506505966,1,-0.507110655,1,-1.819912434,1,0.1107077598571777,1,0.026242733,1,-0.066997528,1
1.167876124,-4.69071722,1,-1.248919606,1,-8.526304245,1,0.045337372,1,-0.096670859,1,-0.100435935,1,0.1413216292858124,1,-0.507428348,1,-1.820427299,1,0.061769962,1,-0.044942141,1,-0.063681602,1
1.171873331,-4.687336445,1,-1.31674087,1,-8.523005486,1,0.042579342,1,-0.098449834,1,-0.102744415,1,0.1417503505945206,1,-0.507761478,1,-1.820953012,1,0.067998409,1,-0.109358907,1,-0.062466621,1
1.175872564,-4.712849617,1,-1.304671884,1,-8.513439178,1,0.044396039,1,-0.102984264,1,-0.104878128,1,0.1421813666820526,1,-0.508106291,1,-1.821485996,1,0.045431614,1,-0.093875885,1,-0.055045128,1
1.179873586,-4.656987667,1,-1.321582079,1,-8.530454636,1,0.038704637,1,-0.105579063,1,-0.09994825,1,0.1426012367010117,1,-0.508460999,1,-1.822023034,1,0.1043243408203125,1,-0.107474804,1,-0.074241638,1
1.183871031,-4.713902473,1,-1.346116185,1,-8.51226902,1,0.042981248,1,-0.113820523,1,-0.106139138,1,0.1430263966321945,1,-0.508836389,1,-1.822561026,1,0.050616264,1,-0.128669262,1,-0.058346748,1
1.187869906,-4.703323841,1,-1.456447244,1,-8.491998672,1,0.042073116,1,-0.112624437,1,-0.104668766,1,0.1434563100337982,1,-0.509224594,1,-1.82311666,1,0.064509869,1,-0.235630035,1,-0.040429115,1
1.191870928,-4.589999676,1,-1.519035816,1,-8.502026558,1,0.035855643,1,-0.118736118,1,-0.101342253,1,0.1438675820827484,1,-0.5096156,1,-1.823654413,1,0.1811728477478027,1,-0.29501009,1,-0.052803993,1
1.195868373,-4.597951412,1,-1.591445446,1,-8.490661621,1,0.030202521,1,-0.127958283,1,-0.096949153,1,0.1442582011222839,1,-0.510043323,1,-1.824189901,1,0.1768717765808105,1,-0.364413261,1,-0.043941498,1
1.199873567,-4.642606735,1,-1.552456021,1,-8.505758286,1,0.027834024,1,-0.130098209,1,-0.100900471,1,0.1446333974599838,1,-0.510495245,1,-1.824714661,1,0.1360735893249512,1,-0.322565913,1,-0.061634064,1
1.203874826,-4.663215637,1,-1.481040001,1,-8.529797554,1,0.026643006,1,-0.133567184,1,-0.090347812,1,0.1449831128120422,1,-0.510963321,1,-1.825219989,1,0.1194586753845215,1,-0.248519659,1,-0.088315964,1
1.207872272,-4.703566074,1,-1.516811728,1,-8.528944969,1,0.021741465,1,-0.146557629,1,-0.089529216,1,0.1453134715557098,1,-0.511462927,1,-1.825718164,1,0.083369732,1,-0.281849504,1,-0.090240479,1
1.211877346,-4.663710594,1,-1.488691568,1,-8.525422096,1,0.022191552,1,-0.143141299,1,-0.086064331,1,0.1456508785486221,1,-0.511982799,1,-1.826211095,1,0.1276578903198242,1,-0.251243353,1,-0.089596748,1
1.215878963,-4.711566925,1,-1.435312629,1,-8.512923241,1,0.0281324,1,-0.152656406,1,-0.081830464,1,0.1459797918796539,1,-0.512520432,1,-1.826692462,1,0.084385395,1,-0.195464373,1,-0.080053329,1
1.219876409,-4.716800213,1,-1.332194209,1,-8.546034813,1,0.025589755,1,-0.151936501,1,-0.084452614,1,0.1463279575109482,1,-0.513079464,1,-1.827177405,1,0.08391571,1,-0.089801669,1,-0.116254807,1
1.223875284,-4.728010178,1,-1.323400259,1,-8.500068665,1,0.028058175,1,-0.158541784,1,-0.087708883,1,0.1466789543628693,1,-0.513650656,1,-1.82767272,1,0.077572346,1,-0.078450084,1,-0.073439598,1
1.227876663,-4.604404449,1,-1.175157666,1,-8.515043259,1,0.03050624,1,-0.161835626,1,-0.090408437,1,0.1470437496900558,1,-0.514232397,1,-1.828176379,1,0.2061328887939453,1,0.072457433,1,-0.091629982,1
1.231873751,-4.673455238,1,-1.268062711,1,-8.609256744,1,0.038012821,1,-0.170421481,1,-0.094748296,1,0.1474399566650391,1,-0.514835298,1,-1.828716874,1,0.142214298,1,-0.01753664,1,-0.189209938,1
1.235872746,-4.732631207,1,-1.26023984,1,-8.526345253,1,0.03575699,1,-0.178277671,1,-0.098696418,1,0.1478492468595505,1,-0.515472114,1,-1.829272866,1,0.088458538,1,-0.006720185,1,-0.109848976,1
1.239874005,-4.6699543,1,-1.258409619,1,-8.512785912,1,0.04553986,1,-0.178197041,1,-0.100568332,1,0.1483007818460464,1,-0.516113818,1,-1.829842925,1,0.1565947532653809,1,-0.001546502,1,-0.099913597,1
1.243871212,-4.737176418,1,-1.274617314,1,-8.551838875,1,0.042046338,1,-0.18663995,1,-0.10374888,1,0.1487610936164856,1,-0.516787052,1,-1.830430746,1,0.095098495,1,-0.014364243,1,-0.142765999,1
1.247870445,-4.613545895,1,-1.317452788,1,-8.505283356,1,0.048278622,1,-0.192133456,1,-0.108758189,1,0.149255782,1,-0.517475665,1,-1.831044912,1,0.2245826721191406,1,-0.053534865,1,-0.100125313,1
1.251871705,-4.656868935,1,-1.334949374,1,-8.531329155,1,0.045301333,1,-0.201572627,1,-0.110990047,1,0.149751142,1,-0.518188059,1,-1.831674218,1,0.1873140335083008,1,-0.06738317,1,-0.13021183,1
1.255868912,-4.580361843,1,-1.441118598,1,-8.547943115,1,0.045920983,1,-0.212801173,1,-0.106544785,1,0.1502493917942047,1,-0.518946409,1,-1.832316399,1,0.2702627182006836,1,-0.169916272,1,-0.151090622,1
1.259868145,-4.689198494,1,-1.426488161,1,-8.536101341,1,0.049865972,1,-0.22433956,1,-0.105616912,1,0.1507628113031387,1,-0.519748688,1,-1.832957029,1,0.1682381629943848,1,-0.151559472,1,-0.143749237,1
1.263869405,-4.611354828,1,-1.563925028,1,-8.646814346,1,0.045970432,1,-0.239237145,1,-0.106273443,1,0.1512694805860519,1,-0.520596564,1,-1.833600163,1,0.2532768249511719,1,-0.285365701,1,-0.259185791,1
1.267866611,-4.769276619,1,-1.57680428,1,-8.477882385,1,0.047942337,1,-0.251270413,1,-0.100076243,1,0.1517688930034637,1,-0.521499693,1,-1.834237576,1,0.1030158996582031,1,-0.294721365,1,-0.095241547,1
1.271865845,-4.717297077,1,-1.549874544,1,-8.554262161,1,0.039741389,1,-0.257662982,1,-0.093940645,1,0.1522568613290787,1,-0.522442758,1,-1.834861159,1,0.1629905700683594,1,-0.264398813,1,-0.176795006,1
1.275866866,-4.508255959,1,-1.607616425,1,-8.607593536,1,0.033769686,1,-0.277754128,1,-0.092734955,1,0.1527058780193329,1,-0.523447692,1,-1.835476756,1,0.380547047,1,-0.319125652,1,-0.235552788,1
1.279870152,-4.716435909,1,-1.487785459,1,-8.600187302,1,0.032218438,1,-0.293101817,1,-0.095404424,1,0.1531461477279663,1,-0.52453059,1,-1.836102724,1,0.1815366744995117,1,-0.196417332,1,-0.23395443,1
1.283869386,-4.637256145,1,-1.377787709,1,-8.573335648,1,0.033470426,1,-0.309730142,1,-0.097541191,1,0.1536048501729965,1,-0.525661647,1,-1.836756349,1,0.2702884674072266,1,-0.083430052,1,-0.213171005,1
1.287870407,-4.628195763,1,-1.575007558,1,-8.674468994,1,0.031562436,1,-0.337431699,1,-0.097130276,1,0.1540699005126953,1,-0.526878953,1,-1.837421775,1,0.2896428108215332,1,-0.27767992,1,-0.320817947,1
1.291867614,-4.754440308,1,-1.618021965,1,-8.657349586,1,0.026658092,1,-0.350268543,1,-0.092183791,1,0.1545250564813614,1,-0.528174043,1,-1.838100791,1,0.1743426322937012,1,-0.317874074,1,-0.310592651,1
1.295866847,-4.601872444,1,-1.727400184,1,-8.735084534,1,0.012313183,1,-0.364158601,1,-0.088966422,1,0.1549407690763474,1,-0.529530466,1,-1.838760018,1,0.3383641242980957,1,-0.424815536,1,-0.39548111,1
1.299867868,-4.606470108,1,-1.345638156,1,-8.810525894,1,0.009577388,1,-0.386164397,1,-0.087518036,1,0.1553219705820084,1,-0.530957282,1,-1.839434743,1,0.3458046913146973,1,-0.040965796,1,-0.478390694,1
1.303865075,-4.606237888,1,-1.265770674,1,-8.899214745,1,0.014366426,1,-0.416242748,1,-0.086878739,1,0.1557207554578781,1,-0.532500684,1,-1.840125203,1,0.3590483665466309,1,0.041037202,1,-0.57516098,1
1.30786407,-4.521388531,1,-1.321760416,1,-8.951649666,1,0.017474428,1,-0.450790793,1,-0.085102819,1,0.1561520397663116,1,-0.534155548,1,-1.840837717,1,0.4578342437744141,1,-0.012642622,1,-0.636291504,1
1.31186533,-4.496831417,1,-1.444431186,1,-8.997236252,1,0.000894825,1,-0.485645711,1,-0.089234754,1,0.1565635651350021,1,-0.535951793,1,-1.841570616,1,0.4975037574768066,1,-0.133288503,1,-0.691267014,1
1.315862536,-4.439908504,1,-1.58849287,1,-9.023180008,1,-0.016292211,1,-0.526717186,1,-0.090375356,1,0.1569461673498154,1,-0.537899792,1,-1.842358112,1,0.5707974433898926,1,-0.275694609,1,-0.727333069,1
1.319861531,-4.523260593,1,-1.466135263,1,-9.113610268,1,-0.042463847,1,-0.57312572,1,-0.082181022,1,0.1572282314300537,1,-0.540029824,1,-1.843156576,1,0.5053243637084961,1,-0.152671576,1,-0.828695297,1
1.323862791,-4.433168888,1,-1.255069733,1,-9.34597683,1,-0.036756996,1,-0.615134299,1,-0.085264266,1,0.1574920564889908,1,-0.542326033,1,-1.843980193,1,0.6146636009216309,1,0.058764696,1,-1.07283783,1
1.327859998,-4.509449959,1,-1.429862499,1,-9.322640419,1,-0.024655802,1,-0.674993336,1,-0.083908141,1,0.1578181833028793,1,-0.544812322,1,-1.844832778,1,0.5591945648193359,1,-0.115306258,1,-1.062348366,1
1.331858993,-4.326497555,1,-1.764637589,1,-9.413469315,1,-0.055884231,1,-0.741851568,1,-0.07468459,1,0.1581172794103622,1,-0.547567368,1,-1.845718861,1,0.7651710510253906,1,-0.44981432,1,-1.16738987,1
1.335860252,-4.09032011,1,-1.561264396,1,-9.818459511,1,-0.078257397,1,-0.789521277,1,-0.069392346,1,0.1583133935928345,1,-0.550540388,1,-1.84662056,1,1.026151657104492,1,-0.247216582,1,-1.58762455,1
1.339857459,-4.386921406,1,-0.830739617,1,-9.453855515,1,-0.003741166,1,-0.845514953,1,-0.069864847,1,0.1586340069770813,1,-0.553705812,1,-1.847549438,1,0.7559089660644531,1,0.4833824634552002,1,-1.239473343,1
1.343856692,-4.286892414,1,-2.171186686,1,-9.693769455,1,-0.036450606,1,-0.939928472,1,-0.041706476,1,0.159076601,1,-0.557200193,1,-1.848469496,1,0.8849754333496094,1,-0.856283903,1,-1.497763634,1
1.347857952,-4.291347504,1,-2.275879145,1,-9.523365021,1,-0.07390371,1,-0.999617636,1,-0.032408092,1,0.1593294739723206,1,-0.560992002,1,-1.8493644,1,0.9119582176208496,1,-0.962024808,1,-1.347114563,1
1.351855159,-4.659528732,1,-1.337910414,1,-10.12756062,1,-0.061231188,1,-1.057676435,1,-0.005920352,1,0.1594785451889038,1,-0.565045834,1,-1.850227594,1,0.5773043632507324,1,-0.02619791,1,-1.972400665,1
1.355860233,-4.018188,1,-1.876081467,1,-9.731239319,1,-0.045553591,1,-1.155364275,1,0.019421035,1,0.1596218645572662,1,-0.569450796,1,-1.849776149,1,1.254979133605957,1,-0.566879511,1,-1.599122047,1
1.359861493,-4.390948772,1,-2.203983545,1,-9.997764587,1,-0.077439211,1,-1.244084597,1,0.054792233,1,0.159751758,1,-0.574216962,1,-1.850496531,1,0.9214162826538086,1,-0.897738338,1,-1.890721321,1
1.3638587,-4.171058655,1,-2.083160877,1,-9.893428802,1,-0.105544433,1,-1.348359466,1,0.077040032,1,0.1597789227962494,1,-0.579371929,1,-1.851200819,1,1.183566570281982,1,-0.781069875,1,-1.813566208,1
1.367857695,-4.695926666,1,-1.73138237,1,-10.21269226,1,-0.084903434,1,-1.427914977,1,0.1282674521207809,1,0.1596760451793671,1,-0.584917188,1,-1.851752162,1,0.7039990425109863,1,-0.43486321,1,-2.162132263,1
1.371858716,-4.408555508,1,-2.152802944,1,-10.26668739,1,-0.106251985,1,-1.542548418,1,0.1535457819700241,1,0.1595716029405594,1,-0.590872288,1,-1.85223341,1,1.039833545684814,1,-0.8622576,1,-2.24788475,1
1.375856161,-4.409826756,1,-2.2210114,1,-10.90745258,1,-0.137627095,1,-1.643821836,1,0.1798859685659409,1,0.1593259423971176,1,-0.59728092,1,-1.85266006,1,1.090500831604004,1,-0.93800199,1,-2.922973633,1
1.379855394,-4.379623413,1,-1.0580405,1,-10.54153824,1,-0.06944409,1,-1.74429512,1,0.1909119486808777,1,0.1591391861438751,1,-0.604072809,1,-1.853076458,1,1.175502777099609,1,0.217528224,1,-2.593889236,1
1.383856654,-3.634823561,1,-1.657043219,1,-10.88716125,1,-0.063875809,1,-1.888065577,1,0.2409868985414505,1,0.1591001451015472,1,-0.611389637,1,-1.8534621,1,1.979048490524292,1,-0.388258219,1,-2.979805946,1
1.387854099,-4.249628544,1,-2.06305337,1,-11.22765923,1,-0.050858587,1,-2.003855467,1,0.2664957344532013,1,0.1590282022953033,1,-0.619232774,1,-1.853728175,1,1.426882266998291,1,-0.801848769,1,-3.363930225,1
1.391853094,-4.085639477,1,-1.837900639,1,-11.09355736,1,-0.041615661,1,-2.137995243,1,0.2924294769763947,1,0.1590123474597931,1,-0.627592385,1,-1.853987455,1,1.657250404,1,-0.5843786,1,-3.276936531,1
1.395854115,-4.001117229,1,-1.938230872,1,-11.54661179,1,-0.032525592,1,-2.273175716,1,0.3284085392951965,1,0.1589678972959518,1,-0.636490524,1,-1.854194522,1,1.811985969543457,1,-0.693194866,1,-3.780700684,1
1.399851561,-4.024396896,1,-1.753601909,1,-11.72116089,1,-0.016098544,1,-2.415657997,1,0.3680191040039063,1,0.1589500159025192,1,-0.645975173,1,-1.854327202,1,1.863041400909424,1,-0.517488003,1,-4.010019302,1
1.403850555,-4.734841347,1,-1.792080283,1,-12.29276466,1,0.028937969,1,-2.551069736,1,0.3923453092575073,1,0.1590420603752136,1,-0.656019866,1,-1.854426503,1,1.230743408203125,1,-0.56468451,1,-4.640515327,1
1.407851815,-3.114196777,1,-2.025276184,1,-11.44790363,1,0.034965266,1,-2.732311964,1,0.4287919700145721,1,0.1592087149620056,1,-0.66668874,1,-1.854500532,1,2.933731555938721,1,-0.806765079,1,-3.85913372,1
1.411848903,-3.073101282,1,-2.136272669,1,-12.1222744,1,0.009455462,1,-2.905899525,1,0.5167850255966187,1,0.1592239290475845,1,-0.678144217,1,-1.854402781,1,3.062474489212036,1,-0.928710699,1,-4.602425575,1
1.415847898,-3.834773302,1,-2.158930779,1,-12.40857983,1,0.044386365,1,-3.061807394,1,0.5663703680038452,1,0.1591247022151947,1,-0.690266252,1,-1.854072928,1,2.392672777175903,1,-0.963988304,1,-4.96259737,1
1.419849157,-3.892323971,1,-2.125703812,1,-12.32384491,1,0.061673883,1,-3.234634638,1,0.6042299270629883,1,0.1590763181447983,1,-0.703060508,1,-1.853666902,1,2.431095123291016,1,-0.943840027,1,-4.957080364,1
1.423846364,-3.287448168,1,-2.91680479,1,-12.20928574,1,-0.011772853,1,-3.441319466,1,0.6640892624855042,1,0.1588602215051651,1,-0.716665149,1,-1.853146911,1,3.136885881,1,-1.750250578,1,-4.927887917,1
1.427845597,-2.827157021,1,-2.874116898,1,-12.27306843,1,-0.050620943,1,-3.644323349,1,0.7312759160995483,1,0.158287302,1,-0.731090784,1,-1.85245645,1,3.702883243560791,1,-1.726463437,1,-5.083276749,1
1.431846857,-3.766187668,1,-2.501226187,1,-13.17384148,1,-0.106690593,1,-3.847391129,1,0.7674754858016968,1,0.1573955714702606,1,-0.746376932,1,-1.851627231,1,2.874381065368652,1,-1.375763297,1,-6.082449436,1
1.435850263,-3.619303942,1,-2.03998971,1,-12.86653519,1,-0.103644207,1,-4.061731815,1,0.8215058445930481,1,0.1563699245452881,1,-0.762486398,1,-1.850716233,1,3.136066198348999,1,-0.938604712,1,-5.880579472,1
1.439849973,-3.347966433,1,-2.028224468,1,-13.57522392,1,-0.128226727,1,-4.286401749,1,0.8886948227882385,1,0.1551340222358704,1,-0.779527307,1,-1.849626064,1,3.526934862136841,1,-0.953419685,1,-6.702658653,1
1.443851233,-5.308286667,1,-2.616737127,1,-14.36364365,1,-0.124447495,1,-4.451737881,1,0.9217073917388916,1,0.1536829024553299,1,-0.797366202,1,-1.848322868,1,1.689602851867676,1,-1.570848107,1,-7.611805916,1
1.447848439,-4.088143826,1,-1.871100903,1,-13.38815498,1,-0.110416599,1,-4.683251858,1,0.933871865,1,0.152323842,1,-0.815955758,1,-1.847061276,1,3.035539627075195,1,-0.854305983,1,-6.764643669,1
1.451847672,-1.821949482,1,-1.597439885,1,-13.33235264,1,-0.178199038,1,-4.969426632,1,1.018977284431458,1,0.1506966650485992,1,-0.835626543,1,-1.845668435,1,5.432163715362549,1,-0.612654328,1,-6.847009182,1
1.455848694,-2.564099312,1,-2.134984016,1,-14.08822918,1,-0.181555003,1,-5.244088173,1,1.079815626144409,1,0.1487478017807007,1,-0.856461644,1,-1.843996763,1,4.825101375579834,1,-1.185447931,1,-7.751848698,1
1.459846139,-3.849639893,1,-2.296287298,1,-14.49306107,1,-0.220341802,1,-5.507352829,1,1.079450607299805,1,0.1466096043586731,1,-0.878373265,1,-1.842258573,1,3.678166389465332,1,-1.384176731,1,-8.316343307,1
1.463845372,-6.037055492,1,-1.662644863,1,-15.14363861,1,-0.210395247,1,-5.740007401,1,1.063366174697876,1,0.1445136517286301,1,-0.901254356,1,-1.840703964,1,1.631630420684814,1,-0.788520873,1,-9.137075424,1
1.467846632,-9.292489052,1,-1.265527487,1,-16.41491699,1,-0.154003844,1,-5.88817358,1,1.018375635147095,1,0.1427502632141113,1,-0.924896538,1,-1.839390635,1,-1.48245573,1,-0.428028941,1,-10.58794403,1
1.471844077,-8.225355148,1,-1.229297996,1,-15.83950329,1,-0.148662746,1,-6.015219688,1,0.9249999523162842,1,0.1414660960435867,1,-0.948978901,1,-1.838583231,1,-0.275831223,1,-0.426040411,1,-10.19933891,1
1.475843549,-5.230430603,1,-0.455283105,1,-15.39573002,1,-0.082526356,1,-6.308965206,1,0.8662877678871155,1,0.140924796,1,-0.973877072,1,-1.838472605,1,2.858462333679199,1,0.3168759346008301,1,-9.952823639,1
1.47984457,-6.770954132,1,-1.614876151,1,-16.24015045,1,-0.039127208,1,-6.53337574,1,0.8490659594535828,1,0.1410377472639084,1,-0.999818504,1,-1.838901043,1,1.457811356,1,-0.871856093,1,-11.0068922,1
1.483841777,-9.319801331,1,-2.007954359,1,-16.81870079,1,-0.044902787,1,-6.645525455,1,0.8739761710166931,1,0.1413285136222839,1,-1.026435494,1,-1.839456797,1,-0.953276634,1,-1.294524431,1,-11.80433083,1
1.487840772,-11.49214554,1,-2.562988281,1,-17.49795723,1,0.014997493,1,-6.602760315,1,0.8856679797172546,1,0.1417033821344376,1,-1.053184032,1,-1.839953423,1,-2.993151665,1,-1.879537106,1,-12.70717239,1
1.49184227,-11.01946545,1,-2.09711504,1,-16.23014641,1,0.1042982637882233,1,-6.558798313,1,0.8960641622543335,1,0.1422959268093109,1,-1.079714656,1,-1.8404001,1,-2.395089149,1,-1.443039656,1,-11.66462708,1
1.495839715,-10.22498703,1,-2.674004555,1,-15.94378757,1,0.07678251,1,-6.560025215,1,0.8934247493743896,1,0.1430409550666809,1,-1.106234789,1,-1.840805531,1,-1.481342316,1,-2.049360275,1,-11.60671997,1
1.49983871,-12.5015192,1,-4.026832104,1,-17.44413567,1,-0.004390205,1,-6.372457981,1,0.9618815183639526,1,0.1432017982006073,1,-1.132417917,1,-1.840816021,1,-3.646155357,1,-3.43437314,1,-13.33522415,1
1.50383997,-15.73415947,1,-4.052218437,1,-18.0860405,1,-0.009609116,1,-6.135858536,1,0.9180643558502197,1,0.1428013294935226,1,-1.157715917,1,-1.84040761,1,-6.776618958,1,-3.493472576,1,-14.19992256,1
1.507837176,-12.95227623,1,-2.451305389,1,-15.56237125,1,0.024965633,1,-5.975745678,1,0.7961397767066956,1,0.1429207026958466,1,-1.182148933,1,-1.84052825,1,-3.901492119,1,-1.923432827,1,-11.89408875,1
1.511836171,-10.32203388,1,-0.521289945,1,-14.77983093,1,0.085116141,1,-5.897285938,1,0.7663844227790833,1,0.1440297067165375,1,-1.206123948,1,-1.841467738,1,-1.185006142,1,-0.020644009,1,-11.32790947,1
1.515843272,-13.08633995,1,-0.778279483,1,-16.15096474,1,0.2312154769897461,1,-5.680714607,1,0.6705042719841003,1,0.1459363102912903,1,-1.229475379,1,-1.842823625,1,-3.870360374,1,-0.302215964,1,-12.91202354,1
1.519846678,-12.30424023,1,-0.196137577,1,-16.40656662,1,0.4410020709037781,1,-5.449214935,1,0.5878268480300903,1,0.1495296508073807,1,-1.251841545,1,-1.845215321,1,-3.017351151,1,0.2607348561286926,1,-13.37397575,1
1.523846149,-11.24559689,1,0.8737297058105469,1,-14.49972153,1,0.6630659699440002,1,-5.328191757,1,0.4416593611240387,1,0.1555978953838348,1,-1.273455858,1,-1.849270821,1,-1.894595146,1,1.317779421806335,1,-11.66896057,1
1.527847409,-16.21806717,1,-0.94567883,1,-13.99140644,1,0.738373339,1,-5.081195354,1,0.2413364052772522,1,0.165227011,1,-1.294266701,1,-1.856336832,1,-6.809463501,1,-0.506498456,1,-11.3575964,1
1.531844616,-12.60018826,1,-1.009895802,1,-12.11968708,1,0.7303729057312012,1,-4.821581364,1,0.1027314737439156,1,0.1780587732791901,1,-1.313866377,1,-1.866560936,1,-3.141060829,1,-0.569706917,1,-9.673713684,1
1.535843849,-4.313227654,1,-3.887937546,1,-11.72391605,1,0.4685800671577454,1,-4.401797295,1,-0.129964978,1,0.1942833960056305,1,-1.332101583,1,-1.880716681,1,5.189643859863281,1,-3.441501617,1,-9.455040932,1
1.539844871,-2.003594875,1,-7.39074707,1,-12.81637764,1,-0.027506713,1,-3.795760155,1,-0.312622935,1,0.2130319476127625,1,-1.347881317,1,-1.899064302,1,7.534580707550049,1,-6.933619499,1,-10.70312023,1
1.543842077,-20.28928185,1,-6.191395283,1,-10.91570377,1,-0.604252338,1,-3.419746399,1,-0.628849745,1,0.234707236,1,-1.361803293,1,-1.922473907,1,-10.7219305,1,-5.719501972,1,-8.9421978,1
1.547841072,-26.95824242,1,-9.996665001,1,-22.76801491,1,-0.924222827,1,-1.985436082,1,-1.210088372,1,0.2619203925132751,1,-1.371361613,1,-1.953221202,1,-17.37193298,1,-9.494951248,1,-20.89650154,1
1.551842332,-8.632071495,1,-8.308220863,1,-17.87526131,1,-1.281642437,1,-1.460358858,1,-1.466216207,1,0.2928202450275421,1,-1.376405001,1,-1.989289522,1,0.9638881683349609,1,-7.762883663,1,-16.06643486,1
1.555839777,-7.378724575,1,-1.821741581,1,-16.911129,1,-1.473821282,1,-1.085985661,1,-1.666879535,1,0.3257366120815277,1,-1.379346251,1,-2.028515577,1,2.222750186920166,1,-1.226207376,1,-15.1479845,1
1.559838772,-4.281264782,1,0.8048746585845947,1,-16.07767868,1,-1.347082019,1,-0.72642982,1,-1.861971378,1,0.3608232140541077,1,-1.38035655,1,-2.070017576,1,5.322084903717041,1,1.458464860916138,1,-14.34559345,1
1.56384027,-1.036088228,1,1.756899714,1,-15.11715317,1,-1.125148892,1,-0.469841152,1,-1.987926126,1,0.3974190652370453,1,-1.379709601,1,-2.112366199,1,8.566061973571777,1,2.475830793380737,1,-13.40441036,1
1.567837954,-2.163013458,1,1.972267985343933,1,-14.14531612,1,-0.873150945,1,-0.241513327,1,-2.154095888,1,0.435403973,1,-1.377679706,1,-2.155129433,1,7.435346603393555,1,2.763945103,1,-12.44343567,1
1.571837187,-3.541759014,1,1.655841708183289,1,-13.96504211,1,-0.675228357,1,0.043088049,1,-2.306115389,1,0.4739019870758057,1,-1.374119997,1,-2.197492599,1,6.049858570098877,1,2.528021574020386,1,-12.26450348,1
1.575838208,-2.982483149,1,1.415000557899475,1,-13.40049267,1,-0.571491003,1,0.3524062037467957,1,-2.407624006,1,0.5107453465461731,1,-1.368960857,1,-2.237597942,1,6.599146842956543,1,2.373401165008545,1,-11.69009399,1
1.579835415,-1.654959679,1,1.145634651184082,1,-12.82217312,1,-0.508463144,1,0.6337140202522278,1,-2.456707478,1,0.5442754626274109,1,-1.362347484,1,-2.274040461,1,7.913495063781738,1,2.193626165390015,1,-11.09068966,1
1.58383441,-0.028039541,1,0.923071563,1,-12.05635262,1,-0.463306367,1,0.8836692571640015,1,-2.452045441,1,0.5735225677490234,1,-1.354553819,1,-2.305943012,1,9.524350166320801,1,2.061675786972046,1,-10.2936697,1
1.58783567,1.284261226654053,1,0.9981073141098022,1,-11.27155781,1,-0.437208831,1,1.084155201911926,1,-2.400295258,1,0.5980702638626099,1,-1.345889807,1,-2.332945585,1,10.81811141967773,1,2.226189613342285,1,-9.469020844,1
1.591833115,2.264596700668335,1,0.8663983941078186,1,-10.43920326,1,-0.421128213,1,1.253604054450989,1,-2.304838419,1,0.6180077195167542,1,-1.336666703,1,-2.355171204,1,11.77792549133301,1,2.181068420410156,1,-8.589914322,1
1.595838428,2.940146446228027,1,0.9217340350151062,1,-9.932771683,1,-0.428568572,1,1.390780329704285,1,-2.174099445,1,0.6333593726158142,1,-1.327121139,1,-2.372716904,1,12.43138313293457,1,2.318318843841553,1,-8.030774117,1
1.599840045,3.407103300094604,1,0.8833116292953491,1,-9.444438934,1,-0.436089486,1,1.505250453948975,1,-2.023095131,1,0.6446056962013245,1,-1.31746304,1,-2.386110067,1,12.87510871887207,1,2.356214761734009,1,-7.485080719,1
1.60383749,3.964322805404663,1,0.9193525910377502,1,-8.613459587,1,-0.457934856,1,1.615471124649048,1,-1.865827441,1,0.6694604158401489,1,-1.290360212,1,-2.448734999,1,13.36242389678955,1,2.599155426025391,1,-6.490824699,1
1.607842565,5.007379531860352,1,0.9109081625938416,1,-7.323309422,1,-0.49953565,1,1.690600275993347,1,-1.69528842,1,0.6713353991508484,1,-1.281079888,1,-2.45147419,1,14.37995529174805,1,2.648872137069702,1,-5.135622978,1
1.611843824,6.466485977172852,1,0.6118341684341431,1,-6.29408741,1,-0.577590704,1,1.696368813514709,1,-1.486324906,1,0.6717199683189392,1,-1.271787167,1,-2.454119682,1,15.81269359588623,1,2.404761791229248,1,-4.038995743,1
1.615841269,7.514066219329834,1,0.1261662691831589,1,-6.019982338,1,-0.677814126,1,1.643813014030457,1,-1.241731882,1,0.6695828437805176,1,-1.263152122,1,-2.454512119,1,16.83504867553711,1,1.964295029640198,1,-3.697867632,1
1.619840503,7.732048034667969,1,-0.429999322,1,-5.800251961,1,-0.782964051,1,1.555533766746521,1,-0.990588009,1,0.6652522683143616,1,-1.255351424,1,-2.453034639,1,17.02964401245117,1,1.442879796028137,1,-3.413066626,1
1.623841763,7.066607952,1,-0.786124706,1,-5.623335361,1,-0.904802203,1,1.469900488853455,1,-0.744897306,1,0.6589154005050659,1,-1.248444915,1,-2.44990778,1,16.34302711486816,1,1.110862374305725,1,-3.173613787,1
1.627839208,5.937655925750732,1,-0.788443685,1,-5.549534321,1,-1.030598402,1,1.431627154350281,1,-0.503356516,1,0.6504402756690979,1,-1.242332339,1,-2.445061922,1,15.19496346,1,1.122013211250305,1,-3.038746834,1
1.631838441,5.080935955047607,1,-0.42037046,1,-5.523670673,1,-1.134220719,1,1.436813354492188,1,-0.28218174,1,0.639758289,1,-1.236816406,1,-2.43834424,1,14.32069969177246,1,1.493612051010132,1,-2.951694965,1
1.635839701,4.326836109161377,1,0.1826172024011612,1,-5.896038532,1,-1.191457391,1,1.475685715675354,1,-0.078472301,1,0.6268908977508545,1,-1.231703997,1,-2.429659367,1,13.55008888244629,1,2.091038227081299,1,-3.261420727,1
1.639836907,3.402269363,1,0.7098824977874756,1,-6.246640205,1,-1.188384771,1,1.538675665855408,1,0.1119905859231949,1,0.6121015548706055,1,-1.22683382,1,-2.419026375,1,12.60956859588623,1,2.604915857315063,1,-3.547360897,1
1.643836141,2.290999412536621,1,1.113869190216064,1,-6.770909786,1,-1.133045197,1,1.655443787574768,1,0.2756369709968567,1,0.5956399440765381,1,-1.222027302,1,-2.406469822,1,11.48233985900879,1,2.989020824432373,1,-4.004199028,1
1.647837162,1.196599245071411,1,1.125042796134949,1,-7.232907295,1,-1.046800733,1,1.799908638000488,1,0.4133562743663788,1,0.5777118802070618,1,-1.217049003,1,-2.392027378,1,10.37118721008301,1,2.975262641906738,1,-4.394724846,1
1.651834607,0.3396259844303131,1,0.7671133875846863,1,-7.59222126,1,-0.951547801,1,1.982709884643555,1,0.5381023287773132,1,0.5584614276885986,1,-1.211701274,1,-2.37575078,1,9.495965003967285,1,2.588325500488281,1,-4.677388191,1
1.65583384,-0.548404634,1,0.2729495465755463,1,-8.039006233,1,-0.866580546,1,2.195932149887085,1,0.6412280797958374,1,0.5380193591117859,1,-1.205804706,1,-2.357779503,1,8.587508201599121,1,2.061836719512939,1,-5.041242123,1
1.6598351,-1.390021801,1,-0.29031536,1,-8.363618851,1,-0.785070539,1,2.426225185394287,1,0.7315544486045837,1,0.5165207982063293,1,-1.199204564,1,-2.338276625,1,7.722651958465576,1,1.463458895683289,1,-5.275722504,1
1.663832784,-2.213079691,1,-0.766456723,1,-8.585514069,1,-0.722212553,1,2.674593925476074,1,0.7846114635467529,1,0.4942151010036469,1,-1.191748977,1,-2.317538738,1,6.872864723205566,1,0.9501867294311523,1,-5.399551392,1
1.667831779,-2.585335016,1,-1.037079692,1,-8.767409325,1,-0.671995461,1,2.933662891387939,1,0.8163135647773743,1,0.4714601039886475,1,-1.183300495,1,-2.296015739,1,6.469711303710938,1,0.641435981,1,-5.474937439,1
1.671838999,-2.855676651,1,-1.207448959,1,-8.89744854,1,-0.623169124,1,3.184699535369873,1,0.8201978802680969,1,0.4486480951309204,1,-1.173791766,1,-2.274136066,1,6.163819313049316,1,0.4328011274337769,1,-5.49011898,1
1.675842285,-3.184298992,1,-1.324147344,1,-8.987360001,1,-0.580505311,1,3.430501461029053,1,0.799441934,1,0.4261487722396851,1,-1.163173795,1,-2.252301455,1,5.794537067,1,0.2785321474075317,1,-5.456979752,1
1.679841518,-3.360949039,1,-1.600931168,1,-8.974424362,1,-0.542122722,1,3.657050132751465,1,0.7529493570327759,1,0.4043829739093781,1,-1.151458263,1,-2.230986357,1,5.571848392486572,1,-0.034185529,1,-5.313540459,1
1.683842778,-3.628976822,1,-1.639487624,1,-8.992650032,1,-0.497698724,1,3.863542556762695,1,0.6835917830467224,1,0.3837151527404785,1,-1.138661504,1,-2.210577965,1,5.252133369445801,1,-0.106060624,1,-5.194472313,1
1.687839985,-3.568289042,1,-1.686716318,1,-8.901356697,1,-0.44488135,1,4.066969871520996,1,0.5974274277687073,1,0.3644068241119385,1,-1.124819756,1,-2.191322088,1,5.255276679992676,1,-0.183237791,1,-4.959795952,1
1.691839218,-3.421650171,1,-1.70211184,1,-8.616943359,1,-0.383189231,1,4.233272552490234,1,0.5099768042564392,1,0.3466161489486694,1,-1.110017657,1,-2.173372746,1,5.338507652282715,1,-0.224780917,1,-4.526862621,1
1.695841074,-3.396505117,1,-1.845614552,1,-8.335898399,1,-0.32951504,1,4.373058795928955,1,0.4117013216018677,1,0.3304653763771057,1,-1.094384432,1,-2.15688014,1,5.294600486755371,1,-0.390268445,1,-4.09346199,1
1.699838758,-3.511740685,1,-2.036423683,1,-8.211585999,1,-0.274665117,1,4.489270210266113,1,0.3194006383419037,1,0.3159174919128418,1,-1.078046083,1,-2.141814947,1,5.104928970336914,1,-0.599016786,1,-3.814025879,1
1.703837752,-3.641252279,1,-2.155589104,1,-8.121685028,1,-0.222524092,1,4.578546524047852,1,0.2228328436613083,1,0.3029748201370239,1,-1.061087847,1,-2.128188372,1,4.895724296569824,1,-0.731821299,1,-3.567067146,1
1.707839012,-3.887852192,1,-2.39654541,1,-8.042131424,1,-0.177743226,1,4.663206100463867,1,0.1323075294494629,1,0.2915050983428955,1,-1.043614388,1,-2.115894556,1,4.564442157745361,1,-0.982450128,1,-3.329307556,1
1.711836219,-4.167262077,1,-2.75213027,1,-7.890625477,1,-0.146200195,1,4.734782695770264,1,0.048047416,1,0.2813698053359985,1,-1.025688648,1,-2.10484767,1,4.195477485656738,1,-1.344023824,1,-3.018925667,1
1.715835333,-4.49612236,1,-3.097857475,1,-7.891257763,1,-0.139733911,1,4.807462692260742,1,-0.024870398,1,0.2723027765750885,1,-1.007338762,1,-2.094857931,1,3.772160530090332,1,-1.692941189,1,-2.860023499,1
1.719836712,-4.878745556,1,-3.32967329,1,-7.95195961,1,-0.149807975,1,4.879985809326172,1,-0.091613084,1,0.2641167938709259,1,-0.988583922,1,-2.085800886,1,3.290118694,1,-1.925747752,1,-2.760590553,1
1.723833799,-5.156345367,1,-3.407113075,1,-8.100296974,1,-0.163678125,1,4.952912330627441,1,-0.14190796,1,0.2566404640674591,1,-0.969466388,1,-2.077543736,1,2.908221244812012,1,-2.002650261,1,-2.748484612,1
1.727833033,-5.518456459,1,-3.40766573,1,-8.210354805,1,-0.177605361,1,5.019903182983398,1,-0.193354443,1,0.2497677505016327,1,-0.949989021,1,-2.069975376,1,2.436818599700928,1,-2.0014534,1,-2.697840214,1
1.731834054,-5.823031425,1,-3.331849575,1,-8.359850883,1,-0.185640827,1,5.089015960693359,1,-0.232855588,1,0.2433935701847076,1,-0.930170298,1,-2.06299758,1,2.017938613891602,1,-1.92307806,1,-2.686561108,1
1.735831261,-6.134174824,1,-3.238669157,1,-8.499687195,1,-0.19429107,1,5.159964084625244,1,-0.26888144,1,0.237512544,1,-0.910020709,1,-2.05656004,1,1.587426186,1,-1.826396465,1,-2.66582346,1
1.739830256,-6.371186256,1,-3.024427652,1,-8.768992424,1,-0.194985464,1,5.230071067810059,1,-0.303930372,1,0.2320472896099091,1,-0.889552355,1,-2.05057025,1,1.225946903,1,-1.608003855,1,-2.774915695,1
1.743831277,-6.777564049,1,-2.815930843,1,-8.994987488,1,-0.191943705,1,5.295573711395264,1,-0.326045781,1,0.2269829660654068,1,-0.8687675,1,-2.045003176,1,0.6899204254150391,1,-1.394648433,1,-2.841268539,1
1.747828484,-7.190677643,1,-2.500559568,1,-9.200415611,1,-0.182203561,1,5.360906600952148,1,-0.341015458,1,0.2222565561532974,1,-0.847690582,1,-2.039747238,1,0.1420416831970215,1,-1.073995471,1,-2.887906075,1
1.751833797,-7.611379623,1,-2.227178574,1,-9.366330147,1,-0.1599558,1,5.421662330627441,1,-0.331882268,1,0.217813179,1,-0.826359689,1,-2.034686804,1,-0.418365002,1,-0.795197725,1,-2.896275043,1
1.755835176,-8.121265411,1,-2.000736952,1,-9.397544861,1,-0.116086192,1,5.479772567749023,1,-0.311155945,1,0.2136435359716415,1,-0.804786742,1,-2.029723167,1,-1.072868824,1,-0.563175917,1,-2.771449566,1
1.759832621,-8.566189766,1,-1.831371784,1,-9.399025917,1,-0.065453514,1,5.550115585327148,1,-0.261537075,1,0.2097062021493912,1,-0.782980025,1,-2.02470088,1,-1.667312622,1,-0.388252378,1,-2.618575096,1
1.763831496,-8.860459328,1,-1.854727507,1,-9.30165863,1,-0.005114499,1,5.613762378692627,1,-0.193102255,1,0.2059465348720551,1,-0.760947645,1,-2.019515276,1,-2.115979671,1,-0.406373858,1,-2.368700027,1
1.767832518,-8.985075951,1,-1.947580695,1,-9.164502144,1,0.050431091,1,5.666799545288086,1,-0.104236469,1,0.2023254334926605,1,-0.738732755,1,-2.014071226,1,-2.399587154,1,-0.49458766,1,-2.081297874,1
1.771829724,-9.065813065,1,-2.174781084,1,-9.121608734,1,0.085464358,1,5.708491325378418,1,-0.005188898,1,0.1987555474042892,1,-0.716389358,1,-2.008286238,1,-2.643512726,1,-0.718388915,1,-1.890797138,1
1.775828958,-9.136584282,1,-2.659957409,1,-9.094818115,1,0.1046322584152222,1,5.728293418884277,1,0.101226345,1,0.1951726377010345,1,-0.693992853,1,-2.002152205,1,-2.881078243,1,-1.201948762,1,-1.719560623,1
1.779830217,-9.362118721,1,-3.11124444,1,-9.017733574,1,0.1098853424191475,1,5.736990928649902,1,0.2151179760694504,1,0.1915183067321777,1,-0.671607971,1,-1.995668411,1,-3.276454926,1,-1.653902054,1,-1.501582623,1
1.783827662,-9.56025219,1,-3.468213081,1,-8.994885445,1,0.094995968,1,5.729870319366455,1,0.3143341243267059,1,0.1877710074186325,1,-0.64928776,1,-1.988879561,1,-3.646976948,1,-2.014048576,1,-1.341765881,1
1.787826657,-9.715561867,1,-3.726790667,1,-9.011109352,1,0.087563574,1,5.712540149688721,1,0.4012992978096008,1,0.1839509904384613,1,-0.627049267,1,-1.98184371,1,-3.976973057,1,-2.27817297,1,-1.225114822,1
1.791827917,-9.946996689,1,-4.005619049,1,-9.050866127,1,0.066223301,1,5.68767786,1,0.471255898,1,0.180118591,1,-0.604941428,1,-1.974679947,1,-4.38488102,1,-2.564471245,1,-1.136474133,1
1.795825124,-10.15452194,1,-4.269670486,1,-9.167004585,1,0.058018249,1,5.655004978179932,1,0.5307256579399109,1,0.1763081252574921,1,-0.582963765,1,-1.967438936,1,-4.770534992,1,-2.837592125,1,-1.128752708,1
1.799824119,-10.54012394,1,-4.366827011,1,-9.310317039,1,0.046767388,1,5.609261512756348,1,0.5808206796646118,1,0.1725928634405136,1,-0.561158419,1,-1.960181952,1,-5.335440159,1,-2.944795609,1,-1.153067589,1
1.803825378,-11.08876896,1,-4.297246456,1,-9.42477417,1,0.060316969,1,5.570356369018555,1,0.6152550578117371,1,0.1690245419740677,1,-0.53953141,1,-1.952956319,1,-6.064365864,1,-2.885724068,1,-1.153461456,1
1.807822585,-11.92843437,1,-4.148375988,1,-9.502243996,1,0.090631545,1,5.529428482055664,1,0.640194297,1,0.1657018959522247,1,-0.518051624,1,-1.945795059,1,-7.085410595,1,-2.746862888,1,-1.121759415,1
1.811822295,-12.65982437,1,-3.930894852,1,-9.584071159,1,0.1527683585882187,1,5.479734420776367,1,0.6523875594139099,1,0.162756547,1,-0.496750444,1,-1.938750029,1,-7.998878956,1,-2.537668467,1,-1.09960556,1
1.815823674,-13.57745743,1,-3.592161894,1,-9.612285614,1,0.2399770021438599,1,5.427136898040771,1,0.6492310762405396,1,0.1603157818317413,1,-0.475634009,1,-1.931862712,1,-9.099098206,1,-2.204244137,1,-1.029180527,1
1.819820762,-14.40927601,1,-3.152626276,1,-9.652267456,1,0.3531431257724762,1,5.366742134094238,1,0.6216849684715271,1,0.158513606,1,-0.454724371,1,-1.925222874,1,-10.1136837,1,-1.765698671,1,-0.976092339,1
1.823819995,-15.07411957,1,-2.739069462,1,-9.566158295,1,0.4871350526809692,1,5.298768520355225,1,0.5714641809463501,1,0.1574576646089554,1,-0.434028864,1,-1.918882966,1,-10.96127129,1,-1.347661018,1,-0.802593231,1
1.827821255,-15.45820236,1,-2.340995789,1,-9.431743622,1,0.6251381039619446,1,5.218855857849121,1,0.5032031536102295,1,0.1572275906801224,1,-0.413581938,1,-1.912923455,1,-11.52763367,1,-0.93872714,1,-0.586637497,1
1.831824422,-15.78864002,1,-2.08461833,1,-9.255723,1,0.7623372673988342,1,5.124713421,1,0.4149134159088135,1,0.1578404456377029,1,-0.393431842,1,-1.907422066,1,-12.03931332,1,-0.664766312,1,-0.335062981,1
1.835823655,-16.04719353,1,-1.68809855,1,-9.123373985,1,0.8761893510818481,1,5.017804622650146,1,0.3114292323589325,1,0.1592438369989395,1,-0.37363264,1,-1.902403951,1,-12.47743511,1,-0.244238734,1,-0.133171082,1
1.839824915,-16.49782753,1,-1.453549623,1,-9.008648872,1,0.9717177152633667,1,4.898224830627441,1,0.2161917835474014,1,0.1613402962684631,1,-0.354213536,1,-1.897898912,1,-13.10554981,1,0.020013571,1,0.045227051,1
1.84382236,-16.92383003,1,-1.262890935,1,-8.881580353,1,1.033247828483582,1,4.769176006317139,1,0.1169034838676453,1,0.1639913469552994,1,-0.335242152,1,-1.893870234,1,-13.70617676,1,0.2449057102203369,1,0.2302169799804688,1
1.847821593,-17.41333389,1,-1.132703304,1,-8.88444519,1,1.057424664497375,1,4.626935958862305,1,0.024748571,1,0.1670436263084412,1,-0.316738546,1,-1.890308976,1,-14.36711597,1,0.4125347137451172,1,0.2798595428466797,1
1.851822615,-18.2852211,1,-1.301267028,1,-8.889232635,1,1.024317622184753,1,4.499262809753418,1,-0.056147359,1,0.1702608019113541,1,-0.298725337,1,-1.88714695,1,-15.40689659,1,0.2824869155883789,1,0.3226385116577148,1
1.85582006,-18.76634789,1,-1.599805593,1,-8.623993874,1,0.9696361422538757,1,4.378615379333496,1,-0.121562406,1,0.1735856533050537,1,-0.281251788,1,-1.883008242,1,-16.0517807,1,0.023008227,1,0.6306962966918945,1
1.859819055,-19.40645981,1,-1.560064912,1,-8.571900368,1,0.8436537384986877,1,4.271264076,1,-0.186936021,1,0.1765497326850891,1,-0.264124513,1,-1.880515337,1,-16.85320854,1,0.098096728,1,0.722351074,1
1.863820314,-19.60640335,1,-1.2329458,1,-8.267922401,1,0.7196017503738403,1,4.151252269744873,1,-0.24561356,1,0.1791387349367142,1,-0.247390836,1,-1.878308177,1,-17.21148491,1,0.4566494226455688,1,1.062740325927734,1
1.867817521,-19.23931694,1,-0.738431215,1,-7.732534409,1,0.5977436304092407,1,4.043807029724121,1,-0.31093803,1,0.1813252717256546,1,-0.231068566,1,-1.876412868,1,-16.99948502,1,0.9783835411071777,1,1.631619453430176,1
1.871816397,-18.92351341,1,-0.288002282,1,-7.165388584,1,0.4605868458747864,1,3.919640302658081,1,-0.379079014,1,0.1830993592739105,1,-0.21515356,1,-1.874851704,1,-16.83547401,1,1.451692700386047,1,2.229566097259521,1
1.875817776,-18.23816681,1,-0.028481161,1,-6.511459351,1,0.3275456130504608,1,3.789947032928467,1,-0.454187363,1,0.1844419836997986,1,-0.199670523,1,-1.873643756,1,-16.29830551,1,1.729545116424561,1,2.911805152893066,1
1.879815221,-17.52790451,1,0.3567425608634949,1,-5.844044685,1,0.1878970563411713,1,3.641147613525391,1,-0.531416237,1,0.185319111,1,-0.184697866,1,-1.872833848,1,-15.73178196,1,2.128187894821167,1,3.605168342590332,1
1.883814096,-16.62903595,1,0.4613949358463287,1,-5.304259777,1,0.055218842,1,3.459168672561646,1,-0.598724604,1,0.1857207268476486,1,-0.170335382,1,-1.872422576,1,-14.97117233,1,2.241215467453003,1,4.168619632720947,1
1.887815475,-15.72679615,1,0.3820267915725708,1,-4.703445911,1,-0.091631263,1,3.246430874,1,-0.665840566,1,0.1856471449136734,1,-0.156695172,1,-1.872429848,1,-14.20055485,1,2.165158271789551,1,4.790904521942139,1
1.891812563,-14.84325504,1,0.084897004,1,-4.159619808,1,-0.250946432,1,3.011452198028564,1,-0.714331448,1,0.1850384473800659,1,-0.143881053,1,-1.872840762,1,-13.44092464,1,1.865700602531433,1,5.354254245758057,1
1.895811796,-14.06420898,1,-0.391862601,1,-3.602318048,1,-0.419723719,1,2.765393495559692,1,-0.751180232,1,0.1838048100471497,1,-0.131974742,1,-1.873613,1,-12.77721786,1,1.380129218101501,1,5.929486274719238,1
1.899813175,-13.68132973,1,-0.872349381,1,-3.189979076,1,-0.604723215,1,2.514909505844116,1,-0.766159594,1,0.1818861216306686,1,-0.12104179,1,-1.874684453,1,-12.50041008,1,0.883791447,1,6.358479022979736,1
1.903810263,-13.5225563,1,-1.20191884,1,-2.869066238,1,-0.784014165,1,2.275973320007324,1,-0.768320084,1,0.1792670786380768,1,-0.111068018,1,-1.876000762,1,-12.43852425,1,0.5312219858169556,1,6.695072174072266,1
1.907815695,-13.47789192,1,-1.427429199,1,-2.667480946,1,-0.934850276,1,2.043285369873047,1,-0.760218561,1,0.1759832799434662,1,-0.102034204,1,-1.877496123,1,-12.48171139,1,0.2759407758712769,1,6.911548137664795,1
1.911817193,-13.75218487,1,-1.272552967,1,-2.511530399,1,-1.05319953,1,1.832988262176514,1,-0.747907162,1,0.172157958,1,-0.093880244,1,-1.879133344,1,-12.83536911,1,0.3954975605010986,1,7.081627368927002,1
1.915814638,-14.19837093,1,-0.731145084,1,-2.435142756,1,-1.113277912,1,1.649713993,1,-0.739713252,1,0.1679694056510925,1,-0.086517692,1,-1.880884051,1,-13.35326862,1,0.8977939486503601,1,7.171314239501953,1
1.919813871,-14.9627924,1,0.056029975,1,-2.326230764,1,-1.115760088,1,1.496770858764648,1,-0.732572556,1,0.1636574417352676,1,-0.079824723,1,-1.882759452,1,-14.18292236,1,1.644417285919189,1,7.292525291442871,1
1.923815131,-15.64086151,1,0.7548983097076416,1,-2.187033176,1,-1.047978997,1,1.372889399528503,1,-0.738631368,1,0.1594677567481995,1,-0.073687844,1,-1.884746432,1,-14.92083454,1,2.303703308105469,1,7.442838191986084,1
1.927812576,-16.01078796,1,1.038106203079224,1,-1.922077298,1,-0.9298141,1,1.266512036323547,1,-0.727961242,1,0.1556388586759567,1,-0.068013147,1,-1.886823773,1,-15.34612083,1,2.550637245178223,1,7.717535972595215,1
1.93181181,-16.04739189,1,0.8122050166130066,1,-1.539160371,1,-0.784743547,1,1.166306972503662,1,-0.703059077,1,0.1523338407278061,1,-0.062765323,1,-1.88890624,1,-15.43393993,1,2.293377161026001,1,8.108711242675781,1
1.935812831,-15.79169464,1,0.3281668722629547,1,-1.093617439,1,-0.634764731,1,1.068482756614685,1,-0.652964115,1,0.1496229469776154,1,-0.057931621,1,-1.890924335,1,-15.22543049,1,1.783604145050049,1,8.561051368713379,1
1.939810276,-15.38672256,1,-0.157643557,1,-0.622669935,1,-0.503675222,1,0.9542619585990906,1,-0.602169812,1,0.1474573910236359,1,-0.053557537,1,-1.892811775,1,-14.86317158,1,1.277232766151428,1,9.037485122680664,1
1.943809509,-15.23507977,1,-0.345211715,1,-0.198287055,1,-0.400211513,1,0.8281420469284058,1,-0.551340818,1,0.1457492411136627,1,-0.049695987,1,-1.894576907,1,-14.74924469,1,1.073445320129395,1,9.466238975524902,1
1.947810531,-14.87064743,1,-0.128667578,1,0.074935161,1,-0.312538952,1,0.6818135380744934,1,-0.506664217,1,0.1444031000137329,1,-0.04639148,1,-1.896232367,1,-14.41709423,1,1.277201294898987,1,9.742895126342773,1
1.951807976,-14.5100584,1,0.1086782440543175,1,0.3160351812839508,1,-0.218232125,1,0.518042266,1,-0.461736679,1,0.1434082388877869,1,-0.043732498,1,-1.897808552,1,-14.08248329,1,1.505095601081848,1,9.986548424,1
1.955806971,-14.24061775,1,0.235174298,1,0.3146468698978424,1,-0.124556847,1,0.3318367898464203,1,-0.418262601,1,0.1427862197160721,1,-0.041795269,1,-1.899309635,1,-13.83197212,1,1.625691413879395,1,9.986828804016113,1
1.95980823,-14.019063,1,0.1936482191085815,1,0.2161152064800262,1,-0.044645965,1,0.1313339620828629,1,-0.383595675,1,0.1425093412399292,1,-0.040647492,1,-1.900765777,1,-13.62163353,1,1.581553459,1,9.889142036437988,1
1.963805676,-14.00795174,1,0.015521028,1,0.074472055,1,0.023474555,1,-0.072232954,1,-0.353963703,1,0.142533541,1,-0.040324863,1,-1.902205229,1,-13.61367512,1,1.403678059577942,1,9.747591018676758,1
1.96780467,-13.90789413,1,0.051644195,1,-0.285263211,1,0.058225635,1,-0.260004044,1,-0.33187902,1,0.1427506804466248,1,-0.040791627,1,-1.903662324,1,-13.50905609,1,1.441875219345093,1,9.387370109558105,1
1.97180593,-13.81707191,1,0.1484714150428772,1,-0.714001775,1,0.085086711,1,-0.435526788,1,-0.324264288,1,0.1431048661470413,1,-0.041987102,1,-1.905157208,1,-13.40655136,1,1.542059421539307,1,8.957658767700195,1
1.975803137,-13.50175571,1,0.2601349055767059,1,-1.16548717,1,0.1040526852011681,1,-0.595226467,1,-0.325945914,1,0.1435655951499939,1,-0.043844815,1,-1.906746507,1,-13.07308388,1,1.658066987991333,1,8.504757881164551,1
1.979802132,-13.14124584,1,0.2707857191562653,1,-1.734185219,1,0.1242964938282967,1,-0.739770114,1,-0.331037879,1,0.1440904289484024,1,-0.046311516,1,-1.908432484,1,-12.6884737,1,1.673636913299561,1,7.934249877929688,1
1.983803391,-12.62550926,1,0.1118789911270142,1,-2.135255337,1,0.1387806683778763,1,-0.875358701,1,-0.327923059,1,0.1447121351957321,1,-0.049324881,1,-1.910205722,1,-12.1432991,1,1.520537495613098,1,7.530910015106201,1
1.987806439,-12.15694427,1,0.148175836,1,-2.670107126,1,0.1351630687713623,1,-0.992105126,1,-0.342481494,1,0.1453563272953033,1,-0.052824546,1,-1.912082314,1,-11.64055157,1,1.562808632850647,1,6.993426322937012,1
1.991805911,-3.884413004,1,-1.315541983,1,-7.156186104,1,-0.062559508,1,-1.23138392,1,-0.449481517,1,0.1457901746034622,1,-0.056891087,1,-1.914184213,1,-3.328308821,1,0.1029657125473022,1,2.504570960998535,1
1.99580729,5.343901634216309,1,-6.294966698,1,-10.80173206,1,-0.584749341,1,-2.49404645,1,-0.032714143,1,0.1442373842000961,1,-0.0640461,1,-1.916586637,1,5.969854831695557,1,-4.89206934,1,-1.142968178,1
1.999804378,-11.86589146,1,0.3336518406867981,1,-6.859610081,1,-0.029465353,1,-2.758022308,1,0.1066247671842575,1,0.1432023048400879,1,-0.074772879,1,-1.917618513,1,-11.13528156,1,1.725512266159058,1,2.793398380279541,1
2.00380969,22.42290115356445,1,2.257070779800415,1,-4.864581585,1,-0.1892865,1,-2.759344339,1,0.1418704241514206,1,0.1428223848342896,1,-0.085586824,1,-1.918859363,1,23.25893211364746,1,3.644057989120483,1,4.780572414398193,1
2.007811069,14.72599029541016,1,-1.610094547,1,-8.934168816,1,-0.085134529,1,-3.193713427,1,0.3036923408508301,1,0.1423503309488297,1,-0.097477563,1,-1.919548035,1,15.67782783508301,1,-0.229168773,1,0.7011137008666992,1
2.011808157,-0.098468564,1,-4.968775272,1,-12.5818634,1,-0.37916404,1,-3.319941521,1,0.2853246033191681,1,0.1415490657091141,1,-0.110631451,1,-1.920271754,1,0.9813195466995239,1,-3.597455263,1,-2.958703041,1
2.01580739,7.512821197509766,1,-3.917694807,1,-14.40641499,1,-0.588975251,1,-3.528677702,1,0.4180262982845306,1,0.1395808607339859,1,-0.124278031,1,-1.920805931,1,8.725154876708984,1,-2.567493439,1,-4.796063423,1
2.019808769,8.984012603759766,1,-1.11174953,1,-14.10008907,1,-0.437707275,1,-3.93447566,1,0.5230742692947388,1,0.1375164538621902,1,-0.139342964,1,-1.920986414,1,10.34240341186523,1,0.2159545421600342,1,-4.506151199,1
2.023806095,2.113215446472168,1,0.8720595836639404,1,-13.48352337,1,-0.27494961,1,-4.217448235,1,0.5556124448776245,1,0.1361193060874939,1,-0.155832425,1,-1.921064973,1,3.631121158599854,1,2.183140039,1,-3.911236763,1
2.027805328,-2.752284288,1,0.9138996005058289,1,-12.59180546,1,-0.171411589,1,-4.32866621,1,0.6037654280662537,1,0.1352817714214325,1,-0.173073113,1,-1.921086311,1,-1.068038702,1,2.213239192962646,1,-3.045778275,1
2.031806707,-8.053530693,1,1.488508939743042,1,-11.57715034,1,0.1031679436564445,1,-4.355754375,1,0.7206566333770752,1,0.1349997371435165,1,-0.1907022,1,-1.92075181,1,-6.199716091,1,2.780959129333496,1,-2.061657906,1
2.035804272,-13.02518559,1,-0.427547872,1,-11.66562366,1,0.1869943588972092,1,-4.270683289,1,0.6595951318740845,1,0.1355383098125458,1,-0.208195388,1,-1.920325756,1,-11.00367832,1,0.8654465079307556,1,-2.184415817,1
2.039803028,-16.13218117,1,-5.374327183,1,-10.89032173,1,-0.015551973,1,-4.132985115,1,0.6166125535964966,1,0.1358871757984161,1,-0.225200653,1,-1.920130372,1,-13.94825172,1,-4.08286953,1,-1.444993973,1
2.043804169,-17.32196045,1,-4.904850006,1,-12.39839077,1,-0.139475822,1,-3.861935377,1,0.7407005429267883,1,0.1353826373815536,1,-0.241453558,1,-1.919605136,1,-14.98338318,1,-3.623118401,1,-2.988827705,1
2.047801495,-16.54409981,1,-2.71718049,1,-13.11958504,1,0.010876665,1,-3.635543585,1,0.7610443830490112,1,0.1348590552806854,1,-0.25667429,1,-1.918544054,1,-14.06125641,1,-1.445308924,1,-3.74571228,1
2.051800728,-14.83553123,1,-1.839327097,1,-12.58971786,1,0.000214005,1,-3.422790289,1,0.6923244595527649,1,0.1346119046211243,1,-0.271062493,1,-1.91754353,1,-12.21684074,1,-0.574698091,1,-3.251899719,1
2.055802107,-12.35241127,1,-3.458170652,1,-14.7356596,1,0.004833728,1,-3.24909091,1,0.6668826341629028,1,0.1343815922737122,1,-0.284614861,1,-1.916576028,1,-9.6062603,1,-2.200562954,1,-5.433577538,1
2.059799671,-14.02333546,1,-2.548716307,1,-15.68535995,1,0.1538925319910049,1,-3.131566286,1,0.5935825705528259,1,0.1343924254179001,1,-0.297627211,1,-1.915711045,1,-11.15527725,1,-1.295902252,1,-6.419490814,1
2.063798428,-12.21312809,1,-3.969278812,1,-14.01388264,1,0.1211528107523918,1,-2.970237732,1,0.4197971224784851,1,0.1348542422056198,1,-0.310018241,1,-1.915377378,1,-9.229434967,1,-2.717059135,1,-4.784514427,1
2.067806005,-10.06464672,1,-4.65990448,1,-12.52601242,1,0.05405625,1,-2.822526217,1,0.4055722057819366,1,0.1352008134126663,1,-0.321684361,1,-1.915307283,1,-6.972501278,1,-3.409263849,1,-3.332199097,1
2.071809292,-9.828125954,1,-3.487081051,1,-13.02944374,1,0.1432053744792938,1,-2.706295013,1,0.4239756166934967,1,0.1354810744524002,1,-0.332855821,1,-1.915112972,1,-6.632521629,1,-2.238607883,1,-3.870783806,1
2.075808525,-11.80241013,1,-3.94839406,1,-11.16618729,1,0.042655539,1,-2.677065134,1,0.3918721377849579,1,0.1357885748147964,1,-0.343758047,1,-1.915010214,1,-8.506224632,1,-2.70189476,1,-2.042970657,1
2.079809904,-9.83621788,1,-2.055896997,1,-12.19923782,1,0.097817786,1,-2.453160048,1,0.4234988391399384,1,0.13594313,1,-0.354163826,1,-1.914769173,1,-6.444396496,1,-0.812703967,1,-3.110692024,1
2.083806992,-10.97443962,1,-2.531139135,1,-10.40698242,1,0.1164745092391968,1,-2.34238863,1,0.4167786538600922,1,0.1363693624734879,1,-0.363890886,1,-1.914385915,1,-7.493552208,1,-1.28861618,1,-1.352081299,1
2.087806225,-9.897145271,1,-0.292856663,1,-11.68435001,1,0.1427900940179825,1,-2.164286852,1,0.4732382893562317,1,0.136598602,1,-0.373098344,1,-1.913851738,1,-6.332252026,1,0.9473243951797485,1,-2.661870956,1
2.091807842,-11.74577713,1,-1.221562266,1,-10.72108555,1,0.2260083556175232,1,-2.093457937,1,0.3687998056411743,1,0.1372942179441452,1,-0.38173303,1,-1.913280129,1,-8.102378845,1,0.020635843,1,-1.730296135,1
2.095805168,-9.92838192,1,0.5209607481956482,1,-10.53616619,1,0.1989468485116959,1,-1.931224465,1,0.3653344511985779,1,0.1379262953996658,1,-0.389952838,1,-1.91290319,1,-6.210503578,1,1.764681577682495,1,-1.576132774,1
2.0998106,-8.373761177,1,1.270921349525452,1,-10.38401222,1,0.3323683738708496,1,-1.803846598,1,0.3243830800056458,1,0.1388209611177444,1,-0.397498995,1,-1.912520409,1,-4.587726593,1,2.518740177154541,1,-1.453137398,1
2.103811741,-8.320816994,1,1.145210146903992,1,-9.270364761,1,0.3461215198040009,1,-1.741814494,1,0.2714623808860779,1,0.1401240229606628,1,-0.404703587,1,-1.912322283,1,-4.469913483,1,2.400823116,1,-0.36836338,1
2.107809067,-8.713956833,1,-0.337414742,1,-9.191820145,1,0.3299436271190643,1,-1.676847458,1,0.2458850145339966,1,0.1410744786262512,1,-0.411701977,1,-1.910033584,1,-4.800231457,1,0.9228378534317017,1,-0.317918777,1
2.1118083,-6.83912611,1,0.1412705183029175,1,-9.765595436,1,0.3495053052902222,1,-1.552090168,1,0.2335211634635925,1,0.1423457860946655,1,-0.418214381,1,-1.909967184,1,-2.867114067,1,1.409161448478699,1,-0.918717384,1
2.115809441,-8.302331924,1,-0.789729476,1,-8.863253593,1,0.4083333015441895,1,-1.532697558,1,0.1893017143011093,1,0.1439668238162994,1,-0.424449861,1,-1.910019875,1,-4.27466917,1,0.488922119,1,-0.043128014,1
2.119807005,-6.376918793,1,-1.531550765,1,-9.158082008,1,0.3695893585681915,1,-1.439435244,1,0.1842150092124939,1,0.1455311924219131,1,-0.430435687,1,-1.910149097,1,-2.295981407,1,-0.242621541,1,-0.363975525,1
2.123806238,-6.309915543,1,-3.090642214,1,-8.740153313,1,0.3597762286663055,1,-1.395576835,1,0.1684588491916656,1,0.147081122,1,-0.436138719,1,-1.910294294,1,-2.178355217,1,-1.791516781,1,0.028777122,1
2.12780714,-5.428679466,1,-3.615467548,1,-8.714831352,1,0.3117766082286835,1,-1.373137593,1,0.1715118438005447,1,0.1484736949205399,1,-0.441698015,1,-1.910432458,1,-1.247902393,1,-2.307549715,1,0.029431343,1
2.131804705,-6.20223999,1,-4.387793541,1,-9.182939529,1,0.2625202834606171,1,-1.336274385,1,0.1541230082511902,1,0.149701864,1,-0.447175026,1,-1.910611272,1,-1.973100662,1,-3.072572231,1,-0.463064194,1
2.135803699,-8.484870911,1,-3.762204647,1,-10.14355755,1,0.1648148745298386,1,-1.199718118,1,0.093385749,1,0.1507005244493484,1,-0.452278018,1,-1.910914898,1,-4.210786343,1,-2.441532612,1,-1.44644928,1
2.139805079,-7.006760597,1,-3.489362478,1,-9.878221512,1,0.11500857,1,-1.056677818,1,0.049134277,1,0.1514533013105392,1,-0.456764162,1,-1.911370397,1,-2.693254948,1,-2.165050983,1,-1.201154709,1
2.143808603,-7.860599518,1,-3.563878298,1,-9.305959702,1,0.049098205,1,-0.948372245,1,0.034870159,1,0.1520382463932037,1,-0.460769534,1,-1.911874056,1,-3.511970997,1,-2.237118244,1,-0.646813393,1
2.147807837,-7.028591156,1,-2.299747467,1,-10.18167305,1,-0.03999079,1,-0.814928114,1,0.046001349,1,0.1521782726049423,1,-0.464259535,1,-1.91227901,1,-2.649416447,1,-0.97408402,1,-1.537769318,1
2.151808977,-5.912751198,1,-1.215997696,1,-9.453689575,1,-0.034260869,1,-0.752139866,1,0.059949581,1,0.1521933674812317,1,-0.467378378,1,-1.912579894,1,-1.506323814,1,0.1077194213867188,1,-0.823348045,1
2.155806303,-5.419961452,1,-1.171113849,1,-9.43874836,1,-0.065151669,1,-0.713537753,1,0.088118635,1,0.1520572155714035,1,-0.470324397,1,-1.912742972,1,-0.987830639,1,0.1494565010070801,1,-0.821091652,1
2.159805298,-5.379908085,1,-1.232187748,1,-9.314599037,1,-0.040471811,1,-0.677783966,1,0.1004503592848778,1,0.1518831849098206,1,-0.473122746,1,-1.912789583,1,-0.923398018,1,0.085000753,1,-0.709009171,1
2.163806438,-6.034453392,1,-1.778201461,1,-9.213233948,1,-0.083164148,1,-0.626052856,1,0.098033734,1,0.1517023742198944,1,-0.475780576,1,-1.912810802,1,-1.554820538,1,-0.464363337,1,-0.61914444,1
2.167804003,-7.083014965,1,-2.381274939,1,-8.773030281,1,-0.08782766,1,-0.545617998,1,0.097832359,1,0.1513389199972153,1,-0.47817564,1,-1.912775636,1,-2.58257246,1,-1.072182298,1,-0.189097404,1
2.171802998,-6.078542233,1,-2.646724463,1,-8.43253231,1,-0.147094518,1,-0.495904922,1,0.1115164086222649,1,0.1508175581693649,1,-0.480284631,1,-1.912670135,1,-1.559797287,1,-1.343536019,1,0.1426801681518555,1
2.175804138,-5.381036282,1,-2.483168602,1,-8.657514572,1,-0.195632547,1,-0.46585384,1,0.1313273906707764,1,0.1500351279973984,1,-0.48225975,1,-1.912454605,1,-0.845168114,1,-1.188026547,1,-0.090126038,1
2.179801226,-5.006314278,1,-2.220560789,1,-9.002543449,1,-0.226357952,1,-0.444709927,1,0.1432843953371048,1,0.14904739,1,-0.48414731,1,-1.912167311,1,-0.454099178,1,-0.93515563,1,-0.442362785,1
2.183800459,-4.58468771,1,-1.416841745,1,-9.030705452,1,-0.246008664,1,-0.434556633,1,0.1522736400365829,1,0.1478944271802902,1,-0.485945672,1,-1.911797643,1,-0.016912937,1,-0.142515182,1,-0.477158546,1
2.187801838,-5.126273155,1,-0.689663827,1,-9.199081421,1,-0.252658635,1,-0.440555722,1,0.1576186269521713,1,0.1466855704784393,1,-0.487774521,1,-1.911385536,1,-0.542690277,1,0.5730988383293152,1,-0.652277946,1
2.191798925,-5.030217648,1,-0.577839851,1,-9.083656311,1,-0.247443855,1,-0.433027059,1,0.1519909203052521,1,0.1455070078372955,1,-0.489598453,1,-1.910969734,1,-0.430884838,1,0.67363441,1,-0.543658257,1
2.195798159,-4.993436337,1,-0.716988683,1,-8.966213226,1,-0.214933842,1,-0.431802958,1,0.1455513834953308,1,0.1443952023983002,1,-0.491396844,1,-1.910574436,1,-0.3785882,1,0.52379787,1,-0.433028221,1
2.199799299,-5.173458576,1,-1.012017965,1,-8.766326904,1,-0.190404758,1,-0.427392572,1,0.1406370550394058,1,0.1434103697538376,1,-0.493183821,1,-1.910220385,1,-0.543208599,1,0.2191841602325439,1,-0.240095139,1
2.203796387,-5.471218109,1,-0.672055066,1,-8.884102821,1,-0.184741527,1,-0.415118724,1,0.1318967044353485,1,0.1424616724252701,1,-0.494918615,1,-1.90986371,1,-0.826030731,1,0.5499154925346375,1,-0.364670753,1
2.20779562,-5.085496426,1,-1.056896329,1,-8.787874222,1,-0.176383436,1,-0.404013366,1,0.1232226938009262,1,0.1416086107492447,1,-0.496615946,1,-1.909557104,1,-0.42570734,1,0.1566909551620483,1,-0.275224686,1
2.211796999,-5.13229084,1,-1.25416255,1,-8.88012886,1,-0.173289865,1,-0.396653682,1,0.1048301681876183,1,0.140791267,1,-0.498270214,1,-1.909301043,1,-0.458283901,1,-0.04861629,1,-0.374131203,1
2.215794325,-4.92859745,1,-1.222425342,1,-8.789608002,1,-0.163494289,1,-0.398109049,1,0.087861314,1,0.1400294452905655,1,-0.499900192,1,-1.909125686,1,-0.240593433,1,-0.024425149,1,-0.290254593,1
2.21979332,-4.861833096,1,-1.128169894,1,-8.817939758,1,-0.134310052,1,-0.400867552,1,0.058175012,1,0.1394004076719284,1,-0.501531661,1,-1.909051538,1,-0.159832001,1,0.0634197,1,-0.325418472,1
2.223800659,-4.815168858,1,-1.0045681,1,-8.897695541,1,-0.119282521,1,-0.393493116,1,0.041667573,1,0.1389092355966568,1,-0.503136933,1,-1.909079432,1,-0.099407196,1,0.1818035840988159,1,-0.412073135,1
2.227803946,-5.07876873,1,-0.869651139,1,-8.73063755,1,-0.089388497,1,-0.392369717,1,0.035550188,1,0.1385152786970139,1,-0.504720986,1,-1.909148335,1,-0.349440575,1,0.3123443722724915,1,-0.251959801,1
2.231803417,-5.177920818,1,-0.799517155,1,-8.548359871,1,-0.065511987,1,-0.382662714,1,0.012968483,1,0.1382700204849243,1,-0.506278694,1,-1.909281611,1,-0.435263634,1,0.3793826103210449,1,-0.076695442,1
2.235804319,-5.59602499,1,-0.555843115,1,-8.491500854,1,-0.038589098,1,-0.355943948,1,-0.00834607,1,0.13816376,1,-0.507738471,1,-1.909502268,1,-0.840886593,1,0.6212010383605957,1,-0.026582718,1
2.239801884,-5.277864933,1,-0.281197101,1,-8.395237923,1,-0.014296147,1,-0.334366292,1,-0.01976868,1,0.1381937712430954,1,-0.509101391,1,-1.909781575,1,-0.511083126,1,0.8952072858810425,1,0.06321907,1
2.243800879,-5.456490993,1,-0.303051025,1,-8.454582214,1,0.019492451,1,-0.313300341,1,-0.031892754,1,0.1383554339408875,1,-0.51037854,1,-1.910098195,1,-0.678806305,1,0.8738806247711182,1,-0.002349854,1
2.247802019,-5.327008724,1,-0.549558163,1,-8.394968987,1,0.038272817,1,-0.288384348,1,-0.051585697,1,0.138658419,1,-0.511548936,1,-1.910473943,1,-0.539339066,1,0.6291601657867432,1,0.05136013,1
2.251799583,-5.228901863,1,-0.727011502,1,-8.376262665,1,0.053060703,1,-0.272006392,1,-0.056247741,1,0.1390559077262878,1,-0.51263088,1,-1.910897732,1,-0.432008743,1,0.4543460011482239,1,0.064465523,1
2.255798578,-5.209100723,1,-0.943154097,1,-8.440937042,1,0.064919785,1,-0.254207104,1,-0.063195899,1,0.1395137459039688,1,-0.513640344,1,-1.911343336,1,-0.403605938,1,0.2413934469223022,1,-0.005552292,1
2.259799719,-5.192521095,1,-1.083859444,1,-8.381920815,1,0.067508064,1,-0.238886088,1,-0.063517548,1,0.1399927288293839,1,-0.514568686,1,-1.91179049,1,-0.379120827,1,0.1041051149368286,1,0.048473358,1
2.263797045,-5.248346329,1,-1.184081197,1,-8.271585464,1,0.076311305,1,-0.223356515,1,-0.066099979,1,0.1404927968978882,1,-0.51545018,1,-1.91222477,1,-0.427442551,1,0.007504821,1,0.1540107727050781,1
2.26779604,-5.278747082,1,-1.21407342,1,-8.289275169,1,0.070453279,1,-0.207048029,1,-0.059967294,1,0.1409852653741837,1,-0.516270339,1,-1.912643194,1,-0.450866699,1,-0.018894076,1,0.1318178176879883,1
2.27179718,-5.167585373,1,-1.268661499,1,-8.333288193,1,0.067992032,1,-0.194355354,1,-0.05118664,1,0.1414589136838913,1,-0.517029405,1,-1.9130373,1,-0.333250046,1,-0.070011258,1,0.083603859,1
2.275794744,-5.104820728,1,-1.242792249,1,-8.436084747,1,0.068447821,1,-0.182103187,1,-0.051959682,1,0.1419157236814499,1,-0.517749488,1,-1.913402915,1,-0.264364243,1,-0.040789843,1,-0.023188591,1
2.279793978,-5.055641174,1,-1.207502484,1,-8.421123505,1,0.063398294,1,-0.170338899,1,-0.042020027,1,0.1423481106758118,1,-0.518410563,1,-1.913727045,1,-0.209568024,1,-0.002316594,1,-0.011916161,1
2.283795118,-5.211025238,1,-1.209137201,1,-8.370787621,1,0.071467951,1,-0.162691548,1,-0.03496819,1,0.1427550464868546,1,-0.519047558,1,-1.914004803,1,-0.359541893,1,-0.000968575,1,0.034872055,1
2.287792444,-5.184497833,1,-1.222401857,1,-8.290016174,1,0.067722902,1,-0.153155237,1,-0.027568331,1,0.1431536078453064,1,-0.519652605,1,-1.914250255,1,-0.327877045,1,-0.01130259,1,0.1122512817382813,1
2.291791916,-5.21223402,1,-1.271342874,1,-8.259691238,1,0.070873439,1,-0.136846289,1,-0.027504193,1,0.1435495764017105,1,-0.520220876,1,-1.914464235,1,-0.350790024,1,-0.057311416,1,0.1393651962280273,1
2.295793056,-5.101716518,1,-1.165169358,1,-8.254754066,1,0.082828939,1,-0.131697655,1,-0.024516759,1,0.1439548283815384,1,-0.520744205,1,-1.914663315,1,-0.235832214,1,0.051900983,1,0.1412925720214844,1
2.299790382,-4.877619743,1,-1.090750933,1,-8.398694038,1,0.089770727,1,-0.128211275,1,-0.029058058,1,0.14440234,1,-0.521243513,1,-1.9148736,1,-0.007500172,1,0.1297261714935303,1,-0.005600929,1
2.303795815,-5.075854301,1,-1.150572896,1,-8.330764771,1,0.1113639995455742,1,-0.123153433,1,-0.033468209,1,0.1449222266674042,1,-0.52172637,1,-1.915092945,1,-0.201639175,1,0.073928118,1,0.059366226,1
2.307797194,-5.009102821,1,-0.910462677,1,-8.347240448,1,0.1297696977853775,1,-0.106719635,1,-0.031018129,1,0.1455072313547134,1,-0.522175252,1,-1.915317774,1,-0.131082535,1,0.3186293244361877,1,0.040008545,1
2.311794996,-5.114022255,1,-0.725058496,1,-8.385513306,1,0.1443327814340591,1,-0.104111098,1,-0.037201881,1,0.146169901,1,-0.522569597,1,-1.915542364,1,-0.23265934,1,0.5093109011650085,1,-0.000984192,1
2.31579423,-5.09569025,1,-0.756244302,1,-8.386436462,1,0.1659016460180283,1,-0.089324102,1,-0.046288606,1,0.1469313651323318,1,-0.522931993,1,-1.915807724,1,-0.211256504,1,0.484249473,1,-0.00460434,1
2.31979537,-5.044415474,1,-0.882013619,1,-8.441327095,1,0.1900422722101212,1,-0.077614836,1,-0.04886597,1,0.1477821618318558,1,-0.523230314,1,-1.916081309,1,-0.157454967,1,0.3653967976570129,1,-0.061992645,1
2.323792934,-4.998968124,1,-0.867129147,1,-8.430151939,1,0.2024853080511093,1,-0.064053729,1,-0.052071016,1,0.1487047374248505,1,-0.523483038,1,-1.916362643,1,-0.109866142,1,0.3878278136253357,1,-0.053195953,1
2.327792168,-5.141818047,1,-0.760802031,1,-8.399572372,1,0.2131495326757431,1,-0.051390346,1,-0.056309994,1,0.1496756225824356,1,-0.523678303,1,-1.916641712,1,-0.251061916,1,0.502145529,1,-0.024780273,1
2.331793308,-5.065552235,1,-0.74691993,1,-8.359607697,1,0.2110830247402191,1,-0.039183889,1,-0.065789424,1,0.1506863832473755,1,-0.52381897,1,-1.916956663,1,-0.173604965,1,0.5243884921073914,1,0.013224602,1
2.335790873,-5.080430031,1,-0.737861156,1,-8.366810799,1,0.2241095006465912,1,-0.033640794,1,-0.076926567,1,0.1517363786697388,1,-0.52393204,1,-1.917312026,1,-0.187525749,1,0.5421539545059204,1,0.004130363,1
2.339789867,-5.09163332,1,-0.787887335,1,-8.360798836,1,0.2156670242547989,1,-0.035343975,1,-0.09354195,1,0.1528333574533463,1,-0.524023175,1,-1.917739391,1,-0.197956562,1,0.501241922,1,0.008293152,1
2.343791008,-4.980144978,1,-0.908888817,1,-8.335964203,1,0.2223966121673584,1,-0.030114295,1,-0.107677668,1,0.1539595425128937,1,-0.524084032,1,-1.918225288,1,-0.085953236,1,0.3896194696426392,1,0.031378746,1
2.347788572,-5.172747135,1,-0.834480822,1,-8.346283913,1,0.2244431227445602,1,-0.036185421,1,-0.120005526,1,0.1551163643598557,1,-0.52413559,1,-1.9187572,1,-0.278119087,1,0.4736674427986145,1,0.019304276,1
2.351787806,-5.10423851,1,-0.892759204,1,-8.308031082,1,0.2245631366968155,1,-0.026775578,1,-0.138127312,1,0.1563205569982529,1,-0.524178743,1,-1.919364572,1,-0.209244728,1,0.4254286289215088,1,0.055764198,1
2.355788946,-5.116322994,1,-0.84022516,1,-8.302682877,1,0.2322410643100739,1,-0.026260903,1,-0.149516568,1,0.157516673,1,-0.526180446,1,-1.915547848,1,-0.204390526,1,0.4864261746406555,1,0.049836159,1
2.359786272,-5.073565483,1,-1.001551747,1,-8.222291946,1,0.2293176651000977,1,-0.028496785,1,-0.1731482,1,0.1588257402181625,1,-0.526196957,1,-1.916303635,1,-0.161493301,1,0.3360196352005005,1,0.1284046173095703,1
