Time,inertial-6253.76535:estCompensatedAccelX,inertial-6253.76535:estCompensatedAccelX:valid,inertial-6253.76535:estCompensatedAccelY,inertial-6253.76535:estCompensatedAccelY:valid,inertial-6253.76535:estCompensatedAccelZ,inertial-6253.76535:estCompensatedAccelZ:valid,inertial-6253.76535:estAngularRateX,inertial-6253.76535:estAngularRateX:valid,inertial-6253.76535:estAngularRateY,inertial-6253.76535:estAngularRateY:valid,inertial-6253.76535:estAngularRateZ,inertial-6253.76535:estAngularRateZ:valid,inertial-6253.76535:estRoll,inertial-6253.76535:estRoll:valid,inertial-6253.76535:estPitch,inertial-6253.76535:estPitch:valid,inertial-6253.76535:estYaw,inertial-6253.76535:estYaw:valid,inertial-6253.76535:estLinearAccelX,inertial-6253.76535:estLinearAccelX:valid,inertial-6253.76535:estLinearAccelY,inertial-6253.76535:estLinearAccelY:valid,inertial-6253.76535:estLinearAccelZ,inertial-6253.76535:estLinearAccelZ:valid
0,-4.836216927,1,-1.493216872,1,-8.456873894,1,-0.009449474,1,0.015937634,1,0.013414163,1,0.21994628,1,-0.500216663,1,-0.105862111,1,-0.145496845,1,0.37915504,1,-0.08173275,1
0.003999488,-4.861418724,1,-1.49952817,1,-8.437336922,1,-0.008197629,1,0.017801167,1,0.007354245,1,0.219887331,1,-0.500163436,1,-0.105797753,1,-0.171155453,1,0.372404933,1,-0.061839104,1
0.008000768,-4.83515501,1,-1.521848798,1,-8.422600746,1,-0.001831962,1,0.014630553,1,0.009151297,1,0.219829291,1,-0.500109017,1,-0.105743557,1,-0.145358562,1,0.349653482,1,-0.046747208,1
0.011998464,-4.829048634,1,-1.532621503,1,-8.409294128,1,-0.009424938,1,0.016843434,1,0.006987936,1,0.219788864,1,-0.500054598,1,-0.10569784,1,-0.139719486,1,0.338597655,1,-0.033116341,1
0.015997952,-4.826526642,1,-1.546797872,1,-8.403097153,1,-0.00944437,1,0.013376934,1,0.010045657,1,0.219733119,1,-0.499997586,1,-0.105644412,1,-0.137686729,1,0.324012637,1,-0.026554108,1
0.019999232,-4.840756416,1,-1.505179644,1,-8.387573242,1,-0.007871549,1,0.017575681,1,0.008995352,1,0.219678313,1,-0.499947548,1,-0.105597876,1,-0.152346134,1,0.365223169,1,-0.010698318,1
0.023996929,-4.807013988,1,-1.525058746,1,-8.408946991,1,-0.00554404,1,0.017445249,1,0.009158277,1,0.219626248,1,-0.499896348,1,-0.105538353,1,-0.119042873,1,0.344960213,1,-0.031739235,1
0.027996415,-4.824329376,1,-1.520155311,1,-8.423648834,1,-0.007634701,1,0.015819674,1,0.002062668,1,0.219584882,1,-0.499832392,1,-0.105497733,1,-0.136907101,1,0.349582553,1,-0.046071053,1
0.031997953,-4.813800335,1,-1.553386688,1,-8.432540894,1,-0.00600498,1,0.018297825,1,0.002441868,1,0.21955283,1,-0.499775082,1,-0.105462365,1,-0.126870155,1,0.316141486,1,-0.054639816,1
0.03599539,-4.819346428,1,-1.56441164,1,-8.400276184,1,-0.003385866,1,0.018831022,1,0.000458858,1,0.21951969,1,-0.499712974,1,-0.105429374,1,-0.132949352,1,0.304901838,1,-0.022029877,1
0.039994881,-4.759219646,1,-1.578989148,1,-8.389656067,1,-0.006907461,1,0.014704863,1,0.001169639,1,0.219483897,1,-0.499651134,1,-0.105395444,1,-0.073353767,1,0.290087461,1,-0.011060715,1
0.043996673,-4.776479721,1,-1.553734064,1,-8.425982475,1,-0.009483921,1,0.015093912,1,0.005377476,1,0.219437942,1,-0.499594152,1,-0.105353087,1,-0.0911026,1,0.315015674,1,-0.047039986,1
0.047994368,-4.763361931,1,-1.518190622,1,-8.437278748,1,-0.004660459,1,0.016133906,1,0.004449093,1,0.219406784,1,-0.499542505,1,-0.105321214,1,-0.078428268,1,0.350350738,1,-0.05804348,1
0.051993601,-4.747308254,1,-1.534118056,1,-8.43392086,1,-0.006079084,1,0.008830651,1,0.004345579,1,0.219365612,1,-0.499502599,1,-0.105283648,1,-0.062717438,1,0.33411932,1,-0.054423332,1
0.055995136,-4.710989952,1,-1.542988181,1,-8.441915512,1,-0.00408086,1,0.005319627,1,0.003285142,1,0.21933119,1,-0.499465406,1,-0.105258897,1,-0.026718616,1,0.324998975,1,-0.062182426,1
0.059992574,-4.741339684,1,-1.523657918,1,-8.428349495,1,-0.002496385,1,0.007098239,1,0.00132989,1,0.219302744,1,-0.49944979,1,-0.105228327,1,-0.057202339,1,0.344105959,1,-0.048496246,1
0.063992061,-4.790141582,1,-1.517588258,1,-8.425574303,1,-0.001400405,1,0.004159288,1,0.001866478,1,0.219281673,1,-0.499434233,1,-0.105208836,1,-0.106137753,1,0.350014687,1,-0.045611382,1
0.06799949,-4.798735142,1,-1.579926491,1,-8.445755959,1,-0.00379804,1,0.004620994,1,0.005698826,1,0.219262987,1,-0.499424011,1,-0.105191864,1,-0.11481905,1,0.287530899,1,-0.06570816,1
0.072003074,-4.789488316,1,-1.566808343,1,-8.439115524,1,-0.003406805,1,0.007459013,1,0.00496646,1,0.219240353,1,-0.499410361,1,-0.105173044,1,-0.105689049,1,0.300473452,1,-0.058962822,1
0.076002814,-4.763643265,1,-1.595488548,1,-8.411540031,1,-0.007228009,1,0.002234826,1,0.00597899,1,0.219209179,1,-0.499397725,1,-0.105146863,1,-0.079952717,1,0.271544933,1,-0.031270981,1
0.080004349,-4.799190044,1,-1.55332315,1,-8.415831566,1,-0.005652801,1,0.001751973,1,0.006669235,1,0.219180077,1,-0.499388427,1,-0.105116241,1,-0.115579128,1,0.313475966,1,-0.035464287,1
0.084001794,-4.774894714,1,-1.592553139,1,-8.419126511,1,-0.006191349,1,0.001642034,1,0.008218897,1,0.219132319,1,-0.499386251,1,-0.105080828,1,-0.091302872,1,0.273847342,1,-0.038663864,1
0.088001534,-4.782392979,1,-1.56138134,1,-8.420472145,1,-0.005003585,1,0.004315654,1,0.007976655,1,0.219093084,1,-0.49937588,1,-0.105053782,1,-0.098889828,1,0.304700971,1,-0.039888382,1
0.09200307,-4.791666985,1,-1.53352499,1,-8.447415352,1,-0.008888449,1,0.001863311,1,0.006591525,1,0.219048217,1,-0.499380648,1,-0.105020694,1,-0.108123302,1,0.332176566,1,-0.0667696,1
0.096000515,-4.773736477,1,-1.542925,1,-8.451041222,1,-0.010674899,1,0.005210612,1,0.009826007,1,0.219000652,1,-0.499371439,1,-0.10499201,1,-0.090271473,1,0.322387099,1,-0.070264816,1
0.100000001,-4.822529793,1,-1.570662856,1,-8.409812927,1,-0.00564006,1,0.003747602,1,0.004065986,1,0.21894151,1,-0.499367595,1,-0.104957916,1,-0.139097691,1,0.294157147,1,-0.028910637,1
0.104001284,-4.77652216,1,-1.573447824,1,-8.418043137,1,-0.01033372,1,0.004146926,1,0.006491805,1,0.218896687,1,-0.499359637,1,-0.104931101,1,-0.093158245,1,0.291005254,1,-0.037018776,1
0.107998975,-4.782164097,1,-1.602609754,1,-8.38728714,1,-0.00988781,1,-0.002574318,1,0.008529359,1,0.218844652,1,-0.499367088,1,-0.104899593,1,-0.098736763,1,0.261399627,1,-0.006198883,1
0.111998461,-4.816539288,1,-1.54271841,1,-8.425272942,1,-0.00716584,1,0.003424046,1,0.00822898,1,0.218788445,1,-0.499362648,1,-0.104859479,1,-0.133150101,1,0.320824623,1,-0.0440588,1
0.115999997,-4.78619957,1,-1.531360388,1,-8.423985481,1,-0.013263538,1,0.004417773,1,0.006838273,1,0.218730986,1,-0.499358267,1,-0.104832903,1,-0.102848053,1,0.331705689,1,-0.042643547,1
0.119997695,-4.800642967,1,-1.487017274,1,-8.419516563,1,-0.0104658,1,0.001983627,1,0.006985718,1,0.218673721,1,-0.499350399,1,-0.104788624,1,-0.117358685,1,0.3755759,1,-0.0380373,1
0.123997182,-4.75169611,1,-1.488020301,1,-8.44379425,1,-0.009366033,1,0.002089161,1,0.004262303,1,0.218621984,1,-0.499341816,1,-0.104762353,1,-0.068485737,1,0.374148488,1,-0.062176704,1
0.127998725,-4.747428417,1,-1.482304692,1,-8.44289875,1,-0.010989806,1,-0.000653101,1,0.003282774,1,0.21857737,1,-0.499341965,1,-0.104737788,1,-0.064216614,1,0.379489779,1,-0.061199188,1
0.131996423,-4.753608704,1,-1.538779378,1,-8.413508415,1,-0.006100682,1,-0.003147251,1,0.002084313,1,0.218535975,1,-0.499347627,1,-0.104725927,1,-0.070348263,1,0.322662473,1,-0.031757355,1
0.13599591,-4.721028805,1,-1.523833513,1,-8.446177483,1,-0.006348555,1,-0.006198487,1,0.005543027,1,0.218501776,1,-0.499369293,1,-0.104710907,1,-0.037582397,1,0.337299466,1,-0.064461708,1
0.139997438,-4.753953457,1,-1.510997295,1,-8.471320152,1,-0.005959749,1,-0.0063345,1,0.003613825,1,0.218464598,1,-0.499398768,1,-0.104697697,1,-0.070253849,1,0.349794745,1,-0.089668274,1
0.143995136,-4.792749882,1,-1.474531293,1,-8.439865112,1,-0.007403456,1,-0.007719319,1,0.00319914,1,0.218429282,1,-0.49943462,1,-0.104686499,1,-0.108742714,1,0.385928631,1,-0.058310509,1
0.148006663,-4.735891819,1,-1.451222301,1,-8.480402946,1,-0.009523888,1,-0.012981461,1,0.005370685,1,0.21839349,1,-0.499490201,1,-0.104678072,1,-0.051407337,1,0.40888083,1,-0.09903717,1
0.15201433,-4.767003536,1,-1.466003537,1,-8.483129501,1,-0.005531379,1,-0.016494213,1,0.000191533,1,0.218383312,1,-0.499547482,1,-0.10469269,1,-0.082027435,1,0.393956304,1,-0.102005959,1
0.156017914,-4.777752399,1,-1.510812402,1,-8.452733994,1,-0.003033218,1,-0.019239739,1,-0.000795961,1,0.218381956,1,-0.499619067,1,-0.104715057,1,-0.092161655,1,0.34906292,1,-0.071937561,1
0.160017401,-4.809135914,1,-1.569024205,1,-8.442017555,1,0.002784255,1,-0.018362124,1,-0.000834983,1,0.218383119,1,-0.4996939,1,-0.104727387,1,-0.122902393,1,0.290784955,1,-0.061565399,1
0.164018944,-4.864523411,1,-1.513882875,1,-8.388555527,1,-0.00330365,1,-0.018846005,1,0.003221137,1,0.218383104,1,-0.499767482,1,-0.104743339,1,-0.177658558,1,0.345851541,1,-0.008440018,1
0.168016642,-4.809751511,1,-1.505934119,1,-8.411496162,1,-0.004911552,1,-0.018891776,1,0.001507107,1,0.218379229,1,-0.499840796,1,-0.104758218,1,-0.122257233,1,0.353693604,1,-0.031707764,1
0.172016382,-4.820641041,1,-1.499382854,1,-8.415838242,1,-0.004705686,1,-0.014938646,1,-0.004207997,1,0.218379974,1,-0.499905318,1,-0.104778238,1,-0.132593155,1,0.360185504,1,-0.036347389,1
0.176017925,-4.817500591,1,-1.516151309,1,-8.427155495,1,-0.000953783,1,-0.016857473,1,-0.001325137,1,0.218377292,1,-0.499965787,1,-0.104797669,1,-0.12893343,1,0.343333244,1,-0.047935486,1
0.180015355,-4.819497585,1,-1.53376472,1,-8.41681385,1,-0.00072609,1,-0.013943623,1,0.003377231,1,0.218384966,1,-0.500022233,1,-0.104813814,1,-0.130445957,1,0.325726628,1,-0.037866592,1
0.184014842,-4.833619595,1,-1.583297133,1,-8.395345688,1,-0.001603916,1,-0.017441845,1,0.001241198,1,0.218379244,1,-0.500087202,1,-0.104828969,1,-0.144011021,1,0.276080489,1,-0.016684532,1
0.188016385,-4.83095789,1,-1.608671784,1,-8.403899193,1,-0.003297797,1,-0.013886295,1,0.003434886,1,0.218372956,1,-0.500141859,1,-0.104834445,1,-0.140879631,1,0.250597239,1,-0.025478363,1
0.19201383,-4.824780941,1,-1.578891277,1,-8.404255867,1,-0.005805969,1,-0.007954054,1,0.003358647,1,0.218350962,1,-0.500195563,1,-0.10482958,1,-0.134242058,1,0.280139089,1,-0.026039124,1
0.196013317,-4.85730648,1,-1.553403735,1,-8.398130417,1,-0.009334555,1,-0.013640384,1,0.004679217,1,0.218327001,1,-0.50024724,1,-0.104824804,1,-0.166323662,1,0.305373073,1,-0.020107269,1
0.200014845,-4.831258297,1,-1.547072053,1,-8.423086166,1,-0.003834879,1,-0.008724952,1,0.005222928,1,0.218292087,1,-0.50028944,1,-0.104812123,1,-0.139913559,1,0.311369658,1,-0.045189857,1
0.204012543,-4.822570324,1,-1.518373966,1,-8.397253036,1,-0.003772609,1,-0.006115105,1,0.004266994,1,0.218271181,1,-0.500324905,1,-0.104803622,1,-0.130920887,1,0.339856863,1,-0.019479752,1
0.20801203,-4.857424736,1,-1.509981275,1,-8.45162487,1,-0.007574017,1,-0.008842416,1,0.004454664,1,0.218241438,1,-0.500361264,1,-0.104793824,1,-0.165463924,1,0.347963333,1,-0.073962212,1
0.212013572,-4.807874203,1,-1.548914552,1,-8.413515091,1,-0.004384562,1,-0.007311441,1,0.001327916,1,0.218219519,1,-0.500396311,1,-0.104786105,1,-0.115612507,1,0.308809996,1,-0.03597641,1
0.216011271,-4.80888176,1,-1.534497738,1,-8.390709877,1,-0.009691844,1,-0.009777681,1,0.00475102,1,0.218188658,1,-0.500424504,1,-0.10477782,1,-0.116377831,1,0.322939992,1,-0.013242722,1
0.220016643,-4.850614071,1,-1.544170618,1,-8.416901588,1,-0.005848216,1,-0.001579127,1,0.001209279,1,0.218156219,1,-0.500451803,1,-0.104764536,1,-0.157876015,1,0.312967777,1,-0.039498329,1
0.224017918,-4.831564426,1,-1.508408427,1,-8.397928238,1,-0.005646083,1,-0.004860765,1,0.003714692,1,0.217291385,1,-0.500712514,1,-0.104874521,1,-0.136589527,1,0.341219902,1,-0.02011776,1
0.228021502,-4.837412834,1,-1.540946245,1,-8.381080627,1,-0.003483731,1,-0.007187414,1,0.002661598,1,0.217245519,1,-0.500690341,1,-0.105894729,1,-0.142628193,1,0.308321118,1,-0.003081322,1
0.232020989,-4.824525833,1,-1.503765464,1,-8.415915489,1,-0.003962768,1,-0.002775702,1,0.00355687,1,0.217216194,1,-0.500709891,1,-0.105881788,1,-0.129572868,1,0.34523654,1,-0.037950516,1
0.236022532,-4.859919071,1,-1.492559314,1,-8.417757034,1,-0.003821615,1,0.000162858,1,0.00368971,1,0.21718879,1,-0.500717282,1,-0.105865955,1,-0.164903641,1,0.356204987,1,-0.039778709,1
0.240019962,-4.851205349,1,-1.465506077,1,-8.408031464,1,-0.004573368,1,0.002106633,1,0.007229048,1,0.217165515,1,-0.50071919,1,-0.105856843,1,-0.156173229,1,0.383061767,1,-0.030016899,1
0.244019195,-4.821343422,1,-1.520581961,1,-8.416567802,1,-0.004451562,1,0.002774536,1,0.003839712,1,0.217134461,1,-0.500714719,1,-0.105832458,1,-0.126349449,1,0.327729106,1,-0.038478851,1
0.248020738,-4.852911949,1,-1.539327383,1,-8.389135361,1,-0.002545809,1,-0.001530061,1,0.001020527,1,0.217112958,1,-0.500702977,1,-0.105813317,1,-0.158019066,1,0.308816552,1,-0.010948181,1
0.252018183,-4.828638554,1,-1.551045179,1,-8.392081261,1,-0.00338314,1,0.008858434,1,0.005773961,1,0.217091814,1,-0.500684202,1,-0.105798423,1,-0.133906364,1,0.296940446,1,-0.013770103,1
0.256017655,-4.85380888,1,-1.517251253,1,-8.370314598,1,-0.004895413,1,0.004430695,1,0.004249556,1,0.217075735,1,-0.500665784,1,-0.105775781,1,-0.159234524,1,0.330618262,1,0.008111,1
0.260019213,-4.789055824,1,-1.536550164,1,-8.415400505,1,7.56E-05,1,0.006297769,1,0.006987879,1,0.217053607,1,-0.500652671,1,-0.105755374,1,-0.094594479,1,0.311146975,1,-0.036875725,1
0.264016628,-4.807846069,1,-1.577054143,1,-8.441438675,1,-0.003181098,1,0.005060158,1,0.005458759,1,0.217031568,1,-0.500630438,1,-0.10572876,1,-0.113574982,1,0.270480514,1,-0.062771797,1
0.26801613,-4.861134529,1,-1.543596029,1,-8.409398079,1,-0.005973577,1,0.00466256,1,0.006465766,1,0.217007488,1,-0.500614226,1,-0.105707519,1,-0.167003155,1,0.303753614,1,-0.030611038,1
0.272017658,-4.832675934,1,-1.567295671,1,-8.427241325,1,-0.004211382,1,0.004780012,1,0.004055478,1,0.216972053,1,-0.50059998,1,-0.10567677,1,-0.13866663,1,0.279771328,1,-0.048323631,1
0.276015103,-4.832136631,1,-1.538715482,1,-8.411785126,1,-0.000790891,1,0.009383744,1,0.008782093,1,0.216948465,1,-0.500576735,1,-0.105642371,1,-0.138326168,1,0.308177352,1,-0.032717705,1
0.280014604,-4.827133656,1,-1.568283677,1,-8.383701324,1,-0.003295502,1,0.007168899,1,0.009666311,1,0.216916397,1,-0.500547767,1,-0.105604,1,-0.133572578,1,0.278369904,1,-0.004441261,1
0.284016132,-4.825857162,1,-1.585277557,1,-8.426440239,1,-0.005574762,1,0.010233152,1,0.006330856,1,0.216879055,1,-0.500516236,1,-0.105560191,1,-0.132566452,1,0.261094928,1,-0.046966553,1
0.288013577,-4.850664139,1,-1.583901763,1,-8.417721748,1,-0.002462755,1,0.010150331,1,0.008804022,1,0.216831997,1,-0.500478089,1,-0.105510592,1,-0.157701015,1,0.26211524,1,-0.037984848,1
0.292013049,-4.819530964,1,-1.546234012,1,-8.406617165,1,-0.0078888,1,0.012043084,1,0.008176476,1,0.2167795,1,-0.50043726,1,-0.105459191,1,-0.126917839,1,0.299384117,1,-0.026596069,1
0.296014339,-4.836853981,1,-1.549341083,1,-8.423583031,1,-0.007307084,1,0.01732952,1,0.007796304,1,0.216728568,1,-0.500400126,1,-0.105402514,1,-0.144559383,1,0.295887589,1,-0.043298721,1
0.300012022,-4.847684383,1,-1.500003338,1,-8.426884651,1,-0.008362574,1,0.015288028,1,0.010750012,1,0.216672316,1,-0.500355661,1,-0.105338126,1,-0.155771732,1,0.344798803,1,-0.046292305,1
0.304017663,-4.82254076,1,-1.526118755,1,-8.416212082,1,-0.007592504,1,0.015592922,1,0.007005522,1,0.216616318,1,-0.500307083,1,-0.105278835,1,-0.131044388,1,0.318263054,1,-0.035294533,1
0.308019191,-4.799894333,1,-1.5065341,1,-8.41297245,1,-0.005671321,1,0.012765249,1,0.010430842,1,0.216563269,1,-0.500267029,1,-0.105223037,1,-0.10874176,1,0.337443948,1,-0.031772614,1
0.312017143,-4.81506443,1,-1.517894864,1,-8.422904968,1,-0.007411222,1,0.014878931,1,0.0118594,1,0.216515556,1,-0.500216305,1,-0.105163142,1,-0.124347687,1,0.325734138,1,-0.041384697,1
0.316016644,-4.804067612,1,-1.452614307,1,-8.420987129,1,-0.003521102,1,0.015650148,1,0.007930773,1,0.216464594,1,-0.50017345,1,-0.105102353,1,-0.113718033,1,0.390630126,1,-0.039179802,1
0.320017934,-4.822324753,1,-1.441154957,1,-8.407093048,1,-0.00187955,1,0.017059019,1,0.008679092,1,0.21643807,1,-0.500118196,1,-0.105061099,1,-0.132450104,1,0.401922822,1,-0.02498436,1
0.324015617,-4.822488785,1,-1.458492398,1,-8.417049408,1,-6.35E-06,1,0.0128552,1,0.007590236,1,0.216410115,1,-0.500063241,1,-0.105013765,1,-0.133085728,1,0.384407043,1,-0.034633636,1
0.328015119,-4.833466053,1,-1.5204041,1,-8.405262947,1,0.000499739,1,0.016083099,1,0.005242182,1,0.216395169,1,-0.500009537,1,-0.104979254,1,-0.144523144,1,0.322423935,1,-0.022575378,1
0.332016647,-4.837828636,1,-1.541209936,1,-8.405841827,1,0.001087591,1,0.018290814,1,0.006347123,1,0.216378704,1,-0.49995172,1,-0.104937308,1,-0.149382114,1,0.301538348,1,-0.022857666,1
0.33601433,-4.851116657,1,-1.525586605,1,-8.387223244,1,-0.004197604,1,0.015061121,1,0.007280882,1,0.216349512,1,-0.49988395,1,-0.104887612,1,-0.163251877,1,0.316985488,1,-0.003874779,1
0.340013564,-4.792604446,1,-1.52328074,1,-8.431274414,1,-0.00010219,1,0.019240776,1,0.007037627,1,0.216326296,1,-0.499820083,1,-0.104834542,1,-0.105288029,1,0.319160938,1,-0.047591209,1
0.344015092,-4.799693584,1,-1.531504154,1,-8.424777031,1,0.001970622,1,0.022021398,1,0.006843563,1,0.216307372,1,-0.499744892,1,-0.104790166,1,-0.113022804,1,0.310854435,1,-0.040714264,1
0.348012537,-4.821716785,1,-1.551838756,1,-8.390983582,1,0.000272923,1,0.022263087,1,0.008880056,1,0.216282874,1,-0.499662369,1,-0.104730219,1,-0.135754108,1,0.290397406,1,-0.006498337,1
0.35201177,-4.790332317,1,-1.540651441,1,-8.435966492,1,-0.002983584,1,0.025078977,1,0.006560321,1,0.216254458,1,-0.499582738,1,-0.104666971,1,-0.105053425,1,0.301426291,1,-0.051065445,1
0.356013298,-4.785257339,1,-1.51834476,1,-8.430339813,1,-0.000798458,1,0.017211674,1,0.009149961,1,0.216220036,1,-0.499511868,1,-0.104605407,1,-0.100586891,1,0.323515296,1,-0.045052528,1
0.360010743,-4.750828266,1,-1.540725589,1,-8.487537384,1,-0.005736546,1,0.01805705,1,0.010758037,1,0.216188833,1,-0.499442607,1,-0.104551867,1,-0.066752434,1,0.30094254,1,-0.101875305,1
0.364010483,-4.729678631,1,-1.553278089,1,-8.474632263,1,-0.003772234,1,0.018632162,1,0.006864665,1,0.216139182,1,-0.499376655,1,-0.104492582,1,-0.046168804,1,0.288040161,1,-0.088576317,1
0.368012041,-4.790057182,1,-1.579070091,1,-8.512842178,1,-0.003448954,1,0.017186726,1,0.011669226,1,0.216087356,1,-0.499316871,1,-0.104423255,1,-0.107060909,1,0.261873364,1,-0.126416206,1
0.372009486,-4.789147377,1,-1.503785253,1,-8.475793839,1,-0.012108908,1,0.012777015,1,0.008388588,1,0.216031983,1,-0.499263555,1,-0.104362085,1,-0.106608868,1,0.336747408,1,-0.089022636,1
0.376008958,-4.797926426,1,-1.484668851,1,-8.473400116,1,-0.003133708,1,0.017988797,1,0.005021026,1,0.215982348,1,-0.499210298,1,-0.104317479,1,-0.11584568,1,0.355500937,1,-0.086294174,1
0.380010247,-4.779496193,1,-1.501531005,1,-8.475045204,1,-0.00861583,1,0.019012451,1,0.008358668,1,0.215934694,1,-0.499152035,1,-0.104275294,1,-0.097914696,1,0.338297009,1,-0.087587357,1
0.384013563,-4.740619659,1,-1.525713563,1,-8.439017296,1,-0.005568949,1,0.01789378,1,0.008782853,1,0.21587503,1,-0.499099016,1,-0.104220852,1,-0.059494019,1,0.313667655,1,-0.051205635,1
0.388013065,-4.81863451,1,-1.557825565,1,-8.460802078,1,-0.004737413,1,0.013960849,1,0.007159579,1,0.215824485,1,-0.499043465,1,-0.104173928,1,-0.137985706,1,0.281187415,1,-0.07264328,1
0.392014325,-4.818859577,1,-1.540931106,1,-8.478020668,1,-0.011934572,1,0.016536256,1,0.012875752,1,0.215760097,1,-0.498991519,1,-0.104118206,1,-0.138657093,1,0.297593594,1,-0.089508057,1
0.396012038,-4.824567795,1,-1.570624113,1,-8.415677071,1,-0.00788136,1,0.013827927,1,0.011051402,1,0.215696618,1,-0.498948157,1,-0.104065143,1,-0.14473772,1,0.267411828,1,-0.026847839,1
0.40001151,-4.834377766,1,-1.553107023,1,-8.436847687,1,-0.010684889,1,0.015199173,1,0.010120187,1,0.215629727,1,-0.498897344,1,-0.104000852,1,-0.154983521,1,0.284418225,1,-0.047663689,1
0.404012799,-4.82531023,1,-1.54824543,1,-8.42140007,1,-0.01013709,1,0.014461522,1,0.008829737,1,0.215554312,1,-0.49884361,1,-0.103938289,1,-0.14637804,1,0.288701415,1,-0.031829834,1
0.408010483,-4.802223682,1,-1.514349222,1,-8.415462494,1,-0.012689997,1,0.01379531,1,0.011056098,1,0.21546793,1,-0.498798907,1,-0.103869125,1,-0.12367487,1,0.321917295,1,-0.025530815,1
0.412009984,-4.826850891,1,-1.538962126,1,-8.444313049,1,-0.012411403,1,0.01680704,1,0.014273501,1,0.215384975,1,-0.498744458,1,-0.103799552,1,-0.148770332,1,0.296663165,1,-0.053979874,1
0.416011512,-4.80157423,1,-1.511656404,1,-8.419262886,1,-0.011852331,1,0.015022775,1,0.013308403,1,0.21529898,1,-0.498695105,1,-0.10372249,1,-0.123917103,1,0.323296666,1,-0.028547287,1
0.420009226,-4.799467087,1,-1.528697371,1,-8.412482262,1,-0.011178372,1,0.015835341,1,0.009879238,1,0.215216845,1,-0.498639971,1,-0.103653222,1,-0.122283936,1,0.305621386,1,-0.021364212,1
0.424008459,-4.80555582,1,-1.51218915,1,-8.424351692,1,-0.016381619,1,0.019422406,1,0.01330197,1,0.215136722,1,-0.498586029,1,-0.103587329,1,-0.128836155,1,0.321511269,1,-0.032839775,1
0.428009987,-4.798639774,1,-1.495704293,1,-8.442075729,1,-0.011005072,1,0.018805461,1,0.016178433,1,0.21504046,1,-0.49853155,1,-0.103505433,1,-0.122387886,1,0.337242365,1,-0.050138474,1
0.432007432,-4.791007519,1,-1.539471269,1,-8.442206383,1,-0.016633227,1,0.013891649,1,0.014724455,1,0.214947045,1,-0.498478115,1,-0.103427291,1,-0.115214348,1,0.292745233,1,-0.049851418,1
0.436006665,-4.780235291,1,-1.55902791,1,-8.435320854,1,-0.014656964,1,0.01751671,1,0.01815163,1,0.214835152,1,-0.49842754,1,-0.103341319,1,-0.104876995,1,0.272300124,1,-0.04253006,1
0.440008193,-4.786701679,1,-1.501978874,1,-8.416385651,1,-0.017044244,1,0.021908969,1,0.015602269,1,0.214717329,1,-0.498359799,1,-0.103247456,1,-0.111925125,1,0.328427315,1,-0.023071289,1
0.444005877,-4.846805573,1,-1.455493331,1,-8.428236961,1,-0.014857906,1,0.016812904,1,0.015994908,1,0.214608267,1,-0.498297155,1,-0.103163503,1,-0.172566891,1,0.374060035,1,-0.034436226,1
0.44800511,-4.800857544,1,-1.455377698,1,-8.444502831,1,-0.01794732,1,0.018719621,1,0.017616695,1,0.214499995,1,-0.498234838,1,-0.103069223,1,-0.12715435,1,0.373329282,1,-0.050217628,1
0.452006668,-4.808915615,1,-1.473067522,1,-8.455377579,1,-0.015529576,1,0.019156761,1,0.016098075,1,0.21438314,1,-0.498167872,1,-0.102977127,1,-0.135787487,1,0.354724765,1,-0.060573578,1
0.456004083,-4.785788536,1,-1.480458975,1,-8.443824768,1,-0.013558742,1,0.017396368,1,0.012144164,1,0.214275405,1,-0.49810195,1,-0.102885604,1,-0.113226891,1,0.346494198,1,-0.048524857,1
0.460003585,-4.831502438,1,-1.530820489,1,-8.425819397,1,-0.01465447,1,0.019816112,1,0.016749213,1,0.214169294,1,-0.498036146,1,-0.102791093,1,-0.159506321,1,0.295306921,1,-0.030026436,1
0.464011252,-4.793222904,1,-1.505373716,1,-8.420519829,1,-0.017206214,1,0.021043571,1,0.014641837,1,0.214059472,1,-0.497968584,1,-0.102692544,1,-0.121807575,1,0.319898486,1,-0.024218559,1
0.468014836,-4.749000549,1,-1.488223791,1,-8.443555832,1,-0.015276397,1,0.018991221,1,0.014811029,1,0.21394147,1,-0.497897327,1,-0.102596648,1,-0.078197479,1,0.336128473,1,-0.046712875,1
0.472014844,-4.782021523,1,-1.48774159,1,-8.440594673,1,-0.016455596,1,0.023869559,1,0.017149394,1,0.213841721,1,-0.497827441,1,-0.102509275,1,-0.11181879,1,0.335842609,1,-0.043251038,1
0.476016372,-4.78808403,1,-1.470654845,1,-8.454268456,1,-0.01395091,1,0.020796349,1,0.011767017,1,0.212941289,1,-0.497991234,1,-0.103694417,1,-0.116473675,1,0.345205665,1,-0.056032181,1
0.480013818,-4.783364773,1,-1.468290448,1,-8.432657242,1,-0.013289473,1,0.021346664,1,0.015144488,1,0.212854967,1,-0.497913778,1,-0.103614874,1,-0.112420082,1,0.346920967,1,-0.033914566,1
0.484013319,-4.821306229,1,-1.479331732,1,-8.454778671,1,-0.007340294,1,0.023374183,1,0.012874139,1,0.2127707,1,-0.497846305,1,-0.103528179,1,-0.150941372,1,0.335239172,1,-0.055571556,1
0.488014847,-4.769145012,1,-1.51785934,1,-8.423873901,1,-0.003340545,1,0.021107085,1,0.007726255,1,0.212702945,1,-0.497768492,1,-0.103464618,1,-0.099448681,1,0.29621911,1,-0.024188995,1
0.492012531,-4.774425507,1,-1.49683094,1,-8.422826767,1,-0.00918445,1,0.02189026,1,0.008997856,1,0.212632492,1,-0.49769944,1,-0.103398442,1,-0.105322361,1,0.316723824,1,-0.022698402,1
0.496012032,-4.758564472,1,-1.452323675,1,-8.433032036,1,-0.008987928,1,0.023176288,1,0.006634159,1,0.212570995,1,-0.497627407,1,-0.103342742,1,-0.090080738,1,0.360785365,1,-0.032464027,1
0.500013292,-4.778550625,1,-1.410675168,1,-8.500899315,1,-0.001087307,1,0.018806299,1,0.0059652,1,0.212526694,1,-0.497552067,1,-0.103292368,1,-0.110714436,1,0.402136087,1,-0.099905968,1
0.504011035,-4.812638283,1,-1.409657359,1,-8.450053215,1,-0.004222107,1,0.021252673,1,0.002533717,1,0.212487862,1,-0.497482032,1,-0.103252597,1,-0.145403862,1,0.402896643,1,-0.048669815,1
0.508010507,-4.833056927,1,-1.449803472,1,-8.429424286,1,-0.002463401,1,0.01888952,1,0.002101087,1,0.212454721,1,-0.497404009,1,-0.103217006,1,-0.166492939,1,0.362548828,1,-0.027626038,1
0.512011766,-4.767666817,1,-1.490940452,1,-8.461138725,1,-0.000416088,1,0.022248955,1,0.005371644,1,0.212432787,1,-0.497329205,1,-0.1031828,1,-0.101746082,1,0.32130146,1,-0.058958054,1
0.516009212,-4.781922817,1,-1.465341806,1,-8.451136589,1,-0.003362582,1,0.018833766,1,0.00460386,1,0.212407544,1,-0.497252494,1,-0.103143752,1,-0.116661072,1,0.346763492,1,-0.048559189,1
0.520008445,-4.772727013,1,-1.485663056,1,-8.442263603,1,-0.002939596,1,0.023168586,1,0.002862829,1,0.212377042,1,-0.497173041,1,-0.103104442,1,-0.108148575,1,0.326264024,1,-0.039269447,1
0.524010003,-4.770463467,1,-1.475838423,1,-8.461296082,1,-0.002587018,1,0.021417862,1,0.002917785,1,0.212357327,1,-0.497095734,1,-0.10307505,1,-0.10654974,1,0.335998178,1,-0.057917595,1
0.528007686,-4.767256737,1,-1.460242152,1,-8.44929409,1,-0.000174592,1,0.021104379,1,0.004188098,1,0.212338239,1,-0.497018218,1,-0.103039525,1,-0.104009151,1,0.351510167,1,-0.045527458,1
0.532007158,-4.772611141,1,-1.509836555,1,-8.420459747,1,-0.001107763,1,0.022028601,1,0.002617252,1,0.212315857,1,-0.496941537,1,-0.103008494,1,-0.110022545,1,0.301803708,1,-0.016300201,1
0.536008716,-4.814284801,1,-1.472843885,1,-8.417013168,1,-0.004407098,1,0.017209962,1,0.004654694,1,0.212294489,1,-0.496867418,1,-0.102985382,1,-0.152333736,1,0.338689566,1,-0.012476921,1
0.540006399,-4.803823471,1,-1.501077533,1,-8.432718277,1,-0.002669165,1,0.020724002,1,0.003311675,1,0.212273374,1,-0.496791482,1,-0.102958128,1,-0.142525196,1,0.310353041,1,-0.027796745,1
0.54401201,-4.798709393,1,-1.479079008,1,-8.443394661,1,-8.21E-05,1,0.021719815,1,0.002086318,1,0.212251246,1,-0.49671182,1,-0.102926582,1,-0.138096333,1,0.332243681,1,-0.038071632,1
0.548013806,-4.775630951,1,-1.494491935,1,-8.432086945,1,-0.000634326,1,0.023691116,1,0.001588779,1,0.212228134,1,-0.496625334,1,-0.10289073,1,-0.115761757,1,0.316721439,1,-0.026327133,1
0.552011788,-4.719291687,1,-1.478469729,1,-8.425985336,1,3.92E-05,1,0.01761074,1,0.005139572,1,0.212203294,1,-0.496553779,1,-0.102856733,1,-0.060037136,1,0.332605124,1,-0.019854546,1
0.55601126,-4.711325645,1,-1.430437326,1,-8.449157715,1,0.000196572,1,0.019374048,1,0.000916438,1,0.212191746,1,-0.496479183,1,-0.102833435,1,-0.052712917,1,0.380614042,1,-0.042665482,1
0.560012817,-4.737616062,1,-1.423060536,1,-8.455519676,1,0.002318399,1,0.015676541,1,-0.002141857,1,0.212193847,1,-0.496405035,1,-0.102816187,1,-0.079640865,1,0.38808012,1,-0.048698425,1
0.564010262,-4.771123886,1,-1.462649941,1,-8.463246346,1,0.005902851,1,0.018809278,1,-0.003946825,1,0.212199345,1,-0.496336728,1,-0.10280259,1,-0.113735676,1,0.348604321,1,-0.05612278,1
0.568009734,-4.717871189,1,-1.469996929,1,-8.481059074,1,0.000819691,1,0.019211045,1,-0.003230259,1,0.21221225,1,-0.496261328,1,-0.102794431,1,-0.061131954,1,0.341439605,1,-0.073615074,1
0.572011292,-4.698518276,1,-1.47944355,1,-8.476411819,1,0.004227196,1,0.013738187,1,-0.002459562,1,0.212227032,1,-0.496197224,1,-0.102790356,1,-0.042330265,1,0.332180262,1,-0.068702698,1
0.576008677,-4.716222763,1,-1.478231072,1,-8.478466034,1,0.001782548,1,0.016336197,1,-0.002804424,1,0.212238953,1,-0.496144116,1,-0.10279306,1,-0.060491562,1,0.333545327,1,-0.070536613,1
0.580008209,-4.710040569,1,-1.490318656,1,-8.51184845,1,0.005665925,1,0.012010123,1,-0.002333957,1,0.212261409,1,-0.496083796,1,-0.102797873,1,-0.054828644,1,0.321705818,1,-0.103684425,1
0.584009469,-4.751245499,1,-1.513798594,1,-8.486791611,1,0.006669064,1,0.010461866,1,-0.004094282,1,0.21228601,1,-0.496031463,1,-0.102806121,1,-0.096483231,1,0.298483729,1,-0.078434944,1
0.588007152,-4.760289192,1,-1.523988843,1,-8.465843201,1,0.002052943,1,0.008691646,1,-0.003103444,1,0.21230723,1,-0.49598819,1,-0.102809183,1,-0.105899334,1,0.288514376,1,-0.057328224,1
0.592006385,-4.763708591,1,-1.583756685,1,-8.469033241,1,0.003941485,1,0.006551482,1,-0.003311971,1,0.212320447,1,-0.495957315,1,-0.102817044,1,-0.109584332,1,0.228887796,1,-0.060401917,1
0.596007705,-4.786653996,1,-1.58634913,1,-8.470576286,1,0.005471616,1,0.006562624,1,-0.003528343,1,0.212334037,1,-0.495927423,1,-0.102822691,1,-0.132786751,1,0.226439238,1,-0.061832428,1
0.60000509,-4.7608881,1,-1.531050444,1,-8.46750164,1,0.001506871,1,0.00407069,1,0.001474214,1,0.212343648,1,-0.495901585,1,-0.102830671,1,-0.107242584,1,0.28184402,1,-0.058657646,1
0.604004622,-4.762355328,1,-1.525171876,1,-8.457021713,1,0.000530712,1,0.006547756,1,0.004283859,1,0.212335035,1,-0.495869011,1,-0.102816842,1,-0.108990669,1,0.287682056,1,-0.048014641,1
0.608005881,-4.754281044,1,-1.548019409,1,-8.478569031,1,-0.001179622,1,0.005538933,1,0.003271524,1,0.212328106,1,-0.49584496,1,-0.102805175,1,-0.101123333,1,0.264799595,1,-0.069441795,1
0.612003565,-4.77890873,1,-1.513987064,1,-8.467858315,1,-8.21E-05,1,0.003030532,1,0.002592118,1,0.212316886,1,-0.495824873,1,-0.102790691,1,-0.125923634,1,0.298757434,1,-0.058618546,1
0.616002798,-4.765300274,1,-1.521684527,1,-8.465094566,1,-0.002429275,1,0.004581254,1,0.00290539,1,0.212304384,1,-0.495808423,1,-0.102773286,1,-0.112456799,1,0.290970445,1,-0.055758476,1
0.620010734,-4.778557301,1,-1.508342147,1,-8.449310303,1,-0.00533409,1,0.006453977,1,0.003241363,1,0.212288588,1,-0.49579066,1,-0.102758355,1,-0.125866413,1,0.304197907,1,-0.039863586,1
0.624014616,-4.778143406,1,-1.463983297,1,-8.418072701,1,-0.001416948,1,0.005901427,1,0.00134398,1,0.212269902,1,-0.495769113,1,-0.102736957,1,-0.125638008,1,0.348421097,1,-0.00849247,1
0.628014326,-4.78447485,1,-1.469799519,1,-8.476953506,1,0.003258825,1,0.006157694,1,0.000786231,1,0.21226494,1,-0.49574846,1,-0.102717139,1,-0.132146835,1,0.342583299,1,-0.067270279,1
0.632015884,-4.784692764,1,-1.48854804,1,-8.429568291,1,-0.002912892,1,0.006578996,1,0.0019643,1,0.212262779,1,-0.495729297,1,-0.102705561,1,-0.132529736,1,0.323835373,1,-0.019794464,1
0.636013329,-4.762534142,1,-1.481006384,1,-8.465037346,1,0.003389676,1,0.006608409,1,0.000235805,1,0.212256938,1,-0.495711148,1,-0.102691464,1,-0.110527039,1,0.33134532,1,-0.055171967,1
0.640012562,-4.72383976,1,-1.452246189,1,-8.473801613,1,0.000814646,1,0.006099066,1,0.002130248,1,0.212261707,1,-0.495695025,1,-0.102669284,1,-0.071971416,1,0.360161424,1,-0.063871384,1
0.64401406,-4.782049656,1,-1.445685744,1,-8.447006226,1,0.00690928,1,0.004855341,1,0.000612601,1,0.212276042,1,-0.495675892,1,-0.102663092,1,-0.130346298,1,0.366861463,1,-0.037014008,1
0.648011506,-4.784752369,1,-1.46137464,1,-8.440286636,1,0.007625846,1,0.005665238,1,0.001618835,1,0.212286264,1,-0.49565804,1,-0.10264679,1,-0.133202553,1,0.351275682,1,-0.03023243,1
0.652011037,-4.738454819,1,-1.461528182,1,-8.440648079,1,0.007879419,1,0.010522143,1,0.001211963,1,0.212307408,1,-0.495626479,1,-0.102636673,1,-0.0871768,1,0.351330996,1,-0.030488968,1
0.656012535,-4.708341599,1,-1.414152384,1,-8.421257019,1,0.007131292,1,0.007900585,1,-0.00200375,1,0.212332562,1,-0.495600849,1,-0.10263212,1,-0.057283878,1,0.398943782,1,-0.011025429,1
0.66000998,-4.742655754,1,-1.47560513,1,-8.449839592,1,0.007076516,1,0.008812292,1,-0.0021527,1,0.212357476,1,-0.495577335,1,-0.102634728,1,-0.091799736,1,0.33772397,1,-0.039545059,1
0.664009452,-4.740795135,1,-1.42956233,1,-8.451776505,1,0.007692343,1,0.004609042,1,-0.000140747,1,0.212388381,1,-0.495549083,1,-0.102635592,1,-0.090182304,1,0.384054303,1,-0.041409492,1
0.66801101,-4.693236351,1,-1.446084857,1,-8.466499329,1,0.014094714,1,0.006230569,1,-0.007425306,1,0.212430775,1,-0.495530456,1,-0.10264539,1,-0.042783737,1,0.367906451,1,-0.056125641,1
0.672008455,-4.699368477,1,-1.4553864,1,-8.473677635,1,0.006554322,1,0.001608506,1,-0.01227746,1,0.212488979,1,-0.495511025,1,-0.102677211,1,-0.04908371,1,0.359113812,1,-0.063319206,1
0.676007926,-4.707789898,1,-1.485903263,1,-8.478187561,1,0.011892729,1,-0.001772652,1,-0.00862287,1,0.212542266,1,-0.495504141,1,-0.102709688,1,-0.057563782,1,0.329051614,1,-0.067894936,1
0.680009186,-4.734138966,1,-1.480514526,1,-8.467658043,1,0.0169136,1,0.001162227,1,-0.013307964,1,0.212617382,1,-0.495497704,1,-0.10275577,1,-0.083968639,1,0.335078835,1,-0.057472229,1
0.684006929,-4.765390873,1,-1.531246901,1,-8.462936401,1,0.011882378,1,-0.002998499,1,-0.012092365,1,0.212694496,1,-0.495495945,1,-0.102815472,1,-0.115235806,1,0.284996271,1,-0.052883148,1
0.688006401,-4.769052029,1,-1.520748734,1,-8.458501816,1,0.012272262,1,0.000513585,1,-0.010179473,1,0.212768003,1,-0.495493174,1,-0.102866933,1,-0.118920326,1,0.296115398,1,-0.048569679,1
0.692007959,-4.746735096,1,-1.572500825,1,-8.477590561,1,0.010746858,1,-0.003973236,1,-0.01305766,1,0.212839276,1,-0.495494843,1,-0.102914385,1,-0.096589088,1,0.244961023,1,-0.067795753,1
0.696005642,-4.748102188,1,-1.603127718,1,-8.462884903,1,0.006113464,1,-0.003444431,1,-0.005728533,1,0.212893501,1,-0.49550721,1,-0.102955885,1,-0.097849846,1,0.214777827,1,-0.053244591,1
0.700011253,-4.765491009,1,-1.564766049,1,-8.484250069,1,0.006587136,1,-0.00423813,1,-0.001452312,1,0.212929904,1,-0.49552536,1,-0.102983944,1,-0.115082741,1,0.253428221,1,-0.074757576,1
0.704012811,-4.744864464,1,-1.550286055,1,-8.490525246,1,0.002678574,1,-0.005252134,1,-0.001806139,1,0.212952137,1,-0.495542556,1,-0.103004329,1,-0.094307899,1,0.268078446,1,-0.081151009,1
0.708010733,-4.733868599,1,-1.520520449,1,-8.491013527,1,0.003717232,1,-0.010389617,1,-0.002061601,1,0.212971225,1,-0.495568097,1,-0.103021838,1,-0.08309269,1,0.297979355,1,-0.08178997,1
0.712009966,-4.811793327,1,-1.507425785,1,-8.498670578,1,0.001414407,1,-0.004784393,1,0.001275723,1,0.212982446,1,-0.495599389,1,-0.103024356,1,-0.160747528,1,0.311137319,1,-0.089611053,1
0.716011524,-4.782888412,1,-1.492977142,1,-8.463374138,1,-0.00018628,1,-0.008966182,1,-0.000667797,1,0.212996662,1,-0.495629311,1,-0.103031926,1,-0.131586075,1,0.325676322,1,-0.054475784,1
0.720008969,-4.759665012,1,-1.51177454,1,-8.463755608,1,0.001894025,1,-0.01048051,1,0.003164955,1,0.213013381,1,-0.495664984,1,-0.103048176,1,-0.108055592,1,0.306983948,1,-0.055052757,1
0.724008203,-4.75982666,1,-1.489781857,1,-8.46967411,1,0.004202783,1,-0.011575582,1,0.000770099,1,0.212213472,1,-0.49592343,1,-0.103143238,1,-0.105993748,1,0.321996331,1,-0.060694695,1
0.728009701,-4.774679661,1,-1.487888694,1,-8.455183029,1,0.003276075,1,-0.010712176,1,0.002391127,1,0.212216944,1,-0.495921344,1,-0.104172982,1,-0.120864391,1,0.323920727,1,-0.046201706,1
0.732007146,-4.790008068,1,-1.487677455,1,-8.448752403,1,0.004672058,1,-0.010209159,1,0.001224388,1,0.212235451,1,-0.495957941,1,-0.10418243,1,-0.135878086,1,0.324252129,1,-0.039968491,1
0.736006677,-4.80096817,1,-1.440228581,1,-8.456899643,1,0.008559613,1,-0.007144098,1,-0.00317531,1,0.212264717,1,-0.495995492,1,-0.10420692,1,-0.146515369,1,0.371910214,1,-0.04833889,1
0.740008175,-4.789815903,1,-1.460544944,1,-8.450212479,1,0.006635,1,-0.01155067,1,0.001754017,1,0.212293476,1,-0.496027231,1,-0.104213789,1,-0.135089874,1,0.351804376,1,-0.04185009,1
0.74400562,-4.789084911,1,-1.473779798,1,-8.439409256,1,0.007354916,1,-0.006118601,1,-0.00394887,1,0.212329164,1,-0.496070385,1,-0.104236417,1,-0.133987427,1,0.338827133,1,-0.031308174,1
0.748005092,-4.777301311,1,-1.464342713,1,-8.423093796,1,0.009932951,1,-0.006575642,1,-0.0003717,1,0.212372765,1,-0.496099263,1,-0.104260422,1,-0.121955872,1,0.348602176,1,-0.01520443,1
0.75200665,-4.790285587,1,-1.472392559,1,-8.408828735,1,0.006017099,1,-0.00795606,1,-0.006384753,1,0.212415785,1,-0.496132135,1,-0.104271673,1,-0.134657383,1,0.340882301,1,-0.00116539,1
0.756004095,-4.80578661,1,-1.464800358,1,-8.427718163,1,0.00836785,1,-0.00675641,1,-0.005413931,1,0.212459162,1,-0.496151298,1,-0.104295753,1,-0.14999342,1,0.348820567,1,-0.020218849,1
0.760003567,-4.754240036,1,-1.43845892,1,-8.45966053,1,0.009494128,1,-0.005409434,1,-0.003580822,1,0.212514505,1,-0.496177077,1,-0.104330115,1,-0.098225594,1,0.375602484,1,-0.052377701,1
0.764005125,-4.753252506,1,-1.488210797,1,-8.442811012,1,0.010643685,1,-0.007345743,1,-0.006940076,1,0.212568432,1,-0.496203005,1,-0.104366541,1,-0.097014427,1,0.326277256,1,-0.035749435,1
0.76800257,-4.755681038,1,-1.459518671,1,-8.449128151,1,0.014184494,1,-0.004641443,1,-0.007949781,1,0.212636814,1,-0.496226251,1,-0.10439989,1,-0.099243641,1,0.355522037,1,-0.042293549,1
0.77200228,-4.77624321,1,-1.41538918,1,-8.475536346,1,0.010357487,1,-0.01045479,1,-0.012619952,1,0.212710992,1,-0.496243179,1,-0.104445182,1,-0.119660378,1,0.400258422,1,-0.06891346,1
0.776003599,-4.793101788,1,-1.490464926,1,-8.462900162,1,0.014108194,1,-0.003187948,1,-0.009425774,1,0.212789148,1,-0.496257901,1,-0.104492255,1,-0.136392117,1,0.325824738,1,-0.056488037,1
0.780007184,-4.766674995,1,-1.514572263,1,-8.433279037,1,0.017261369,1,-0.007572276,1,-0.013083784,1,0.212877885,1,-0.496266633,1,-0.104553409,1,-0.109889984,1,0.302455306,1,-0.027066231,1
0.784006655,-4.793875217,1,-1.529477358,1,-8.412809372,1,0.014448025,1,-0.006369722,1,-0.011865459,1,0.212969303,1,-0.496269047,1,-0.104608171,1,-0.137069702,1,0.28831625,1,-0.006773949,1
0.788007915,-4.723353386,1,-1.554711819,1,-8.418605804,1,0.014046133,1,-0.00629163,1,-0.011489406,1,0.213050872,1,-0.496281832,1,-0.104663566,1,-0.066437721,1,0.263754725,1,-0.012777328,1
0.79200536,-4.791350365,1,-1.564367414,1,-8.429465294,1,0.014317413,1,-0.003197644,1,-0.007029391,1,0.213125244,1,-0.496280462,1,-0.104712903,1,-0.134446621,1,0.254725933,1,-0.02376461,1
0.796004891,-4.798005581,1,-1.516719818,1,-8.441979408,1,0.009534965,1,-0.006512763,1,-0.008690037,1,0.213193431,1,-0.496292084,1,-0.10475681,1,-0.141001701,1,0.302935243,1,-0.036456108,1
0.800006151,-4.799013138,1,-1.512789845,1,-8.423658371,1,0.010835564,1,-0.001696203,1,-0.009847786,1,0.21325843,1,-0.496296436,1,-0.10480582,1,-0.141972065,1,0.307407618,1,-0.018270493,1
0.804003596,-4.790311813,1,-1.481360316,1,-8.411091805,1,0.01382011,1,0.000318643,1,-0.008979412,1,0.213325039,1,-0.496289492,1,-0.104844131,1,-0.133329868,1,0.339403033,1,-0.005797386,1
0.80800283,-4.801723003,1,-1.524731874,1,-8.441473007,1,0.015311304,1,-0.001761128,1,-0.005684283,1,0.213396922,1,-0.496289968,1,-0.104874618,1,-0.14473772,1,0.296635389,1,-0.036310196,1
0.812004328,-4.82294035,1,-1.51646328,1,-8.397648811,1,0.013350632,1,0.003298146,1,-0.006607716,1,0.213462994,1,-0.496274084,1,-0.104911022,1,-0.166091442,1,0.305474997,1,0.007464409,1
0.816002071,-4.793615818,1,-1.545345187,1,-8.410679817,1,0.011693165,1,0.002322275,1,-0.005312819,1,0.213522851,1,-0.496260673,1,-0.104938589,1,-0.136881828,1,0.277109504,1,-0.005613327,1
0.820001543,-4.782262325,1,-1.577798247,1,-8.423376083,1,0.010561351,1,-0.000337974,1,-0.00724346,1,0.213575155,1,-0.496248424,1,-0.104959264,1,-0.125633717,1,0.245108247,1,-0.018348694,1
0.8240031,-4.808819771,1,-1.478179932,1,-8.423808098,1,0.010722235,1,0.001899172,1,-0.001148811,1,0.213626504,1,-0.496240914,1,-0.104972504,1,-0.152256489,1,0.345165968,1,-0.018838882,1
0.828000486,-4.79026556,1,-1.478550792,1,-8.440054893,1,0.015736617,1,0.001831236,1,-0.002174064,1,0.21368213,1,-0.496226907,1,-0.104986109,1,-0.133821964,1,0.345276356,1,-0.035122871,1
0.831999719,-4.759292603,1,-1.486363411,1,-8.464819908,1,0.011875891,1,0.004604245,1,-0.003188238,1,0.213753134,1,-0.496208459,1,-0.105012521,1,-0.10300827,1,0.338078976,1,-0.059932709,1
0.836001277,-4.784066677,1,-1.490759015,1,-8.487928391,1,0.01710896,1,0.001770388,1,-0.009799591,1,0.213824049,1,-0.496193469,1,-0.105037645,1,-0.127911091,1,0.334293365,1,-0.083107948,1
0.839998722,-4.765050888,1,-1.476872206,1,-8.449151039,1,0.019015323,1,0.001046232,1,-0.008356323,1,0.213907167,1,-0.496176422,1,-0.10507232,1,-0.109041691,1,0.348895669,1,-0.04440403,1
0.843998194,-4.787295818,1,-1.490859628,1,-8.464229584,1,0.012803136,1,0.003811939,1,-0.008846687,1,0.213987321,1,-0.496162266,1,-0.105104692,1,-0.131408215,1,0.335595846,1,-0.059563637,1
0.847999752,-4.825546265,1,-1.445760131,1,-8.48061657,1,0.020354478,1,-0.000697387,1,-0.01015586,1,0.214087307,1,-0.496148169,1,-0.105145812,1,-0.169779778,1,0.381549835,1,-0.076068878,1
0.851997197,-4.858158588,1,-1.418015242,1,-8.467236519,1,0.020048367,1,0.005111496,1,-0.015504089,1,0.214197695,1,-0.496125758,1,-0.105198577,1,-0.202584743,1,0.410244584,1,-0.062788963,1
0.856002808,-4.785474777,1,-1.449343681,1,-8.438420296,1,0.027300209,1,0.004864212,1,-0.016034374,1,0.214324072,1,-0.496088266,1,-0.105257824,1,-0.130223751,1,0.380015016,1,-0.034034729,1
0.860004604,-4.810748577,1,-1.449261069,1,-8.4379673,1,0.024445526,1,0.006970481,1,-0.017293116,1,0.214456886,1,-0.496046335,1,-0.105330028,1,-0.15585804,1,0.381255507,1,-0.033634186,1
0.864002287,-4.755479813,1,-1.449602008,1,-8.445249557,1,0.028817115,1,0.008532297,1,-0.017753989,1,0.214599833,1,-0.496001065,1,-0.105401255,1,-0.100978851,1,0.382160783,1,-0.040971756,1
0.868007958,-4.730845451,1,-1.467172623,1,-8.422261238,1,0.024625327,1,0.011121353,1,-0.022763025,1,0.214754015,1,-0.495948195,1,-0.105481908,1,-0.07679987,1,0.365938425,1,-0.018024445,1
0.872009456,-4.796474934,1,-1.522891402,1,-8.470369339,1,0.031520624,1,0.007375094,1,-0.023364488,1,0.214912027,1,-0.495894969,1,-0.105570197,1,-0.142886639,1,0.311600685,1,-0.066180229,1
0.87600714,-4.812730312,1,-1.555005789,1,-8.413816452,1,0.027087867,1,0.015003901,1,-0.019731477,1,0.21506761,1,-0.495825231,1,-0.105643213,1,-0.159741879,1,0.280863285,1,-0.009593964,1
0.880006671,-4.831197739,1,-1.577361107,1,-8.440559387,1,0.029469222,1,0.015356376,1,-0.018322246,1,0.215212882,1,-0.495752841,1,-0.105713859,1,-0.178832054,1,0.25980103,1,-0.03627491,1
0.884008169,-4.848701954,1,-1.563814402,1,-8.42442894,1,0.023118725,1,0.021334413,1,-0.020874307,1,0.215350688,1,-0.495667934,1,-0.105775051,1,-0.197066784,1,0.274589777,1,-0.020012856,1
0.888005912,-4.790058613,1,-1.620243907,1,-8.409428596,1,0.027471388,1,0.020308333,1,-0.016319558,1,0.215481609,1,-0.495569289,1,-0.105831824,1,-0.139272213,1,0.219358563,1,-0.004805565,1
0.892005384,-4.780754089,1,-1.604053617,1,-8.40558815,1,0.022694025,1,0.022604063,1,-0.014988535,1,0.215606585,1,-0.495475382,1,-0.105885305,1,-0.130775928,1,0.236692905,1,-0.000767708,1
0.896006644,-4.796239376,1,-1.602560997,1,-8.427934647,1,0.021227665,1,0.021533171,1,-0.015933892,1,0.215708867,1,-0.495378673,1,-0.105930746,1,-0.147092819,1,0.239141107,1,-0.022864342,1
0.900004327,-4.769296169,1,-1.571659446,1,-8.437249184,1,0.016638087,1,0.025621008,1,-0.012238559,1,0.215801403,1,-0.495263785,1,-0.105963416,1,-0.121138096,1,0.270934701,1,-0.03182888,1
0.904003561,-4.796257496,1,-1.581279397,1,-8.403869629,1,0.019351929,1,0.027759675,1,-0.01077081,1,0.215884656,1,-0.495150298,1,-0.105992645,1,-0.149075985,1,0.262127757,1,0.001914024,1
0.908005118,-4.831759453,1,-1.579575062,1,-8.45627594,1,0.016754709,1,0.026664812,1,-0.011542632,1,0.215969816,1,-0.495033175,1,-0.106017269,1,-0.185585976,1,0.264664412,1,-0.050118446,1
0.912002563,-4.845482826,1,-1.544084311,1,-8.438563347,1,0.015596628,1,0.029898426,1,-0.009460113,1,0.216045395,1,-0.49491179,1,-0.10604275,1,-0.200354099,1,0.300911665,1,-0.031993866,1
0.916002035,-4.805785179,1,-1.529803872,1,-8.415999413,1,0.014274052,1,0.033796608,1,-0.011210672,1,0.216116443,1,-0.494778842,1,-0.106064491,1,-0.161800861,1,0.315921783,1,-0.008957863,1
0.920003593,-4.791780949,1,-1.52339685,1,-8.448369026,1,0.015698927,1,0.03408175,1,-0.013000204,1,0.216182292,1,-0.494636655,1,-0.106082387,1,-0.149020672,1,0.323023677,1,-0.040803909,1
0.924001038,-4.768260956,1,-1.496596932,1,-8.476070404,1,0.016814902,1,0.037941474,1,-0.014764567,1,0.216261923,1,-0.494490802,1,-0.106107116,1,-0.126756191,1,0.350638866,1,-0.067989349,1
0.92800051,-4.785605907,1,-1.466667771,1,-8.450191498,1,0.017651029,1,0.038493127,1,-0.014912918,1,0.216349363,1,-0.494341433,1,-0.106125899,1,-0.145386696,1,0.381451964,1,-0.041596413,1
0.932002306,-4.792730331,1,-1.528848648,1,-8.465517044,1,0.021901574,1,0.03434531,1,-0.013219627,1,0.216440558,1,-0.494186223,1,-0.10614714,1,-0.153847694,1,0.320192814,1,-0.05638504,1
0.936005652,-4.819909573,1,-1.545148611,1,-8.473834991,1,0.023602383,1,0.040769674,1,-0.010193991,1,0.216534182,1,-0.494030803,1,-0.106159598,1,-0.182364941,1,0.304835081,1,-0.064171791,1
0.940005362,-4.866480827,1,-1.524881959,1,-8.445193291,1,0.026943808,1,0.041444357,1,-0.014812883,1,0.216640159,1,-0.493867129,1,-0.106183961,1,-0.230345726,1,0.326155186,1,-0.034989357,1
0.94400692,-4.821783066,1,-1.477574468,1,-8.461215973,1,0.025126239,1,0.044897266,1,-0.01823218,1,0.216763452,1,-0.493672997,1,-0.106213711,1,-0.187320232,1,0.374693155,1,-0.05036068,1
0.948004365,-4.80168581,1,-1.454375386,1,-8.453565598,1,0.025063625,1,0.043390911,1,-0.019618621,1,0.216889054,1,-0.493482202,1,-0.106248587,1,-0.168866158,1,0.399138808,1,-0.042080879,1
0.952003837,-4.658486366,1,-1.433919311,1,-8.395916939,1,0.026596775,1,0.046872701,1,-0.019920217,1,0.21701929,1,-0.493279606,1,-0.106286593,1,-0.027411461,1,0.420892477,1,0.016242981,1
0.956005096,-4.500594139,1,-1.38325572,1,-8.475748062,1,0.024317952,1,0.040773172,1,-0.023477942,1,0.21714367,1,-0.493087292,1,-0.106332473,1,0.128823757,1,0.472794294,1,-0.062948227,1
0.960002542,-4.452055454,1,-1.332032323,1,-8.596545219,1,0.02531057,1,0.033763543,1,-0.023414588,1,0.217279583,1,-0.492925584,1,-0.106400974,1,0.175969124,1,0.525322795,1,-0.18326664,1
0.964002073,-4.473934174,1,-1.362740278,1,-8.590978622,1,0.031191919,1,0.024349958,1,-0.02477156,1,0.217436746,1,-0.492790103,1,-0.106485397,1,0.152923584,1,0.496072173,1,-0.177379608,1
0.968003333,-4.596424103,1,-1.406372547,1,-8.609827042,1,0.03602932,1,0.01479911,1,-0.025267687,1,0.217609495,1,-0.492692143,1,-0.106575079,1,0.029589176,1,0.453991294,1,-0.196105957,1
0.972001016,-4.686994076,1,-1.460435748,1,-8.545375824,1,0.033072051,1,0.009186815,1,-0.023256669,1,0.217796117,1,-0.492621064,1,-0.106667727,1,-0.061593533,1,0.401569247,1,-0.131681442,1
0.976000488,-4.732992649,1,-1.630732656,1,-8.493012428,1,0.031309679,1,0.010804716,1,-0.020502318,1,0.217149973,1,-0.492776334,1,-0.107936628,1,-0.106253624,1,0.22568059,1,-0.078819275,1
0.980001807,-4.676846027,1,-1.781319857,1,-8.439919472,1,0.02584861,1,0.005567766,1,-0.01934091,1,0.217299879,1,-0.492729187,1,-0.10801246,1,-0.050513268,1,0.076401949,1,-0.025790215,1
0.983999491,-4.666886806,1,-1.900644422,1,-8.460757256,1,0.016600711,1,0.006937428,1,-0.004924633,1,0.21741268,1,-0.492702782,1,-0.108068444,1,-0.040781975,1,-0.041947365,1,-0.046719551,1
0.987998962,-4.691644192,1,-1.901920676,1,-8.456680298,1,0.01284033,1,-0.000521754,1,-0.001887703,1,0.217478499,1,-0.492687732,1,-0.108082473,1,-0.06566906,1,-0.042654634,1,-0.042696953,1
0.992000282,-4.686179161,1,-1.821661949,1,-8.466029167,1,0.002159758,1,-0.000590496,1,0.006168985,1,0.217502773,1,-0.492687225,1,-0.108081743,1,-0.060207844,1,0.037809134,1,-0.05208683,1
0.995997667,-4.760176182,1,-1.718578577,1,-8.479178429,1,-0.005381869,1,0.000818103,1,0.008503783,1,0.217490107,1,-0.492693275,1,-0.10804978,1,-0.134152889,1,0.140779853,1,-0.065238953,1
0.999996901,-4.700191021,1,-1.70295918,1,-8.472018242,1,-0.010524602,1,-0.003908935,1,0.011112048,1,0.21744591,1,-0.49271363,1,-0.108006194,1,-0.073992252,1,0.156006932,1,-0.058089256,1
1.003998518,-4.696202755,1,-1.654832721,1,-8.473112106,1,-0.008912116,1,-0.003452234,1,0.01109863,1,0.217384681,1,-0.492741972,1,-0.107955821,1,-0.069759846,1,0.203590155,1,-0.059196472,1
1.007995963,-4.71365118,1,-1.664714456,1,-8.471394539,1,-0.011544963,1,-0.008121419,1,0.016467206,1,0.217310384,1,-0.492781967,1,-0.107896,1,-0.086863518,1,0.19304347,1,-0.05752182,1
1.011995077,-4.722245216,1,-1.689309597,1,-8.434417725,1,-0.018761253,1,-0.003131378,1,0.016345154,1,0.217225492,1,-0.492820621,1,-0.107830465,1,-0.095124722,1,0.167695045,1,-0.020563126,1
1.016002774,-4.751710415,1,-1.599476695,1,-8.42468071,1,-0.014971622,1,-0.004831326,1,0.019917063,1,0.217124656,1,-0.492851555,1,-0.107758723,1,-0.124323368,1,0.256648898,1,-0.010778427,1
1.020006418,-4.768469334,1,-1.525511146,1,-8.460935593,1,-0.020092752,1,-0.004512708,1,0.015730735,1,0.217019349,1,-0.492885232,1,-0.107677639,1,-0.14079237,1,0.329694986,1,-0.046989441,1
1.02400589,-4.754864216,1,-1.466427326,1,-8.441910744,1,-0.016889827,1,-0.005535872,1,0.015624083,1,0.216927454,1,-0.492916435,1,-0.107612558,1,-0.126918316,1,0.387973547,1,-0.027939796,1
1.028007388,-4.717143059,1,-1.432714581,1,-8.488493919,1,-0.012571298,1,-0.00378008,1,0.012303432,1,0.216841951,1,-0.492945492,1,-0.107560292,1,-0.088946342,1,0.420938849,1,-0.074491501,1
1.032004833,-4.705711365,1,-1.41081214,1,-8.48237896,1,-0.011671303,1,-0.006537978,1,0.007761479,1,0.216776326,1,-0.492971599,1,-0.107520059,1,-0.077290058,1,0.442262888,1,-0.06837368,1
1.036004305,-4.755992413,1,-1.373770714,1,-8.483683586,1,-0.006123057,1,-0.004318292,1,0.005446638,1,0.216728687,1,-0.49299404,1,-0.107494093,1,-0.127377987,1,0.478881359,1,-0.069690704,1
1.040005922,-4.772202492,1,-1.388587236,1,-8.489825249,1,-0.00399294,1,-0.003368999,1,0.002887824,1,0.216707096,1,-0.493011057,1,-0.107480772,1,-0.1434412,1,0.463866353,1,-0.075868607,1
1.044003367,-4.76802063,1,-1.533310771,1,-8.468820572,1,-0.000176056,1,-0.00292189,1,0.000798303,1,0.216695055,1,-0.493021369,1,-0.107483439,1,-0.139170647,1,0.319031,1,-0.054888725,1
1.048002839,-4.739911079,1,-1.46237886,1,-8.501247406,1,0.002224491,1,-0.002164872,1,-0.002159709,1,0.216702864,1,-0.493025959,1,-0.107490107,1,-0.111021519,1,0.390023828,1,-0.087351799,1
1.052004337,-4.736362457,1,-1.47030735,1,-8.483129501,1,0.003463772,1,0.001980171,1,-0.002746045,1,0.216716379,1,-0.493023098,1,-0.107496545,1,-0.107497692,1,0.382212043,1,-0.069245338,1
1.056001782,-4.73290062,1,-1.488942623,1,-8.463662148,1,0.005775122,1,-0.000396543,1,-0.002821682,1,0.216738582,1,-0.493017197,1,-0.107511155,1,-0.104086876,1,0.363769293,1,-0.049794197,1
1.060001254,-4.724407673,1,-1.526013017,1,-8.426516533,1,0.005805686,1,-0.000723966,1,-0.007659568,1,0.216775179,1,-0.493005186,1,-0.107530951,1,-0.095696926,1,0.327018976,1,-0.01266098,1
1.064002872,-4.727873325,1,-1.577467918,1,-8.4904356,1,0.007508785,1,-0.000104947,1,-0.008447418,1,0.216822833,1,-0.492990494,1,-0.107571431,1,-0.099289417,1,0.275979757,1,-0.076601028,1
1.068000793,-4.688067436,1,-1.536783814,1,-8.436733246,1,0.004319996,1,-0.002512435,1,-0.007589187,1,0.216866806,1,-0.492982507,1,-0.107607283,1,-0.059552193,1,0.317041755,1,-0.022945404,1
1.072000265,-4.752522469,1,-1.554753542,1,-8.509975433,1,0.009217225,1,0.000292268,1,-0.005665161,1,0.216906786,1,-0.49298051,1,-0.107635677,1,-0.124023914,1,0.299410224,1,-0.096252441,1
1.076001525,-4.680757046,1,-1.59787631,1,-8.489688873,1,0.006340948,1,-0.002104136,1,-0.009330931,1,0.21695295,1,-0.492968947,1,-0.107670359,1,-0.052358627,1,0.256687403,1,-0.07599926,1
1.07999897,-4.727349758,1,-1.546477437,1,-8.459269524,1,0.002049456,1,-0.00284104,1,-0.005026842,1,0.216988906,1,-0.492972791,1,-0.107707821,1,-0.098918438,1,0.308385134,1,-0.04566288,1
1.083998203,-4.74250412,1,-1.56305325,1,-8.458766937,1,0.004770705,1,0.002232777,1,-0.003182928,1,0.217009738,1,-0.49297294,1,-0.107737921,1,-0.114071369,1,0.29198432,1,-0.045200348,1
1.087999463,-4.728350639,1,-1.590901017,1,-8.435979843,1,0.002412132,1,-0.004064971,1,0.000111449,1,0.21703735,1,-0.492977411,1,-0.10774906,1,-0.099878788,1,0.264364123,1,-0.022485733,1
1.092003107,-4.746636868,1,-1.580410123,1,-8.420280457,1,-0.0022629,1,-0.001324193,1,-0.005896432,1,0.217048526,1,-0.492987335,1,-0.107767947,1,-0.118080139,1,0.274939537,1,-0.006851196,1
1.096002579,-4.73618269,1,-1.612521052,1,-8.423729897,1,0.000458328,1,-0.004763984,1,0.00231713,1,0.217053041,1,-0.493004829,1,-0.107782684,1,-0.107475281,1,0.242849231,1,-0.010387421,1
1.100004077,-4.703341007,1,-1.659761786,1,-8.434800148,1,-0.00522494,1,-0.005275112,1,-0.00267538,1,0.21705167,1,-0.493022859,1,-0.10778708,1,-0.074478149,1,0.195578694,1,-0.021537781,1
1.10400176,-4.744828224,1,-1.66306138,1,-8.435193062,1,-0.004991122,1,-0.005530314,1,0.003711606,1,0.217036083,1,-0.493039787,1,-0.107786402,1,-0.115819454,1,0.192131281,1,-0.021977425,1
1.108001232,-4.745173931,1,-1.628418326,1,-8.44949913,1,-0.005005608,1,-0.008788569,1,0.005417841,1,0.217008144,1,-0.49307552,1,-0.107769057,1,-0.115857124,1,0.22650373,1,-0.036393166,1
1.11200285,-4.713947773,1,-1.608385801,1,-8.466460228,1,-0.005709046,1,-0.005871735,1,0.010139744,1,0.216956586,1,-0.493095934,1,-0.107734174,1,-0.08445549,1,0.246082187,1,-0.053350449,1
1.116000295,-4.755204201,1,-1.620120645,1,-8.41900444,1,-0.008722541,1,-0.005979997,1,0.010282959,1,0.216912836,1,-0.493124545,1,-0.107697569,1,-0.125465393,1,0.233950496,1,-0.005944252,1
1.119999528,-4.742937565,1,-1.545336366,1,-8.447808266,1,-0.008646473,1,-0.004393681,1,0.013200612,1,0.216852248,1,-0.493152529,1,-0.107647598,1,-0.112957478,1,0.30819726,1,-0.034762383,1
1.124001026,-4.725397587,1,-1.520046473,1,-8.516451836,1,-0.007616331,1,-0.006769738,1,0.012299418,1,0.216794133,1,-0.493185014,1,-0.107604027,1,-0.095138073,1,0.332966089,1,-0.103443146,1
1.127998471,-4.770475388,1,-1.461036205,1,-8.480737686,1,-0.008307851,1,-0.006675182,1,0.008925792,1,0.216744006,1,-0.493221521,1,-0.107562006,1,-0.139900684,1,0.391517758,1,-0.067804337,1
1.131997943,-4.762694836,1,-1.493318677,1,-8.486237526,1,-0.008267123,1,-0.002739351,1,0.013147072,1,0.216695487,1,-0.493252337,1,-0.107522123,1,-0.131855011,1,0.358796477,1,-0.073352814,1
1.135999441,-4.811538696,1,-1.466167569,1,-8.498040199,1,-0.002004395,1,-0.007500947,1,0.008898629,1,0.216653466,1,-0.493284315,1,-0.107481182,1,-0.18042326,1,0.385562539,1,-0.085221291,1
1.139996886,-4.75925827,1,-1.49461329,1,-8.416969299,1,-0.002440597,1,-0.005655519,1,0.007601759,1,0.21662654,1,-0.493304253,1,-0.10744901,1,-0.127971172,1,0.356870294,1,-0.004190445,1
1.143996358,-4.655315876,1,-1.525720119,1,-8.456140518,1,-0.003263854,1,-0.006779813,1,0.006658596,1,0.216608763,1,-0.493334144,1,-0.107434817,1,-0.023771286,1,0.32558465,1,-0.043462753,1
1.147997975,-4.655858994,1,-1.545408487,1,-8.534739494,1,-0.001657364,1,-0.006690142,1,0.008439756,1,0.216577977,1,-0.493366629,1,-0.107402898,1,-0.0240345,1,0.3056041,1,-0.12215519,1
1.15199542,-4.658956528,1,-1.525641203,1,-8.511532784,1,-0.001777391,1,-0.010259917,1,0.009899747,1,0.216550231,1,-0.493417829,1,-0.10736952,1,-0.026691437,1,0.325087428,1,-0.099126816,1
1.155994892,-4.702003956,1,-1.511652827,1,-8.53016758,1,-0.004560403,1,-0.014813183,1,0.010122397,1,0.216523573,1,-0.493472338,1,-0.107338294,1,-0.06926918,1,0.33879745,1,-0.117958069,1
1.159996152,-4.692821026,1,-1.474856019,1,-8.521990776,1,-0.000881641,1,-0.014329677,1,0.00898536,1,0.216499418,1,-0.493535191,1,-0.107310317,1,-0.059544563,1,0.375327706,1,-0.110024452,1
1.163993835,-4.735890388,1,-1.521750212,1,-8.511778831,1,-0.004311347,1,-0.01561331,1,0.010871272,1,0.216479972,1,-0.493602037,1,-0.107285619,1,-0.102038383,1,0.328203678,1,-0.100077629,1
1.167993307,-4.761004925,1,-1.571879148,1,-8.477384567,1,-0.00436074,1,-0.016790109,1,0.01033007,1,0.216456309,1,-0.493676215,1,-0.107260644,1,-0.126513958,1,0.277802348,1,-0.065973282,1
1.172001004,-4.696209431,1,-1.608699441,1,-8.452332497,1,-0.004407699,1,-0.016680542,1,0.010507991,1,0.21642752,1,-0.493749589,1,-0.107228614,1,-0.061086655,1,0.240666866,1,-0.041200638,1
1.176004887,-4.736134529,1,-1.675921679,1,-8.428499222,1,-0.006660824,1,-0.018950285,1,0.010172513,1,0.216388121,1,-0.493825108,1,-0.107194655,1,-0.100361824,1,0.173037887,1,-0.017636299,1
1.180004835,-4.753240108,1,-1.649537921,1,-8.420948029,1,-0.006846268,1,-0.016060719,1,0.017468292,1,0.216340274,1,-0.493904978,1,-0.107152656,1,-0.116779327,1,0.1989398,1,-0.010357857,1
1.184006691,-4.790774822,1,-1.664891005,1,-8.419744492,1,-0.010134615,1,-0.018434858,1,0.016241606,1,0.216280162,1,-0.493989587,1,-0.107103728,1,-0.153584957,1,0.182996988,1,-0.009428024,1
1.188004851,-4.758351326,1,-1.653429389,1,-8.442975044,1,-0.01328389,1,-0.016927872,1,0.017439123,1,0.21620141,1,-0.494075119,1,-0.107041694,1,-0.120425224,1,0.193711281,1,-0.032898903,1
1.192004085,-4.794583321,1,-1.58409965,1,-8.414126396,1,-0.014042694,1,-0.014225721,1,0.020605259,1,0.216123164,1,-0.494162589,1,-0.106982209,1,-0.155903816,1,0.262296319,1,-0.004301071,1
1.196005583,-4.825342178,1,-1.531922936,1,-8.438622475,1,-0.015577594,1,-0.014082829,1,0.017296258,1,0.21603322,1,-0.494237751,1,-0.106916942,1,-0.186015606,1,0.313640714,1,-0.02897644,1
1.200003386,-4.824295044,1,-1.579492569,1,-8.438663483,1,-0.015987284,1,-0.012707468,1,0.020321343,1,0.21593219,1,-0.494307101,1,-0.106844567,1,-0.184371471,1,0.265152812,1,-0.029144287,1
1.204002619,-4.818416119,1,-1.558387876,1,-8.422166824,1,-0.015300636,1,-0.008032044,1,0.018251032,1,0.215827212,1,-0.49436909,1,-0.106767118,1,-0.177958965,1,0.285313368,1,-0.012733459,1
1.208004117,-4.773029327,1,-1.574530005,1,-8.433495522,1,-0.019077402,1,-0.004091829,1,0.023501173,1,0.215716138,1,-0.494413346,1,-0.106677614,1,-0.132191658,1,0.268193245,1,-0.024057388,1
1.212001562,-4.785858631,1,-1.564543366,1,-8.435832024,1,-0.017667485,1,-0.007290972,1,0.023903899,1,0.215597957,1,-0.494451433,1,-0.106583297,1,-0.144692898,1,0.277147889,1,-0.026350975,1
1.216000795,-4.77803421,1,-1.530221105,1,-8.387641907,1,-0.018920638,1,-0.002623681,1,0.024000719,1,0.215477973,1,-0.494490683,1,-0.106485218,1,-0.136530399,1,0.310422659,1,0.021884918,1
1.220002294,-4.858263969,1,-1.512349844,1,-8.393894196,1,-0.017673649,1,0.001214525,1,0.022635423,1,0.215359434,1,-0.494510531,1,-0.106379233,1,-0.216588974,1,0.327277184,1,0.015759468,1
1.223999977,-4.817850113,1,-1.584954023,1,-8.379237175,1,-0.017812893,1,0.004403626,1,0.02079555,1,0.214573771,1,-0.494730115,1,-0.106353663,1,-0.174284935,1,0.247847557,1,0.030860901,1
1.227999687,-4.805894375,1,-1.588868856,1,-8.407669067,1,-0.019004053,1,0.004337734,1,0.028175527,1,0.214434654,1,-0.494698048,1,-0.107258856,1,-0.162605286,1,0.24279511,1,0.002832413,1
1.232001305,-4.791092873,1,-1.587600589,1,-8.444081306,1,-0.018515233,1,0.009708686,1,0.028260956,1,0.214300156,1,-0.494691759,1,-0.107133649,1,-0.147857666,1,0.24293828,1,-0.033306122,1
1.23599875,-4.770368099,1,-1.577602863,1,-8.432066917,1,-0.019074516,1,0.015634961,1,0.028546819,1,0.214153677,1,-0.494667172,1,-0.106987946,1,-0.127345085,1,0.251727939,1,-0.020913124,1
1.239998221,-4.774119377,1,-1.569043756,1,-8.422211647,1,-0.016476361,1,0.012432,1,0.026336638,1,0.214011997,1,-0.494647115,1,-0.106851846,1,-0.131268978,1,0.259115458,1,-0.010705948,1
1.243999481,-4.805995941,1,-1.544418454,1,-8.394349098,1,-0.022603555,1,0.016005028,1,0.032706361,1,0.2138751,1,-0.494614452,1,-0.10671521,1,-0.163426876,1,0.282621622,1,0.017554283,1
1.247996926,-4.679700375,1,-1.517914295,1,-8.392847061,1,-0.020739809,1,0.012895473,1,0.026990078,1,0.213724375,1,-0.494589359,1,-0.106571026,1,-0.03734684,1,0.307882547,1,0.019446373,1
1.252002835,-4.610586166,1,-1.510499001,1,-8.434505463,1,-0.022476649,1,0.008255539,1,0.030586911,1,0.213577658,1,-0.494573176,1,-0.106433772,1,0.031627655,1,0.314079404,1,-0.021871567,1
1.256004572,-4.61752224,1,-1.49185729,1,-8.494268417,1,-0.01955496,1,0.002841796,1,0.030935178,1,0.213426337,1,-0.494571179,1,-0.106279664,1,0.024674416,1,0.331449866,1,-0.081350327,1
1.260002613,-4.657696247,1,-1.528086066,1,-8.479529381,1,-0.017564986,1,0.003621713,1,0.03400876,1,0.213275075,1,-0.494581521,1,-0.106128782,1,-0.015410423,1,0.293938041,1,-0.066383362,1
1.264008164,-4.692552567,1,-1.463582516,1,-8.441228867,1,-0.019134236,1,0.003030788,1,0.030516958,1,0.213128805,1,-0.494598836,1,-0.105983682,1,-0.05011797,1,0.357194185,1,-0.02789402,1
1.268009782,-4.795088291,1,-1.425788999,1,-8.484107971,1,-0.021322904,1,0.00247034,1,0.034940705,1,0.21297349,1,-0.494609386,1,-0.105837427,1,-0.152562618,1,0.393670678,1,-0.070538521,1
1.272007465,-4.764996052,1,-1.458171606,1,-8.403973579,1,-0.016141303,1,0.007868821,1,0.031827226,1,0.212818369,1,-0.494619697,1,-0.105677135,1,-0.122381687,1,0.359973192,1,0.009833336,1
1.276006937,-4.743712425,1,-1.518012762,1,-8.408228874,1,-0.02190125,1,0.005339719,1,0.03298511,1,0.212666348,1,-0.494624048,1,-0.105534352,1,-0.10106039,1,0.298848867,1,0.005834579,1
1.280008197,-4.712509155,1,-1.554413557,1,-8.448439598,1,-0.022482151,1,0.006493093,1,0.031461421,1,0.212501422,1,-0.494624972,1,-0.105381474,1,-0.069849491,1,0.261059165,1,-0.034081459,1
1.28400588,-4.664448261,1,-1.524953723,1,-8.410581589,1,-0.019259373,1,0.008080726,1,0.030176165,1,0.212345928,1,-0.494625062,1,-0.105232269,1,-0.02178812,1,0.2892102,1,0.004057884,1
1.288005114,-4.719610691,1,-1.538302541,1,-8.457304955,1,-0.020797109,1,0.008286219,1,0.031303413,1,0.2121941,1,-0.494605809,1,-0.105082348,1,-0.077116013,1,0.274603009,1,-0.042302132,1
1.292006612,-4.728874207,1,-1.526009679,1,-8.46481514,1,-0.023223851,1,0.00642331,1,0.029351061,1,0.212035179,1,-0.494606227,1,-0.104930751,1,-0.08637619,1,0.285558343,1,-0.049524307,1
1.296004057,-4.771736145,1,-1.56216228,1,-8.424151421,1,-0.026722111,1,0.004594596,1,0.03289615,1,0.211863577,1,-0.494606435,1,-0.104780339,1,-0.129235744,1,0.247960448,1,-0.008555412,1
1.300003529,-4.788037777,1,-1.57878828,1,-8.451436996,1,-0.025619205,1,0.00720283,1,0.032076545,1,0.211690307,1,-0.494612813,1,-0.104624718,1,-0.14548254,1,0.229870319,1,-0.035554886,1
1.304005146,-4.789474487,1,-1.611792564,1,-8.460087776,1,-0.029291779,1,0.004157123,1,0.037763402,1,0.211499661,1,-0.494625747,1,-0.10446085,1,-0.146807671,1,0.195249438,1,-0.04391861,1
1.30800283,-4.772267342,1,-1.590802789,1,-8.426729202,1,-0.028955422,1,0.003197928,1,0.043191571,1,0.211290687,1,-0.494643718,1,-0.10428308,1,-0.129446507,1,0.214462519,1,-0.01026535,1
1.312002063,-4.796452999,1,-1.579052687,1,-8.429619789,1,-0.034551945,1,0.005701902,1,0.043988258,1,0.211073563,1,-0.494662553,1,-0.104094617,1,-0.153469563,1,0.224367023,1,-0.012848854,1
1.316003561,-4.749201298,1,-1.550364494,1,-8.430012703,1,-0.034649823,1,0.005937775,1,0.045120936,1,0.210841715,1,-0.49468264,1,-0.103893608,1,-0.106045246,1,0.251084447,1,-0.012914658,1
1.320001006,-4.794603348,1,-1.520502687,1,-8.411367416,1,-0.039399266,1,0.00859899,1,0.048694473,1,0.210591331,1,-0.494700551,1,-0.103683427,1,-0.151292801,1,0.278820992,1,0.006099701,1
1.324000478,-4.6624856,1,-1.481926203,1,-8.380336761,1,-0.04138758,1,0.008674345,1,0.051571198,1,0.210326374,1,-0.494709283,1,-0.103461608,1,-0.019100666,1,0.315158844,1,0.037567139,1
1.328008175,-4.607003689,1,-1.527949214,1,-8.382430077,1,-0.039542604,1,0.001085202,1,0.0549597,1,0.210053399,1,-0.494732052,1,-0.103226826,1,0.036577702,1,0.266815901,1,0.035861015,1
1.332011819,-4.589969158,1,-1.540121078,1,-8.405603409,1,-0.04922086,1,0.002193845,1,0.051605951,1,0.209762618,1,-0.494772702,1,-0.102980532,1,0.053962231,1,0.252156615,1,0.01302433,1
1.336011767,-4.603928089,1,-1.52961278,1,-8.436329842,1,-0.051973704,1,-0.004964982,1,0.060038537,1,0.209450603,1,-0.494826019,1,-0.102730073,1,0.040462017,1,0.259986997,1,-0.017384529,1
1.340013266,-4.616292,1,-1.517570496,1,-8.470044136,1,-0.053865135,1,-0.00393182,1,0.05926358,1,0.209113955,1,-0.494901061,1,-0.102470629,1,0.028744221,1,0.269122839,1,-0.050836563,1
1.344010949,-4.712083817,1,-1.499627471,1,-8.399838448,1,-0.056675766,1,-0.0050235,1,0.060930394,1,0.208769247,1,-0.494976282,1,-0.102202766,1,-0.066400051,1,0.284089923,1,0.019638062,1
1.34801054,-4.703211784,1,-1.531936407,1,-8.360045433,1,-0.059913013,1,-0.007368249,1,0.062431999,1,0.20842284,1,-0.49505946,1,-0.101934269,1,-0.056812286,1,0.248784781,1,0.059672356,1
1.3520118,-4.703632832,1,-1.61709404,1,-8.32811451,1,-0.063746884,1,-0.006819947,1,0.06534972,1,0.208047837,1,-0.495137215,1,-0.101654112,1,-0.056563854,1,0.160395384,1,0.091917992,1
1.356009483,-4.618848801,1,-1.709029198,1,-8.335886002,1,-0.073490322,1,-0.005106788,1,0.072514102,1,0.207635447,1,-0.495212376,1,-0.10135787,1,0.028866291,1,0.064916253,1,0.084539413,1
1.360008955,-4.663894653,1,-1.763117075,1,-8.379671097,1,-0.077980749,1,-0.008189412,1,0.077776074,1,0.20718357,1,-0.495301515,1,-0.101038262,1,-0.015412331,1,0.0069381,1,0.041150093,1
1.364010215,-4.643580914,1,-1.719321132,1,-8.445358276,1,-0.086243071,1,-0.012415271,1,0.082528338,1,0.206693485,1,-0.495413065,1,-0.100694209,1,0.005861759,1,0.046499968,1,-0.024180412,1
1.368007898,-4.620900631,1,-1.635866046,1,-8.456863403,1,-0.085764296,1,-0.017322684,1,0.082671329,1,0.206179708,1,-0.495536149,1,-0.100341424,1,0.02960062,1,0.125511289,1,-0.035338402,1
1.372007132,-4.686355114,1,-1.459718227,1,-8.455005646,1,-0.092810698,1,-0.019859107,1,0.088172421,1,0.205646664,1,-0.495677024,1,-0.099969201,1,-0.03464222,1,0.297035336,1,-0.033186913,1
1.376008391,-4.682264805,1,-1.339495897,1,-8.471803665,1,-0.086232394,1,-0.022581887,1,0.082542092,1,0.205127552,1,-0.495824307,1,-0.099612728,1,-0.029284477,1,0.412746072,1,-0.04974556,1
1.380005836,-4.628699303,1,-1.32647872,1,-8.475214958,1,-0.085146233,1,-0.025597882,1,0.081060313,1,0.204621077,1,-0.495991975,1,-0.099266671,1,0.025723457,1,0.421339154,1,-0.053032875,1
1.384005427,-4.713339806,1,-1.253682613,1,-8.45909214,1,-0.075555079,1,-0.023394464,1,0.076896943,1,0.204143777,1,-0.496147782,1,-0.098944575,1,-0.057577133,1,0.489968061,1,-0.036787033,1
1.388006926,-4.766978741,1,-1.240865231,1,-8.425356865,1,-0.075252429,1,-0.024497828,1,0.072631449,1,0.203691646,1,-0.496296406,1,-0.098633334,1,-0.109937668,1,0.498837233,1,-0.002942085,1
1.392004609,-4.776231289,1,-1.207539439,1,-8.316232681,1,-0.063126169,1,-0.024908466,1,0.060383968,1,0.203293011,1,-0.496450663,1,-0.098365337,1,-0.117864132,1,0.528660655,1,0.106171608,1
1.396003842,-4.668337822,1,-1.136008382,1,-8.370485306,1,-0.054643672,1,-0.025946213,1,0.047387246,1,0.202949628,1,-0.496589214,1,-0.098143198,1,-0.008778572,1,0.597169042,1,0.051880836,1
1.400005341,-4.65267086,1,-1.08762598,1,-8.473443031,1,-0.037589807,1,-0.030051813,1,0.037681133,1,0.202681556,1,-0.496738076,1,-0.097981364,1,0.008167744,1,0.643153787,1,-0.051292419,1
1.404002786,-4.561727047,1,-0.92852962,1,-8.530877113,1,-0.02256838,1,-0.033516489,1,0.02546644,1,0.202510551,1,-0.496888876,1,-0.097874604,1,0.100408554,1,0.800668478,1,-0.109120369,1
1.408008218,-4.688754082,1,-0.956359267,1,-8.495165825,1,-0.00357182,1,-0.03605539,1,0.009768319,1,0.202432737,1,-0.497043163,1,-0.097832046,1,-0.02529192,1,0.772038698,1,-0.073978424,1
1.412009954,-4.78988266,1,-0.915756404,1,-8.48669529,1,0.012623776,1,-0.039494734,1,-0.00643476,1,0.202465683,1,-0.497192472,1,-0.097859278,1,-0.125137329,1,0.812779486,1,-0.066245079,1
1.416007638,-4.723549843,1,-1.118934631,1,-8.427106857,1,0.023277508,1,-0.040533908,1,-0.015320101,1,0.202589676,1,-0.497337013,1,-0.097953074,1,-0.057561874,1,0.610509515,1,-0.00753212,1
1.42000711,-4.814954281,1,-1.382388234,1,-8.437864304,1,0.024804004,1,-0.038994536,1,-0.018297883,1,0.202740997,1,-0.497475833,1,-0.098076545,1,-0.147773266,1,0.348199368,1,-0.019186974,1
1.424008727,-4.940962315,1,-1.561047435,1,-8.378608704,1,0.025712604,1,-0.033795606,1,-0.02153906,1,0.202913955,1,-0.497600853,1,-0.098202161,1,-0.272706985,1,0.17087853,1,0.039196968,1
1.428006411,-4.866802216,1,-1.547792912,1,-8.406080246,1,0.016477907,1,-0.031170242,1,-0.020178087,1,0.203055829,1,-0.497710794,1,-0.098325409,1,-0.197601795,1,0.185224175,1,0.010978699,1
1.432005882,-4.82704401,1,-1.47096777,1,-8.400481224,1,0.016975991,1,-0.021692501,1,-0.018642599,1,0.203175724,1,-0.497799695,1,-0.098427951,1,-0.157079697,1,0.262974501,1,0.015962601,1
1.43600738,-4.808187008,1,-1.5083462,1,-8.386937141,1,0.009683043,1,-0.020566612,1,-0.012561276,1,0.203266323,1,-0.497882277,1,-0.098519176,1,-0.137512684,1,0.226280689,1,0.028971672,1
1.440004826,-4.806547165,1,-1.541930079,1,-8.395347595,1,0.007643528,1,-0.02076762,1,-0.015919344,1,0.203344613,1,-0.49795121,1,-0.098605998,1,-0.135280609,1,0.19329071,1,0.02011013,1
1.444004297,-4.822471142,1,-1.599925876,1,-8.400110245,1,-0.001096268,1,-0.018102409,1,-0.008123564,1,0.203398734,1,-0.498014957,1,-0.098680347,1,-0.150657177,1,0.135690451,1,0.01496315,1
1.448005676,-4.787335873,1,-1.716126919,1,-8.413133621,1,-0.004906408,1,-0.0178452,1,-0.004830988,1,0.203416273,1,-0.498081446,1,-0.098739579,1,-0.114950657,1,0.019574046,1,0.00160408,1
1.452003121,-4.773373604,1,-1.783506513,1,-8.394388199,1,-0.013674996,1,-0.018924268,1,-0.003650993,1,0.20339112,1,-0.498153716,1,-0.098771773,1,-0.100367546,1,-0.048085809,1,0.020061493,1
1.456002593,-4.744459152,1,-1.876187682,1,-8.366918564,1,-0.027582705,1,-0.023850758,1,0.009637895,1,0.203314975,1,-0.498242736,1,-0.098778382,1,-0.070688725,1,-0.14149189,1,0.047254562,1
1.460003853,-4.569289684,1,-1.886924744,1,-8.441209793,1,-0.044063009,1,-0.028831551,1,0.015419589,1,0.203163251,1,-0.498355687,1,-0.098747827,1,0.105451584,1,-0.153611898,1,-0.027290344,1
1.464001536,-4.474738121,1,-1.907305479,1,-8.641647339,1,-0.058528196,1,-0.039336082,1,0.029374612,1,0.202924728,1,-0.498511314,1,-0.098682091,1,0.201339722,1,-0.176146269,1,-0.228027344,1
1.468001008,-4.412954807,1,-1.84128201,1,-8.711062431,1,-0.069126427,1,-0.054609943,1,0.03973797,1,0.20260714,1,-0.498712122,1,-0.098566778,1,0.264848232,1,-0.112983823,1,-0.297812462,1
1.472002268,-4.519752979,1,-1.757793307,1,-8.799634933,1,-0.075789057,1,-0.06037556,1,0.050961103,1,0.202234089,1,-0.498964459,1,-0.098405257,1,0.160217285,1,-0.03287077,1,-0.386896133,1
1.475999951,-4.498906612,1,-1.688020825,1,-8.783069611,1,-0.088277847,1,-0.075312011,1,0.061828583,1,0.201249808,1,-0.49936384,1,-0.09923926,1,0.184493065,1,0.028246522,1,-0.370469093,1
1.479999185,-4.415160656,1,-1.61280036,1,-8.83300972,1,-0.096177943,1,-0.096615136,1,0.074197508,1,0.200774401,1,-0.499759942,1,-0.099013276,1,0.271639347,1,0.099097848,1,-0.421410561,1
1.484000802,-4.453841209,1,-1.742270589,1,-8.896637917,1,-0.110246822,1,-0.112650849,1,0.084542625,1,0.200234845,1,-0.500237823,1,-0.098744117,1,0.23706007,1,-0.035357594,1,-0.486316681,1
1.488004327,-4.530301571,1,-1.753730774,1,-8.923324585,1,-0.118757516,1,-0.12938343,1,0.089090794,1,0.199652821,1,-0.500788569,1,-0.098464362,1,0.165326118,1,-0.052225232,1,-0.514541626,1
1.492003798,-4.61000824,1,-1.571629047,1,-8.839325905,1,-0.122977205,1,-0.141777411,1,0.09366519,1,0.199022219,1,-0.50139612,1,-0.09816625,1,0.090830326,1,0.124009609,1,-0.432268143,1
1.496005416,-4.835131168,1,-1.407647967,1,-8.818827629,1,-0.124522634,1,-0.156667829,1,0.100935906,1,0.198374048,1,-0.502059281,1,-0.097867563,1,-0.128605843,1,0.281925678,1,-0.413733482,1
1.500002861,-4.797173977,1,-1.400543571,1,-8.731925011,1,-0.123818524,1,-0.164537594,1,0.098774008,1,0.197726309,1,-0.502763391,1,-0.097555712,1,-0.084613323,1,0.282934427,1,-0.328989029,1
1.504002333,-4.733853817,1,-1.358350635,1,-8.770663261,1,-0.124778561,1,-0.178637847,1,0.098555587,1,0.197097555,1,-0.503515363,1,-0.097276613,1,-0.01485014,1,0.319148898,1,-0.370148659,1
1.508003831,-4.704880238,1,-1.336070418,1,-8.817831039,1,-0.115245529,1,-0.189713478,1,0.0977327,1,0.196474954,1,-0.50430727,1,-0.09700603,1,0.020905972,1,0.335468888,1,-0.419939995,1
1.512001276,-4.729912281,1,-1.28501153,1,-8.811463356,1,-0.106011622,1,-0.196865231,1,0.094297789,1,0.195901573,1,-0.505139709,1,-0.096740104,1,0.002999783,1,0.380946279,1,-0.416475296,1
1.516000748,-4.752056122,1,-1.284669042,1,-8.74656868,1,-0.105543278,1,-0.211667821,1,0.089865595,1,0.195366442,1,-0.506015122,1,-0.096504636,1,-0.011652946,1,0.375990391,1,-0.354761124,1
1.520002246,-4.926409721,1,-1.274618149,1,-8.689170837,1,-0.096196696,1,-0.214134097,1,0.095936663,1,0.194849253,1,-0.506919622,1,-0.09627296,1,-0.178271294,1,0.380870461,1,-0.300713539,1
1.523999691,-4.911171913,1,-1.346467853,1,-8.653531075,1,-0.102065295,1,-0.220219553,1,0.092476696,1,0.194348022,1,-0.507847428,1,-0.0960536,1,-0.155102253,1,0.303964138,1,-0.268573761,1
1.527999282,-4.783051014,1,-1.43082118,1,-8.680780411,1,-0.0998898,1,-0.228930563,1,0.098587148,1,0.193824098,1,-0.508801937,1,-0.095808737,1,-0.018826485,1,0.214343071,1,-0.299414635,1
1.532000542,-4.77035284,1,-1.369744778,1,-8.678460121,1,-0.104862213,1,-0.239630237,1,0.107495725,1,0.193285853,1,-0.509794474,1,-0.095550664,1,0.002346516,1,0.26999855,1,-0.30085659,1
1.535997987,-4.788726807,1,-1.179457426,1,-8.671041489,1,-0.093508057,1,-0.235600144,1,0.109118894,1,0.192753941,1,-0.510805488,1,-0.095274568,1,-0.007399559,1,0.454903364,1,-0.297310829,1
1.539997458,-4.823212147,1,-1.180154204,1,-8.701309204,1,-0.091254428,1,-0.244544223,1,0.109726809,1,0.192245185,1,-0.511830747,1,-0.094997704,1,-0.033139706,1,0.449009657,1,-0.331560135,1
1.543998957,-4.800672054,1,-1.120190859,1,-8.632446289,1,-0.084044218,1,-0.248907149,1,0.101580843,1,0.191767871,1,-0.512873113,1,-0.094744638,1,-0.001714706,1,0.504025817,1,-0.266823769,1
1.54799664,-4.846180439,1,-1.188977957,1,-8.596426964,1,-0.079346031,1,-0.256710649,1,0.102272503,1,0.191323087,1,-0.513944983,1,-0.094509371,1,-0.038091183,1,0.430538535,1,-0.235138893,1
1.551996469,-4.906073093,1,-1.097187161,1,-8.494736671,1,-0.074797906,1,-0.258226156,1,0.088436574,1,0.190902933,1,-0.515030205,1,-0.094304733,1,-0.088744164,1,0.517824292,1,-0.137900352,1
1.555997968,-4.849410057,1,-1.267109156,1,-8.553628922,1,-0.073309481,1,-0.261886686,1,0.095779397,1,0.190510854,1,-0.516112268,1,-0.094109692,1,-0.022873878,1,0.343637943,1,-0.201281548,1
1.559995651,-4.858742237,1,-1.403339028,1,-8.581870079,1,-0.072851874,1,-0.265216947,1,0.096310847,1,0.190116286,1,-0.517217875,1,-0.093907587,1,-0.02280426,1,0.203102708,1,-0.234134674,1
1.563994884,-4.855007648,1,-1.545535326,1,-8.609558105,1,-0.075754493,1,-0.273833007,1,0.091002569,1,0.189713672,1,-0.51834923,1,-0.093697913,1,-0.009455681,1,0.056513071,1,-0.266552925,1
1.567996621,-4.686271667,1,-1.339529872,1,-8.785387993,1,-0.086012334,1,-0.294222265,1,0.09085992,1,0.189290076,1,-0.519521713,1,-0.093518101,1,0.169237614,1,0.257914066,1,-0.447291374,1
1.571994424,-4.859629154,1,-1.106245875,1,-8.671631813,1,-0.096483335,1,-0.322169304,1,0.081367567,1,0.188860953,1,-0.520799041,1,-0.093391575,1,0.006720543,1,0.486453891,1,-0.338950157,1
1.575993657,-5.0242939,1,-1.124364972,1,-8.481233597,1,-0.092230231,1,-0.338647962,1,0.065203257,1,0.188455701,1,-0.522153556,1,-0.093338624,1,-0.146457195,1,0.463721633,1,-0.154389381,1
1.579995155,-5.187195778,1,-1.30196619,1,-8.336761475,1,-0.103303902,1,-0.338469833,1,0.063811027,1,0.188058317,1,-0.523531914,1,-0.093336888,1,-0.297679901,1,0.281552911,1,-0.015898705,1
1.583992839,-5.244930744,1,-1.330133319,1,-8.236895561,1,-0.114061192,1,-0.333548903,1,0.062943026,1,0.187633708,1,-0.524902463,1,-0.093342103,1,-0.343810558,1,0.24860096,1,0.078046799,1
1.587992549,-5.186014175,1,-1.39492166,1,-8.150495529,1,-0.120598458,1,-0.324952066,1,0.068416514,1,0.187166423,1,-0.526239455,1,-0.093331814,1,-0.273582458,1,0.178706408,1,0.158738136,1
1.591994166,-5.29588747,1,-1.494937897,1,-8.091795921,1,-0.123112716,1,-0.312948108,1,0.072377838,1,0.186655849,1,-0.527547359,1,-0.09329275,1,-0.37239933,1,0.07325387,1,0.211918831,1
1.595991611,-5.348575592,1,-1.503795028,1,-8.039653778,1,-0.142323554,1,-0.301528662,1,0.071438037,1,0.186084583,1,-0.528812528,1,-0.093226373,1,-0.414400101,1,0.05849874,1,0.258826256,1
1.599991083,-5.406513691,1,-1.386006594,1,-8.022714615,1,-0.147908181,1,-0.275844693,1,0.076108783,1,0.185462639,1,-0.52999723,1,-0.093138218,1,-0.462337494,1,0.170046687,1,0.27098465,1
1.603992581,-5.379119396,1,-1.282906771,1,-7.909880638,1,-0.147246346,1,-0.262887746,1,0.080598675,1,0.18480742,1,-0.531112194,1,-0.093012139,1,-0.425538063,1,0.266698003,1,0.379411697,1
1.607990026,-5.311148167,1,-1.377280593,1,-7.997190952,1,-0.155692935,1,-0.243276715,1,0.07882639,1,0.184122548,1,-0.532171488,1,-0.092859909,1,-0.348636627,1,0.165685773,1,0.288001537,1
1.611989498,-5.131242752,1,-1.472886682,1,-8.103470802,1,-0.164362773,1,-0.235158637,1,0.08637394,1,0.183393717,1,-0.533176363,1,-0.092686005,1,-0.160264969,1,0.06313026,1,0.1779356,1
1.615990996,-5.146399975,1,-1.221438289,1,-8.145783424,1,-0.162013948,1,-0.227501541,1,0.093913898,1,0.182627931,1,-0.534157395,1,-0.092471644,1,-0.167161465,1,0.307350039,1,0.131997108,1
1.619988441,-5.17632246,1,-1.085999012,1,-8.164980888,1,-0.156006277,1,-0.219379589,1,0.095770322,1,0.181864709,1,-0.535096526,1,-0.092228986,1,-0.189181328,1,0.435625076,1,0.109363556,1
1.623987913,-5.124438763,1,-1.092339396,1,-8.27537632,1,-0.160107717,1,-0.207825094,1,0.091160268,1,0.181094274,1,-0.536000431,1,-0.091975965,1,-0.129694939,1,0.422096252,1,-0.004302979,1
1.627989531,-5.122264385,1,-1.060558081,1,-8.251429558,1,-0.161475986,1,-0.20228371,1,0.082167894,1,0.180333585,1,-0.536871552,1,-0.091741331,1,-0.120196819,1,0.446805,1,0.016513824,1
1.631987214,-5.241927624,1,-0.882517278,1,-8.288553238,1,-0.156770632,1,-0.192199618,1,0.0749617,1,0.179609969,1,-0.537701368,1,-0.091554925,1,-0.232888222,1,0.618120253,1,-0.023611069,1
1.635986686,-5.158759117,1,-1.05269146,1,-8.272216797,1,-0.160204545,1,-0.182405874,1,0.065483592,1,0.178908601,1,-0.538479328,1,-0.091389798,1,-0.143187046,1,0.441454768,1,-0.010062218,1
1.639987946,-5.278172493,1,-0.796548903,1,-8.26504612,1,-0.154494703,1,-0.172154546,1,0.048500448,1,0.178211212,1,-0.539219916,1,-0.091278851,1,-0.256383419,1,0.691176355,1,-0.005508423,1
1.64399159,-5.185297489,1,-0.905989349,1,-8.172176361,1,-0.139809459,1,-0.160117581,1,0.039437272,1,0.177595332,1,-0.539896846,1,-0.09121874,1,-0.157828331,1,0.576047957,1,0.084929466,1
1.647991061,-5.25414753,1,-0.88154918,1,-8.081036568,1,-0.125775024,1,-0.150649697,1,0.037583072,1,0.177036762,1,-0.540540218,1,-0.091167152,1,-0.221282482,1,0.595306337,1,0.173711777,1
1.651992321,-5.289800167,1,-1.10229516,1,-8.113724709,1,-0.126755878,1,-0.1398184,1,0.023109166,1,0.176520601,1,-0.54113102,1,-0.091155469,1,-0.251981258,1,0.369776487,1,0.138853073,1
1.655989766,-5.23431921,1,-0.734463036,1,-8.174945831,1,-0.135817736,1,-0.134376571,1,0.015153047,1,0.175997868,1,-0.541678369,1,-0.091172367,1,-0.191912651,1,0.73281163,1,0.075685501,1
1.659995437,-4.874535084,1,-0.634096444,1,-8.404229164,1,-0.118146852,1,-0.147680432,1,0.001987784,1,0.175530806,1,-0.542227507,1,-0.091244526,1,0.172472477,1,0.828839958,1,-0.15564537,1
1.663997412,-4.734184265,1,-0.902156293,1,-8.451025963,1,-0.126636535,1,-0.186850041,1,-0.028984198,1,0.175160617,1,-0.542869151,1,-0.091448501,1,0.318197727,1,0.557162344,1,-0.205088615,1
1.667995334,-4.851516247,1,-0.875230193,1,-8.36739254,1,-0.138023764,1,-0.221053287,1,-0.063611977,1,0.174830094,1,-0.543647647,1,-0.091835387,1,0.207383633,1,0.580677867,1,-0.124851227,1
1.671995163,-5.05989933,1,-0.779693723,1,-8.225687981,1,-0.130170673,1,-0.233955771,1,-0.081378818,1,0.174566731,1,-0.544493318,1,-0.092359908,1,0.006076813,1,0.673300624,1,0.013023376,1
1.675996661,-5.342668056,1,-0.920138001,1,-8.018284798,1,-0.122275479,1,-0.229726166,1,-0.091810741,1,0.174359292,1,-0.545352042,1,-0.092952698,1,-0.269509315,1,0.530391812,1,0.216439247,1
1.679994345,-5.437010765,1,-0.992970586,1,-7.900460243,1,-0.119162954,1,-0.210509881,1,-0.095317923,1,0.174190715,1,-0.546163201,1,-0.093564495,1,-0.3570714,1,0.455456853,1,0.330450058,1
1.683993578,-5.44492197,1,-0.985258579,1,-7.869937897,1,-0.105638243,1,-0.188492164,1,-0.088231429,1,0.174038112,1,-0.546885669,1,-0.094137505,1,-0.3589468,1,0.461277962,1,0.357582092,1
1.687995195,-5.423763752,1,-1.096927047,1,-7.861394882,1,-0.097981952,1,-0.169407904,1,-0.079612009,1,0.173916295,1,-0.547534406,1,-0.094675042,1,-0.332370281,1,0.348035336,1,0.363046646,1
1.691992521,-5.481071949,1,-1.141223788,1,-7.82560873,1,-0.090527378,1,-0.147920132,1,-0.071841776,1,0.1737905,1,-0.548112392,1,-0.095162891,1,-0.384852886,1,0.302195072,1,0.39611578,1
1.695992112,-5.453156948,1,-1.174373388,1,-7.904085159,1,-0.088670246,1,-0.126001447,1,-0.066417329,1,0.173650861,1,-0.548602045,1,-0.095585965,1,-0.352850914,1,0.267465472,1,0.315379143,1
1.69999361,-5.435986996,1,-1.141900539,1,-7.916750908,1,-0.08565104,1,-0.100560218,1,-0.054352723,1,0.173483536,1,-0.549010754,1,-0.095938392,1,-0.332270622,1,0.298203707,1,0.300904274,1
1.703991055,-5.31787014,1,-1.087810159,1,-8.127118111,1,-0.091063246,1,-0.083886147,1,-0.041385394,1,0.173279434,1,-0.549338162,1,-0.096228197,1,-0.211422443,1,0.350328922,1,0.089185715,1
1.707990527,-5.197389603,1,-1.048901439,1,-8.199084282,1,-0.082189508,1,-0.067544453,1,-0.042630162,1,0.173070088,1,-0.549609303,1,-0.096492089,1,-0.088680267,1,0.387278318,1,0.016151428,1
1.711992264,-5.109695911,1,-0.918572962,1,-8.231161118,1,-0.072181098,1,-0.070175454,1,-0.051684886,1,0.172893792,1,-0.549843788,1,-0.096770287,1,0.000968456,1,0.515952289,1,-0.016852379,1
1.715990305,-5.067457199,1,-0.845957935,1,-8.26599884,1,-0.042823378,1,-0.076922551,1,-0.05659683,1,0.172828361,1,-0.550105751,1,-0.097078919,1,0.04539156,1,0.587799847,1,-0.052914619,1
1.719989777,-5.146768093,1,-0.854854822,1,-8.308004379,1,-0.026944691,1,-0.081707954,1,-0.060611498,1,0.172870874,1,-0.550382733,1,-0.097419411,1,-0.031610012,1,0.579008818,1,-0.096374512,1
1.723997474,-5.361178398,1,-0.920392692,1,-8.234674454,1,-0.013183692,1,-0.07954926,1,-0.061322,1,0.172075421,1,-0.550855577,1,-0.097615741,1,-0.242079258,1,0.506523788,1,-0.024292946,1
1.728000998,-5.381248474,1,-0.93430829,1,-8.105230331,1,-0.004330728,1,-0.07074938,1,-0.058387555,1,0.172201484,1,-0.551067889,1,-0.098971404,1,-0.260380745,1,0.493457437,1,0.10390377,1
1.732000709,-5.34941721,1,-1.133807182,1,-8.07286644,1,-0.000666773,1,-0.065306105,1,-0.055562191,1,0.172357723,1,-0.551289797,1,-0.099289738,1,-0.226700306,1,0.295045495,1,0.134921074,1
1.736002088,-5.420722485,1,-1.238519073,1,-8.015870094,1,-0.00199791,1,-0.058016792,1,-0.059084151,1,0.172523633,1,-0.551492572,1,-0.099615023,1,-0.296316624,1,0.191517115,1,0.190657616,1
1.739999771,-5.414390564,1,-1.281382561,1,-8.005549431,1,0.002873024,1,-0.048960228,1,-0.049816947,1,0.172683984,1,-0.551660478,1,-0.099914886,1,-0.288585663,1,0.149821997,1,0.199901581,1
1.743999243,-5.422575951,1,-1.255649805,1,-7.988016605,1,0.004680616,1,-0.043931313,1,-0.055030677,1,0.172845632,1,-0.551818609,1,-0.100209191,1,-0.295453548,1,0.176741481,1,0.216403484,1
1.748000503,-5.557172775,1,-1.230978251,1,-7.898997307,1,0.00896254,1,-0.036744554,1,-0.051501915,1,0.173012719,1,-0.551943541,1,-0.100491092,1,-0.429010391,1,0.202673435,1,0.304552078,1
1.751998186,-5.49704361,1,-1.259598613,1,-7.867526054,1,0.008829647,1,-0.023869861,1,-0.047281876,1,0.173177734,1,-0.552033961,1,-0.100740761,1,-0.3681283,1,0.175326943,1,0.335330963,1
1.755997658,-5.526658535,1,-1.304333568,1,-7.920704365,1,0.011342943,1,-0.015679179,1,-0.042754967,1,0.173332483,1,-0.552083552,1,-0.100963615,1,-0.397330284,1,0.131817341,1,0.281678677,1
1.759998918,-5.319123745,1,-1.415396333,1,-8.090680122,1,0.003832339,1,-0.008972192,1,-0.033394974,1,0.173455343,1,-0.552099407,1,-0.101145759,1,-0.18966341,1,0.021748424,1,0.111446381,1
1.763996363,-5.187427998,1,-1.45098722,1,-8.171142578,1,-0.000261624,1,-0.020154921,1,-0.02623832,1,0.173538491,1,-0.552130044,1,-0.101287544,1,-0.057712078,1,-0.013187408,1,0.030711174,1
1.767995954,-5.219312191,1,-1.387741566,1,-8.192578316,1,-0.010285455,1,-0.026924783,1,-0.030139402,1,0.17359969,1,-0.552202165,1,-0.101440012,1,-0.08899641,1,0.05049634,1,0.008823395,1
1.771997452,-5.221831799,1,-1.307351351,1,-8.18311882,1,-0.017817466,1,-0.036021966,1,-0.026773082,1,0.173633605,1,-0.552305877,1,-0.101604551,1,-0.090652466,1,0.131072998,1,0.017711639,1
1.775995135,-5.288473129,1,-1.131852508,1,-8.206235886,1,-0.017969351,1,-0.033610497,1,-0.032545507,1,0.173654795,1,-0.552430868,1,-0.101775579,1,-0.156252861,1,0.306635022,1,-0.006067276,1
1.779994369,-5.266695976,1,-0.974088073,1,-8.215941429,1,-0.018884582,1,-0.03796028,1,-0.033911217,1,0.173685819,1,-0.552553892,1,-0.101957925,1,-0.133451462,1,0.464544058,1,-0.016443253,1
1.783995867,-5.158073425,1,-0.815586448,1,-8.282191277,1,-0.008879639,1,-0.027019186,1,-0.035657898,1,0.173729897,1,-0.552657485,1,-0.102152616,1,-0.023966789,1,0.623315096,1,-0.08327961,1
1.78799355,-5.172917366,1,-0.769020855,1,-8.343118668,1,-0.008401377,1,-0.032306034,1,-0.046674259,1,0.173808888,1,-0.552752614,1,-0.102363743,1,-0.038018703,1,0.670444429,1,-0.144799232,1
1.79199338,-5.154133797,1,-0.772232354,1,-8.403850555,1,-0.002125448,1,-0.04110346,1,-0.060668204,1,0.173939988,1,-0.55285722,1,-0.102643169,1,-0.018364906,1,0.668214619,1,-0.206250191,1
1.795994878,-5.170412064,1,-0.644993067,1,-8.315040588,1,0.005094096,1,-0.050676916,1,-0.083136715,1,0.174142241,1,-0.552980661,1,-0.103017531,1,-0.033615112,1,0.797001839,1,-0.118355751,1
1.799992323,-5.349903107,1,-0.704483628,1,-8.212414742,1,0.011719726,1,-0.052086234,1,-0.096254699,1,0.174407899,1,-0.553122103,1,-0.10347376,1,-0.211929321,1,0.739562988,1,-0.016827583,1
1.803998232,-5.49477911,1,-0.821116626,1,-8.087480545,1,0.014687734,1,-0.043010838,1,-0.119821802,1,0.174746901,1,-0.553230941,1,-0.1040124,1,-0.355900288,1,0.625610769,1,0.107064247,1
1.807999969,-5.62428093,1,-0.873076618,1,-7.956749439,1,0.028124973,1,-0.028461233,1,-0.133040607,1,0.175146371,1,-0.55328232,1,-0.104619056,1,-0.484973907,1,0.576878011,1,0.23695612,1
1.811997652,-5.743249416,1,-0.973952651,1,-7.869605541,1,0.033800062,1,-0.002306064,1,-0.146070272,1,0.1756078,1,-0.553244948,1,-0.105280444,1,-0.604253292,1,0.479816556,1,0.323621273,1
1.815997243,-5.799283028,1,-1.136021614,1,-7.772861004,1,0.048521467,1,0.029539073,1,-0.15651837,1,0.176138684,1,-0.553090215,1,-0.105969965,1,-0.661574364,1,0.322236538,1,0.420376301,1
1.819998741,-5.877056122,1,-1.163294792,1,-7.687559128,1,0.053428929,1,0.06775412,1,-0.165158451,1,0.176704958,1,-0.552784383,1,-0.106666498,1,-0.741893291,1,0.29987812,1,0.506393433,1
1.823996425,-5.963132858,1,-1.033397198,1,-7.586019993,1,0.066970073,1,0.10731259,1,-0.175199106,1,0.177316263,1,-0.552319348,1,-0.107379213,1,-0.831841469,1,0.435205698,1,0.609388828,1
1.827995896,-5.843395233,1,-0.883467257,1,-7.705090046,1,0.079464495,1,0.150739148,1,-0.180690378,1,0.177975848,1,-0.551689982,1,-0.108092591,1,-0.717344284,1,0.591112196,1,0.492522717,1
1.831997156,-5.643247128,1,-0.920816839,1,-7.784810543,1,0.091198966,1,0.175029889,1,-0.199545085,1,0.178707302,1,-0.550907493,1,-0.108831495,1,-0.523715496,1,0.560470641,1,0.41566515,1
1.83599484,-5.656200886,1,-0.670617402,1,-7.806367874,1,0.106370375,1,0.205001086,1,-0.215217844,1,0.179510131,1,-0.550004303,1,-0.109612107,1,-0.544198036,1,0.818078101,1,0.397461891,1
1.839994311,-5.483026028,1,-0.623732507,1,-7.904724598,1,0.119769588,1,0.218925297,1,-0.228175238,1,0.180413246,1,-0.549003005,1,-0.110463083,1,-0.379374027,1,0.873289883,1,0.302793026,1
1.84399569,-5.081334591,1,-0.278032005,1,-7.852574348,1,0.133919984,1,0.222100019,1,-0.241453826,1,0.18139571,1,-0.547960758,1,-0.111367106,1,0.013618946,1,1.228012085,1,0.358695984,1
1.847993135,-4.731991768,1,-0.126897261,1,-8.340546608,1,0.152330905,1,0.210778967,1,-0.256484598,1,0.182476863,1,-0.546925962,1,-0.112332404,1,0.354320526,1,1.388979673,1,-0.125728607,1
1.851992369,-4.556724548,1,-0.390571654,1,-8.655488014,1,0.167903632,1,0.1879123,1,-0.266156256,1,0.183645353,1,-0.545943439,1,-0.113350384,1,0.52137804,1,1.13581419,1,-0.437541962,1
1.855994105,-4.902205944,1,-0.46434921,1,-8.646011353,1,0.192865238,1,0.16532883,1,-0.283355176,1,0.18493405,1,-0.545056164,1,-0.114454947,1,0.168478012,1,1.073453665,1,-0.425613403,1
1.859991789,-4.84604311,1,-0.843554735,1,-8.641658783,1,0.207672939,1,0.138857737,1,-0.303258955,1,0.18636623,1,-0.544237494,1,-0.115679353,1,0.217792988,1,0.70678854,1,-0.419393539,1
1.863991261,-4.927420616,1,-1.408107042,1,-8.488895416,1,0.211086318,1,0.115737543,1,-0.301376313,1,0.18786785,1,-0.543520749,1,-0.116969593,1,0.130416393,1,0.155259252,1,-0.265400887,1
1.867993116,-4.909819603,1,-1.966238618,1,-8.349003792,1,0.198134437,1,0.088906027,1,-0.297316611,1,0.189368427,1,-0.542886496,1,-0.118264943,1,0.142707348,1,-0.389931202,1,-0.124718666,1
1.871991038,-4.927429199,1,-2.215858459,1,-8.347590446,1,0.174452394,1,0.073410109,1,-0.27655533,1,0.190759644,1,-0.542355716,1,-0.119511612,1,0.120652199,1,-0.627602577,1,-0.12287426,1
1.87599051,-4.833876133,1,-2.117869139,1,-8.533912659,1,0.149686038,1,0.052713912,1,-0.252953559,1,0.191997752,1,-0.541901708,1,-0.12066447,1,0.210401535,1,-0.518994212,1,-0.308921814,1
1.879998207,-4.692770004,1,-2.067977667,1,-8.559447289,1,0.131952211,1,0.032174435,1,-0.231164932,1,0.193112597,1,-0.541549504,1,-0.121731967,1,0.348556519,1,-0.4595927,1,-0.334495544,1
1.884001851,-4.779289246,1,-2.112078905,1,-8.544593811,1,0.11441984,1,0.011125397,1,-0.216566458,1,0.194122314,1,-0.541296065,1,-0.12273486,1,0.259913445,1,-0.495143771,1,-0.320019722,1
1.888001323,-4.947312355,1,-2.171382666,1,-8.488695145,1,0.091634028,1,-0.006276418,1,-0.197679371,1,0.195020333,1,-0.541135371,1,-0.123687238,1,0.09054327,1,-0.546906114,1,-0.264784813,1
1.892003059,-5.050450325,1,-2.28330493,1,-8.420708656,1,0.069098003,1,-0.0150917,1,-0.170299634,1,0.195782587,1,-0.541048706,1,-0.124540225,1,-0.013320923,1,-0.652474523,1,-0.197607994,1
1.896000743,-5.005212307,1,-2.337109327,1,-8.384550095,1,0.042820163,1,-0.029185712,1,-0.132081434,1,0.196378171,1,-0.541021287,1,-0.125257611,1,0.03168726,1,-0.701354861,1,-0.162287712,1
1.900000215,-4.959316254,1,-2.224480391,1,-8.481906891,1,0.023022868,1,-0.028226929,1,-0.100139469,1,0.196788192,1,-0.541045904,1,-0.125814468,1,0.07778883,1,-0.585379362,1,-0.260438919,1
1.904001832,-4.850052834,1,-2.014232635,1,-8.543235779,1,0.003622282,1,-0.034330521,1,-0.068802193,1,0.197050154,1,-0.541101575,1,-0.12622951,1,0.18751955,1,-0.37303257,1,-0.322471619,1
1.907999516,-4.871939659,1,-1.732952476,1,-8.627939224,1,-0.006778411,1,-0.04359293,1,-0.05114188,1,0.197193369,1,-0.54120934,1,-0.126545429,1,0.166535378,1,-0.090681672,1,-0.407942772,1
1.911998987,-4.899116039,1,-1.588103294,1,-8.619277954,1,-0.01873772,1,-0.061335724,1,-0.041866392,1,0.197274193,1,-0.541373789,1,-0.126799777,1,0.140738487,1,0.054669499,1,-0.400226593,1
1.916000485,-5.028287411,1,-1.522270679,1,-8.51325798,1,-0.022942174,1,-0.065158211,1,-0.038537636,1,0.197320968,1,-0.541585386,1,-0.127045661,1,0.013339996,1,0.120677352,1,-0.295330048,1
1.919998169,-5.08165741,1,-1.440678477,1,-8.440507889,1,-0.021268083,1,-0.068534851,1,-0.029506991,1,0.197347239,1,-0.541832149,1,-0.127265453,1,-0.03796196,1,0.202241659,1,-0.223842621,1
1.923997641,-5.032049179,1,-1.327280641,1,-8.460128784,1,-0.022834331,1,-0.071059778,1,-0.029331572,1,0.197363585,1,-0.542081594,1,-0.127468362,1,0.013736248,1,0.315527439,1,-0.24472332,1
1.927999258,-5.018805504,1,-1.222313166,1,-8.408863068,1,-0.019675341,1,-0.06463144,1,-0.02947253,1,0.197365835,1,-0.542334259,1,-0.127655581,1,0.029096603,1,0.420263171,1,-0.194711685,1
1.93199718,-5.03924799,1,-1.114157438,1,-8.401515007,1,-0.016270438,1,-0.069927342,1,-0.02856796,1,0.197384715,1,-0.542581439,1,-0.127847657,1,0.010724068,1,0.528329015,1,-0.188619614,1
1.935996652,-5.032295704,1,-1.058003902,1,-8.363883018,1,-0.008076145,1,-0.069375262,1,-0.033058401,1,0.19744657,1,-0.542832971,1,-0.128052279,1,0.01978302,1,0.584741235,1,-0.152334213,1
1.93999815,-4.967251778,1,-0.962324262,1,-8.243320465,1,0.000297648,1,-0.068097293,1,-0.035414349,1,0.19752495,1,-0.543069839,1,-0.128262252,1,0.086810112,1,0.680830002,1,-0.033072472,1
1.943995953,-5.099872112,1,-0.884583175,1,-8.390242577,1,0.006197156,1,-0.072176151,1,-0.043474674,1,0.197669759,1,-0.543304384,1,-0.128502235,1,-0.04384613,1,0.759526908,1,-0.181397438,1
1.947995424,-4.941093922,1,-0.921448588,1,-8.34154129,1,0.020487553,1,-0.078924969,1,-0.044537228,1,0.197858572,1,-0.543561518,1,-0.128769994,1,0.11708498,1,0.723956347,1,-0.134279251,1
1.951997161,-4.962507248,1,-0.990320981,1,-8.466180801,1,0.021981381,1,-0.089062281,1,-0.044273034,1,0.198088273,1,-0.543859065,1,-0.129064351,1,0.098161697,1,0.656672776,1,-0.260772705,1
1.955995083,-4.963062763,1,-1.120062947,1,-8.49848938,1,0.026104007,1,-0.098544613,1,-0.043951411,1,0.198337346,1,-0.544201195,1,-0.129350618,1,0.100469112,1,0.528633595,1,-0.295188904,1
1.960000753,-4.869677067,1,-1.172020316,1,-8.52363205,1,0.021979954,1,-0.119528569,1,-0.046072286,1,0.198599532,1,-0.54459703,1,-0.129655749,1,0.197166443,1,0.478430629,1,-0.322733879,1
1.964002848,-4.781840324,1,-1.142297506,1,-8.610187531,1,0.026625171,1,-0.141371071,1,-0.045284223,1,0.198872983,1,-0.545064211,1,-0.129984483,1,0.288911343,1,0.509928226,1,-0.412060738,1
1.96800077,-4.618493557,1,-1.327501297,1,-8.623206139,1,0.025158327,1,-0.17851676,1,-0.036091492,1,0.199154258,1,-0.545657754,1,-0.130322188,1,0.457220554,1,0.326434612,1,-0.428494453,1
1.972000003,-4.476438046,1,-1.420652509,1,-8.859601974,1,0.01935556,1,-0.223358586,1,-0.023511009,1,0.199406818,1,-0.546424568,1,-0.130648196,1,0.605685234,1,0.234581351,1,-0.669128418,1
1.976001501,-4.364688396,1,-1.600061059,1,-9.133112907,1,0.012687219,1,-0.270133674,1,-0.006290523,1,0.198854253,1,-0.547488034,1,-0.131818265,1,0.726318359,1,0.049579024,1,-0.947024345,1
1.979999185,-4.319761753,1,-1.971361876,1,-9.175761223,1,-0.008865107,1,-0.329352319,1,0.012338827,1,0.199006394,1,-0.548664689,1,-0.132075995,1,0.781066895,1,-0.321662784,1,-0.995806694,1
1.983998418,-4.508466721,1,-2.108896017,1,-9.205699921,1,-0.036656056,1,-0.378629118,1,0.035764519,1,0.199029729,1,-0.550067902,1,-0.132293463,1,0.604066372,1,-0.460422873,1,-1.03280735,1
1.988000274,-4.471444607,1,-2.404621601,1,-9.228122711,1,-0.074789219,1,-0.427197874,1,0.06874007,1,0.198880702,1,-0.551675797,1,-0.132420018,1,0.654488564,1,-0.758992195,1,-1.063052177,1
1.991997957,-4.417393684,1,-3.097646475,1,-9.35008049,1,-0.151803628,1,-0.496300131,1,0.100735702,1,0.198458046,1,-0.553555667,1,-0.132461563,1,0.724187374,1,-1.457371235,1,-1.193777084,1
1.995997429,-4.532968521,1,-2.893692493,1,-9.297252655,1,-0.222766116,1,-0.547238111,1,0.136969253,1,0.197667554,1,-0.555707574,1,-0.132397592,1,0.626503468,1,-1.26204133,1,-1.150520325,1
1.999998927,-4.501186848,1,-2.901943207,1,-9.554243088,1,-0.285429806,1,-0.608236313,1,0.176951364,1,0.196560532,1,-0.558093846,1,-0.132218227,1,0.678097248,1,-1.281721711,1,-1.417811394,1
2.003996611,-4.510898113,1,-2.128694296,1,-9.705728531,1,-0.303392917,1,-0.673624396,1,0.213381782,1,0.195187584,1,-0.560761988,1,-0.13189657,1,0.690502644,1,-0.522330761,1,-1.580664635,1
2.007996082,-4.313135147,1,-2.835216999,1,-10.10324955,1,-0.309619516,1,-0.746050358,1,0.262378246,1,0.19374527,1,-0.563727617,1,-0.131445363,1,0.91280508,1,-1.24355042,1,-1.991046906,1
2.0119977,-4.352983475,1,-3.677434683,1,-10.24082184,1,-0.411954582,1,-0.824779034,1,0.306033373,1,0.191977084,1,-0.567028105,1,-0.130836502,1,0.900213242,1,-2.103414536,1,-2.142795563,1
2.015995026,-4.474403858,1,-3.422064781,1,-10.39084435,1,-0.493200719,1,-0.915228188,1,0.348127842,1,0.189769521,1,-0.57068181,1,-0.130098969,1,0.808898926,1,-1.869556665,1,-2.308267593,1
2.019994736,-4.276740551,1,-2.046852827,1,-10.81692314,1,-0.54035908,1,-1.006358385,1,0.414629489,1,0.187159121,1,-0.574758351,1,-0.129162729,1,1.04006958,1,-0.519468427,1,-2.75154686,1
2.023996115,-3.954684258,1,-2.488737822,1,-10.79063702,1,-0.526419103,1,-1.117919683,1,0.45999518,1,0.184451103,1,-0.579244018,1,-0.128048107,1,1.398893833,1,-0.987589478,1,-2.744680405,1
2.027993917,-3.808933973,1,-3.743616819,1,-11.08744907,1,-0.62148428,1,-1.239077568,1,0.519156516,1,0.181466177,1,-0.584244907,1,-0.12677601,1,1.585508585,1,-2.271342278,1,-3.063484192,1
2.031993389,-3.905524254,1,-3.777540922,1,-11.11980724,1,-0.752730727,1,-1.37220633,1,0.579631329,1,0.177893683,1,-0.589786172,1,-0.125300676,1,1.534040451,1,-2.339252234,1,-3.120173454,1
2.035994768,-4.022364616,1,-2.16434288,1,-11.27466774,1,-0.777561843,1,-1.487684369,1,0.632374823,1,0.173853263,1,-0.595845819,1,-0.12361972,1,1.466351986,1,-0.76411593,1,-3.301903248,1
2.03999877,-3.442457676,1,-2.901074409,1,-11.04936218,1,-0.765511811,1,-1.61521852,1,0.709267616,1,0.169718757,1,-0.602401733,1,-0.121717274,1,2.099209309,1,-1.539929628,1,-3.10651207,1
2.04399848,-3.708663225,1,-4.548471928,1,-11.1053009,1,-0.863864243,1,-1.756727338,1,0.786254883,1,0.165204093,1,-0.609553218,1,-0.119487345,1,1.890492678,1,-3.22975111,1,-3.195679188,1
2.048000336,-3.456890821,1,-5.284148693,1,-10.9518919,1,-1.03528595,1,-1.894292712,1,0.876737297,1,0.159932703,1,-0.617295146,1,-0.116910934,1,2.204177141,1,-4.014082909,1,-3.078464031,1
2.051998138,-3.73449111,1,-3.659616709,1,-11.09468651,1,-1.111716628,1,-2.034256935,1,0.98507756,1,0.153839514,1,-0.625631273,1,-0.113891862,1,1.992861986,1,-2.444821835,1,-3.260572433,1
2.056003809,-3.62719202,1,-3.280215979,1,-11.17095947,1,-1.149903774,1,-2.17913723,1,1.072642088,1,0.147271261,1,-0.634568512,1,-0.110416755,1,2.17078352,1,-2.124460936,1,-3.379980564,1
2.060005665,-3.409585476,1,-3.15688777,1,-11.72169113,1,-1.160621285,1,-2.363370895,1,1.154983163,1,0.140331849,1,-0.644185126,1,-0.106523849,1,2.46386385,1,-2.063074589,1,-3.978447914,1
2.064003229,-3.224029541,1,-3.129421473,1,-12.39928341,1,-1.17113924,1,-2.553621769,1,1.217449784,1,0.133112475,1,-0.65456748,1,-0.102308728,1,2.730292797,1,-2.099686861,1,-4.709204674,1
2.068002462,-2.040310621,1,-3.475121021,1,-11.82317066,1,-1.22552681,1,-2.798975706,1,1.306543231,1,0.125534058,1,-0.665830076,1,-0.09774895,1,4.001015663,1,-2.512151718,1,-4.192526817,1
2.072004318,-2.985388041,1,-4.456566811,1,-12.24496841,1,-1.33739996,1,-3.024771214,1,1.422610164,1,0.117211975,1,-0.678072095,1,-0.092618637,1,3.149638414,1,-3.565848589,1,-4.680592537,1
2.076002121,-3.865641117,1,-5.333874702,1,-12.21856689,1,-1.450967312,1,-3.192489386,1,1.518694043,1,0.107990563,1,-0.691096485,1,-0.086870641,1,2.368064404,1,-4.52162981,1,-4.726383686,1
2.080001354,-2.916662693,1,-3.89028573,1,-12.83842278,1,-1.525287867,1,-3.445917606,1,1.628585696,1,0.097883321,1,-0.70491606,1,-0.080457747,1,3.420589447,1,-3.162295103,1,-5.424860954,1
2.084002733,-3.184565783,1,-4.239429951,1,-12.71098042,1,-1.554115891,1,-3.70071888,1,1.71958375,1,0.087159447,1,-0.719774008,1,-0.073421881,1,3.262663126,1,-3.599249363,1,-5.384653568,1
2.088000536,-3.095001936,1,-5.230708122,1,-12.61809921,1,-1.692484379,1,-3.941524506,1,1.843274117,1,0.075430222,1,-0.735592306,1,-0.065562151,1,3.46774745,1,-4.684256554,1,-5.387377739,1
2.092000008,-3.567122459,1,-5.377232075,1,-12.73120594,1,-1.792511344,1,-4.195053101,1,1.928150535,1,0.06258741,1,-0.752352238,1,-0.05688538,1,3.116230965,1,-4.9306283,1,-5.604848385,1
2.096001625,-5.214710712,1,-5.176900864,1,-13.19046593,1,-1.972673297,1,-4.358903885,1,2.092575073,1,0.048313674,1,-0.769898355,1,-0.047108863,1,1.592893124,1,-4.83777523,1,-6.176682949,1
2.099999189,-6.636339188,1,-4.52880764,1,-13.7795639,1,-2.106274366,1,-4.449935436,1,2.192548513,1,0.032359444,1,-0.787850916,1,-0.036041718,1,0.296223164,1,-4.305610657,1,-6.884536743,1
2.103998661,-6.32333231,1,-3.308959961,1,-14.48865032,1,-2.163853168,1,-4.555860043,1,2.260867596,1,0.015082243,1,-0.806052327,1,-0.023887517,1,0.73363924,1,-3.206837177,1,-7.718098164,1
2.108000278,-7.73321867,1,-3.170443296,1,-14.61524582,1,-2.153393507,1,-4.615582466,1,2.315751791,1,-0.003090086,1,-0.824497342,1,-0.01075084,1,-0.552556992,1,-3.190961361,1,-7.975267887,1
2.111997604,-8.972838402,1,-3.771001816,1,-14.94547367,1,-2.253709316,1,-4.584819317,1,2.422893047,1,-0.022602951,1,-0.84278667,1,0.003732901,1,-1.671943665,1,-3.918079615,1,-8.439559937,1
2.116003275,-7.431184292,1,-2.483929157,1,-14.75304222,1,-2.34005928,1,-4.67257452,1,2.462095976,1,-0.043681797,1,-0.860968173,1,0.019495495,1,-0.013185024,1,-2.762258291,1,-8.385353088,1
2.120005131,-11.54722977,1,-2.307070017,1,-16.78607941,1,-2.356120586,1,-4.602171421,1,2.397290468,1,-0.065825768,1,-0.879016221,1,0.036189131,1,-4.0154109,1,-2.717451334,1,-10.56073093,1
2.124003172,-11.09732819,1,-0.385268718,1,-17.35719872,1,-2.309666395,1,-4.518664837,1,2.209243536,1,-0.088239521,1,-0.89645505,1,0.053016778,1,-3.457861423,1,-0.923410535,1,-11.27438641,1
2.128002644,-10.70987129,1,2.557101727,1,-16.41253853,1,-1.959531188,1,-4.481369972,1,1.909065127,1,-0.109474748,1,-0.913565636,1,0.06909883,1,-2.967041492,1,1.904299736,1,-10.47334099,1
2.132003784,-8.005801201,1,2.402084112,1,-14.81846905,1,-1.72342062,1,-4.496697426,1,1.834490657,1,-0.129449978,1,-0.930502534,1,0.084940091,1,-0.162889004,1,1.647821307,1,-9.024377823,1
2.136001587,-9.461110115,1,1.876380563,1,-14.82633686,1,-1.602719665,1,-4.503165722,1,1.744155288,1,-0.149193525,1,-0.947310507,1,0.101165518,1,-1.521101952,1,1.027592897,1,-9.179438591,1
2.140001059,-11.39945316,1,0.859455287,1,-13.50394058,1,-1.458684683,1,-4.490628719,1,1.5952425,1,-0.168671876,1,-0.964076161,1,0.117539212,1,-3.36482811,1,-0.076675773,1,-8.006660461,1
2.144002676,-12.97089386,1,-4.486478806,1,-14.01213074,1,-1.628168702,1,-4.240231991,1,1.547805429,1,-0.188272431,1,-0.980190158,1,0.133932948,1,-4.847456932,1,-5.505806446,1,-8.662142754,1
2.148000479,-12.76263809,1,-4.927100182,1,-12.71277618,1,-2.031771183,1,-4.127659321,1,1.522895455,1,-0.20970504,1,-0.995350301,1,0.150909081,1,-4.557572365,1,-6.035083294,1,-7.506923199,1
2.151999712,-13.73471355,1,-5.182030201,1,-11.28223801,1,-2.434601784,1,-4.005766392,1,1.403732181,1,-0.233212993,1,-1.009969473,1,0.168184057,1,-5.452717781,1,-6.384222984,1,-6.221119404,1
2.156001568,-12.58000851,1,-4.574874878,1,-11.79807472,1,-2.897294521,1,-3.68079567,1,1.366089225,1,-0.25864175,1,-1.02353251,1,0.185505167,1,-4.228222847,1,-5.87651062,1,-6.878216743,1
2.159999132,-12.91528797,1,-4.341360569,1,-9.567201614,1,-3.277436972,1,-3.441250086,1,1.285712361,1,-0.285915762,1,-1.035833716,1,0.202911302,1,-4.501532555,1,-5.747597218,1,-4.783599854,1
2.163998604,-9.957185745,1,-2.34687686,1,-12.57433605,1,-3.573266268,1,-2.985400915,1,1.143574476,1,-0.314107865,1,-1.046689272,1,0.219615608,1,-1.489801407,1,-3.859085798,1,-7.919421196,1
2.168000221,-8.375852585,1,1.530896783,1,-14.11918449,1,-3.516656399,1,-2.526383877,1,0.899704993,1,-0.341445625,1,-1.055807829,1,0.234645158,1,0.135808945,1,-0.08206737,1,-9.580280304,1
2.171998024,-4.998497963,1,4.576920986,1,-15.55406952,1,-3.121991873,1,-2.135721684,1,0.530816734,1,-0.365405232,1,-1.063503623,1,0.246818304,1,3.549982071,1,2.879137993,1,-11.11642551,1
2.175997257,-0.630805552,1,3.463988066,1,-14.93959618,1,-2.640390635,1,-1.915386081,1,0.086761259,1,-0.384290993,1,-1.070550323,1,0.255257368,1,7.950942516,1,1.705330968,1,-10.59075546,1
2.179998636,-2.26737833,1,1.909870148,1,-12.81923866,1,-2.348820686,1,-1.93685329,1,-0.214792222,1,-0.399035543,1,-1.077739,1,0.260751188,1,6.34787035,1,0.111302853,1,-8.553762436,1
2.183996439,-10.09890079,1,2.474073887,1,-16.42935181,1,-1.982692957,1,-1.72903049,1,-0.73200649,1,-0.410157382,1,-1.085383177,1,0.263482779,1,-1.448518753,1,0.654491305,1,-12.24465561,1
2.187995911,-6.865421772,1,0.758091331,1,-18.47674942,1,-1.689812064,1,-1.110178232,1,-1.092167258,1,-0.415313661,1,-1.092063308,1,0.261058658,1,1.81524992,1,-1.059684753,1,-14.35446548,1
2.191997528,-4.062364101,1,-0.413185537,1,-16.47098541,1,-1.540368676,1,-0.720701993,1,-1.358850956,1,-0.415870875,1,-1.097325563,1,0.25445205,1,4.641894817,1,-2.214781284,1,-12.39155388,1
2.196000814,-4.173381329,1,0.028397037,1,-16.54247665,1,-1.455021024,1,-0.447096169,1,-1.622966528,1,-0.412991166,1,-1.101879001,1,0.244497031,1,4.551093578,1,-1.745516896,1,-12.49421978,1
2.200000525,-4.626176357,1,2.530964851,1,-16.98498154,1,-1.255609512,1,-0.051721495,1,-1.835892081,1,-0.40666908,1,-1.105580568,1,0.231295764,1,4.114598751,1,0.795466185,1,-12.9552803,1
2.204002142,-4.198393345,1,3.369835377,1,-16.61659241,1,-0.941562951,1,0.396840334,1,-2.009791136,1,-0.396353573,1,-1.107952356,1,0.214834452,1,4.552764416,1,1.684002519,1,-12.58833313,1
2.207999706,-2.947089911,1,3.244515419,1,-15.53026199,1,-0.646078944,1,0.814135075,1,-2.129332781,1,-0.382284313,1,-1.108844161,1,0.195576876,1,5.807957649,1,1.618432522,1,-11.48592186,1
2.211999178,-0.684124589,1,2.421585798,1,-14.57648754,1,-0.36714232,1,1.152624726,1,-2.20679307,1,-0.365151763,1,-1.108353138,1,0.17420201,1,8.068781853,1,0.8634938,1,-10.50086975,1
2.216000795,1.681009173,1,1.413763404,1,-13.29870319,1,-0.167446285,1,1.427266955,1,-2.242179155,1,-0.345897853,1,-1.106594682,1,0.151492968,1,10.42623043,1,-0.07078886,1,-9.17937088,1
2.21999836,3.782873392,1,0.040854748,1,-12.09961319,1,-0.074753001,1,1.62511313,1,-2.275562763,1,-0.325328171,1,-1.103801608,1,0.127980679,1,12.51582909,1,-1.366456747,1,-7.927492142,1
2.22399807,5.193451881,1,-0.638167441,1,-10.83573532,1,-0.07631021,1,1.752089977,1,-2.318352222,1,-0.3042337,1,-1.100201964,1,0.104015291,1,13.91050243,1,-1.966571569,1,-6.604895115,1
2.227999449,6.047175407,1,-0.646972239,1,-9.854100227,1,-0.086093739,1,1.831626177,1,-2.376893282,1,-0.282820165,1,-1.096034884,1,0.079399034,1,14.74567127,1,-1.894608498,1,-5.560939312,1
2.231997252,6.544875622,1,-0.771223307,1,-9.051515579,1,-0.081320561,1,1.899081707,1,-2.437088966,1,-0.2613298,1,-1.09142828,1,0.054826878,1,15.22268486,1,-1.936655998,1,-4.69387722,1
2.235996723,6.583647728,1,-1.16000855,1,-8.456988335,1,-0.086820431,1,1.962976098,1,-2.502736807,1,-0.239695787,1,-1.08640027,1,0.030039286,1,15.23866653,1,-2.241248608,1,-4.032826424,1
2.239998579,6.250336647,1,-1.555398941,1,-8.188073158,1,-0.105333574,1,2.045259237,1,-2.57149148,1,-0.217998594,1,-1.080896378,1,0.005047983,1,14.88015747,1,-2.550688982,1,-3.695047379,1
2.243996143,5.989351273,1,-1.895072579,1,-7.918260574,1,-0.126725346,1,2.131583929,1,-2.649166346,1,-0.196250245,1,-1.074868798,1,-0.020161279,1,14.59127712,1,-2.802545547,1,-3.353717327,1
2.247995615,5.627772331,1,-2.026139021,1,-7.616908073,1,-0.14322108,1,2.228077412,1,-2.736685038,1,-0.174417242,1,-1.068280935,1,-0.045637958,1,14.19885254,1,-2.843560696,1,-2.977941036,1
2.251997471,5.403273582,1,-2.016131163,1,-7.236629009,1,-0.153919592,1,2.332146406,1,-2.847462654,1,-0.152460486,1,-1.061097622,1,-0.071429908,1,13.94029713,1,-2.74083972,1,-2.520096302,1
2.255995035,5.357817173,1,-1.933242679,1,-7.001974583,1,-0.148078695,1,2.417864323,1,-2.968363285,1,-0.13028571,1,-1.053327441,1,-0.09759856,1,13.85750389,1,-2.56179285,1,-2.204903603,1
2.259994268,5.678034306,1,-2.149082422,1,-6.303403378,1,-0.122681014,1,2.499123096,1,-3.097941637,1,-0.107837066,1,-1.044991136,1,-0.124120332,1,14.1370945,1,-2.677402735,1,-1.423161983,1
2.263995886,6.013799667,1,-2.424784184,1,-5.247576237,1,-0.085066721,1,2.568846941,1,-3.219818354,1,-0.085145913,1,-1.036108732,1,-0.150904119,1,14.42892551,1,-2.848613977,1,-0.28192234,1
2.267993689,6.631939411,1,-2.577606678,1,-5.787329197,1,-0.062371388,1,2.528409243,1,-3.379267216,1,-0.062163506,1,-1.026903749,1,-0.178015471,1,15.00083542,1,-2.89201045,1,-0.73615551,1
2.27199316,6.327038765,1,-2.831477165,1,-5.406755447,1,-0.08639811,1,2.474640608,1,-3.498303652,1,-0.039141629,1,-1.01760757,1,-0.205342233,1,14.64852524,1,-3.032556295,1,-0.272160053,1
2.276000738,5.659584045,1,-3.323798895,1,-5.608688354,1,-0.12397065,1,2.426326275,1,-3.620054007,1,-0.016303051,1,-1.008197427,1,-0.232741639,1,13.93234921,1,-3.408841848,1,-0.392771721,1
2.280004501,4.486098766,1,-3.783574343,1,-6.153351784,1,-0.193239436,1,2.386967421,1,-3.731675386,1,0.006207052,1,-0.998640656,1,-0.260182649,1,12.70863342,1,-3.750705481,1,-0.858020782,1
2.284004688,1.979048491,1,-3.966001511,1,-8.290477753,1,-0.188034013,1,2.471146584,1,-3.86369586,1,0.02870203,1,-0.988834023,1,-0.287838936,1,10.14925766,1,-3.811725855,1,-2.916878223,1
2.288006306,2.978901148,1,-3.480308771,1,-6.936743736,1,-0.456551999,1,2.506800413,1,-3.864378929,1,0.049979396,1,-0.978130817,1,-0.314953566,1,11.09110451,1,-3.207387686,1,-1.480619907,1
2.292004347,-0.004542385,1,-3.342570305,1,-7.984294415,1,-0.550112367,1,2.497675896,1,-3.936509132,1,0.069905043,1,-0.967291057,1,-0.341557622,1,8.047968864,1,-2.954874039,1,-2.447290897,1
2.296003819,-2.895828485,1,-2.136422634,1,-9.785226822,1,-0.538452506,1,2.723455191,1,-3.999668598,1,0.089205191,1,-0.955645084,1,-0.367769063,1,5.091496468,1,-1.633619308,1,-4.163705349,1
2.300005436,-3.249338865,1,-2.061595201,1,-9.918851852,1,-0.532127261,1,3.012298584,1,-3.973255396,1,0.107684888,1,-0.942656338,1,-0.393110126,1,4.664006233,1,-1.443900943,1,-4.204914093,1
2.304003,-3.145453453,1,-2.192419052,1,-9.513414383,1,-0.539758027,1,3.241532326,1,-3.907762766,1,0.124820344,1,-0.928398073,1,-0.417057157,1,4.685144901,1,-1.462935686,1,-3.699530125,1
2.308002472,-3.084741354,1,-2.288824797,1,-9.406024933,1,-0.545495987,1,3.422626734,1,-3.823894739,1,0.140485108,1,-0.913130045,1,-0.439463705,1,4.655486107,1,-1.4517169,1,-3.486582756,1
2.312004089,-2.937411308,1,-2.460332632,1,-9.153768539,1,-0.567330778,1,3.579329967,1,-3.70036149,1,0.154625297,1,-0.897059083,1,-0.460254729,1,4.705742359,1,-1.520571947,1,-3.12461853,1
2.316001892,-2.588197231,1,-2.29772377,1,-8.682963371,1,-0.617927313,1,3.6898458,1,-3.537368059,1,0.166989148,1,-0.880372822,1,-0.479229331,1,4.952078819,1,-1.262437344,1,-2.540975571,1
2.320001602,-2.153188705,1,-2.162334919,1,-8.289978981,1,-0.680965304,1,3.749736071,1,-3.347198725,1,0.177500874,1,-0.863336921,1,-0.496346325,1,5.279887199,1,-1.040022016,1,-2.033664703,1
2.324002981,-2.162876368,1,-1.955196142,1,-8.089715004,1,-0.727024913,1,3.762082338,1,-3.146231174,1,0.186240748,1,-0.846203566,1,-0.511663496,1,5.160211563,1,-0.754840612,1,-1.71922493,1
2.328001022,-2.503610134,1,-1.795026779,1,-8.066796303,1,-0.758250535,1,3.760650158,1,-2.932912111,1,0.193374574,1,-0.8291291,1,-0.525271297,1,4.707728863,1,-0.525409222,1,-1.583251476,1
2.332000256,-2.958765268,1,-1.776656985,1,-8.077267647,1,-0.78279984,1,3.761914492,1,-2.722962141,1,0.199050367,1,-0.812161028,1,-0.5372473,1,4.139438629,1,-0.446254969,1,-1.482028484,1
2.336001873,-3.478096485,1,-1.875222445,1,-8.11540699,1,-0.794998646,1,3.767676115,1,-2.512138844,1,0.203400373,1,-0.795314908,1,-0.547682106,1,3.505763531,1,-0.492182612,1,-1.409843445,1
2.339999437,-4.021690369,1,-1.95540297,1,-8.22886467,1,-0.786280036,1,3.78234458,1,-2.30044198,1,0.206597403,1,-0.778568745,1,-0.556667089,1,2.846539974,1,-0.52714026,1,-1.41423893,1
2.343998671,-4.491999626,1,-2.384992838,1,-8.308995247,1,-0.786629975,1,3.812826872,1,-2.089856625,1,0.208745778,1,-0.761886775,1,-0.564272463,1,2.259129047,1,-0.918550611,1,-1.386315823,1
2.348000526,-4.700035572,1,-2.836260557,1,-8.435927391,1,-0.800594211,1,3.834415674,1,-1.886483312,1,0.20990473,1,-0.745273411,1,-0.570590973,1,1.932605743,1,-1.338631392,1,-1.406218529,1
2.352004051,-4.748912811,1,-3.238870859,1,-8.458932877,1,-0.820929825,1,3.845059633,1,-1.705973148,1,0.210133865,1,-0.728758454,1,-0.575755477,1,1.764128208,1,-1.716987729,1,-1.323401928,1
2.356003523,-4.758468151,1,-3.713980675,1,-8.326000214,1,-0.838695049,1,3.832819223,1,-1.540193081,1,0.209575877,1,-0.712383866,1,-0.579939365,1,1.634236336,1,-2.174096107,1,-1.086266994,1
2.360005379,-4.655114651,1,-4.207872391,1,-8.259836197,1,-0.865723431,1,3.800280333,1,-1.390275598,1,0.208347768,1,-0.696226358,1,-0.583298028,1,1.61716795,1,-2.655716419,1,-0.918113232,1
2.36400342,-4.594147682,1,-4.742465019,1,-8.446639061,1,-0.899921119,1,3.735278845,1,-1.276158214,1,0.206549704,1,-0.680384338,1,-0.586023331,1,1.558473587,1,-3.183327675,1,-1.0058074,1
2.368002653,-4.846958637,1,-5.287228107,1,-8.923176765,1,-0.955052435,1,3.664359808,1,-1.190683961,1,0.20427537,1,-0.664897978,1,-0.58832562,1,1.187195778,1,-3.725874424,1,-1.386412621,1
2.372004271,-5.582055092,1,-5.840397835,1,-9.383155823,1,-1.021587253,1,3.603465796,1,-1.140532732,1,0.201584011,1,-0.649723887,1,-0.590381205,1,0.334617138,1,-4.281179428,1,-1.753380775,1
2.376002073,-6.644040585,1,-6.214237213,1,-9.726398468,1,-1.09093082,1,3.590602398,1,-1.127215385,1,0.198547423,1,-0.634725094,1,-0.592357993,1,-0.844831467,1,-4.660862923,1,-2.005782604,1
2.380001545,-7.572401524,1,-6.168797016,1,-9.91983223,1,-1.140912771,1,3.611926317,1,-1.147273421,1,0.195264965,1,-0.61972326,1,-0.594386697,1,-1.89198494,1,-4.624066353,1,-2.109686852,1
2.384002924,-7.950423717,1,-6.038178921,1,-10.13271523,1,-1.159448743,1,3.650625467,1,-1.185232282,1,0.191905379,1,-0.604577124,1,-0.596562564,1,-2.391239166,1,-4.503461838,1,-2.233870029,1
2.38800025,-8.066549301,1,-5.887533188,1,-10.1188345,1,-1.144528985,1,3.697124243,1,-1.239758015,1,0.188626096,1,-0.589217305,1,-0.598954558,1,-2.631609917,1,-4.362894058,1,-2.132061958,1
2.391999722,-7.822758198,1,-5.971218109,1,-10.00763321,1,-1.103520393,1,3.734050989,1,-1.307034254,1,0.185598403,1,-0.573656499,1,-0.60163784,1,-2.514996052,1,-4.455343723,1,-1.934132576,1
2.396001339,-7.337299824,1,-6.217740059,1,-9.722884178,1,-1.058544278,1,3.736325979,1,-1.391695142,1,0.182905465,1,-0.557970524,1,-0.604687035,1,-2.159039021,1,-4.70865345,1,-1.564459801,1
2.399998903,-6.865457535,1,-6.730868816,1,-9.481420517,1,-1.030522704,1,3.719195604,1,-1.485696912,1,0.180550709,1,-0.542259336,1,-0.608171642,1,-1.818183422,1,-5.226572037,1,-1.240438461,1
2.403998375,-6.530216217,1,-7.07060194,1,-9.335724831,1,-1.0298599,1,3.677746534,1,-1.588759065,1,0.178443998,1,-0.526603758,1,-0.612131476,1,-1.614704132,1,-5.569827557,1,-1.014843941,1
2.407999992,-6.411937714,1,-7.190753937,1,-9.135092735,1,-1.040872335,1,3.613583565,1,-1.698708534,1,0.176531926,1,-0.51109165,1,-0.616614223,1,-1.628168583,1,-5.692680836,1,-0.737298012,1
2.411998034,-6.404399872,1,-6.988890648,1,-8.965626717,1,-1.046844006,1,3.53629303,1,-1.802106261,1,0.174770236,1,-0.495787889,1,-0.621622801,1,-1.751732826,1,-5.493058681,1,-0.494098663,1
2.415997505,-6.578528881,1,-6.652923584,1,-8.752506256,1,-1.026563525,1,3.448893309,1,-1.894371629,1,0.173199892,1,-0.480746657,1,-0.627130628,1,-2.055776119,1,-5.158503532,1,-0.210661888,1
2.419998884,-6.825258255,1,-6.349459648,1,-8.520638466,1,-0.974953294,1,3.363715887,1,-1.962597728,1,0.171883106,1,-0.465999037,1,-0.633049607,1,-2.430878162,1,-4.855042458,1,0.087952614,1
2.423996687,-7.064349174,1,-6.194240093,1,-8.216042519,1,-0.897487164,1,3.273245811,1,-2.019011497,1,0.170892403,1,-0.451554716,1,-0.639284194,1,-2.796627998,1,-4.697713375,1,0.455670357,1
2.42799592,-7.074284554,1,-6.101329803,1,-8.020864487,1,-0.804582953,1,3.167953491,1,-2.053717375,1,0.170280859,1,-0.437470406,1,-0.645765364,1,-2.930923462,1,-4.600069523,1,0.71013546,1
2.432003736,-7.152451992,1,-6.062001705,1,-7.798155308,1,-0.711235642,1,3.048303366,1,-2.077592134,1,0.170029581,1,-0.423810154,1,-0.652415156,1,-3.130491734,1,-4.553497791,1,0.988193035,1
2.436007738,-7.076929569,1,-5.881646633,1,-7.65728426,1,-0.622080564,1,2.923556328,1,-2.0855937,1,0.170099258,1,-0.410631359,1,-0.659166276,1,-3.172802448,1,-4.363689423,1,1.180432796,1
2.440007448,-7.021356583,1,-5.835036755,1,-7.611558914,1,-0.529782116,1,2.770206451,1,-2.087072611,1,0.17049545,1,-0.397990316,1,-0.666005254,1,-3.23089242,1,-4.305326462,1,1.273483276,1
2.444009304,-7.170079231,1,-5.916317463,1,-7.649486542,1,-0.451665521,1,2.611667871,1,-2.077218771,1,0.171174318,1,-0.385969937,1,-0.67291379,1,-3.488259315,1,-4.372925758,1,1.278768539,1
2.448006868,-7.342238903,1,-5.896453381,1,-7.848792553,1,-0.396736085,1,2.442769527,1,-2.063066483,1,0.172063991,1,-0.374593645,1,-0.679858804,1,-3.763731718,1,-4.338047028,1,1.118780613,1
2.452012539,-7.551534653,1,-6.166623592,1,-7.92842865,1,-0.347915232,1,2.28194952,1,-2.056040525,1,0.173107207,1,-0.363865227,1,-0.686823487,1,-4.07088089,1,-4.592341423,1,1.074811935,1
2.456014395,-7.931127071,1,-6.454023361,1,-8.205153465,1,-0.329385936,1,2.127773523,1,-2.014518023,1,0.174200505,1,-0.353772581,1,-0.693767905,1,-4.54289484,1,-4.863890648,1,0.830498695,1
2.460011959,-8.146571159,1,-6.48820734,1,-8.503982544,1,-0.338770717,1,1.982927084,1,-1.974870205,1,0.175200403,1,-0.344285965,1,-0.70061022,1,-4.845524788,1,-4.88351059,1,0.561317444,1
2.464011192,-8.506576538,1,-6.411841393,1,-8.922529221,1,-0.362952054,1,1.849483848,1,-1.936544299,1,0.176056668,1,-0.335381716,1,-0.707360625,1,-5.287634373,1,-4.794298172,1,0.169974327,1
2.46801281,-9.192706108,1,-6.324036598,1,-9.312360764,1,-0.396402001,1,1.749521255,1,-1.897408605,1,0.176709026,1,-0.326965034,1,-0.714014351,1,-6.051607609,1,-4.695857048,1,-0.194565773,1
2.472010612,-9.880702019,1,-6.305160046,1,-9.508003235,1,-0.444939911,1,1.704676509,1,-1.841951489,1,0.177090555,1,-0.318853736,1,-0.72049427,1,-6.814832687,1,-4.66906786,1,-0.366051674,1
2.476010084,-10.20692348,1,-5.971471786,1,-9.799945831,1,-0.499264836,1,1.682361603,1,-1.794624686,1,0.177099273,1,-0.310865998,1,-0.726581216,1,-7.215334892,1,-4.331037998,1,-0.634195328,1
2.480011702,-10.49250412,1,-5.730469704,1,-10.34795856,1,-0.568589866,1,1.67027092,1,-1.745900989,1,0.176797882,1,-0.303021103,1,-0.732646346,1,-7.574054241,1,-4.088721275,1,-1.158892632,1
2.484009504,-11.05064774,1,-5.810796738,1,-10.73853016,1,-0.656043172,1,1.695799232,1,-1.685786963,1,0.176064074,1,-0.295207828,1,-0.73848021,1,-8.205219269,1,-4.171847343,1,-1.526093483,1
2.488008976,-11.92730427,1,-6.199417114,1,-10.95209122,1,-0.763766408,1,1.763729215,1,-1.610219002,1,0.174819693,1,-0.28725791,1,-0.744002581,1,-9.156352997,1,-4.568049908,1,-1.715637207,1
2.492010593,-12.96737099,1,-6.55089283,1,-11.39008904,1,-0.906508684,1,1.882076383,1,-1.5424366,1,0.172928631,1,-0.278984308,1,-0.749159515,1,-10.27411461,1,-4.933105469,1,-2.128298759,1
2.496008158,-14.29526329,1,-6.501591206,1,-11.71122265,1,-1.053718567,1,2.056695461,1,-1.47783041,1,0.170308918,1,-0.270206958,1,-0.753943741,1,-11.68463516,1,-4.904127598,1,-2.42228508,1
2.500007629,-15.3647871,1,-5.810486317,1,-11.88923264,1,-1.169417262,1,2.298125505,1,-1.454920173,1,0.167017475,1,-0.260643423,1,-0.758411944,1,-12.84441566,1,-4.239526749,1,-2.570894241,1
2.504009247,-15.49712658,1,-4.925514698,1,-11.74947262,1,-1.239638567,1,2.554483891,1,-1.445507407,1,0.163262352,1,-0.250124902,1,-0.762673259,1,-13.07629204,1,-3.385332584,1,-2.399654388,1
2.508006811,-14.65946484,1,-4.010605812,1,-11.35391045,1,-1.263299942,1,2.78985858,1,-1.456241608,1,0.159242794,1,-0.238619655,1,-0.76680088,1,-12.34780884,1,-2.503701925,1,-1.971100807,1
2.512012482,-13.32738209,1,-3.247964621,1,-10.73291111,1,-1.235088944,1,2.970280409,1,-1.47575438,1,0.1551736,1,-0.226300329,1,-0.770887434,1,-11.13296986,1,-1.774963975,1,-1.316625595,1
2.516014338,-12.01408672,1,-2.873309612,1,-10.00999928,1,-1.16253829,1,3.069562674,1,-1.495700359,1,0.151271105,1,-0.213429093,1,-0.775006711,1,-9.942525864,1,-1.432929754,1,-0.56089592,1
2.520012379,-10.78753853,1,-2.849933147,1,-9.231458664,1,-1.075577617,1,3.099548817,1,-1.502506018,1,0.147643819,1,-0.200313404,1,-0.779184997,1,-8.841515541,1,-1.439960718,1,0.24887085,1
2.52401185,-9.818634987,1,-2.944053888,1,-8.468002319,1,-0.989881098,1,3.051514149,1,-1.516609073,1,0.144328266,1,-0.187240615,1,-0.783452988,1,-7.998072147,1,-1.561981201,1,1.041311264,1
2.528013229,-9.004393578,1,-3.071407795,1,-7.882190704,1,-0.909633756,1,2.957836151,1,-1.528184891,1,0.141316041,1,-0.174454436,1,-0.787838221,1,-7.30684185,1,-1.714817643,1,1.653510094,1
2.532011271,-8.482466698,1,-3.185544252,1,-7.338406563,1,-0.842453659,1,2.825362921,1,-1.540690422,1,0.138570011,1,-0.162126988,1,-0.792368293,1,-6.903775215,1,-1.852355719,1,2.220982552,1
2.536010504,-8.237338066,1,-3.223854542,1,-6.921629906,1,-0.780462682,1,2.664990902,1,-1.552202106,1,0.136044785,1,-0.150404811,1,-0.797057509,1,-6.771893978,1,-1.912388921,1,2.658778191,1
2.540012121,-8.190300941,1,-3.142181396,1,-6.532735348,1,-0.710989714,1,2.491482973,1,-1.562053084,1,0.13376148,1,-0.139341339,1,-0.801888585,1,-6.831925392,1,-1.850511193,1,3.066121578,1
2.544009686,-8.179618835,1,-3.143646002,1,-6.229112148,1,-0.640791595,1,2.308773994,1,-1.574387312,1,0.131720036,1,-0.128985405,1,-0.806885958,1,-6.921615601,1,-1.869794726,1,3.385791302,1
