Time,inertial-6253.76535:estCompensatedAccelX,inertial-6253.76535:estCompensatedAccelX:valid,inertial-6253.76535:estCompensatedAccelY,inertial-6253.76535:estCompensatedAccelY:valid,inertial-6253.76535:estCompensatedAccelZ,inertial-6253.76535:estCompensatedAccelZ:valid,inertial-6253.76535:estAngularRateX,inertial-6253.76535:estAngularRateX:valid,inertial-6253.76535:estAngularRateY,inertial-6253.76535:estAngularRateY:valid,inertial-6253.76535:estAngularRateZ,inertial-6253.76535:estAngularRateZ:valid,inertial-6253.76535:estRoll,inertial-6253.76535:estRoll:valid,inertial-6253.76535:estPitch,inertial-6253.76535:estPitch:valid,inertial-6253.76535:estYaw,inertial-6253.76535:estYaw:valid
0,-3.679253578,1,-3.737676382,1,-8.224982262,1,-0.093976073,1,-0.011590979,1,0.049722996,1,0.462599397,1,-0.410449088,1,0.2757321,1
0.004001792,-3.652615309,1,-3.741579294,1,-8.267718315,1,-0.089612752,1,-0.014404424,1,0.052024338,1,0.462154329,1,-0.410592288,1,0.275903583,1
0.007999744,-3.682929754,1,-3.718403578,1,-8.296806335,1,-0.090742216,1,-0.016521668,1,0.05258112,1,0.461717397,1,-0.410744369,1,0.276076257,1
0.011999232,-3.704922676,1,-3.698118687,1,-8.287942886,1,-0.089279905,1,-0.020136198,1,0.052337892,1,0.461283237,1,-0.410910666,1,0.27624616,1
0.01600128,-3.740528107,1,-3.67374897,1,-8.324345589,1,-0.085088,1,-0.023193939,1,0.050091472,1,0.460870057,1,-0.411083937,1,0.276403636,1
0.019999232,-3.800007582,1,-3.693081141,1,-8.356688499,1,-0.081740536,1,-0.023841238,1,0.051096786,1,0.460477948,1,-0.411268085,1,0.276551723,1
0.023998721,-3.849261999,1,-3.674117088,1,-8.291030884,1,-0.078388482,1,-0.026509129,1,0.047651589,1,0.460097283,1,-0.411451221,1,0.276697814,1
0.028000511,-3.805832624,1,-3.605289936,1,-8.328708649,1,-0.073969759,1,-0.025033109,1,0.046681002,1,0.459731758,1,-0.411630303,1,0.276838273,1
0.03199821,-3.852748871,1,-3.650969028,1,-8.333838463,1,-0.070691884,1,-0.026810471,1,0.046657458,1,0.459395796,1,-0.411807626,1,0.276965499,1
0.035997696,-3.846458197,1,-3.611670017,1,-8.324476242,1,-0.063871309,1,-0.030091072,1,0.046303067,1,0.459079564,1,-0.411987364,1,0.277092695,1
0.039999489,-3.883342743,1,-3.587848425,1,-8.284795761,1,-0.062201761,1,-0.028786825,1,0.042039435,1,0.458780766,1,-0.412173837,1,0.277210951,1
0.043997183,-3.864975691,1,-3.583001614,1,-8.271827698,1,-0.057073031,1,-0.032897666,1,0.040852115,1,0.458502293,1,-0.412350446,1,0.277308196,1
0.047996927,-3.876829863,1,-3.552289009,1,-8.252296448,1,-0.053095981,1,-0.031181959,1,0.039126981,1,0.458244264,1,-0.412530273,1,0.277400255,1
0.052004863,-3.845177174,1,-3.538220644,1,-8.219362259,1,-0.049202178,1,-0.033423614,1,0.036996178,1,0.457985044,1,-0.412713706,1,0.277491629,1
0.056008704,-3.852313757,1,-3.483523369,1,-8.222387314,1,-0.042954527,1,-0.028833693,1,0.03490172,1,0.457771778,1,-0.412886858,1,0.277568102,1
0.060008705,-3.894333363,1,-3.487187624,1,-8.267687798,1,-0.038176302,1,-0.030091984,1,0.034953967,1,0.457571268,1,-0.41305837,1,0.277647674,1
0.064010493,-3.911025286,1,-3.433954477,1,-8.23743248,1,-0.034508806,1,-0.029325956,1,0.031158818,1,0.457400084,1,-0.413223326,1,0.27771464,1
0.068008192,-3.937213421,1,-3.461310625,1,-8.253248215,1,-0.023737978,1,-0.027339531,1,0.030170288,1,0.457262963,1,-0.413385928,1,0.277770638,1
0.072007939,-3.938941956,1,-3.429392815,1,-8.21282959,1,-0.023430228,1,-0.025151443,1,0.025818834,1,0.457138598,1,-0.413532704,1,0.277827412,1
0.076009728,-3.904136419,1,-3.374691963,1,-8.247483253,1,-0.012119173,1,-0.024900194,1,0.023111565,1,0.457047701,1,-0.413666666,1,0.277870417,1
0.08000768,-3.91839385,1,-3.382452726,1,-8.292825699,1,-0.011849348,1,-0.023200875,1,0.018601988,1,0.456985384,1,-0.413796186,1,0.277910531,1
0.084007166,-3.934439898,1,-3.429641008,1,-8.244577408,1,-0.001059145,1,-0.023896765,1,0.020033116,1,0.45694831,1,-0.413911194,1,0.277941912,1
0.088008702,-3.901607275,1,-3.439590931,1,-8.223842621,1,0.001853148,1,-0.02128054,1,0.017067306,1,0.455786258,1,-0.413712084,1,0.278965175,1
0.092006654,-3.90899682,1,-3.507599354,1,-8.223107338,1,0.003447217,1,-0.020907702,1,0.0083606,1,0.45579806,1,-0.413803846,1,0.278980047,1
0.096006148,-3.871622086,1,-3.509399891,1,-8.23286438,1,0.009700812,1,-0.014356985,1,0.01313296,1,0.45582065,1,-0.41389215,1,0.278988838,1
0.100007936,-3.823982239,1,-3.582922697,1,-8.196559906,1,0.010012425,1,-0.013718362,1,0.011453173,1,0.455850333,1,-0.413971186,1,0.279012084,1
0.104005888,-3.762507439,1,-3.595481634,1,-8.169398308,1,0.010366062,1,-0.016006354,1,0.008510564,1,0.455899745,1,-0.414047599,1,0.279012561,1
0.108005375,-3.757180452,1,-3.633220673,1,-8.234962463,1,0.01562175,1,-0.018501643,1,0.009043507,1,0.45595777,1,-0.414117575,1,0.279019266,1
0.112007424,-3.750173569,1,-3.676067352,1,-8.231072426,1,0.014782764,1,-0.019460989,1,0.006571541,1,0.456022859,1,-0.414197892,1,0.279024839,1
0.116005376,-3.744586468,1,-3.723827362,1,-8.23789978,1,0.013805035,1,-0.016605817,1,0.012975894,1,0.45607698,1,-0.414289236,1,0.279034138,1
0.120004863,-3.748536825,1,-3.756705761,1,-8.232897758,1,0.01155586,1,-0.017902765,1,0.013845456,1,0.456118405,1,-0.414376557,1,0.279053152,1
0.124006659,-3.78032279,1,-3.776417017,1,-8.245326042,1,0.010095438,1,-0.019102402,1,0.016115211,1,0.45615238,1,-0.414467871,1,0.279081017,1
0.128004357,-3.826799631,1,-3.748409271,1,-8.19448185,1,0.007046936,1,-0.016278049,1,0.016524104,1,0.456178367,1,-0.414561361,1,0.279099882,1
0.132003844,-3.862961531,1,-3.720155716,1,-8.203688622,1,0.002723065,1,-0.020378297,1,0.018007992,1,0.456187248,1,-0.414653867,1,0.279139638,1
0.136005625,-3.853775263,1,-3.680546761,1,-8.221262932,1,0.004026025,1,-0.011352858,1,0.019188212,1,0.456187814,1,-0.414737046,1,0.279179513,1
0.140003577,-3.838258743,1,-3.628070831,1,-8.21673584,1,0.008283786,1,-0.015962483,1,0.016420202,1,0.456192315,1,-0.414821982,1,0.279210389,1
0.144003332,-3.812227488,1,-3.584235191,1,-8.250160217,1,0.007101458,1,-0.017662367,1,0.021614619,1,0.45620352,1,-0.414908916,1,0.279247433,1
0.148005113,-3.815546513,1,-3.511072159,1,-8.242156029,1,0.011823107,1,-0.016164098,1,0.017828669,1,0.456224054,1,-0.414988101,1,0.279287755,1
0.152002811,-3.795220613,1,-3.587525129,1,-8.253164291,1,0.011575925,1,-0.018649468,1,0.019937966,1,0.456258118,1,-0.415086538,1,0.279327393,1
0.156002566,-3.817830086,1,-3.633803368,1,-8.230978966,1,0.012693113,1,-0.017377945,1,0.019396767,1,0.456287265,1,-0.415187299,1,0.279370755,1
0.160004348,-3.808790445,1,-3.675413847,1,-8.247387886,1,0.016400849,1,-0.019790452,1,0.019171055,1,0.456335366,1,-0.41528362,1,0.279392213,1
0.164002046,-3.823502302,1,-3.687328339,1,-8.222492218,1,0.014806921,1,-0.020678347,1,0.020866185,1,0.456385076,1,-0.415391535,1,0.279435396,1
0.168001786,-3.804323196,1,-3.677832603,1,-8.223581314,1,0.014882475,1,-0.023165928,1,0.020670941,1,0.45642823,1,-0.415506363,1,0.279473782,1
0.172009468,-3.797366858,1,-3.701942682,1,-8.221601486,1,0.013296846,1,-0.017067669,1,0.021774488,1,0.456469238,1,-0.415609837,1,0.279516488,1
0.176013306,-3.787494898,1,-3.687348843,1,-8.162997246,1,0.014251717,1,-0.022424724,1,0.021006234,1,0.456504434,1,-0.415733635,1,0.279568374,1
0.180013061,-3.745527744,1,-3.671500444,1,-8.230175972,1,0.013399321,1,-0.024638655,1,0.027661746,1,0.45654273,1,-0.415857971,1,0.27961427,1
0.184014842,-3.746907234,1,-3.635910034,1,-8.279732704,1,0.017962262,1,-0.023239082,1,0.02886376,1,0.456579536,1,-0.41599226,1,0.279670864,1
0.188012794,-3.746864319,1,-3.66926527,1,-8.297632217,1,0.017926328,1,-0.027753435,1,0.025038734,1,0.456632972,1,-0.416132212,1,0.279731691,1
0.192012548,-3.751472235,1,-3.688885927,1,-8.267401695,1,0.01733697,1,-0.026745889,1,0.029345613,1,0.456679821,1,-0.416274756,1,0.279790461,1
0.196014076,-3.813812494,1,-3.745638132,1,-8.26495266,1,0.017603198,1,-0.028720964,1,0.029620539,1,0.456726581,1,-0.416422844,1,0.279849887,1
0.200012028,-3.83262825,1,-3.762897253,1,-8.279201508,1,0.023662386,1,-0.025859106,1,0.029397914,1,0.456783384,1,-0.416570634,1,0.279912055,1
0.204011515,-3.799499273,1,-3.801674604,1,-8.224591255,1,0.015808355,1,-0.027093032,1,0.030069878,1,0.456832528,1,-0.416721046,1,0.279971898,1
0.208013311,-3.853322268,1,-3.756997108,1,-8.259926796,1,0.019107871,1,-0.02981675,1,0.03223497,1,0.456874967,1,-0.416871071,1,0.280042797,1
0.212011009,-3.824757099,1,-3.733695269,1,-8.276721001,1,0.01683693,1,-0.029227683,1,0.033234775,1,0.456917644,1,-0.417032123,1,0.280111849,1
0.216010496,-3.817675829,1,-3.705512762,1,-8.21969223,1,0.016259413,1,-0.028949115,1,0.032924417,1,0.456961364,1,-0.417191744,1,0.280182451,1
0.220012546,-3.90563035,1,-3.687539101,1,-8.24135685,1,0.018558208,1,-0.029491358,1,0.034968864,1,0.456998557,1,-0.417355865,1,0.280249506,1
0.224010497,-3.931086302,1,-3.658145189,1,-8.256449699,1,0.019150008,1,-0.028356511,1,0.025554897,1,0.457044095,1,-0.417514205,1,0.280308366,1
0.228009984,-3.941002607,1,-3.572191715,1,-8.240214348,1,0.019829055,1,-0.029701535,1,0.025968995,1,0.457105875,1,-0.417663157,1,0.280354142,1
0.23201178,-3.968723297,1,-3.574687243,1,-8.259139061,1,0.026733106,1,-0.0272897,1,0.022108797,1,0.457190037,1,-0.417816639,1,0.280390412,1
0.236009479,-3.975098848,1,-3.523370504,1,-8.235994339,1,0.029608047,1,-0.027909067,1,0.02040722,1,0.457288384,1,-0.417949766,1,0.280418932,1
0.240009218,-3.963994026,1,-3.617450476,1,-8.271585464,1,0.032413248,1,-0.028172558,1,0.014472407,1,0.457409829,1,-0.418083042,1,0.280439943,1
0.244011015,-3.972716331,1,-3.648201466,1,-8.228586197,1,0.037559558,1,-0.026371263,1,0.01749764,1,0.457541853,1,-0.418209851,1,0.280453175,1
0.248008698,-3.990023613,1,-3.646279812,1,-8.218547821,1,0.034846533,1,-0.023780555,1,0.013604415,1,0.457678348,1,-0.418322921,1,0.280468047,1
0.252008438,-3.963498116,1,-3.670301676,1,-8.248914719,1,0.038056709,1,-0.022814713,1,0.011982232,1,0.457826644,1,-0.418424785,1,0.280463248,1
0.256010234,-3.908471584,1,-3.647716761,1,-8.254467964,1,0.037526973,1,-0.025727265,1,0.009941166,1,0.457983285,1,-0.418532759,1,0.28045994,1
0.260007948,-3.897155523,1,-3.681278944,1,-8.237379074,1,0.037871253,1,-0.026336424,1,0.009006265,1,0.458136767,1,-0.418649346,1,0.280448079,1
0.264007419,-3.890202999,1,-3.657398939,1,-8.28144455,1,0.037688743,1,-0.025265437,1,0.007661022,1,0.458289921,1,-0.418746352,1,0.280440629,1
0.268009216,-3.878132105,1,-3.713850021,1,-8.232862473,1,0.037597746,1,-0.027048059,1,0.007979475,1,0.458452463,1,-0.418854177,1,0.280419201,1
0.272007167,-3.893684149,1,-3.708687782,1,-8.222579956,1,0.039213799,1,-0.023370124,1,0.01222612,1,0.458605945,1,-0.418954372,1,0.28041482,1
0.276006669,-3.937083006,1,-3.757927418,1,-8.205133438,1,0.03499525,1,-0.024795422,1,0.00898508,1,0.45875448,1,-0.419057697,1,0.28040424,1
0.280008435,-3.944214821,1,-3.708828688,1,-8.19751358,1,0.035259213,1,-0.022293005,1,0.00793968,1,0.458899736,1,-0.419153631,1,0.280384868,1
0.284006387,-3.954251528,1,-3.676377773,1,-8.182781219,1,0.029597696,1,-0.018034155,1,0.004845618,1,0.459043175,1,-0.419241786,1,0.280373752,1
0.288005888,-3.919535637,1,-3.684760809,1,-8.172072411,1,0.031606082,1,-0.021241713,1,0.009131702,1,0.459176183,1,-0.419318646,1,0.280363202,1
0.292013556,-3.888568163,1,-3.667606592,1,-8.224701881,1,0.036265012,1,-0.016927168,1,0.002682917,1,0.459325612,1,-0.419400305,1,0.280350864,1
0.296017408,-3.875993967,1,-3.699997902,1,-8.254701614,1,0.037079521,1,-0.018312808,1,0.006688833,1,0.459472477,1,-0.419479579,1,0.280332804,1
0.300017148,-3.873205662,1,-3.695905209,1,-8.272561073,1,0.034253895,1,-0.021285919,1,0.003197676,1,0.459628075,1,-0.419558167,1,0.280310988,1
0.304018945,-3.907263994,1,-3.75131917,1,-8.249979973,1,0.034270637,1,-0.021088298,1,0.003687261,1,0.459773839,1,-0.419640541,1,0.280283451,1
0.308016896,-3.90838623,1,-3.773994923,1,-8.262402534,1,0.029948587,1,-0.016431743,1,0.002043075,1,0.459914953,1,-0.419715732,1,0.280260682,1
0.312016398,-3.906678677,1,-3.836434841,1,-8.234127045,1,0.034479182,1,-0.019343056,1,0.006339708,1,0.460051984,1,-0.419796348,1,0.280239165,1
0.316018164,-3.886327982,1,-3.816831589,1,-8.231722832,1,0.028299697,1,-0.017377282,1,0.005732989,1,0.460175037,1,-0.419874161,1,0.280227542,1
0.320016116,-3.89899087,1,-3.793944836,1,-8.21325016,1,0.025572097,1,-0.018586,1,0.008796973,1,0.460285962,1,-0.419952393,1,0.280215204,1
0.324015617,-3.89030838,1,-3.794226885,1,-8.199644089,1,0.020496437,1,-0.017346092,1,0.010650548,1,0.460388303,1,-0.420037627,1,0.280211389,1
0.328017414,-3.87867856,1,-3.796154737,1,-8.204323769,1,0.020926846,1,-0.020703942,1,0.012224155,1,0.46047467,1,-0.420121551,1,0.280217081,1
0.332015365,-3.897500038,1,-3.786528826,1,-8.206144333,1,0.018630596,1,-0.015814843,1,0.012229417,1,0.460549772,1,-0.42020613,1,0.28022784,1
0.336015105,-3.909759998,1,-3.799680948,1,-8.164307594,1,0.014961609,1,-0.016828796,1,0.012873985,1,0.459612846,1,-0.419924319,1,0.281231523,1
0.340016901,-3.936835766,1,-3.781113863,1,-8.151898384,1,0.014453873,1,-0.018636212,1,0.008843102,1,0.459693313,1,-0.419911295,1,0.28105402,1
0.344014585,-3.952057838,1,-3.684242725,1,-8.137491226,1,0.01210243,1,-0.011126081,1,0.009111444,1,0.459734201,1,-0.419980258,1,0.281066716,1
0.348014325,-3.924926996,1,-3.6434865,1,-8.167898178,1,0.012343546,1,-0.011889651,1,0.011213856,1,0.459770322,1,-0.420042098,1,0.2810812,1
0.352016121,-3.913131475,1,-3.613451004,1,-8.183273315,1,0.01304392,1,-0.013232853,1,0.007657543,1,0.459817767,1,-0.420102894,1,0.281089008,1
0.356013834,-3.903516531,1,-3.599699259,1,-8.228769302,1,0.013953626,1,-0.009115983,1,0.006538237,1,0.459865183,1,-0.420154542,1,0.281097949,1
0.360013574,-3.883479118,1,-3.606006861,1,-8.202350616,1,0.015008783,1,-0.012005271,1,0.006232622,1,0.459922224,1,-0.42020604,1,0.281105757,1
0.364015371,-3.89342308,1,-3.636265516,1,-8.222182274,1,0.020552518,1,-0.015258815,1,0.004388037,1,0.459992647,1,-0.420261055,1,0.281106114,1
0.368013561,-3.904578686,1,-3.689229727,1,-8.207726479,1,0.017263807,1,-0.012817554,1,0.004838199,1,0.460070282,1,-0.420317352,1,0.281096816,1
0.372013301,-3.92282176,1,-3.731347084,1,-8.178614616,1,0.020305788,1,-0.012004331,1,0.005897074,1,0.460151315,1,-0.420371413,1,0.281088829,1
0.376015097,-3.945007324,1,-3.753391743,1,-8.188908577,1,0.018953573,1,-0.010119598,1,0.001980727,1,0.46023351,1,-0.420414478,1,0.281085551,1
0.380013049,-3.893488884,1,-3.778674841,1,-8.213293076,1,0.020720219,1,-0.008557824,1,0.003573506,1,0.460319877,1,-0.420449913,1,0.281076372,1
0.384012789,-3.84744668,1,-3.764550686,1,-8.2015028,1,0.019512434,1,-0.007583184,1,0.007567081,1,0.460398823,1,-0.420490235,1,0.281069905,1
0.388014585,-3.88768816,1,-3.746776819,1,-8.213643074,1,0.016478451,1,-0.012101585,1,0.005105953,1,0.460469455,1,-0.420527339,1,0.281071097,1
0.392012537,-3.916659117,1,-3.72431469,1,-8.215133667,1,0.018743493,1,-0.007074612,1,0.005306511,1,0.460545868,1,-0.420568019,1,0.281064689,1
0.396012276,-3.892611504,1,-3.668480635,1,-8.23925972,1,0.016274646,1,-0.009544106,1,0.004392695,1,0.460615516,1,-0.420602828,1,0.28106612,1
0.400014073,-3.896044731,1,-3.679074526,1,-8.219834328,1,0.02512357,1,-0.010202594,1,0.000117787,1,0.460698426,1,-0.420640528,1,0.281059384,1
0.404012024,-3.912147999,1,-3.643004179,1,-8.197715759,1,0.0238622,1,-0.010634286,1,0.004833186,1,0.460800707,1,-0.420681864,1,0.281045377,1
0.408011526,-3.861752987,1,-3.641573191,1,-8.212711334,1,0.022615643,1,-0.011544593,1,0.003846373,1,0.460897505,1,-0.420723647,1,0.281040609,1
0.412019461,-3.897171021,1,-3.671619654,1,-8.178333282,1,0.024371536,1,-0.011974374,1,0.003804876,1,0.461001158,1,-0.420762122,1,0.281023741,1
0.416023284,-3.837497711,1,-3.66449213,1,-8.232429504,1,0.031826537,1,-0.014597099,1,0.003458124,1,0.461122274,1,-0.420812011,1,0.281010628,1
0.420023054,-3.851176739,1,-3.703091145,1,-8.264239311,1,0.03190713,1,-0.014130654,1,0.003838693,1,0.461247146,1,-0.420874536,1,0.280997694,1
0.42402482,-3.859196186,1,-3.700045347,1,-8.255475998,1,0.029105837,1,-0.015820934,1,0.005301614,1,0.461385339,1,-0.420942485,1,0.280975014,1
0.428022772,-3.850804806,1,-3.678051233,1,-8.2252388,1,0.031723548,1,-0.018597456,1,0.002674182,1,0.461515456,1,-0.4210186,1,0.2809591,1
0.432022274,-3.871212482,1,-3.721131325,1,-8.234013557,1,0.034732055,1,-0.018269433,1,0.006812387,1,0.461648434,1,-0.421104789,1,0.28094238,1
0.43602407,-3.948875427,1,-3.738507509,1,-8.222104073,1,0.0315703,1,-0.020398447,1,0.002172848,1,0.461784691,1,-0.421182424,1,0.280929983,1
0.440021753,-3.917995691,1,-3.698563099,1,-8.204743385,1,0.033000741,1,-0.020041322,1,0.003222786,1,0.461923629,1,-0.421258211,1,0.28090778,1
0.444021493,-3.951880932,1,-3.724998236,1,-8.208378792,1,0.035314642,1,-0.019982865,1,0.005271703,1,0.462067336,1,-0.421342194,1,0.280885696,1
0.448023558,-3.919263601,1,-3.711495638,1,-8.175840378,1,0.02916427,1,-0.017492361,1,0.002385066,1,0.46221602,1,-0.421412349,1,0.280864596,1
0.452021509,-3.900819778,1,-3.733199358,1,-8.206706047,1,0.036418792,1,-0.018139428,1,0.001985595,1,0.462353796,1,-0.42147857,1,0.280839384,1
0.456021249,-3.953083754,1,-3.758885145,1,-8.15281105,1,0.033702664,1,-0.015982164,1,0.003653823,1,0.462505698,1,-0.421542823,1,0.280814916,1
0.460023046,-3.936005116,1,-3.75306201,1,-8.183950424,1,0.031653773,1,-0.014257645,1,0.001840926,1,0.462640226,1,-0.421606272,1,0.280795276,1
0.464020729,-3.950106621,1,-3.765223265,1,-8.147971153,1,0.028796066,1,-0.014115103,1,0.001543659,1,0.462774664,1,-0.421658516,1,0.280774713,1
0.468020231,-3.935287476,1,-3.809342623,1,-8.16471386,1,0.031657837,1,-0.014905432,1,-0.001445643,1,0.462899297,1,-0.421711981,1,0.28075099,1
0.472022027,-3.880363941,1,-3.757487535,1,-8.17695713,1,0.030958854,1,-0.010453042,1,-0.00094974,1,0.463038653,1,-0.421759367,1,0.280720502,1
0.476019979,-3.91122818,1,-3.752484322,1,-8.202727318,1,0.029330263,1,-0.0128408,1,0.002286274,1,0.463169932,1,-0.421803594,1,0.28069362,1
0.480019718,-3.90122509,1,-3.728120327,1,-8.189570427,1,0.028756641,1,-0.015752114,1,-0.003857468,1,0.463292241,1,-0.421853006,1,0.280665755,1
0.484021515,-3.910955906,1,-3.758562326,1,-8.170342445,1,0.029770864,1,-0.012337534,1,-0.002342686,1,0.463423699,1,-0.421899617,1,0.280628502,1
0.488019705,-3.955487013,1,-3.745368481,1,-8.221428871,1,0.02857431,1,-0.008310996,1,-0.003071091,1,0.463558197,1,-0.421933234,1,0.280598074,1
0.492019445,-3.960002899,1,-3.710861921,1,-8.160297394,1,0.030764967,1,-0.009349683,1,-0.000299384,1,0.463689446,1,-0.42196691,1,0.28057009,1
0.496021003,-3.923206329,1,-3.744121313,1,-8.184528351,1,0.028339751,1,-0.009859122,1,-0.005390054,1,0.463819951,1,-0.42198813,1,0.280531883,1
0.500018716,-3.973122597,1,-3.728616714,1,-8.195406914,1,0.030683286,1,-0.004594524,1,-0.003834515,1,0.4639498,1,-0.422009021,1,0.280501842,1
0.504018188,-3.945774317,1,-3.732028961,1,-8.179743767,1,0.023651475,1,-0.003016751,1,-0.005733599,1,0.464069873,1,-0.42201665,1,0.280474752,1
0.508019984,-3.962340593,1,-3.742135763,1,-8.172780991,1,0.028600721,1,-0.001936365,1,-0.00561885,1,0.464191437,1,-0.422015697,1,0.280440927,1
0.512017906,-4.008514881,1,-3.748166561,1,-8.158353806,1,0.031558238,1,-0.00253933,1,-0.002264226,1,0.464312732,1,-0.422007948,1,0.280422509,1
0.516017675,-4.0224967,1,-3.721897125,1,-8.167266846,1,0.022612484,1,0.000386024,1,-0.009481722,1,0.464424282,1,-0.421997815,1,0.280397415,1
0.520019472,-3.98786211,1,-3.72033143,1,-8.159526825,1,0.03018629,1,0.003489643,1,-0.00765751,1,0.464534789,1,-0.421978712,1,0.280376852,1
0.524017155,-3.974040747,1,-3.728536129,1,-8.171660423,1,0.026329929,1,0.003745934,1,-0.00800225,1,0.4646523,1,-0.421952039,1,0.280357331,1
0.528016627,-3.954598904,1,-3.704332113,1,-8.211526871,1,0.026675163,1,0.004012797,1,-0.006868544,1,0.464766562,1,-0.421925247,1,0.280341268,1
0.532024562,-3.968961716,1,-3.735963345,1,-8.179483414,1,0.026205836,1,0.007735222,1,-0.006221774,1,0.464887828,1,-0.421885759,1,0.280323684,1
0.536028445,-3.929929733,1,-3.788396358,1,-8.192713737,1,0.026759656,1,0.006711618,1,-0.008001252,1,0.46499458,1,-0.421846986,1,0.280302614,1
0.540028393,-3.936358452,1,-3.832764149,1,-8.181166649,1,0.029260948,1,0.01063312,1,-0.00802991,1,0.465110302,1,-0.421800017,1,0.280287653,1
0.54403019,-3.909956455,1,-3.848434925,1,-8.199206352,1,0.023093855,1,0.006580178,1,-0.009856519,1,0.465221256,1,-0.421757638,1,0.280271173,1
0.548027933,-3.891311407,1,-3.811082602,1,-8.190891266,1,0.023858713,1,0.008251142,1,-0.011504207,1,0.465328038,1,-0.421717823,1,0.280242294,1
0.552027643,-3.886727333,1,-3.787148714,1,-8.203986168,1,0.020062724,1,0.008275357,1,-0.010142474,1,0.465424269,1,-0.421674371,1,0.280219376,1
0.556029439,-3.892903805,1,-3.79729557,1,-8.195067406,1,0.018771879,1,0.007566405,1,-0.007580027,1,0.465519339,1,-0.421631902,1,0.280203998,1
0.560027122,-3.878010988,1,-3.783733845,1,-8.204851151,1,0.023113353,1,0.009098113,1,-0.010768855,1,0.465615034,1,-0.421588361,1,0.280185521,1
0.564026654,-3.903973341,1,-3.770461082,1,-8.205140114,1,0.017326958,1,0.007756125,1,-0.007096326,1,0.46570164,1,-0.421548277,1,0.280168831,1
0.56802839,-3.922696114,1,-3.741155624,1,-8.205245018,1,0.019857299,1,0.005114448,1,-0.010277673,1,0.465795606,1,-0.421513438,1,0.280142844,1
0.572026372,-3.894106865,1,-3.711431265,1,-8.207701683,1,0.019236548,1,0.004694369,1,-0.005271404,1,0.46587801,1,-0.421484739,1,0.28013128,1
0.576026142,-3.915303707,1,-3.728450298,1,-8.190371513,1,0.021670097,1,0.008793928,1,-0.009512243,1,0.465964526,1,-0.421443045,1,0.280114055,1
0.580027878,-3.923007488,1,-3.756579876,1,-8.217411041,1,0.025385771,1,0.005488627,1,-0.005176758,1,0.466059029,1,-0.421405524,1,0.280086815,1
0.58402586,-3.926882744,1,-3.745827198,1,-8.184588432,1,0.016415251,1,0.005348611,1,-0.009335171,1,0.466152489,1,-0.421370685,1,0.280067742,1
0.588025331,-3.916229486,1,-3.742097855,1,-8.172338486,1,0.020651046,1,0.003686428,1,-0.006029182,1,0.465313166,1,-0.42092526,1,0.280792177,1
0.592027128,-3.905137539,1,-3.796711445,1,-8.189393997,1,0.020933682,1,0.006635104,1,-0.007381798,1,0.46539855,1,-0.420893669,1,0.280777365,1
0.596025109,-3.855822086,1,-3.747003794,1,-8.188435555,1,0.021670176,1,0.005913576,1,-0.006874539,1,0.465486884,1,-0.420857668,1,0.280759573,1
0.600024819,-3.868069649,1,-3.709424496,1,-8.205919266,1,0.022363164,1,0.00262528,1,-0.004855578,1,0.465583265,1,-0.420833349,1,0.280741602,1
0.604026854,-3.869109154,1,-3.773712397,1,-8.188767433,1,0.022101978,1,0.003930948,1,-0.008550283,1,0.465682387,1,-0.42080304,1,0.280722231,1
0.608024836,-3.898991346,1,-3.767437935,1,-8.201231003,1,0.020763434,1,0.002698441,1,-0.004107166,1,0.465778917,1,-0.420787841,1,0.280706286,1
0.612024605,-3.913427591,1,-3.767502069,1,-8.177069664,1,0.019418344,1,0.005131616,1,-0.00664415,1,0.465866983,1,-0.420759976,1,0.280685842,1
0.616026342,-3.907533169,1,-3.765899658,1,-8.156642914,1,0.020385377,1,0.00356945,1,-0.009867413,1,0.465962827,1,-0.420731872,1,0.280662119,1
0.620024085,-3.911478281,1,-3.768648624,1,-8.178859711,1,0.022331167,1,0.003087754,1,-0.008068103,1,0.466056585,1,-0.420699507,1,0.280635953,1
0.624023557,-3.884253263,1,-3.78538537,1,-8.173942566,1,0.016337601,1,0.005808679,1,-0.007869713,1,0.466154248,1,-0.420666575,1,0.280613363,1
0.628025591,-3.902745724,1,-3.78467679,1,-8.149027824,1,0.019329865,1,0.005804495,1,-0.004111892,1,0.46624586,1,-0.420625746,1,0.280592114,1
0.632023573,-3.903753519,1,-3.817998886,1,-8.174188614,1,0.017791681,1,0.005941478,1,-0.002608087,1,0.466321439,1,-0.420595348,1,0.280585229,1
0.636023581,-3.90483737,1,-3.812946558,1,-8.15021801,1,0.012093908,1,0.005526432,1,-0.005071052,1,0.466394633,1,-0.420560837,1,0.280572891,1
0.640025318,-3.893739223,1,-3.800368309,1,-8.151404381,1,0.01517193,1,0.010743579,1,-0.004112492,1,0.466453761,1,-0.42051658,1,0.280575007,1
0.644023299,-3.890977621,1,-3.846697092,1,-8.17618084,1,0.013548071,1,0.009398147,1,-0.007964673,1,0.466513813,1,-0.420473695,1,0.280571014,1
0.648023069,-3.917998552,1,-3.830082178,1,-8.154923439,1,0.014033985,1,0.006006961,1,-0.004329178,1,0.466569632,1,-0.42044124,1,0.280563176,1
0.652024567,-3.897650003,1,-3.787530899,1,-8.19608593,1,0.014330507,1,0.010320794,1,-0.003253751,1,0.466623515,1,-0.420401543,1,0.28056851,1
0.65602839,-3.881272078,1,-3.76986146,1,-8.22716713,1,0.012542651,1,0.003606456,1,-0.00590425,1,0.466673076,1,-0.420367986,1,0.280566335,1
0.660028398,-3.874965429,1,-3.754263401,1,-8.215723038,1,0.015804172,1,0.007459616,1,-0.003048013,1,0.466737837,1,-0.420341045,1,0.280565351,1
0.664030194,-3.873526096,1,-3.791807652,1,-8.198187828,1,0.01469728,1,0.003656155,1,-0.00301344,1,0.466796458,1,-0.420315027,1,0.280562371,1
0.668028176,-3.894385576,1,-3.739934683,1,-8.201014519,1,0.015148696,1,7.33E-05,1,-0.004767405,1,0.466868341,1,-0.420295686,1,0.280551016,1
0.672027886,-3.862712622,1,-3.717975616,1,-8.219985008,1,0.020246319,1,0.000586612,1,-0.00226171,1,0.466939032,1,-0.420286119,1,0.280543685,1
0.676029682,-3.867858648,1,-3.744509935,1,-8.222617149,1,0.020813331,1,-0.000266005,1,-0.002753979,1,0.467015833,1,-0.420283616,1,0.280533463,1
0.680027664,-3.877129078,1,-3.734817982,1,-8.204371452,1,0.021373782,1,-0.002115398,1,-0.00394074,1,0.467105925,1,-0.420278132,1,0.280523896,1
0.684027374,-3.864429951,1,-3.77974844,1,-8.208464622,1,0.020870233,1,-0.008129298,1,-0.003986757,1,0.467197537,1,-0.420272887,1,0.280500352,1
0.68802917,-3.882688999,1,-3.774324417,1,-8.210906029,1,0.021138232,1,0.001487879,1,-0.001165536,1,0.467294216,1,-0.420275211,1,0.280477792,1
0.692027152,-3.850064039,1,-3.746147156,1,-8.21291256,1,0.025764074,1,-0.004697311,1,-0.003078908,1,0.467380077,1,-0.420278192,1,0.280463964,1
0.696026862,-3.903623819,1,-3.759856462,1,-8.184541702,1,0.021552008,1,-0.005712199,1,-0.000374399,1,0.467478007,1,-0.4202829,1,0.280446947,1
0.700028658,-3.905775785,1,-3.777531147,1,-8.203794479,1,0.022649538,1,-0.00387467,1,-0.006499549,1,0.467579663,1,-0.420294046,1,0.280424953,1
0.704026639,-3.898741484,1,-3.816302061,1,-8.172904015,1,0.022405559,1,-0.00430786,1,-0.005572181,1,0.467680097,1,-0.420304656,1,0.280398101,1
0.708026111,-3.898766041,1,-3.804357529,1,-8.152503967,1,0.019035436,1,-0.002425614,1,-0.001002316,1,0.467772752,1,-0.420312941,1,0.280374318,1
0.712027907,-3.866343498,1,-3.813426971,1,-8.156931877,1,0.019956836,1,-0.006443324,1,-0.002757772,1,0.467857182,1,-0.420319617,1,0.28035742,1
0.716025829,-3.917802334,1,-3.779610395,1,-8.159879684,1,0.017676879,1,-0.005880081,1,-0.004402807,1,0.467943937,1,-0.420328856,1,0.280338883,1
0.720025599,-3.922986984,1,-3.801390171,1,-8.157653809,1,0.025185231,1,-0.002979771,1,-0.002225836,1,0.468031526,1,-0.420341969,1,0.280317634,1
0.724027395,-3.897042513,1,-3.744809866,1,-8.179133415,1,0.018626211,1,-0.005098443,1,-0.005458105,1,0.468120486,1,-0.420347214,1,0.280302227,1
0.728025079,-3.86913681,1,-3.824700594,1,-8.155422211,1,0.020920917,1,0.001016398,1,-0.00103621,1,0.468203992,1,-0.420348704,1,0.280287385,1
0.732024848,-3.907404661,1,-3.859551668,1,-8.153326035,1,0.017740592,1,-0.003609295,1,-0.004696711,1,0.468292445,1,-0.420343429,1,0.280269355,1
0.736026645,-3.856683731,1,-3.842062712,1,-8.17024231,1,0.014913185,1,-0.000238736,1,-0.005547078,1,0.468366474,1,-0.420341045,1,0.280246764,1
0.740024328,-3.912485838,1,-3.826820374,1,-8.161271095,1,0.016564928,1,-0.003681103,1,-0.004257614,1,0.46844396,1,-0.420343369,1,0.280225396,1
0.744024038,-3.901224613,1,-3.863639355,1,-8.141987801,1,0.012174133,1,0.003245643,1,-0.002604065,1,0.468508959,1,-0.420335919,1,0.280213118,1
0.748026371,-3.901438475,1,-3.770013094,1,-8.179935455,1,0.010680357,1,0.000772999,1,0.000476933,1,0.468556613,1,-0.42032963,1,0.280217797,1
0.752024591,-3.934976816,1,-3.753871679,1,-8.175282478,1,0.009441264,1,0.001423497,1,-0.001208384,1,0.468603194,1,-0.420323521,1,0.280215919,1
0.756024301,-3.904767036,1,-3.789090157,1,-8.18491745,1,0.01451532,1,0.003330009,1,0.002638587,1,0.468653202,1,-0.42031312,1,0.280218452,1
0.760026097,-3.901946306,1,-3.756514311,1,-8.124903679,1,0.014112528,1,0.00052856,1,-0.002705889,1,0.468699276,1,-0.420298457,1,0.280219376,1
0.764024079,-3.953357458,1,-3.761646271,1,-8.175377846,1,0.008363186,1,0.002759061,1,-0.001468599,1,0.468743652,1,-0.420280278,1,0.280219078,1
0.768023789,-3.892652988,1,-3.767531395,1,-8.185839653,1,0.011554629,1,0.001521892,1,-0.002907444,1,0.468789637,1,-0.420266837,1,0.280216098,1
0.772025347,-3.901161671,1,-3.726890326,1,-8.166609764,1,0.015667316,1,0.006303722,1,0.000180634,1,0.468848109,1,-0.420246005,1,0.280214727,1
0.77602917,-3.89226079,1,-3.738801003,1,-8.200575829,1,0.016223373,1,0.002130864,1,0.000794942,1,0.468901962,1,-0.42022562,1,0.280218005,1
0.780029178,-3.906048775,1,-3.763823271,1,-8.232715607,1,0.014530295,1,0.003729731,1,-0.000951066,1,0.468969285,1,-0.420205295,1,0.280216455,1
0.784030974,-3.896010637,1,-3.807400942,1,-8.198184967,1,0.013586304,1,0.001920064,1,-0.006644694,1,0.46903041,1,-0.420191288,1,0.2802203,1
0.788028955,-3.87480092,1,-3.80785799,1,-8.156619072,1,0.015256064,1,0.007319367,1,-0.003827044,1,0.469101071,1,-0.420168877,1,0.280207336,1
0.792028666,-3.870487928,1,-3.832195759,1,-8.185681343,1,0.014304494,1,0.000997052,1,-0.002280217,1,0.469165981,1,-0.420153797,1,0.28020668,1
0.796030462,-3.891461611,1,-3.810242176,1,-8.206995964,1,0.018835079,1,0.004233455,1,-0.003349208,1,0.46923399,1,-0.420145452,1,0.280204773,1
0.800028145,-3.895808458,1,-3.816297054,1,-8.175880432,1,0.013667377,1,-0.001080953,1,-0.002763509,1,0.469296098,1,-0.420134366,1,0.280202627,1
0.804027677,-3.910104036,1,-3.814156771,1,-8.133184433,1,0.012171691,1,0.002791549,1,-0.00107773,1,0.469359428,1,-0.420127451,1,0.280196428,1
0.808029413,-3.8861413,1,-3.846963882,1,-8.163631439,1,0.016639169,1,0.003687548,1,0.002338086,1,0.469416857,1,-0.420121282,1,0.28020668,1
0.812027395,-3.854847908,1,-3.873756647,1,-8.137368202,1,0.013510638,1,0.004990573,1,0.000318585,1,0.469469726,1,-0.420105457,1,0.280204594,1
0.816027164,-3.902706385,1,-3.807294846,1,-8.17532444,1,0.011511923,1,0.001995328,1,-0.000331788,1,0.469520718,1,-0.420088768,1,0.280211896,1
0.820028901,-3.900377274,1,-3.793889523,1,-8.183673859,1,0.012257642,1,0.001081451,1,-0.004948229,1,0.4695687,1,-0.420071661,1,0.2802127,1
0.824026644,-3.894338131,1,-3.758163929,1,-8.185210228,1,0.012597309,1,0.006159496,1,-0.001206332,1,0.469616622,1,-0.420054257,1,0.280208141,1
0.828026354,-3.911998034,1,-3.755912781,1,-8.204367638,1,0.011519551,1,0.00186856,1,-0.001441359,1,0.469668508,1,-0.420036614,1,0.280211151,1
0.832028151,-3.898859024,1,-3.762690306,1,-8.154492378,1,0.01421227,1,0.005965778,1,-0.000403542,1,0.469718933,1,-0.420020938,1,0.280214667,1
0.836025834,-3.899435759,1,-3.788812399,1,-8.166318893,1,0.012083933,1,0.003432319,1,-0.004327622,1,0.468865722,1,-0.419635773,1,0.281105816,1
0.840025842,-3.899522543,1,-3.758965969,1,-8.174009323,1,0.0144646,1,0.002119416,1,-0.002866976,1,0.468942642,1,-0.419527441,1,0.280893803,1
0.844027638,-3.915472746,1,-3.768362999,1,-8.155759811,1,0.016396889,1,0.005091138,1,-0.002173357,1,0.469001204,1,-0.419500202,1,0.280885905,1
0.848025322,-3.894817114,1,-3.767664909,1,-8.156071663,1,0.014789479,1,0.004573086,1,-0.002892471,1,0.469060242,1,-0.419471204,1,0.280881226,1
0.852025092,-3.923840523,1,-3.768867731,1,-8.164536476,1,0.017489629,1,0.003905216,1,-0.000846983,1,0.46911478,1,-0.419455796,1,0.280884892,1
0.856026888,-3.850295782,1,-3.788236141,1,-8.161203384,1,0.014006561,1,0.006889515,1,-0.002589811,1,0.469169647,1,-0.419435859,1,0.280888468,1
0.86002481,-3.866601229,1,-3.758913279,1,-8.168517113,1,0.018604659,1,0.002924892,1,-0.004110138,1,0.469220817,1,-0.419414729,1,0.280893326,1
0.86402458,-3.879417181,1,-3.808730602,1,-8.171384811,1,0.012479914,1,0.007377051,1,-0.003944717,1,0.469285965,1,-0.419400305,1,0.280887961,1
0.868026376,-3.860892534,1,-3.805294752,1,-8.142920494,1,0.015538812,1,0.00363967,1,-0.004160686,1,0.469347298,1,-0.419382513,1,0.280871928,1
0.872024298,-3.895328999,1,-3.789697647,1,-8.143714905,1,0.014993557,1,-0.000145445,1,-0.001484566,1,0.469412774,1,-0.419363171,1,0.28086561,1
0.876024067,-3.879747391,1,-3.853653193,1,-8.168410301,1,0.014625273,1,0.008566675,1,-0.005813411,1,0.469472408,1,-0.419341892,1,0.280862153,1
0.880025625,-3.88840723,1,-3.843822479,1,-8.179151535,1,0.012902251,1,0.006060298,1,-0.005349999,1,0.469537973,1,-0.419316173,1,0.280854434,1
0.884023547,-3.855346441,1,-3.833678961,1,-8.165547371,1,0.016227158,1,0.004937632,1,-0.00317305,1,0.469605744,1,-0.419295788,1,0.280843437,1
0.888023317,-3.864435911,1,-3.810514688,1,-8.208030701,1,0.014160444,1,0.007520778,1,0.000342719,1,0.469669223,1,-0.419266075,1,0.280847609,1
0.892025113,-3.884324789,1,-3.823168755,1,-8.185625076,1,0.016320817,1,0.008433927,1,-0.003745278,1,0.469730139,1,-0.419239938,1,0.280847162,1
0.896028936,-3.872334003,1,-3.782010794,1,-8.169326782,1,0.017141989,1,0.004334194,1,-0.003151827,1,0.469789863,1,-0.419213712,1,0.280857354,1
0.900028646,-3.890249014,1,-3.817536116,1,-8.200775146,1,0.015008567,1,0.006173422,1,-0.005895616,1,0.469859838,1,-0.419183582,1,0.280848533,1
0.904030442,-3.891845942,1,-3.783859015,1,-8.208871841,1,0.016012199,1,0.004039498,1,-0.002448593,1,0.469923884,1,-0.419161886,1,0.280837119,1
0.908028424,-3.87012887,1,-3.804239511,1,-8.198410034,1,0.019635627,1,0.007888067,1,-0.005046061,1,0.469991982,1,-0.419138044,1,0.280834436,1
0.912028134,-3.886181116,1,-3.857461452,1,-8.206171036,1,0.01626143,1,0.002946958,1,-0.001102768,1,0.470065296,1,-0.419116229,1,0.280836642,1
0.91602993,-3.874709845,1,-3.836497784,1,-8.202876091,1,0.014867648,1,0.003844006,1,-0.003429789,1,0.470125347,1,-0.419092178,1,0.28083086,1
0.920027673,-3.887380838,1,-3.82709074,1,-8.162534714,1,0.01715727,1,0.005498406,1,-0.004406771,1,0.470193923,1,-0.419071972,1,0.280830264,1
0.924027622,-3.869828224,1,-3.846856356,1,-8.197833061,1,0.016219759,1,0.00668567,1,-0.001674219,1,0.470252901,1,-0.419053048,1,0.280832678,1
0.928029716,-3.877381802,1,-3.857138634,1,-8.160140991,1,0.015991496,1,0.001630275,1,0.002501051,1,0.470304728,1,-0.419039607,1,0.28084147,1
0.932027876,-3.870370388,1,-3.848751783,1,-8.160802841,1,0.01472629,1,0.005091307,1,-0.000560848,1,0.470361263,1,-0.419024795,1,0.280840486,1
0.936027646,-3.883594513,1,-3.801063299,1,-8.173010826,1,0.009444328,1,0.003057984,1,0.00146752,1,0.470414311,1,-0.41901207,1,0.280846506,1
0.940029442,-3.89318347,1,-3.795990229,1,-8.147950172,1,0.012864339,1,0.003430771,1,-0.000756515,1,0.470458567,1,-0.419001341,1,0.280852437,1
0.944027126,-3.841896772,1,-3.81765914,1,-8.16809082,1,0.00787739,1,0.001994874,1,0.002695759,1,0.470496625,1,-0.418987513,1,0.280869603,1
0.948026896,-3.881822348,1,-3.839259863,1,-8.178833008,1,0.015517151,1,0.004897123,1,0.005051498,1,0.470547915,1,-0.418984413,1,0.28087914,1
0.952028692,-3.860967398,1,-3.831063509,1,-8.149302483,1,0.010290836,1,0.000311942,1,-0.001432228,1,0.470591307,1,-0.418970495,1,0.28089276,1
0.956026614,-3.862127781,1,-3.851593018,1,-8.171578407,1,0.013327121,1,0.002244454,1,0.002185616,1,0.470634162,1,-0.418969214,1,0.280895591,1
0.960026383,-3.870285034,1,-3.873321533,1,-8.177647591,1,0.008519158,1,-0.000287136,1,-0.0002455,1,0.470670551,1,-0.418969333,1,0.280908167,1
0.96402818,-3.849706173,1,-3.863177538,1,-8.195425034,1,0.01248488,1,0.001392353,1,0.004127512,1,0.470706373,1,-0.418967128,1,0.280916691,1
0.968026102,-3.866405249,1,-3.862009764,1,-8.187601089,1,0.006469152,1,0.001636725,1,0.005726076,1,0.47074458,1,-0.418973714,1,0.280928701,1
0.972025871,-3.850661516,1,-3.869018555,1,-8.171713829,1,0.007321663,1,-0.000675666,1,0.004847797,1,0.470764339,1,-0.418973684,1,0.28094852,1
0.976027369,-3.863606215,1,-3.83732605,1,-8.196888924,1,0.002049164,1,-0.000493441,1,0.004341974,1,0.470786035,1,-0.418983638,1,0.280962408,1
0.980025351,-3.857437611,1,-3.840526104,1,-8.171048164,1,0.007117262,1,-0.002103631,1,0.004903093,1,0.470804244,1,-0.418994069,1,0.280982167,1
0.984025061,-3.876234531,1,-3.849324942,1,-8.196325302,1,0.005475712,1,-0.000879527,1,0.006591492,1,0.470827669,1,-0.419005692,1,0.281004012,1
0.988026857,-3.861851454,1,-3.846860409,1,-8.202553749,1,0.008258805,1,-0.00195497,1,0.006438002,1,0.470844746,1,-0.419015735,1,0.281025708,1
0.992024839,-3.882100582,1,-3.820411921,1,-8.204907417,1,0.004222499,1,-0.002515611,1,0.00429029,1,0.470862478,1,-0.419040471,1,0.281046212,1
0.996024549,-3.879662752,1,-3.833027601,1,-8.165277481,1,0.007421316,1,-0.004397973,1,0.002869596,1,0.470887125,1,-0.419055164,1,0.281056523,1
1.000026345,-3.887151957,1,-3.792371511,1,-8.190127373,1,0.00861944,1,-0.00299999,1,0.007629958,1,0.470914692,1,-0.41908133,1,0.281070173,1
1.004024029,-3.926576376,1,-3.810823441,1,-8.180908203,1,0.010231749,1,-0.004815221,1,0.004428742,1,0.470934629,1,-0.419104338,1,0.28109628,1
1.0080235,-3.87547946,1,-3.813289165,1,-8.179206848,1,0.003878398,1,-0.006858497,1,0.008005441,1,0.470965862,1,-0.419135749,1,0.281111121,1
1.012025356,-3.866268873,1,-3.87105608,1,-8.174158096,1,0.008549822,1,-0.002801037,1,0.007674567,1,0.470987111,1,-0.419168293,1,0.281133115,1
1.016029239,-3.851906061,1,-3.842853785,1,-8.167362213,1,0.004424525,1,-0.004649086,1,0.008600079,1,0.471012861,1,-0.41920194,1,0.281151533,1
1.020029187,-3.907477856,1,-3.829385996,1,-8.14812851,1,0.004773555,1,-0.004645942,1,0.00556358,1,0.471021891,1,-0.419234395,1,0.281175137,1
1.024030924,-3.862797499,1,-3.828287601,1,-8.168642044,1,0.001191307,1,-0.005728637,1,0.010598956,1,0.471035868,1,-0.419267297,1,0.281195253,1
1.028028727,-3.88243556,1,-3.768519878,1,-8.185703278,1,0.006197665,1,-0.006433566,1,0.008282308,1,0.471046925,1,-0.419296861,1,0.281213373,1
1.032028437,-3.886573315,1,-3.762628078,1,-8.176869392,1,0.005802013,1,-0.006258984,1,0.007328907,1,0.471053988,1,-0.419341326,1,0.281239003,1
1.036030173,-3.89462471,1,-3.821190357,1,-8.193205833,1,0.005744103,1,-0.003908812,1,0.004618219,1,0.471073776,1,-0.419372588,1,0.281249821,1
1.040027857,-3.898579359,1,-3.823116064,1,-8.146764755,1,0.007434393,1,-0.005466169,1,0.006874934,1,0.471085995,1,-0.419409752,1,0.281271935,1
1.044027686,-3.882561684,1,-3.805495739,1,-8.166174889,1,0.007127575,1,-0.004657717,1,0.004440485,1,0.471109331,1,-0.419438899,1,0.281289101,1
1.048029423,-3.853304148,1,-3.83066082,1,-8.199126244,1,0.007963813,1,-0.004241988,1,0.008594061,1,0.471131176,1,-0.419470698,1,0.281313777,1
1.052027702,-3.86081028,1,-3.795795918,1,-8.171457291,1,0.006005217,1,-0.007421009,1,0.009073504,1,0.471152425,1,-0.419510365,1,0.281331897,1
1.056027412,-3.860239267,1,-3.879135609,1,-8.207942009,1,0.008101245,1,-0.008354223,1,0.008808116,1,0.47117281,1,-0.419558674,1,0.28134948,1
1.060029149,-3.874131441,1,-3.917165279,1,-8.157603264,1,0.005954515,1,-0.008576605,1,0.008821056,1,0.471185595,1,-0.419600457,1,0.281369209,1
1.06402719,-3.833355188,1,-3.903425217,1,-8.142263412,1,0.00540265,1,-0.004288025,1,0.011201222,1,0.471196413,1,-0.419638753,1,0.281390965,1
1.0680269,-3.853505611,1,-3.882791996,1,-8.208268166,1,0.005033243,1,-0.005728316,1,0.00894962,1,0.471190393,1,-0.419680029,1,0.281425387,1
1.072028637,-3.85057497,1,-3.871916533,1,-8.165287018,1,-0.003376137,1,-0.006481448,1,0.012860223,1,0.471181422,1,-0.419732153,1,0.281457543,1
1.076026678,-3.882111788,1,-3.889636993,1,-8.194611549,1,-0.000850032,1,-0.011761883,1,0.012231804,1,0.47116065,1,-0.419790328,1,0.281486332,1
1.080026388,-3.880825996,1,-3.840841055,1,-8.209026337,1,-0.001696794,1,-0.007892421,1,0.016692873,1,0.471140116,1,-0.419843554,1,0.281525433,1
1.084028125,-3.850871563,1,-3.839468241,1,-8.197730064,1,-0.001809434,1,-0.007895086,1,0.013011445,1,0.471115321,1,-0.419902444,1,0.281561077,1
1.088026166,-3.89381671,1,-3.809611082,1,-8.177225113,1,-0.000394986,1,-0.01011104,1,0.017504947,1,0.470255315,1,-0.419482976,1,0.282295257,1
1.092025876,-3.890330076,1,-3.77942729,1,-8.178019524,1,-0.008013375,1,-0.009975402,1,0.016725203,1,0.470210224,1,-0.419550091,1,0.282345921,1
1.096027613,-3.892179728,1,-3.809330463,1,-8.196933746,1,-0.002991818,1,-0.010191943,1,0.014546296,1,0.470182478,1,-0.4196181,1,0.282389522,1
1.100025296,-3.896712303,1,-3.798604965,1,-8.199151039,1,-0.000887779,1,-0.012354297,1,0.015314045,1,0.470154077,1,-0.419680864,1,0.282434881,1
1.104025126,-3.910969734,1,-3.811201334,1,-8.192975044,1,0.000180228,1,-0.010728425,1,0.01105009,1,0.470126241,1,-0.419740558,1,0.282471299,1
1.108026862,-3.878320456,1,-3.842950821,1,-8.209606171,1,-0.004196874,1,-0.010204391,1,0.016138053,1,0.470103592,1,-0.419801652,1,0.28249979,1
1.112024546,-3.899952173,1,-3.80951333,1,-8.193417549,1,-0.002720903,1,-0.010835744,1,0.019087927,1,0.470071495,1,-0.41986832,1,0.28254509,1
1.116024375,-3.870229721,1,-3.810184479,1,-8.153345108,1,-0.003211051,1,-0.009293199,1,0.012134662,1,0.470043898,1,-0.419937581,1,0.282582581,1
1.120026112,-3.882586241,1,-3.786560059,1,-8.169495583,1,-0.002511567,1,-0.010324365,1,0.016077261,1,0.470018446,1,-0.420002937,1,0.282626987,1
1.124023795,-3.869855165,1,-3.802685738,1,-8.16296196,1,-0.002108614,1,-0.012360586,1,0.01579712,1,0.469992548,1,-0.420072526,1,0.282666683,1
1.128023505,-3.910613537,1,-3.833014011,1,-8.146380424,1,-0.000756947,1,-0.009450479,1,0.013428824,1,0.469968915,1,-0.420140505,1,0.282703698,1
1.132025361,-3.905792236,1,-3.84796834,1,-8.179816246,1,-0.000976142,1,-0.008486308,1,0.018978447,1,0.469944179,1,-0.420204371,1,0.28273952,1
1.136028886,-3.915804625,1,-3.835026741,1,-8.121498108,1,-0.000180037,1,-0.011552921,1,0.013858832,1,0.469921738,1,-0.420276016,1,0.282770574,1
1.140028954,-3.906045437,1,-3.834765196,1,-8.142703056,1,-0.006798902,1,-0.010270187,1,0.01814588,1,0.469894558,1,-0.420344204,1,0.282807112,1
1.14403069,-3.935934782,1,-3.848008156,1,-8.150035858,1,-0.005445556,1,-0.005286109,1,0.010958461,1,0.469859719,1,-0.420401156,1,0.282845795,1
1.148028731,-3.8901577,1,-3.826342583,1,-8.157133102,1,-0.004600151,1,-0.010217693,1,0.016979037,1,0.469821095,1,-0.420457095,1,0.28288734,1
1.152028441,-3.935986996,1,-3.855461121,1,-8.19034481,1,-0.007002509,1,-0.008387423,1,0.014811148,1,0.469784886,1,-0.420514762,1,0.282935441,1
1.156030178,-3.896103144,1,-3.86273241,1,-8.175735474,1,-0.007098771,1,-0.008284511,1,0.015942048,1,0.469747722,1,-0.420572579,1,0.282984138,1
1.160028219,-3.906833649,1,-3.826376438,1,-8.178505898,1,-0.004900784,1,-0.008998907,1,0.016676601,1,0.469703257,1,-0.420628488,1,0.283027411,1
1.164027929,-3.91535306,1,-3.828009844,1,-8.190713882,1,-0.00685341,1,-0.010574153,1,0.016636122,1,0.469664395,1,-0.420693904,1,0.283072948,1
1.168029666,-3.921314478,1,-3.784443378,1,-8.186130524,1,-0.005438455,1,-0.007329103,1,0.018172421,1,0.46962142,1,-0.420758575,1,0.283126473,1
1.172027707,-3.920147419,1,-3.787111521,1,-8.147672653,1,-0.005857015,1,-0.007695697,1,0.018501382,1,0.469583005,1,-0.420814186,1,0.283171594,1
1.176027417,-3.920916319,1,-3.825696468,1,-8.191784859,1,-0.004051878,1,-0.005821346,1,0.012423247,1,0.469540417,1,-0.420866072,1,0.283223391,1
1.180029154,-3.902282,1,-3.80588603,1,-8.190813065,1,-0.002123902,1,-0.009023992,1,0.01932534,1,0.469506025,1,-0.420918822,1,0.28326726,1
1.184027195,-3.865561962,1,-3.784059525,1,-8.185148239,1,-0.00192336,1,-0.011964605,1,0.013450828,1,0.469478071,1,-0.420976311,1,0.283309698,1
1.188026905,-3.901119232,1,-3.761330843,1,-8.198205948,1,0.002046881,1,-0.006925446,1,0.013790187,1,0.469459027,1,-0.421034336,1,0.283346772,1
1.19202888,-3.860470295,1,-3.785068989,1,-8.177032471,1,0.002550644,1,-0.007325595,1,0.011726629,1,0.469452471,1,-0.421090454,1,0.283371121,1
1.196026921,-3.930360794,1,-3.748998642,1,-8.19894886,1,0.002910038,1,-0.010913382,1,0.010571071,1,0.469451576,1,-0.421152115,1,0.283400655,1
1.200026393,-3.928156376,1,-3.748215675,1,-8.204350471,1,0.001809299,1,-0.010593108,1,0.01267554,1,0.469449282,1,-0.421220332,1,0.283422679,1
1.20402813,-3.930431128,1,-3.756392241,1,-8.170401573,1,0.002325827,1,-0.009381733,1,0.012708659,1,0.469454408,1,-0.421279252,1,0.283450663,1
1.208026171,-3.921728373,1,-3.821636915,1,-8.160364151,1,0.004544958,1,-0.010614311,1,0.010778265,1,0.469453722,1,-0.421334147,1,0.28347826,1
1.212025881,-3.895926714,1,-3.819719315,1,-8.182734489,1,0.005825419,1,-0.008097366,1,0.010409499,1,0.469464153,1,-0.421392053,1,0.283494681,1
1.216027617,-3.885640621,1,-3.858000517,1,-8.176960945,1,-1.04E-06,1,-0.012428021,1,0.011643,1,0.46947211,1,-0.421446949,1,0.283515245,1
1.220025301,-3.895097733,1,-3.833622932,1,-8.152598381,1,0.000358166,1,-0.010210991,1,0.014010984,1,0.469468713,1,-0.421509117,1,0.28354913,1
1.22402513,-3.918432951,1,-3.829157829,1,-8.151688576,1,0.003072573,1,-0.012122295,1,0.012166277,1,0.469463319,1,-0.421567798,1,0.283577025,1
1.228027105,-3.89831686,1,-3.856795311,1,-8.180552483,1,0.00168029,1,-0.007399049,1,0.013260421,1,0.469459951,1,-0.421625942,1,0.283606291,1
1.232025146,-3.907884836,1,-3.849553108,1,-8.210041046,1,0.000466652,1,-0.012551536,1,0.015435501,1,0.469453007,1,-0.421684682,1,0.283636034,1
1.236024857,-3.892673492,1,-3.852795124,1,-8.182062149,1,0.001098169,1,-0.007034696,1,0.013504762,1,0.469435841,1,-0.421746522,1,0.283678859,1
1.240026593,-3.873596668,1,-3.778683662,1,-8.147367477,1,-0.001323048,1,-0.013079603,1,0.015779622,1,0.469424337,1,-0.421813577,1,0.283715367,1
1.244024634,-3.898004532,1,-3.786834717,1,-8.184997559,1,0.002699151,1,-0.011812722,1,0.014850245,1,0.469409734,1,-0.42187953,1,0.283757657,1
1.248024344,-3.903743744,1,-3.813623905,1,-8.173146248,1,-4.09E-05,1,-0.01190846,1,0.017744606,1,0.469394803,1,-0.421957731,1,0.283790648,1
1.252026081,-3.89627862,1,-3.847868681,1,-8.170809746,1,-0.000869498,1,-0.012947547,1,0.017622741,1,0.469371259,1,-0.422027916,1,0.283829629,1
1.256029963,-3.887220144,1,-3.815927744,1,-8.142323494,1,0.00185508,1,-0.012124362,1,0.011939907,1,0.469356954,1,-0.422101557,1,0.283863932,1
1.260029674,-3.893172741,1,-3.800770998,1,-8.150980949,1,-0.000148857,1,-0.012875321,1,0.015320183,1,0.469341218,1,-0.422175348,1,0.283893943,1
1.264031529,-3.891016006,1,-3.779027224,1,-8.1842556,1,0.002116878,1,-0.015005475,1,0.018904865,1,0.469319612,1,-0.422254086,1,0.283939302,1
1.268029451,-3.881419897,1,-3.768265247,1,-8.162321091,1,-0.005965957,1,-0.009230166,1,0.017765163,1,0.469303071,1,-0.422329485,1,0.283980072,1
1.272029161,-3.90985775,1,-3.759677649,1,-8.180587769,1,-0.000712601,1,-0.012896828,1,0.013255535,1,0.469285458,1,-0.422403336,1,0.284018874,1
1.276031017,-3.953101873,1,-3.787637949,1,-8.178119659,1,0.000551864,1,-0.014421701,1,0.016198082,1,0.469275057,1,-0.422477573,1,0.284049392,1
1.280028939,-3.920284748,1,-3.804332495,1,-8.145943642,1,-0.003751094,1,-0.010061976,1,0.019651758,1,0.469254106,1,-0.422555983,1,0.284086078,1
1.284028411,-3.901414633,1,-3.827164888,1,-8.180233002,1,0.001052673,1,-0.010256984,1,0.016851623,1,0.469233781,1,-0.42263177,1,0.284131527,1
1.288030505,-3.898084402,1,-3.849472284,1,-8.193595886,1,0.000758701,1,-0.013622466,1,0.017069599,1,0.469218433,1,-0.422707677,1,0.284169316,1
1.292028427,-3.903777599,1,-3.821580172,1,-8.187887192,1,0.000122591,1,-0.014709784,1,0.018301036,1,0.469205528,1,-0.422791719,1,0.284205616,1
1.296027899,-3.872678041,1,-3.794660568,1,-8.205023766,1,-0.001667152,1,-0.016430724,1,0.017195074,1,0.469178319,1,-0.422889829,1,0.284252107,1
1.300029755,-3.904696941,1,-3.811201096,1,-8.199923515,1,-0.000117816,1,-0.015138822,1,0.014704888,1,0.469164789,1,-0.422980189,1,0.284287035,1
1.304027677,-3.926233292,1,-3.796992064,1,-8.199138641,1,-0.002968651,1,-0.018726991,1,0.02118714,1,0.469146639,1,-0.423070431,1,0.284322947,1
1.308027387,-3.88955617,1,-3.84096837,1,-8.219404221,1,-0.00038565,1,-0.017624427,1,0.020517459,1,0.469132215,1,-0.423174232,1,0.284362257,1
1.312029481,-3.886378765,1,-3.819340229,1,-8.189042091,1,-0.001012976,1,-0.014808366,1,0.019626807,1,0.469110072,1,-0.423272908,1,0.284408987,1
1.316027403,-3.89904356,1,-3.837071657,1,-8.228978157,1,0.002878217,1,-0.020587353,1,0.021660365,1,0.469094902,1,-0.423379868,1,0.284448147,1
1.320027113,-3.920393705,1,-3.842699766,1,-8.195881844,1,-0.00045416,1,-0.021274401,1,0.024637118,1,0.469077975,1,-0.423493832,1,0.284482032,1
1.324028969,-3.908519506,1,-3.837236404,1,-8.14656353,1,-0.001212353,1,-0.021902822,1,0.022900473,1,0.469061017,1,-0.423610091,1,0.284530938,1
1.328026891,-3.904583931,1,-3.860810757,1,-8.176029205,1,0.002649032,1,-0.020667771,1,0.023189154,1,0.469036847,1,-0.423722923,1,0.284581602,1
1.332026601,-3.922073841,1,-3.82951951,1,-8.153354645,1,-0.005433765,1,-0.023152065,1,0.023851618,1,0.469007641,1,-0.423852026,1,0.284627676,1
1.336028457,-3.910759211,1,-3.825636387,1,-8.173711777,1,-0.001311644,1,-0.017699488,1,0.0264409,1,0.468118817,1,-0.423590839,1,0.285609573,1
1.340026379,-3.898358822,1,-3.76552701,1,-8.164151192,1,-0.002329397,1,-0.020148525,1,0.023889601,1,0.468117982,1,-0.423618525,1,0.285457432,1
1.344026089,-3.917662621,1,-3.783645391,1,-8.117808342,1,-0.004301376,1,-0.020550843,1,0.024810413,1,0.468090862,1,-0.423734307,1,0.285504043,1
1.348027945,-3.959543467,1,-3.821649075,1,-8.174370766,1,-0.00126479,1,-0.017919006,1,0.022889534,1,0.468064427,1,-0.423851192,1,0.285556376,1
1.352025867,-3.978658676,1,-3.838561535,1,-8.140701294,1,-0.000909464,1,-0.014692034,1,0.023668196,1,0.468034178,1,-0.423961639,1,0.285610318,1
1.356025577,-3.940551758,1,-3.842659473,1,-8.149251938,1,-0.003284405,1,-0.017447859,1,0.026411273,1,0.468002081,1,-0.424059033,1,0.285664916,1
1.360027194,-3.947677374,1,-3.836022854,1,-8.133612633,1,-0.0058275,1,-0.013805727,1,0.025675155,1,0.467955142,1,-0.424161911,1,0.285724401,1
1.364025116,-3.95915556,1,-3.869764566,1,-8.142210007,1,-0.012739221,1,-0.017190985,1,0.024937579,1,0.467901826,1,-0.424263179,1,0.285794199,1
1.368024826,-3.948265553,1,-3.842888117,1,-8.176541328,1,-0.009657105,1,-0.016538277,1,0.023113048,1,0.467836291,1,-0.424361885,1,0.285858929,1
1.37202692,-3.898654699,1,-3.843430758,1,-8.178067207,1,-0.009780856,1,-0.016172523,1,0.028570786,1,0.46775955,1,-0.42446503,1,0.285934269,1
1.376030684,-3.937982798,1,-3.815636158,1,-8.127729416,1,-0.009820816,1,-0.011599669,1,0.025965368,1,0.46768108,1,-0.424564481,1,0.286012948,1
1.380030513,-3.959283113,1,-3.837010384,1,-8.159147263,1,-0.013639536,1,-0.012657588,1,0.029757826,1,0.467594683,1,-0.424662858,1,0.286105186,1
1.384032249,-3.966768503,1,-3.812055349,1,-8.096901894,1,-0.016151566,1,-0.012875594,1,0.027728863,1,0.467496634,1,-0.424758494,1,0.28619951,1
1.388030171,-3.959892035,1,-3.799069881,1,-8.099756241,1,-0.014616108,1,-0.013152607,1,0.031080741,1,0.467400849,1,-0.424849957,1,0.28629148,1
1.392030001,-3.997487307,1,-3.78552103,1,-8.14993763,1,-0.019194759,1,-0.010607081,1,0.028289096,1,0.467297226,1,-0.424943358,1,0.286380529,1
1.396031737,-3.941215754,1,-3.70690918,1,-8.163825989,1,-0.015175411,1,-0.006596284,1,0.025959864,1,0.467194736,1,-0.425028652,1,0.286474824,1
1.400029421,-3.967155457,1,-3.675196171,1,-8.184550285,1,-0.012442234,1,-0.011685418,1,0.027484925,1,0.467098802,1,-0.425109625,1,0.286566854,1
1.404029489,-4.00836134,1,-3.687106609,1,-8.142103195,1,-0.014454187,1,-0.008255796,1,0.023267237,1,0.467018753,1,-0.425188065,1,0.286649883,1
1.408031225,-3.959103823,1,-3.688334942,1,-8.159744263,1,-0.008756954,1,-0.003833816,1,0.02502781,1,0.466936111,1,-0.425250173,1,0.28673631,1
1.412029147,-3.97801137,1,-3.610529184,1,-8.152337074,1,-0.011222659,1,-0.007311334,1,0.017720196,1,0.466871768,1,-0.425311834,1,0.286809742,1
1.416028976,-3.968490124,1,-3.663491726,1,-8.15349865,1,-0.006842077,1,0.000427583,1,0.018059049,1,0.46681422,1,-0.42535615,1,0.286874294,1
1.420030713,-4.001398087,1,-3.660299301,1,-8.158369064,1,-0.003064895,1,-0.004186503,1,0.01812771,1,0.46677053,1,-0.425397158,1,0.286944389,1
1.424028397,-3.960759163,1,-3.742016554,1,-8.121805191,1,-0.001878701,1,-0.004958084,1,0.013558091,1,0.466736019,1,-0.425435424,1,0.287004977,1
1.428028107,-3.972053289,1,-3.805195808,1,-8.129152298,1,-0.003136407,1,-0.000817881,1,0.019726064,1,0.466703653,1,-0.425468892,1,0.287064463,1
1.432029963,-3.950311661,1,-3.821308851,1,-8.091288567,1,-0.005498977,1,-1.61E-06,1,0.012539255,1,0.466657609,1,-0.425497502,1,0.287126243,1
1.436028123,-3.943681955,1,-3.802876711,1,-8.074383736,1,-0.006352789,1,0.002286659,1,0.013706341,1,0.466605157,1,-0.425518155,1,0.28718698,1
1.440027952,-3.971638441,1,-3.824768305,1,-8.112743378,1,-0.008881975,1,0.006799566,1,0.01251044,1,0.466550052,1,-0.425523996,1,0.287251264,1
1.444029927,-3.962175369,1,-3.79943943,1,-8.102002144,1,-0.007644988,1,0.004074634,1,0.015133766,1,0.466473371,1,-0.425534308,1,0.28732121,1
1.448028207,-4.003898621,1,-3.826575994,1,-8.070920944,1,-0.014045075,1,0.009862836,1,0.014110459,1,0.466395617,1,-0.425523371,1,0.287393719,1
1.452027917,-4.014987469,1,-3.786653757,1,-8.06018734,1,-0.015234629,1,0.012748297,1,0.014593576,1,0.466293752,1,-0.425513268,1,0.287483692,1
1.456029415,-4.036771774,1,-3.764766216,1,-8.065607071,1,-0.015292657,1,0.01349761,1,0.015485601,1,0.466202021,1,-0.425489962,1,0.287560463,1
1.460027337,-4.024504662,1,-3.776276827,1,-8.064896584,1,-0.021340813,1,0.017940121,1,0.013833595,1,0.466092288,1,-0.425453156,1,0.287643194,1
1.464027166,-4.018187523,1,-3.767479897,1,-8.111268997,1,-0.026421133,1,0.021067586,1,0.01233031,1,0.465965778,1,-0.425411403,1,0.287725538,1
1.468029141,-3.998901606,1,-3.747016668,1,-8.087936401,1,-0.021036612,1,0.025031341,1,0.00765503,1,0.465837568,1,-0.425353408,1,0.28781873,1
1.472027183,-3.960426807,1,-3.651516914,1,-8.104799271,1,-0.01744744,1,0.025400246,1,0.006783496,1,0.465727627,1,-0.425274193,1,0.287901402,1
1.476026893,-3.974279642,1,-3.679301739,1,-8.160308838,1,-0.016503314,1,0.026604846,1,0.005753358,1,0.465620905,1,-0.42519477,1,0.287978113,1
1.480028629,-3.961397171,1,-3.646366119,1,-8.183104515,1,-0.01627164,1,0.027182434,1,0.006557079,1,0.465531945,1,-0.425104171,1,0.288055658,1
1.484026313,-3.947034836,1,-3.715801477,1,-8.179055214,1,-0.016093222,1,0.026130455,1,0.004642697,1,0.465446293,1,-0.425016761,1,0.288123071,1
1.488025904,-3.901745558,1,-3.825046778,1,-8.183245659,1,-0.012976005,1,0.029723445,1,0.002019703,1,0.46537146,1,-0.424919665,1,0.288190514,1
1.492027879,-3.901173115,1,-3.862301826,1,-8.185855865,1,-0.010418786,1,0.02780382,1,0.008512228,1,0.465286642,1,-0.424830914,1,0.288277388,1
1.496031761,-3.88330245,1,-3.872620344,1,-8.157881737,1,-0.017908284,1,0.028792236,1,0.010665764,1,0.465196699,1,-0.42475301,1,0.288358033,1
1.50003171,-3.900804281,1,-3.858302116,1,-8.183010101,1,-0.017857185,1,0.02328689,1,0.009316475,1,0.465096712,1,-0.424668789,1,0.288448036,1
1.504033566,-3.916621447,1,-3.790236712,1,-8.180041313,1,-0.019204032,1,0.025807081,1,0.007001798,1,0.464986205,1,-0.424597174,1,0.288533032,1
1.508031249,-3.894514322,1,-3.763003349,1,-8.216026306,1,-0.018371332,1,0.023066938,1,0.014613332,1,0.464876384,1,-0.424526572,1,0.288628936,1
1.512030959,-3.91380477,1,-3.727401495,1,-8.254559517,1,-0.018738864,1,0.022506073,1,0.014209218,1,0.464770615,1,-0.424472541,1,0.288720131,1
1.516032815,-3.891386509,1,-3.69498229,1,-8.215616226,1,-0.017677536,1,0.024552787,1,0.01014792,1,0.464670777,1,-0.424409837,1,0.288809121,1
1.520030499,-3.922837973,1,-3.743571997,1,-8.223767281,1,-0.014230374,1,0.01750371,1,0.011039254,1,0.464575976,1,-0.424362451,1,0.288889885,1
1.524030209,-3.919687033,1,-3.732691765,1,-8.22326088,1,-0.008216123,1,0.020341588,1,0.011015617,1,0.464495063,1,-0.424312711,1,0.288965225,1
1.528032303,-3.893913507,1,-3.711509705,1,-8.194599152,1,-0.007540052,1,0.018139407,1,0.009781733,1,0.464428186,1,-0.424262077,1,0.289038837,1
1.532030463,-3.900336504,1,-3.613931656,1,-8.255365372,1,-0.004990884,1,0.018960718,1,0.00771325,1,0.464378595,1,-0.424211681,1,0.289105713,1
1.536030173,-3.880520582,1,-3.640525341,1,-8.222415924,1,-0.002502389,1,0.017738394,1,0.004985277,1,0.46433562,1,-0.424164325,1,0.289172173,1
1.540032029,-3.871431351,1,-3.67665267,1,-8.266980171,1,0.002923443,1,0.016925894,1,0.007216553,1,0.464312434,1,-0.424113542,1,0.289219737,1
1.544029951,-3.882626057,1,-3.727469444,1,-8.221910477,1,0.001120111,1,0.011321473,1,0.004818189,1,0.464299053,1,-0.424074858,1,0.289270639,1
1.548029661,-3.888952971,1,-3.793862104,1,-8.200411797,1,0.003400653,1,0.010580453,1,0.002736731,1,0.464292407,1,-0.424033165,1,0.289313793,1
1.552031517,-3.89719367,1,-3.809514046,1,-8.197995186,1,0.000941785,1,0.005351604,1,0.005970708,1,0.464283466,1,-0.424005449,1,0.289357066,1
1.556029439,-3.882643938,1,-3.845834494,1,-8.165174484,1,-9.88E-05,1,0.0066819,1,0.002961015,1,0.464280128,1,-0.423992336,1,0.289386451,1
1.560029149,-3.860322714,1,-3.858768463,1,-8.193524361,1,0.005303515,1,0.009242845,1,0.010140507,1,0.464278907,1,-0.423973382,1,0.289425731,1
1.564031005,-3.845927477,1,-3.884968281,1,-8.240376472,1,-0.001237906,1,0.006061779,1,0.009938546,1,0.464268327,1,-0.423960805,1,0.289469481,1
1.568028927,-3.807204008,1,-3.909655571,1,-8.219838142,1,-0.001189903,1,0.003096318,1,0.007676206,1,0.464247346,1,-0.423960239,1,0.289513439,1
1.572028399,-3.823963165,1,-3.876724005,1,-8.220898628,1,-0.000779909,1,0.001582499,1,0.016958479,1,0.464223236,1,-0.423974693,1,0.289563894,1
1.576030254,-3.856750011,1,-3.859256983,1,-8.214215279,1,-0.00723334,1,-0.004119549,1,0.01460934,1,0.464182317,1,-0.4240098,1,0.289615929,1
1.580027938,-3.859861374,1,-3.870822191,1,-8.190764427,1,-0.008838358,1,-0.001551894,1,0.014754932,1,0.464130551,1,-0.424035281,1,0.289669335,1
1.58402741,-3.904415131,1,-3.81587863,1,-8.181219101,1,-0.0039349,1,-0.001667325,1,0.017677354,1,0.464073956,1,-0.424071193,1,0.289728761,1
1.588029146,-3.898412466,1,-3.80317378,1,-8.204022408,1,-0.011543245,1,-0.000951071,1,0.016883802,1,0.463197976,1,-0.423674762,1,0.290456712,1
1.59202683,-3.877788544,1,-3.80547595,1,-8.217032433,1,-0.011932516,1,-0.00736352,1,0.016946511,1,0.463128954,1,-0.423719436,1,0.290519416,1
1.596026659,-3.895703793,1,-3.741014957,1,-8.217535973,1,-0.011347888,1,-0.004125482,1,0.020475663,1,0.463051111,1,-0.423772871,1,0.290583313,1
1.600028396,-3.895011663,1,-3.758143425,1,-8.192453384,1,-0.015138837,1,-0.007559679,1,0.016378857,1,0.462970316,1,-0.42383334,1,0.29064247,1
1.604026079,-3.891258717,1,-3.729136705,1,-8.185801506,1,-0.018408142,1,-0.007664978,1,0.018849695,1,0.462891996,1,-0.423885703,1,0.290701509,1
1.608025908,-3.933245182,1,-3.702978611,1,-8.193288803,1,-0.009952391,1,-0.006256228,1,0.017160892,1,0.462803721,1,-0.423937172,1,0.290759802,1
1.612027645,-3.940819502,1,-3.68466115,1,-8.181617737,1,-0.015149196,1,-0.001628986,1,0.017420353,1,0.462725878,1,-0.423979253,1,0.290813953,1
1.616025329,-3.886031151,1,-3.652108669,1,-8.193161011,1,-0.014740406,1,-0.005075454,1,0.015001415,1,0.462658703,1,-0.424020588,1,0.290864736,1
1.620031238,-3.912143707,1,-3.690437794,1,-8.232993126,1,-0.015308617,1,-0.003502158,1,0.010087412,1,0.462586105,1,-0.424053192,1,0.290907562,1
1.624032974,-3.957423687,1,-3.627526045,1,-8.209724426,1,-0.008382247,1,-0.002396544,1,0.009168146,1,0.462525964,1,-0.424080014,1,0.290943205,1
1.628031015,-3.944362402,1,-3.623839617,1,-8.190195084,1,-0.006739315,1,-0.000715546,1,0.008920065,1,0.4624843,1,-0.424109578,1,0.290978432,1
1.632030725,-3.994303942,1,-3.671205521,1,-8.24107933,1,-0.003581064,1,-0.006375089,1,0.0069161,1,0.462466359,1,-0.424132079,1,0.290995151,1
1.636032224,-3.942571402,1,-3.640797853,1,-8.242206573,1,0.001822118,1,-0.003046535,1,0.008157939,1,0.4624542,1,-0.42415899,1,0.291021168,1
1.640030265,-3.957279682,1,-3.645023584,1,-8.22733593,1,0.000623906,1,0.00039484,1,0.001082218,1,0.462457418,1,-0.424176514,1,0.291036755,1
1.644029975,-3.925694942,1,-3.673687458,1,-8.249400139,1,0.003316564,1,-0.001899584,1,-3.36E-05,1,0.462477952,1,-0.424184799,1,0.291037589,1
1.648031712,-3.915806055,1,-3.650444031,1,-8.242289543,1,0.009715087,1,-0.006876973,1,-0.004592843,1,0.462508082,1,-0.424200892,1,0.291027009,1
1.652029753,-3.927978516,1,-3.659562826,1,-8.245326042,1,0.012440554,1,-0.004905894,1,-0.004967672,1,0.462560117,1,-0.42421937,1,0.291010886,1
1.656029463,-3.941849232,1,-3.638975382,1,-8.264936447,1,0.020406535,1,-0.013548573,1,-0.004470073,1,0.462638497,1,-0.424246192,1,0.29098016,1
1.660031199,-3.971618414,1,-3.714724779,1,-8.267978668,1,0.020090787,1,-0.014842638,1,-0.008627969,1,0.462747246,1,-0.424274981,1,0.290928513,1
1.664029241,-4.001554012,1,-3.719084978,1,-8.254527092,1,0.020308822,1,-0.016980395,1,-0.007356456,1,0.462857634,1,-0.424319386,1,0.29087013,1
1.668028951,-4.005587578,1,-3.755424261,1,-8.285386086,1,0.027054211,1,-0.016962081,1,-0.009350141,1,0.462988198,1,-0.424377084,1,0.290799916,1
1.672030926,-3.966416121,1,-3.813210726,1,-8.29743576,1,0.028925098,1,-0.01929817,1,-0.010091841,1,0.463129163,1,-0.424429983,1,0.290722132,1
1.676028967,-3.978041649,1,-3.783055544,1,-8.321391106,1,0.028102035,1,-0.023143888,1,-0.013227664,1,0.463279366,1,-0.424480915,1,0.290632069,1
1.680028677,-3.962632179,1,-3.801232815,1,-8.327318192,1,0.03013996,1,-0.02587059,1,-0.011200219,1,0.463437319,1,-0.424549311,1,0.290542185,1
1.684030414,-4.013597012,1,-3.777106762,1,-8.342189789,1,0.027967857,1,-0.030236209,1,-0.017648401,1,0.463599205,1,-0.424617082,1,0.290435135,1
1.688028216,-4.010798931,1,-3.791324377,1,-8.287866592,1,0.03258444,1,-0.031660765,1,-0.020037249,1,0.463768721,1,-0.424693882,1,0.290314555,1
1.692027926,-4.023242474,1,-3.791888714,1,-8.240930557,1,0.029478619,1,-0.029073719,1,-0.020960895,1,0.463940948,1,-0.424763799,1,0.290175468,1
1.696029663,-4.069344044,1,-3.745387316,1,-8.262058258,1,0.030908344,1,-0.03211239,1,-0.028517297,1,0.46412456,1,-0.424828857,1,0.290023118,1
1.700027347,-4.059860706,1,-3.675994158,1,-8.233360291,1,0.035485238,1,-0.027638443,1,-0.024565419,1,0.464329034,1,-0.424883008,1,0.289857149,1
1.704027176,-4.044404507,1,-3.709474802,1,-8.195476532,1,0.034427773,1,-0.025738038,1,-0.03375781,1,0.464546889,1,-0.424918592,1,0.289686173,1
1.708028913,-3.976080894,1,-3.714721918,1,-8.225560188,1,0.033349741,1,-0.024222687,1,-0.034415863,1,0.464753032,1,-0.424947292,1,0.289502054,1
1.712026596,-3.921713591,1,-3.788207531,1,-8.241309166,1,0.03234724,1,-0.024091789,1,-0.033709064,1,0.464961231,1,-0.424972415,1,0.289326608,1
1.716026425,-3.878535986,1,-3.857782602,1,-8.22840023,1,0.035070062,1,-0.023541918,1,-0.034471691,1,0.465167671,1,-0.424993306,1,0.289142042,1
1.720027924,-3.823796988,1,-3.87387681,1,-8.217658043,1,0.030330699,1,-0.025169376,1,-0.035298664,1,0.465368688,1,-0.425015092,1,0.288959384,1
1.724025846,-3.80221343,1,-3.897092104,1,-8.252921104,1,0.029250491,1,-0.028880531,1,-0.028145093,1,0.465567112,1,-0.425051242,1,0.28878665,1
1.728025556,-3.732265949,1,-3.865768671,1,-8.339961052,1,0.034228083,1,-0.032047886,1,-0.024025425,1,0.465756953,1,-0.425116301,1,0.288627356,1
1.732027411,-3.74576664,1,-3.910722971,1,-8.360527039,1,0.033080038,1,-0.039227221,1,-0.017186051,1,0.465957463,1,-0.425208628,1,0.288479716,1
1.736025333,-3.744534254,1,-3.926149845,1,-8.413141251,1,0.045883913,1,-0.052154053,1,-0.00089207,1,0.466164589,1,-0.425352454,1,0.288359284,1
1.740031242,-3.666644335,1,-4.153871536,1,-8.482553482,1,0.071469173,1,-0.055297296,1,0.026697762,1,0.466414183,1,-0.425562441,1,0.288293898,1
1.744032979,-3.47210741,1,-4.417799473,1,-8.655434608,1,0.121582091,1,-0.055253204,1,0.07910189,1,0.466757625,1,-0.425856113,1,0.288383037,1
1.74803102,-3.086615562,1,-4.50313139,1,-8.905417442,1,0.183673561,1,-0.065882377,1,0.139830828,1,0.467237234,1,-0.426269174,1,0.288694799,1
1.75203073,-2.698472023,1,-4.729545116,1,-8.904065132,1,0.23366183,1,-0.113976158,1,0.198865905,1,0.4678725,1,-0.426894933,1,0.289170027,1
1.756032467,-2.650254726,1,-4.976286888,1,-8.849969864,1,0.290837407,1,-0.148208663,1,0.274306148,1,0.468644619,1,-0.427779317,1,0.289816439,1
1.760030508,-2.622182608,1,-5.618370056,1,-8.992799759,1,0.36894536,1,-0.161581427,1,0.389423877,1,0.469543904,1,-0.428939402,1,0.290816903,1
1.76402998,-2.568280458,1,-5.655394077,1,-9.405582428,1,0.457984298,1,-0.170501187,1,0.4893803,1,0.470598727,1,-0.430311739,1,0.292214096,1
1.768031955,-2.860555172,1,-5.306128502,1,-9.836399078,1,0.571626842,1,-0.227361515,1,0.554923177,1,0.471955329,1,-0.431966066,1,0.293893397,1
1.772030234,-3.825947523,1,-4.639155865,1,-9.852464676,1,0.650677085,1,-0.320095897,1,0.502837002,1,0.47376895,1,-0.433903039,1,0.295450091,1
1.776029944,-4.20916748,1,-4.391293049,1,-9.782780647,1,0.636402369,1,-0.417170733,1,0.393724501,1,0.475934207,1,-0.43605265,1,0.296468496,1
1.7800318,-4.395001888,1,-4.2034235,1,-9.780112267,1,0.625649631,1,-0.468556315,1,0.309598356,1,0.478233099,1,-0.438272715,1,0.296925426,1
1.784029484,-4.39730072,1,-4.466048717,1,-10.24727821,1,0.689660013,1,-0.462945789,1,0.296079785,1,0.480779618,1,-0.440494716,1,0.297136366,1
1.788029194,-3.981156588,1,-5.57979393,1,-10.45411205,1,0.713840067,1,-0.486176848,1,0.30475384,1,0.483505636,1,-0.442702651,1,0.297342062,1
1.792030931,-3.683781385,1,-5.655024529,1,-10.39458466,1,0.728740871,1,-0.558200061,1,0.342575252,1,0.486297905,1,-0.445159525,1,0.29753238,1
1.796028614,-4.11985445,1,-5.549133301,1,-10.2156601,1,0.791343987,1,-0.652559936,1,0.388033509,1,0.489272684,1,-0.447988898,1,0.297695994,1
1.800028443,-5.258603096,1,-5.645039082,1,-10.5928669,1,0.867107749,1,-0.761688411,1,0.469332337,1,0.492496133,1,-0.451268286,1,0.297875822,1
1.80403018,-9.034968376,1,-6.860967159,1,-12.09012604,1,0.888977528,1,-0.840813339,1,0.676675797,1,0.495839745,1,-0.455174625,1,0.298372,1
1.808027864,-9.002388,1,-8.026309967,1,-11.12164402,1,0.714729011,1,-0.794005692,1,0.837157071,1,0.498554558,1,-0.459580809,1,0.299635857,1
1.812027693,-6.419978142,1,-8.646255493,1,-8.911175728,1,0.544436693,1,-0.820274532,1,0.865372956,1,0.5003075,1,-0.463965774,1,0.301292956,1
1.816029429,-7.477478504,1,-8.340184212,1,-9.039654732,1,0.383265197,1,-0.929165483,1,0.916454077,1,0.501464546,1,-0.46876502,1,0.302885652,1
1.820027351,-9.495545387,1,-9.16813755,1,-10.75225353,1,0.206855819,1,-0.977828264,1,0.964775741,1,0.501884341,1,-0.473943233,1,0.304535687,1
1.824027419,-11.72421455,1,-10.58455086,1,-12.33185101,1,0.021988098,1,-0.889055133,1,0.945976317,1,0.501548529,1,-0.479095608,1,0.30627948,1
1.828029156,-11.10207558,1,-10.96986294,1,-13.15255642,1,-0.220900327,1,-0.718448758,1,0.849820375,1,0.500323772,1,-0.483653009,1,0.308112562,1
1.832027078,-9.659825325,1,-10.0608902,1,-13.70857239,1,-0.45852384,1,-0.548627079,1,0.720506489,1,0.498140365,1,-0.48738271,1,0.309857607,1
1.836026907,-7.641405106,1,-8.411126137,1,-13.63803005,1,-0.632629752,1,-0.429040164,1,0.615934253,1,0.495186806,1,-0.490361452,1,0.311460614,1
1.840028405,-5.589143276,1,-6.616095543,1,-13.03531647,1,-0.725417197,1,-0.379372537,1,0.58159107,1,0.491766244,1,-0.492802709,1,0.312707782,1
1.844026089,-3.964694977,1,-5.068580151,1,-12.40567493,1,-0.736355484,1,-0.391084015,1,0.614042282,1,0.488076985,1,-0.495271176,1,0.314276516,1
1.848025799,-2.779828787,1,-4.087183475,1,-11.93243027,1,-0.694730222,1,-0.439953685,1,0.688785732,1,0.484384835,1,-0.497945279,1,0.316007763,1
1.852027893,-1.904689074,1,-3.174624205,1,-11.47555256,1,-0.617178261,1,-0.517637253,1,0.791522384,1,0.480798006,1,-0.501003861,1,0.317970634,1
1.856025815,-1.255804658,1,-2.686211348,1,-11.19909763,1,-0.501505435,1,-0.59424603,1,0.925360918,1,0.477447152,1,-0.504551351,1,0.320284367,1
1.860031486,-0.952457666,1,-2.738406658,1,-11.00529575,1,-0.387988925,1,-0.654819012,1,1.073722005,1,0.474340439,1,-0.508597553,1,0.32302779,1
1.86403358,-0.870280206,1,-3.173725843,1,-10.93947601,1,-0.304762542,1,-0.708447397,1,1.208120704,1,0.471384883,1,-0.513112724,1,0.326267302,1
1.868031502,-0.868722737,1,-3.79445219,1,-11.05316544,1,-0.257360518,1,-0.740990996,1,1.328862429,1,0.468446761,1,-0.517994702,1,0.32996434,1
1.872030973,-0.890648365,1,-4.667351723,1,-10.91909695,1,-0.27037394,1,-0.740025938,1,1.432756186,1,0.465339094,1,-0.523135006,1,0.334118426,1
1.87603271,-0.513946056,1,-5.111816406,1,-10.7413063,1,-0.32736662,1,-0.716282547,1,1.51984942,1,0.461841702,1,-0.528382301,1,0.338719696,1
1.880030513,-0.202959701,1,-5.223494053,1,-10.82617855,1,-0.40346849,1,-0.703031421,1,1.591916919,1,0.457844853,1,-0.533692181,1,0.343725204,1
1.884030461,-0.267169356,1,-5.151056767,1,-11.0264101,1,-0.478241175,1,-0.666876733,1,1.642071486,1,0.453341365,1,-0.539008379,1,0.349085569,1
1.888032198,-0.086896233,1,-5.015154839,1,-11.03623962,1,-0.534216404,1,-0.598436892,1,1.668272018,1,0.448392242,1,-0.544176936,1,0.354756951,1
1.892030239,0.273964673,1,-4.623319626,1,-10.94492054,1,-0.573602319,1,-0.532348096,1,1.676487923,1,0.443085074,1,-0.549095869,1,0.360681117,1
1.896029949,0.968702972,1,-4.136282444,1,-10.77232552,1,-0.579700828,1,-0.473716766,1,1.674811959,1,0.43755582,1,-0.553765774,1,0.366808653,1
1.900031686,1.625611424,1,-3.844011784,1,-10.5240078,1,-0.576600373,1,-0.432733953,1,1.670312881,1,0.431940228,1,-0.558227658,1,0.373062879,1
1.904029489,2.22995472,1,-3.719416618,1,-10.14264107,1,-0.553304374,1,-0.406190783,1,1.662964106,1,0.426315844,1,-0.5625121,1,0.379397243,1
1.908029199,2.85943532,1,-3.701161146,1,-9.757673264,1,-0.534775794,1,-0.386071265,1,1.645971537,1,0.420737863,1,-0.566669285,1,0.385771394,1
1.912030697,3.491583109,1,-3.588022232,1,-9.436786652,1,-0.510307848,1,-0.400038481,1,1.63067925,1,0.415229887,1,-0.570764482,1,0.392120332,1
1.916028619,3.934182405,1,-3.628744125,1,-9.179979324,1,-0.49932456,1,-0.416326046,1,1.606827855,1,0.409802139,1,-0.574853301,1,0.398408473,1
1.920028448,4.160541058,1,-3.687923431,1,-9.111918449,1,-0.492892861,1,-0.446493,1,1.582613826,1,0.404454947,1,-0.578968048,1,0.404577792,1
1.924030185,4.111174107,1,-3.881572485,1,-9.064533234,1,-0.494203478,1,-0.465843201,1,1.540821314,1,0.399181277,1,-0.583097041,1,0.410600066,1
1.928028107,3.990560055,1,-4.001629353,1,-9.090222359,1,-0.511235714,1,-0.462600261,1,1.488560915,1,0.393942893,1,-0.587154984,1,0.416442156,1
1.932027936,3.857761621,1,-4.134625912,1,-9.15963459,1,-0.532631218,1,-0.444366634,1,1.431672215,1,0.388700306,1,-0.591067731,1,0.422101527,1
1.936029434,3.835231781,1,-4.149470329,1,-9.318079948,1,-0.555025399,1,-0.402268648,1,1.355240583,1,0.383477628,1,-0.59474349,1,0.42755419,1
1.940027356,3.771793842,1,-4.004756451,1,-9.527365685,1,-0.558996618,1,-0.3440153,1,1.273717403,1,0.378302872,1,-0.598086119,1,0.432791501,1
1.944027185,3.621854067,1,-3.690248251,1,-9.656998634,1,-0.55496031,1,-0.267145187,1,1.181892991,1,0.373254031,1,-0.601032734,1,0.43777886,1
1.94802916,3.495028973,1,-3.39140296,1,-9.844783783,1,-0.53218466,1,-0.182071388,1,1.077002883,1,0.368408382,1,-0.603507221,1,0.44249475,1
1.952027082,3.448044538,1,-3.137457609,1,-9.927811623,1,-0.486247122,1,-0.075857967,1,0.960443854,1,0.363863319,1,-0.605445445,1,0.446899563,1
1.956026673,3.431169271,1,-2.933888674,1,-9.966201782,1,-0.441632897,1,0.02304446,1,0.834601641,1,0.359710574,1,-0.606814682,1,0.450945377,1
1.96002841,3.490818501,1,-2.87070775,1,-9.952740669,1,-0.387549341,1,0.129133284,1,0.711330235,1,0.355963647,1,-0.607613206,1,0.454603285,1
1.964026093,3.651212692,1,-2.859212399,1,-9.869508743,1,-0.344171524,1,0.224795043,1,0.583818972,1,0.352647066,1,-0.607844293,1,0.457846969,1
1.968025565,3.752128839,1,-2.880209446,1,-9.824728966,1,-0.299361765,1,0.312645346,1,0.462597609,1,0.349747419,1,-0.607543349,1,0.460677445,1
1.972027421,3.818182707,1,-2.981798172,1,-9.806442261,1,-0.251195937,1,0.399835587,1,0.336836964,1,0.347264141,1,-0.606739461,1,0.463102192,1
1.976025105,3.722670555,1,-2.975185156,1,-9.80370903,1,-0.209880188,1,0.482241064,1,0.214120954,1,0.345210671,1,-0.605456829,1,0.465090394,1
1.980031013,3.486735106,1,-2.952256441,1,-9.838680267,1,-0.182197377,1,0.561628878,1,0.087364599,1,0.343541563,1,-0.603701115,1,0.46664542,1
1.98403275,3.326463223,1,-2.925565243,1,-9.832919121,1,-0.152150542,1,0.648871481,1,-0.04313992,1,0.342261374,1,-0.601445138,1,0.467744827,1
1.988030434,3.169698954,1,-2.993087292,1,-9.871106148,1,-0.129539073,1,0.740174532,1,-0.172000483,1,0.341343105,1,-0.598683119,1,0.468374401,1
1.992030263,3.117339373,1,-3.058662176,1,-9.828104019,1,-0.123436153,1,0.823745012,1,-0.303416729,1,0.340745658,1,-0.59541595,1,0.468545556,1
1.996032,3.212153435,1,-3.068297625,1,-9.796837807,1,-0.111574076,1,0.900614381,1,-0.428208739,1,0.340438426,1,-0.591668785,1,0.468266517,1
2.000029802,3.243645191,1,-3.030506611,1,-9.728744507,1,-0.103256673,1,0.968942106,1,-0.538485825,1,0.340396971,1,-0.587493837,1,0.467571497,1
2.004029512,3.22739768,1,-2.961812735,1,-9.695978165,1,-0.085921846,1,1.024382234,1,-0.644966125,1,0.340607524,1,-0.582945287,1,0.466490895,1
2.00803113,3.131919622,1,-2.845027924,1,-9.592783928,1,-0.077478319,1,1.07311821,1,-0.739442289,1,0.341066957,1,-0.57806468,1,0.465051323,1
2.012029171,2.984333992,1,-2.865247488,1,-9.537163734,1,-0.065203801,1,1.120780826,1,-0.819121599,1,0.341732889,1,-0.572884917,1,0.463306606,1
2.016028881,2.876433134,1,-2.910157919,1,-9.500859261,1,-0.056659885,1,1.167317867,1,-0.886958957,1,0.34256798,1,-0.567426503,1,0.461319119,1
2.020030737,2.676208019,1,-2.983901262,1,-9.44485569,1,-0.050611641,1,1.210858226,1,-0.949372768,1,0.343536735,1,-0.561702311,1,0.459116638,1
2.024028778,2.44433713,1,-3.083476305,1,-9.440570831,1,-0.046844382,1,1.257499218,1,-0.998732984,1,0.34458968,1,-0.555736721,1,0.456757337,1
2.02802825,2.233938694,1,-3.150434971,1,-9.479301453,1,-0.048875861,1,1.30418241,1,-1.049311519,1,0.34570837,1,-0.549527407,1,0.454258025,1
2.032029629,2.039586544,1,-3.178974628,1,-9.570549965,1,-0.048080239,1,1.356404305,1,-1.090214849,1,0.346850723,1,-0.543066084,1,0.451662749,1
2.036027431,1.790874481,1,-3.293828726,1,-9.636852264,1,-0.054323465,1,1.408484697,1,-1.131876469,1,0.348019898,1,-0.536360443,1,0.448982537,1
2.040027142,1.482405901,1,-3.382017612,1,-9.722764015,1,-0.049626101,1,1.470241427,1,-1.165776849,1,0.349198818,1,-0.529384255,1,0.446255535,1
2.044029236,1.142370582,1,-3.447512865,1,-9.776985168,1,-0.051338971,1,1.53118217,1,-1.200704694,1,0.350389183,1,-0.522114635,1,0.443491071,1
2.048027039,0.863428414,1,-3.622512579,1,-9.833969116,1,-0.042689253,1,1.608157635,1,-1.241198301,1,0.351576149,1,-0.514539003,1,0.440699697,1
2.05202651,0.599211395,1,-3.797027588,1,-9.881279945,1,-0.04574253,1,1.684111238,1,-1.266263843,1,0.352753013,1,-0.506631732,1,0.437906861,1
2.056028366,0.363961846,1,-3.891157627,1,-9.975674629,1,-0.042345129,1,1.764281988,1,-1.297549725,1,0.353914976,1,-0.498388678,1,0.435138106,1
2.060026169,0.179777816,1,-3.903925657,1,-10.0155592,1,-0.039264273,1,1.851911187,1,-1.331621647,1,0.355055571,1,-0.48977828,1,0.432392538,1
2.06402564,0.053278141,1,-3.996985674,1,-10.00836754,1,-0.033214297,1,1.921595693,1,-1.358872652,1,0.356189072,1,-0.480837941,1,0.429662406,1
2.068027496,-0.046619523,1,-4.04309988,1,-9.966119766,1,-0.025126051,1,1.995240569,1,-1.386863708,1,0.357310474,1,-0.471576512,1,0.426956713,1
2.072025061,-0.108166948,1,-4.074293613,1,-9.912982941,1,-0.012706039,1,2.060162067,1,-1.409891605,1,0.358442843,1,-0.46201697,1,0.424275309,1
2.076024771,-0.137420222,1,-4.050276756,1,-9.799710274,1,-0.003427533,1,2.11648941,1,-1.426963329,1,0.359576046,1,-0.452202201,1,0.421613693,1
2.080026627,-0.107096076,1,-4.050938129,1,-9.762042046,1,0.017110744,1,2.150080204,1,-1.440124035,1,0.360739589,1,-0.442193896,1,0.419000506,1
2.084024668,-0.200898871,1,-4.171337605,1,-9.692926407,1,0.037198711,1,2.181175947,1,-1.446319938,1,0.361948073,1,-0.43204093,1,0.416424453,1
2.088024378,-0.279913306,1,-4.22596693,1,-9.684059143,1,0.060470928,1,2.210757017,1,-1.451741576,1,0.363218606,1,-0.421686351,1,0.413755178,1
2.092025995,-0.386701554,1,-4.287996292,1,-9.665947914,1,0.087978333,1,2.219181299,1,-1.45246768,1,0.364518344,1,-0.411341727,1,0.411267251,1
2.096023798,-0.561942279,1,-4.381811619,1,-9.746613503,1,0.111847594,1,2.230990887,1,-1.45555377,1,0.365887731,1,-0.400950819,1,0.408809602,1
2.100029707,-0.880422831,1,-4.513758183,1,-9.785787582,1,0.136281163,1,2.238707304,1,-1.460065007,1,0.367322952,1,-0.390512168,1,0.406386524,1
2.104031563,-1.153453827,1,-4.632983685,1,-9.961776733,1,0.174087957,1,2.259296417,1,-1.462505341,1,0.368840873,1,-0.380016655,1,0.404004484,1
2.108029366,-1.521347642,1,-4.722816944,1,-10.14295292,1,0.204496577,1,2.286845446,1,-1.468246102,1,0.370457113,1,-0.369427323,1,0.401653707,1
2.112029076,-1.948594809,1,-4.871732235,1,-10.35648823,1,0.241567761,1,2.320364714,1,-1.490261793,1,0.372189373,1,-0.358701766,1,0.399325013,1
2.116030931,-2.418752909,1,-4.971458912,1,-10.55605125,1,0.27969119,1,2.375118971,1,-1.516087294,1,0.374041677,1,-0.347772688,1,0.397006571,1
2.120028973,-2.730185032,1,-5.0247159,1,-10.71572781,1,0.309449255,1,2.441753149,1,-1.553498149,1,0.375996083,1,-0.336557746,1,0.394700706,1
2.124028683,-2.929419518,1,-5.04613781,1,-10.813447,1,0.337720811,1,2.510625601,1,-1.58723855,1,0.378047496,1,-0.325034559,1,0.392386019,1
2.128030539,-2.924450874,1,-5.051586151,1,-10.83878422,1,0.365973622,1,2.580737829,1,-1.624141455,1,0.380173743,1,-0.313200861,1,0.390072793,1
2.132028341,-2.878219366,1,-4.957623959,1,-10.77763653,1,0.380313128,1,2.641865492,1,-1.649274707,1,0.382360995,1,-0.30107367,1,0.387763917,1
2.136028051,-2.803722143,1,-4.833343983,1,-10.64223099,1,0.393410802,1,2.689257383,1,-1.664690018,1,0.38456592,1,-0.288710535,1,0.38549298,1
2.140029907,-2.61662364,1,-4.637388229,1,-10.50890732,1,0.408134609,1,2.718010664,1,-1.673517108,1,0.386787832,1,-0.276177078,1,0.383287668,1
2.14402771,-2.446303368,1,-4.421340942,1,-10.40871239,1,0.433704138,1,2.735673666,1,-1.660211921,1,0.389037967,1,-0.263549656,1,0.381163895,1
2.14802742,-2.382165194,1,-4.201212406,1,-10.28943729,1,0.457463056,1,2.738494635,1,-1.643918991,1,0.391326427,1,-0.250898719,1,0.379148602,1
2.152029276,-2.30412817,1,-4.104497433,1,-10.22601223,1,0.483744323,1,2.731976986,1,-1.614754558,1,0.393666387,1,-0.238297746,1,0.377256721,1
2.15602684,-2.298441172,1,-4.110200405,1,-10.15388393,1,0.505719781,1,2.707399368,1,-1.584984899,1,0.396055639,1,-0.225791872,1,0.375485808,1
2.160026312,-2.351631165,1,-4.101931095,1,-10.08753204,1,0.521941483,1,2.69008708,1,-1.548132658,1,0.398461163,1,-0.21340552,1,0.373844355,1
2.164028406,-2.488454103,1,-4.066258907,1,-10.05742931,1,0.531935811,1,2.662447929,1,-1.516565561,1,0.400888264,1,-0.201156676,1,0.37232399,1
2.168026447,-2.573773384,1,-4.031853199,1,-10.00004578,1,0.543477118,1,2.631419659,1,-1.489322066,1,0.403305769,1,-0.18906641,1,0.370916247,1
2.172026157,-2.639402628,1,-3.926506042,1,-9.924686432,1,0.544713259,1,2.597218275,1,-1.458036065,1,0.405719995,1,-0.177139819,1,0.369587481,1
2.176028013,-2.562633514,1,-3.768628597,1,-9.865995407,1,0.550147891,1,2.549217224,1,-1.443733335,1,0.408127904,1,-0.165388867,1,0.36831665,1
2.180025578,-2.532685518,1,-3.737808704,1,-9.815268517,1,0.551928163,1,2.494385242,1,-1.426389337,1,0.410538018,1,-0.153850779,1,0.367055893,1
2.184025288,-2.665849686,1,-3.798833609,1,-9.74677372,1,0.552097559,1,2.432436943,1,-1.410833478,1,0.41294229,1,-0.142542079,1,0.365780294,1
2.188027143,-2.962150335,1,-3.897673607,1,-9.689624786,1,0.544141948,1,2.382503748,1,-1.40637207,1,0.415316284,1,-0.131455868,1,0.364483416,1
2.192024946,-3.29152298,1,-4.104178905,1,-9.594069481,1,0.525868654,1,2.330336571,1,-1.410213828,1,0.417629987,1,-0.120566502,1,0.363132358,1
2.196024656,-3.554379463,1,-4.296554089,1,-9.623340607,1,0.496422917,1,2.287249804,1,-1.420725822,1,0.41984573,1,-0.10982617,1,0.361706883,1
2.200026274,-3.833299637,1,-4.580561638,1,-9.581253052,1,0.454106092,1,2.249640942,1,-1.459407926,1,0.421908438,1,-0.099192552,1,0.360144675,1
2.204024315,-4.067933083,1,-4.673666954,1,-9.48839283,1,0.39616394,1,2.219781399,1,-1.50961864,1,0.423771471,1,-0.088609725,1,0.358396709,1
2.208024025,-4.162693501,1,-4.894950867,1,-9.301866531,1,0.32564339,1,2.195692062,1,-1.55324769,1,0.425378203,1,-0.078045823,1,0.356457293,1
2.212025881,-4.059778214,1,-4.955490112,1,-9.062789917,1,0.248349652,1,2.166087389,1,-1.59798038,1,0.426683158,1,-0.067501731,1,0.354321182,1
2.216023922,-3.883934259,1,-4.815768242,1,-8.74750042,1,0.180085257,1,2.121129513,1,-1.635701418,1,0.427681684,1,-0.057022549,1,0.351982296,1
2.220029593,-3.719988585,1,-4.462664127,1,-8.450350761,1,0.118992329,1,2.066544056,1,-1.659497976,1,0.428403378,1,-0.046665918,1,0.349462688,1
2.224031448,-3.563120365,1,-3.997444868,1,-8.054027557,1,0.083527289,1,2.003192663,1,-1.679097176,1,0.428914547,1,-0.036473863,1,0.346759498,1
2.22802949,-3.345864773,1,-3.503644943,1,-7.724766731,1,0.08309745,1,1.925030828,1,-1.684397936,1,0.429323107,1,-0.026531084,1,0.343904853,1
2.2320292,-3.208481312,1,-3.168918133,1,-7.441374779,1,0.107206993,1,1.840169549,1,-1.67353642,1,0.429759532,1,-0.016891601,1,0.340930939,1
2.236031055,-3.141935825,1,-2.950033665,1,-7.180532455,1,0.144819543,1,1.748825073,1,-1.650655031,1,0.430297256,1,-0.007596573,1,0.337878555,1
2.240028858,-3.095202446,1,-2.906126022,1,-7.002469063,1,0.1928491,1,1.650136352,1,-1.612555504,1,0.43098107,1,0.001305417,1,0.334781647,1
2.24402833,-3.125632524,1,-2.905618668,1,-6.844434261,1,0.237246305,1,1.543403029,1,-1.569183111,1,0.431822956,1,0.009770729,1,0.331664681,1
2.248030186,-3.062469006,1,-2.945342541,1,-6.691563129,1,0.26352948,1,1.432358384,1,-1.518012881,1,0.432786375,1,0.017783238,1,0.328551412,1
2.252027988,-3.042165518,1,-3.095859051,1,-6.558813572,1,0.286673129,1,1.316550255,1,-1.46975112,1,0.433820367,1,0.025285516,1,0.325434983,1
2.256027699,-3.109543085,1,-3.358863115,1,-6.538828373,1,0.289208382,1,1.193299174,1,-1.408335567,1,0.434873134,1,0.032263689,1,0.322323203,1
2.260029554,-3.360811949,1,-3.65982914,1,-6.684900284,1,0.285236627,1,1.080402493,1,-1.33828485,1,0.435915649,1,0.038709369,1,0.319244474,1
2.264027357,-4.009640217,1,-3.988113165,1,-6.879136086,1,0.279596657,1,0.990652382,1,-1.281464696,1,0.436920524,1,0.044658523,1,0.316249132,1
2.268027067,-4.809033871,1,-4.125905514,1,-7.120742321,1,0.271875739,1,0.916569531,1,-1.226732373,1,0.437888265,1,0.050237291,1,0.313318074,1
2.272028923,-5.464516163,1,-4.21824646,1,-7.298298836,1,0.25556317,1,0.87889123,1,-1.191565037,1,0.438800305,1,0.055536099,1,0.31045565,1
2.276026726,-5.904579639,1,-4.217020035,1,-7.452612877,1,0.235098466,1,0.846342623,1,-1.170191288,1,0.439625382,1,0.060663294,1,0.307643712,1
2.280026436,-6.403782845,1,-4.233090401,1,-7.338240623,1,0.210754767,1,0.820985973,1,-1.167960525,1,0.440338135,1,0.065672211,1,0.304821968,1
2.284028053,-6.695683002,1,-4.382640839,1,-7.152467251,1,0.195543706,1,0.812345445,1,-1.158876061,1,0.440962821,1,0.070614778,1,0.301996469,1
2.288025856,-6.583974361,1,-4.289707184,1,-6.759000301,1,0.171282515,1,0.773776531,1,-1.163194537,1,0.441488743,1,0.075484104,1,0.299141943,1
2.292025566,-6.640100956,1,-4.216350079,1,-6.350269318,1,0.145886391,1,0.729369521,1,-1.161861062,1,0.441909224,1,0.080185398,1,0.296209157,1
2.296027422,-6.582273006,1,-4.05969286,1,-5.858148575,1,0.134863243,1,0.654265165,1,-1.157153368,1,0.442221284,1,0.084677264,1,0.293192387,1
2.300025463,-6.47490406,1,-3.830804348,1,-5.276360989,1,0.121766947,1,0.55884403,1,-1.138077497,1,0.442457736,1,0.088848352,1,0.290065825,1
2.304025173,-6.366517067,1,-3.676148176,1,-4.758183002,1,0.125254631,1,0.437764406,1,-1.117577791,1,0.442656666,1,0.092587888,1,0.286828816,1
2.308026552,-6.307967663,1,-3.629724741,1,-4.31155014,1,0.138341367,1,0.298118025,1,-1.082056403,1,0.442866802,1,0.095808476,1,0.283474147,1
2.312024593,-6.443350792,1,-3.590657473,1,-4.111480713,1,0.158116356,1,0.129370779,1,-1.039162636,1,0.443120658,1,0.098398708,1,0.279995501,1
2.316024542,-6.986365318,1,-3.735557079,1,-4.00024128,1,0.185036808,1,-0.023463149,1,-0.992378891,1,0.443436176,1,0.100326054,1,0.276393294,1
2.320026398,-7.84436655,1,-3.910008192,1,-4.005694389,1,0.214153633,1,-0.167624056,1,-0.949225903,1,0.443862617,1,0.10164021,1,0.272699088,1
2.324024439,-8.727470398,1,-4.059407711,1,-3.958011866,1,0.244170725,1,-0.275087804,1,-0.911787748,1,0.444402486,1,0.1024336,1,0.268931955,1
2.328024149,-9.305820465,1,-4.003472805,1,-3.904355526,1,0.268307775,1,-0.360149562,1,-0.889418483,1,0.445031106,1,0.102832071,1,0.265106976,1
2.332025766,-9.745616913,1,-3.922442198,1,-3.839771509,1,0.287871897,1,-0.431067169,1,-0.872039557,1,0.445744812,1,0.102924757,1,0.261223674,1
2.336023808,-10.03635216,1,-3.940138817,1,-3.771644831,1,0.311931938,1,-0.488637328,1,-0.847361922,1,0.446552008,1,0.102745354,1,0.257298946,1
2.340029478,-10.27047253,1,-3.985336781,1,-3.707093,1,0.341783315,1,-0.544431567,1,-0.823871374,1,0.447455645,1,0.102426089,1,0.253237128,1
2.344031334,-10.50211143,1,-4.046634674,1,-3.634551764,1,0.36656341,1,-0.603979409,1,-0.796833038,1,0.448475897,1,0.101749912,1,0.249308214,1
2.348029137,-10.83481884,1,-4.03918457,1,-3.60189867,1,0.399459869,1,-0.647573531,1,-0.765678585,1,0.449613869,1,0.100851841,1,0.24538593,1
2.352028608,-11.09912395,1,-4.018392086,1,-3.569832802,1,0.427102149,1,-0.688710988,1,-0.747275949,1,0.450877368,1,0.099757686,1,0.241479382,1
2.356030464,-11.38474369,1,-3.973716736,1,-3.521422148,1,0.438916206,1,-0.732894242,1,-0.720593035,1,0.452230632,1,0.098478206,1,0.23757644,1
2.360028267,-11.30905914,1,-4.07363081,1,-3.379976273,1,0.441114545,1,-0.765978158,1,-0.705705225,1,0.453613609,1,0.097035475,1,0.233678773,1
2.364027977,-11.14563274,1,-4.167236805,1,-3.177271843,1,0.418373346,1,-0.811127841,1,-0.682103693,1,0.45495972,1,0.09542007,1,0.22977829,1
2.368029594,-10.94456577,1,-4.16721344,1,-2.96084857,1,0.394879758,1,-0.863067687,1,-0.659730315,1,0.456224859,1,0.093594112,1,0.225878105,1
2.372027397,-10.71749973,1,-4.153487682,1,-2.788890839,1,0.360041946,1,-0.932399094,1,-0.63162744,1,0.457364857,1,0.091514178,1,0.221949905,1
2.376027107,-10.36452103,1,-4.281529427,1,-2.592584133,1,0.313583404,1,-1.010383606,1,-0.598551929,1,0.458352268,1,0.089122191,1,0.218000129,1
2.380028963,-10.03803253,1,-4.37999773,1,-2.365294933,1,0.256220251,1,-1.109714031,1,-0.558599234,1,0.459146172,1,0.08633747,1,0.214020953,1
2.384026527,-9.899668694,1,-4.467986584,1,-2.202172279,1,0.198477924,1,-1.218510866,1,-0.517430544,1,0.45971334,1,0.083124436,1,0.210015491,1
2.388026476,-9.945170403,1,-4.732316494,1,-2.119892597,1,0.137915537,1,-1.319093943,1,-0.464924514,1,0.460049927,1,0.079443701,1,0.205989778,1
2.392027855,-9.996522903,1,-4.982602596,1,-2.094385147,1,0.078497171,1,-1.406923294,1,-0.406555444,1,0.460164905,1,0.075338975,1,0.20199056,1
2.396025896,-9.339708328,1,-5.06813097,1,-3.346970081,1,0.036678821,1,-1.503061891,1,-0.347894579,1,0.460094333,1,0.070804752,1,0.198048607,1
2.400025606,16.15114594,1,1.651480198,1,-14.75853062,1,0.42712307,1,-1.560996294,1,-0.28366667,1,0.460594893,1,0.06591852,1,0.194336593,1
2.404027462,11.26870632,1,0.892266989,1,-11.0956192,1,0.689146638,1,-2.678975105,1,-0.188720524,1,0.462770551,1,0.058838148,1,0.189523339,1
2.408025265,3.585713625,1,-5.189258099,1,-13.67703152,1,0.24037087,1,-2.781464577,1,-0.236736387,1,0.464338481,1,0.048994172,1,0.183855742,1
2.412024975,14.18167782,1,-4.917742252,1,-14.65149498,1,0.317065865,1,-2.111733675,1,-0.493409395,1,0.465007007,1,0.041091882,1,0.178136677,1
2.416026592,16.49417305,1,-5.739646912,1,-14.7677927,1,0.457741678,1,-2.527508736,1,-0.252296984,1,0.466481239,1,0.033713944,1,0.172653869,1
2.420024395,14.50298882,1,-3.603005171,1,-14.24992657,1,0.502391636,1,-2.618151188,1,0.025131389,1,0.468233556,1,0.024505777,1,0.167512476,1
2.424023867,12.4906435,1,-2.569245577,1,-13.86909771,1,0.487952799,1,-2.814000368,1,0.3257204,1,0.47014752,1,0.014636192,1,0.163305774,1
2.428025484,8.650454521,1,-2.344134808,1,-12.38859367,1,0.482532173,1,-3.189685345,1,0.611116171,1,0.472000957,1,0.003015828,1,0.159508795,1
2.432023287,6.425899982,1,-1.523520947,1,-12.0638237,1,0.558512092,1,-3.551066637,1,0.92563343,1,0.474117905,1,-0.010338726,1,0.15614894,1
2.436022997,1.468485117,1,-0.767966568,1,-11.78060913,1,0.646495223,1,-4.023161411,1,1.123639226,1,0.476571321,1,-0.025699837,1,0.152833477,1
2.440024853,-4.667550087,1,0.292811632,1,-11.66477966,1,0.767624259,1,-4.175868034,1,1.213952899,1,0.479489833,1,-0.042504199,1,0.149433464,1
2.444022417,-9.447903633,1,1.966313362,1,-12.30929565,1,1.010897398,1,-4.164153099,1,1.230689287,1,0.483234227,1,-0.059573747,1,0.146060422,1
2.448022127,-10.74331284,1,3.174283504,1,-14.48731327,1,1.263510466,1,-4.084228039,1,1.202845573,1,0.487953603,1,-0.076472588,1,0.142608985,1
2.452023745,-10.47327614,1,-0.43143779,1,-16.52425957,1,1.33358264,1,-4.146913528,1,1.184375048,1,0.493536383,1,-0.093184933,1,0.139084816,1
2.456021547,-14.14049244,1,-1.79081583,1,-15.23324013,1,1.40947473,1,-3.864493608,1,1.185067773,1,0.499348253,1,-0.109665461,1,0.135570139,1
2.460027456,-14.64910603,1,-2.307293892,1,-15.07300377,1,1.533523321,1,-3.473478317,1,1.11374557,1,0.505580068,1,-0.124687023,1,0.13251695,1
2.464029074,-15.31139946,1,-2.132838964,1,-14.72777939,1,1.623635769,1,-3.135317087,1,1.11123395,1,0.51222688,1,-0.13842164,1,0.129930928,1
2.468026876,-13.93500519,1,-4.301567078,1,-15.26107597,1,1.595519543,1,-2.788437366,1,1.129341483,1,0.519014835,1,-0.150890678,1,0.127993211,1
2.472026587,-13.15128136,1,-4.71022892,1,-13.67694759,1,1.60381937,1,-2.475598812,1,1.201110363,1,0.525593638,1,-0.162361234,1,0.126745075,1
2.476028442,-11.41149235,1,-5.638739586,1,-12.23765278,1,1.622606993,1,-2.13173461,1,1.157824516,1,0.53212744,1,-0.172696725,1,0.126184866,1
2.480026007,-8.105031967,1,-6.017752171,1,-11.45529842,1,1.648468614,1,-1.92400825,1,1.139520168,1,0.538726985,1,-0.181952551,1,0.12603645,1
2.484025955,-7.079873562,1,-6.829376221,1,-10.1046524,1,1.622931838,1,-1.88348496,1,1.13846159,1,0.545271933,1,-0.190836966,1,0.125995159,1
2.488027334,-5.776709557,1,-9.194720268,1,-8.483020782,1,1.573794246,1,-1.799886107,1,1.061307788,1,0.551664948,1,-0.199420452,1,0.125911087,1
2.492025137,-4.174382687,1,-10.2531147,1,-7.354812622,1,1.494516611,1,-1.761183977,1,0.983155012,1,0.557872593,1,-0.207613707,1,0.125651479,1
2.496024847,-3.555009365,1,-11.94295788,1,-7.361552238,1,1.317487955,1,-1.845475912,1,0.919707656,1,0.563651443,1,-0.21571371,1,0.125025064,1
2.500026703,-3.868955374,1,-12.67648697,1,-6.387942791,1,1.140001059,1,-1.859712005,1,0.819555104,1,0.568793178,1,-0.223897189,1,0.123964146,1
2.504024506,-2.758880138,1,-12.76070881,1,-5.761602402,1,1.000518203,1,-1.874140382,1,0.677530766,1,0.573419333,1,-0.231749579,1,0.122414082,1
2.508024216,-3.056369543,1,-13.97336292,1,-6.698693275,1,0.754945517,1,-2.004338503,1,0.604429424,1,0.577484012,1,-0.23960866,1,0.12026599,1
2.512025833,-4.213991642,1,-12.92482853,1,-5.474594593,1,0.520485818,1,-1.975823641,1,0.554257393,1,0.580617309,1,-0.24758631,1,0.11778038,1
2.516023636,-3.903503656,1,-12.70386791,1,-6.383743286,1,0.337679982,1,-1.970045328,1,0.50256604,1,0.583019018,1,-0.255287856,1,0.115115426,1
2.520023108,-5.725676537,1,-11.03830051,1,-6.556773186,1,0.106865816,1,-1.941017032,1,0.529198289,1,0.584580421,1,-0.2629897,1,0.112424418,1
2.524024725,-6.457167625,1,-9.202864647,1,-7.038084507,1,-0.019110961,1,-1.774420023,1,0.545337021,1,0.58537221,1,-0.270365447,1,0.110019386,1
2.528022766,-6.940042019,1,-8.309884071,1,-8.47131443,1,-0.151910082,1,-1.648634434,1,0.61811316,1,0.585582256,1,-0.277340949,1,0.108092368,1
2.532022238,-7.738968849,1,-6.583797455,1,-8.418275833,1,-0.241813391,1,-1.427705169,1,0.688444912,1,0.585120976,1,-0.28394866,1,0.106827781,1
2.536024094,-7.259363651,1,-5.330442905,1,-9.067713737,1,-0.250250608,1,-1.228409648,1,0.716934681,1,0.584293008,1,-0.289921612,1,0.106237195,1
2.540021658,-6.94856739,1,-4.925947189,1,-9.193675995,1,-0.267875582,1,-1.073117256,1,0.735108137,1,0.583281219,1,-0.295369625,1,0.106105193,1
2.54402113,-6.679233551,1,-4.748873711,1,-9.003919601,1,-0.274444044,1,-0.931144834,1,0.762072921,1,0.582095325,1,-0.300364554,1,0.106423244,1
2.548022985,-5.670582771,1,-4.772805691,1,-8.732067108,1,-0.271782339,1,-0.817289233,1,0.755246401,1,0.580812812,1,-0.304947048,1,0.107084647,1
2.552020788,-4.838096619,1,-4.975112915,1,-8.566952705,1,-0.27128014,1,-0.776071191,1,0.739407718,1,0.579485476,1,-0.309243381,1,0.10788025,1
2.556020498,-4.809289455,1,-5.656940937,1,-8.185310364,1,-0.292623937,1,-0.73179847,1,0.709098637,1,0.578105688,1,-0.31335628,1,0.108702756,1
2.560022354,-4.294049263,1,-5.86313343,1,-8.061869621,1,-0.316482246,1,-0.696613193,1,0.676384926,1,0.576642394,1,-0.317254275,1,0.109509319,1
2.564019918,-4.08109045,1,-6.302277565,1,-7.685202599,1,-0.361672997,1,-0.679723203,1,0.642971575,1,0.575058639,1,-0.320999622,1,0.110276818,1
2.568019629,-3.414919138,1,-6.128334045,1,-7.557596207,1,-0.399581552,1,-0.665253222,1,0.619767547,1,0.573316336,1,-0.324624896,1,0.110966973,1
2.572021484,-3.141611814,1,-5.775668144,1,-7.68898344,1,-0.439549088,1,-0.673790634,1,0.622221291,1,0.57142216,1,-0.328222603,1,0.111625426,1
2.576019287,-3.060079336,1,-5.388911724,1,-7.74050951,1,-0.481585503,1,-0.678943753,1,0.639238596,1,0.569348752,1,-0.331855357,1,0.112328246,1
2.580025196,-3.069896221,1,-5.211402416,1,-7.891888142,1,-0.510726213,1,-0.660733998,1,0.665234387,1,0.567103624,1,-0.335518718,1,0.113132127,1
2.584026814,-3.165265799,1,-5.223622322,1,-7.907989979,1,-0.549630821,1,-0.641486228,1,0.695946813,1,0.5646649,1,-0.339189947,1,0.114088982,1
2.588024855,-3.466553926,1,-5.098748207,1,-7.956402779,1,-0.586060941,1,-0.610219002,1,0.726422489,1,0.564368904,1,-0.354271293,1,0.105175264,1
2.592024565,-3.009034634,1,-4.369646549,1,-8.131895065,1,-0.597460806,1,-0.603440344,1,0.766280949,1,0.561549187,1,-0.357904673,1,0.106494963,1
2.596026182,-2.764931679,1,-4.464401722,1,-8.227253914,1,-0.621287704,1,-0.604139328,1,0.785924971,1,0.558600962,1,-0.361605018,1,0.107941598,1
2.600023985,-2.621176481,1,-4.42033577,1,-8.193410873,1,-0.639579654,1,-0.616747618,1,0.819937468,1,0.555544615,1,-0.365377247,1,0.109472193,1
2.604023457,-3.151652098,1,-4.666612625,1,-8.315897942,1,-0.677204967,1,-0.602490783,1,0.82638067,1,0.552310944,1,-0.369189084,1,0.111097753,1
2.608025074,-3.612261534,1,-4.123125076,1,-8.641706467,1,-0.692558587,1,-0.587107539,1,0.833312511,1,0.548962355,1,-0.372952193,1,0.11281155,1
2.612022877,-3.957402706,1,-3.987235308,1,-8.842469215,1,-0.704863966,1,-0.553153992,1,0.801207662,1,0.545537949,1,-0.376629412,1,0.114535294,1
2.616022348,-3.462800741,1,-3.621524811,1,-8.939488411,1,-0.700329542,1,-0.521410584,1,0.769837141,1,0.542080104,1,-0.380068868,1,0.116233155,1
2.620024204,-5.454550743,1,-4.654320717,1,-9.304673195,1,-0.702964842,1,-0.480288625,1,0.732297063,1,0.538681269,1,-0.383365929,1,0.117906764,1
2.624022245,-6.548881054,1,-3.974048138,1,-9.005150795,1,-0.686625659,1,-0.36885041,1,0.636537313,1,0.53526336,1,-0.386213928,1,0.119501434,1
2.628021955,-5.921004295,1,-3.378747225,1,-9.452798843,1,-0.61543715,1,-0.326149136,1,0.53053546,1,0.532148123,1,-0.388600528,1,0.120913237,1
2.632023811,-4.707217693,1,-2.579782486,1,-8.763307571,1,-0.557649553,1,-0.300063163,1,0.492219359,1,0.529344976,1,-0.390694261,1,0.122119322,1
2.636021614,-4.23576355,1,-2.514059782,1,-8.977844238,1,-0.481868654,1,-0.322891176,1,0.463299423,1,0.526838064,1,-0.392743289,1,0.123240069,1
2.640021086,-4.544446468,1,-3.214584351,1,-8.969447136,1,-0.428244889,1,-0.318380743,1,0.403342873,1,0.524671614,1,-0.394724131,1,0.124157958,1
2.644022703,-4.705441475,1,-3.726792336,1,-8.63965416,1,-0.373083264,1,-0.298594445,1,0.352863014,1,0.522776246,1,-0.396548152,1,0.124915689,1
2.648020506,-5.18930769,1,-3.747916937,1,-8.521289825,1,-0.330660969,1,-0.284615964,1,0.31098628,1,0.521125317,1,-0.398217857,1,0.125540465,1
2.652020454,-5.022900105,1,-3.259603977,1,-8.646570206,1,-0.265081346,1,-0.232870385,1,0.262264222,1,0.519744635,1,-0.399686664,1,0.126053959,1
2.65602231,-3.692276716,1,-2.981945992,1,-8.450951576,1,-0.213876277,1,-0.272137046,1,0.242160544,1,0.51862669,1,-0.40103516,1,0.12647076,1
2.660019875,-3.896321774,1,-3.288966179,1,-8.809826851,1,-0.154681459,1,-0.289207608,1,0.219253615,1,0.517786264,1,-0.402482897,1,0.126739234,1
2.664019823,-3.902522802,1,-3.500998735,1,-8.862201691,1,-0.11472895,1,-0.283761531,1,0.197950527,1,0.517185569,1,-0.403886288,1,0.126911268,1
2.668021441,-3.808553934,1,-3.930825949,1,-8.47263813,1,-0.082959443,1,-0.295894802,1,0.180147797,1,0.516750872,1,-0.405258268,1,0.127016783,1
2.672019243,-3.74343276,1,-4.140527248,1,-8.34240818,1,-0.061416525,1,-0.304476768,1,0.169030815,1,0.516467929,1,-0.406641036,1,0.127021492,1
2.676018953,-3.635165215,1,-4.044073105,1,-8.327486992,1,-0.035241418,1,-0.313770741,1,0.159122527,1,0.516293526,1,-0.408035219,1,0.12698181,1
2.680020809,-3.360466242,1,-4.05409956,1,-8.339420319,1,-0.01816849,1,-0.319203585,1,0.156439498,1,0.516221404,1,-0.409439862,1,0.126899377,1
2.684018612,-3.330264568,1,-4.103244781,1,-8.435507774,1,-0.000531178,1,-0.328439474,1,0.152000427,1,0.516226172,1,-0.410870492,1,0.126790762,1
2.688018322,-3.502840996,1,-4.199883461,1,-8.36575985,1,-0.000810862,1,-0.330730081,1,0.143334553,1,0.516282856,1,-0.412324965,1,0.126632124,1
2.692019939,-4.020003319,1,-4.358417988,1,-8.219805717,1,0.005356098,1,-0.334217757,1,0.14949514,1,0.516357541,1,-0.413787663,1,0.126472339,1
2.696017742,-4.136129856,1,-4.448220253,1,-8.019563675,1,-0.00695894,1,-0.314329982,1,0.149841011,1,0.516396463,1,-0.415212989,1,0.126346812,1
2.700017214,-3.687793016,1,-4.494683266,1,-7.923974991,1,-0.017354319,1,-0.303237468,1,0.166848406,1,0.516385198,1,-0.416594803,1,0.12628299,1
2.70402503,-3.772541285,1,-5.036759377,1,-8.080924034,1,-0.037376381,1,-0.298321962,1,0.175304905,1,0.516274989,1,-0.417984456,1,0.126304612,1
2.70802927,-3.889532089,1,-5.389116287,1,-7.842463017,1,-0.066597901,1,-0.283542007,1,0.179255337,1,0.5160532,1,-0.419348329,1,0.126346067,1
2.712029219,-3.725941896,1,-5.219887257,1,-7.858993053,1,-0.094257772,1,-0.276662767,1,0.182309777,1,0.515704691,1,-0.420662433,1,0.126430675,1
2.716031075,-4.140376091,1,-4.971733093,1,-7.874089718,1,-0.117992334,1,-0.264047593,1,0.18038711,1,0.515232325,1,-0.421969146,1,0.126529485,1
2.720028877,-3.996831656,1,-4.716425419,1,-7.853786945,1,-0.140360758,1,-0.256180018,1,0.173866808,1,0.514662802,1,-0.423221737,1,0.126648515,1
2.724028587,-4.258755207,1,-4.570079803,1,-7.864894867,1,-0.147551894,1,-0.253867447,1,0.171263084,1,0.514044404,1,-0.424462408,1,0.126742616,1
2.728030443,-4.311682224,1,-4.409799576,1,-7.816841602,1,-0.166744396,1,-0.236922219,1,0.163645744,1,0.513362408,1,-0.425648749,1,0.126853541,1
2.732028246,-4.288916588,1,-4.218798161,1,-7.89380312,1,-0.168814495,1,-0.210255176,1,0.14771308,1,0.512638092,1,-0.42673102,1,0.126978382,1
2.736027718,-4.247371197,1,-3.921303749,1,-7.995294094,1,-0.160252199,1,-0.223474428,1,0.134386182,1,0.511941433,1,-0.427768469,1,0.127049834,1
2.740029812,-4.472075939,1,-3.744127989,1,-8.004309654,1,-0.155234188,1,-0.208386406,1,0.123560414,1,0.511302292,1,-0.428784609,1,0.127074748,1
2.744027615,-4.441044331,1,-3.668346405,1,-7.968627453,1,-0.13876158,1,-0.19861488,1,0.108192079,1,0.510701835,1,-0.429708749,1,0.127088204,1
2.748027325,-4.442788601,1,-3.770872831,1,-7.986326218,1,-0.12616545,1,-0.186967269,1,0.096636631,1,0.510186195,1,-0.430581748,1,0.127067864,1
2.752029181,-4.300432205,1,-3.97871089,1,-7.940371037,1,-0.118387975,1,-0.192874849,1,0.081187956,1,0.509731829,1,-0.431407988,1,0.126998454,1
2.756026983,-4.257105827,1,-3.983461142,1,-7.935971737,1,-0.111319013,1,-0.194523081,1,0.076389387,1,0.509325147,1,-0.432234049,1,0.126874804,1
2.760026693,-4.305102348,1,-4.008777142,1,-7.923690319,1,-0.103026584,1,-0.190605432,1,0.074674226,1,0.508947492,1,-0.43305853,1,0.126751691,1
2.764028311,-4.287178993,1,-4.181229115,1,-7.796332359,1,-0.10558413,1,-0.184369087,1,0.079012252,1,0.508585453,1,-0.433865607,1,0.126641899,1
2.768026114,-4.321576118,1,-4.258494854,1,-7.840716839,1,-0.104327977,1,-0.172015756,1,0.081458613,1,0.508195877,1,-0.434647262,1,0.126573414,1
2.772025824,-4.551341534,1,-4.323183537,1,-7.73856926,1,-0.103124477,1,-0.163049743,1,0.084877118,1,0.507810771,1,-0.435401291,1,0.126519695,1
2.776027441,-4.411963463,1,-4.199424267,1,-7.741389751,1,-0.09492366,1,-0.143629983,1,0.086135887,1,0.507407606,1,-0.4361009,1,0.126521081,1
2.780025005,-4.228660583,1,-4.122231007,1,-7.868275642,1,-0.099199936,1,-0.144396365,1,0.087911151,1,0.507003903,1,-0.436764747,1,0.126568019,1
2.784024715,-4.199320793,1,-4.176736832,1,-7.798503876,1,-0.096105769,1,-0.145759612,1,0.096183904,1,0.506599426,1,-0.437453508,1,0.126610756,1
2.788026333,-4.258337975,1,-4.109727859,1,-7.784262657,1,-0.09559337,1,-0.138048574,1,0.095088571,1,0.506178498,1,-0.438137054,1,0.126674905,1
2.792024136,-4.285870552,1,-4.21170187,1,-7.739297867,1,-0.101653092,1,-0.126483843,1,0.096061118,1,0.505752921,1,-0.438790917,1,0.126759797,1
2.796023846,-4.316979408,1,-4.141879559,1,-7.772974491,1,-0.096592925,1,-0.117142253,1,0.098321274,1,0.505312502,1,-0.439406306,1,0.126879439,1
2.800025702,-4.325196266,1,-4.174814701,1,-7.793200493,1,-0.095376872,1,-0.106338233,1,0.09933646,1,0.50487262,1,-0.439988375,1,0.127023309,1
2.804023504,-4.255022049,1,-4.270165443,1,-7.76354599,1,-0.097214773,1,-0.096901223,1,0.102769889,1,0.504409015,1,-0.440541238,1,0.127194151,1
2.808022976,-4.156291962,1,-4.336244583,1,-7.760920048,1,-0.104893684,1,-0.088501297,1,0.103003353,1,0.503912807,1,-0.441069216,1,0.127387077,1
2.812024832,-4.156352997,1,-4.317003727,1,-7.788600445,1,-0.117097631,1,-0.071221136,1,0.100978963,1,0.503368914,1,-0.441541374,1,0.127611667,1
2.816022635,-4.158691406,1,-4.20207262,1,-7.843981266,1,-0.121208481,1,-0.075706393,1,0.092948474,1,0.5028072,1,-0.441990018,1,0.127826542,1
2.820022106,-3.948163986,1,-4.039533138,1,-8.015122414,1,-0.121297084,1,-0.084484324,1,0.087894507,1,0.502246678,1,-0.442430645,1,0.128015429,1
2.824030161,-4.132343769,1,-3.928220749,1,-7.986279964,1,-0.110976569,1,-0.104302943,1,0.091378868,1,0.501721323,1,-0.442943305,1,0.128152564,1
2.828034639,-4.251811981,1,-3.879268408,1,-7.989893436,1,-0.109345771,1,-0.101013489,1,0.089834034,1,0.501217067,1,-0.443477154,1,0.128290355,1
2.832034826,-4.283635616,1,-3.901659489,1,-7.96065712,1,-0.102927148,1,-0.105609864,1,0.084900826,1,0.500742316,1,-0.444003701,1,0.128408998,1
2.836036682,-4.307813644,1,-3.962684155,1,-7.889050484,1,-0.098319508,1,-0.093337715,1,0.08647076,1,0.498543829,1,-0.444760025,1,0.131035045,1
2.840034246,-4.053710938,1,-3.993350744,1,-7.92755127,1,-0.09494745,1,-0.109061547,1,0.092042662,1,0.498125136,1,-0.445163012,1,0.13095063,1
2.844033957,-4.344797134,1,-4.015363693,1,-7.755158424,1,-0.084212102,1,-0.101735912,1,0.097945258,1,0.497712582,1,-0.445720643,1,0.131088614,1
2.848035812,-4.305517673,1,-3.910894394,1,-7.770149708,1,-0.086555474,1,-0.081164539,1,0.100570872,1,0.49728626,1,-0.4462322,1,0.131285474,1
2.852033615,-4.429476261,1,-3.791130304,1,-7.752298832,1,-0.081383675,1,-0.079130046,1,0.09430702,1,0.496866673,1,-0.446704984,1,0.131486565,1
2.856033325,-4.474008083,1,-3.66574192,1,-7.807606697,1,-0.084413424,1,-0.052041914,1,0.082720205,1,0.496448576,1,-0.447099984,1,0.131696418,1
2.860035181,-4.37193203,1,-3.636461496,1,-7.848305225,1,-0.077810593,1,-0.038574524,1,0.07328558,1,0.4960365,1,-0.447408229,1,0.131912693,1
2.864032745,-4.36066103,1,-3.736079454,1,-7.884328842,1,-0.081289858,1,-0.021361886,1,0.068254709,1,0.495627671,1,-0.447658896,1,0.13212195,1
2.868032455,-4.254481316,1,-3.820002794,1,-7.911693096,1,-0.081174307,1,-0.003012449,1,0.071738347,1,0.495204866,1,-0.447830677,1,0.132364452,1
2.872034073,-4.215218067,1,-3.947175741,1,-7.880024433,1,-0.085736737,1,0.012401359,1,0.07014998,1,0.494741768,1,-0.447949469,1,0.132650033,1
2.876032114,-4.204983234,1,-4.065182686,1,-7.825156212,1,-0.093694322,1,0.024990709,1,0.071610317,1,0.494244069,1,-0.448017716,1,0.132975087,1
2.880031824,-4.165567398,1,-4.061481953,1,-7.827003956,1,-0.10037417,1,0.042099789,1,0.076657407,1,0.493703008,1,-0.448041379,1,0.133333668,1
2.884033442,-4.052044392,1,-4.047918797,1,-7.906084538,1,-0.112830862,1,0.050788362,1,0.082929462,1,0.493100226,1,-0.448027909,1,0.133735657,1
2.888031483,-4.033910751,1,-4.121274948,1,-7.843616009,1,-0.124058776,1,0.060751554,1,0.0846029,1,0.492438734,1,-0.447998732,1,0.134177878,1
2.892031193,-4.063979149,1,-4.071959496,1,-7.905375004,1,-0.130728379,1,0.063760936,1,0.08624129,1,0.491737425,1,-0.447935462,1,0.13463597,1
2.89603281,-4.102286339,1,-3.919439316,1,-7.965479374,1,-0.133723468,1,0.07965181,1,0.084617868,1,0.490993053,1,-0.447845221,1,0.135123089,1
2.900030375,-4.085655212,1,-3.794512272,1,-8.006849289,1,-0.13345848,1,0.087421156,1,0.083988234,1,0.49023357,1,-0.447715312,1,0.135629416,1
2.904029846,-4.150414467,1,-3.68271184,1,-8.08445549,1,-0.130234346,1,0.08750353,1,0.077614203,1,0.489487201,1,-0.447551906,1,0.136134788,1
2.908031702,-4.07760334,1,-3.824937582,1,-8.084415436,1,-0.129845887,1,0.093155026,1,0.063132711,1,0.488772213,1,-0.447358429,1,0.136602283,1
2.912029505,-4.126891613,1,-3.830459356,1,-8.053927422,1,-0.13322553,1,0.101240307,1,0.067902952,1,0.488052905,1,-0.447148055,1,0.137056842,1
2.916028976,-3.931040764,1,-3.80880022,1,-7.962893486,1,-0.124703787,1,0.095175788,1,0.070417479,1,0.487336129,1,-0.446917862,1,0.137525856,1
2.920031071,-3.80661726,1,-3.818001032,1,-8.085435867,1,-0.123981491,1,0.089869455,1,0.075459234,1,0.486629665,1,-0.446723551,1,0.138005182,1
2.924028873,-3.829624653,1,-3.845908403,1,-8.229660988,1,-0.112903401,1,0.088658698,1,0.08609008,1,0.485940576,1,-0.446562648,1,0.138503343,1
2.928028345,-3.8405509,1,-3.857669592,1,-8.24014473,1,-0.105701573,1,0.072560512,1,0.088636279,1,0.48527652,1,-0.446441442,1,0.139009684,1
2.932030201,-3.912204742,1,-3.890762091,1,-8.304341316,1,-0.102793492,1,0.064318553,1,0.101470284,1,0.484634668,1,-0.446380556,1,0.139526173,1
2.936028004,-3.898988962,1,-3.943788052,1,-8.253307343,1,-0.098511271,1,0.059710611,1,0.102316841,1,0.48401168,1,-0.44635126,1,0.140052319,1
2.940027714,-3.892480135,1,-4.048708916,1,-8.255802155,1,-0.096752726,1,0.050461303,1,0.10081394,1,0.483406007,1,-0.446349561,1,0.14056839,1
2.94403553,-3.802411795,1,-4.179590225,1,-8.202709198,1,-0.095430337,1,0.040037401,1,0.104689263,1,0.482807606,1,-0.446380705,1,0.141065478,1
2.948039532,-3.868963242,1,-4.142930984,1,-8.269273758,1,-0.104768954,1,0.03120834,1,0.109823652,1,0.482207328,1,-0.446440697,1,0.141556829,1
2.95203948,-3.932774782,1,-4.051294804,1,-8.205641747,1,-0.102761477,1,0.022529159,1,0.114202306,1,0.481591165,1,-0.446549922,1,0.142054811,1
2.956041098,-3.984362602,1,-3.945308924,1,-8.275444031,1,-0.105746999,1,0.021008383,1,0.11659725,1,0.480957687,1,-0.446687877,1,0.142558292,1
2.9600389,-4.043367863,1,-3.854455948,1,-8.332547188,1,-0.097858682,1,0.014626347,1,0.114206702,1,0.4803361,1,-0.446838468,1,0.143056482,1
2.96403861,-4.039024353,1,-3.796084881,1,-8.272977829,1,-0.097579464,1,-0.000680921,1,0.112853505,1,0.479740679,1,-0.44702366,1,0.143521413,1
2.968040228,-4.027722836,1,-3.695206165,1,-8.276499748,1,-0.09958902,1,-0.010999572,1,0.102015376,1,0.479166687,1,-0.447234511,1,0.143936798,1
2.972038031,-4.03270483,1,-3.623030901,1,-8.260271072,1,-0.098388694,1,-0.023998441,1,0.093298115,1,0.478619635,1,-0.447476447,1,0.144280493,1
2.976037741,-4.097735882,1,-3.680281878,1,-8.191020012,1,-0.099281922,1,-0.029985324,1,0.083515592,1,0.478094816,1,-0.44773519,1,0.144574776,1
2.980039358,-4.191028118,1,-3.648978472,1,-8.117052078,1,-0.090156086,1,-0.02952455,1,0.078851238,1,0.477612913,1,-0.447988331,1,0.144834876,1
2.984037399,-3.901758432,1,-3.632647991,1,-8.218832016,1,-0.085465595,1,-0.016262425,1,0.071159855,1,0.477135092,1,-0.448182613,1,0.14510867,1
2.988037109,-4.120353222,1,-3.72261548,1,-8.112443924,1,-0.075082764,1,-0.027937651,1,0.077852972,1,0.476719409,1,-0.448414385,1,0.1453529,1
2.992038965,-4.063266754,1,-3.715508699,1,-8.080197334,1,-0.070220232,1,-0.011800636,1,0.081027232,1,0.476298183,1,-0.448623508,1,0.145624891,1
2.996036768,-3.983701944,1,-3.727828264,1,-8.117207527,1,-0.06543649,1,-0.012422312,1,0.082658589,1,0.475898772,1,-0.448812932,1,0.145924807,1
3.000036716,-3.963178396,1,-3.712999344,1,-8.155501366,1,-0.06145177,1,-0.005702961,1,0.084673569,1,0.475515664,1,-0.449009448,1,0.146233872,1
3.004038334,-3.88479805,1,-3.776051998,1,-8.172670364,1,-0.050092906,1,-0.007431005,1,0.089669459,1,0.47514689,1,-0.449195445,1,0.146563023,1
3.008036137,-3.930878162,1,-3.72452116,1,-8.206653595,1,-0.04837143,1,-0.012241589,1,0.093255363,1,0.474805295,1,-0.449402034,1,0.146900833,1
3.012035847,-3.923746586,1,-3.764405012,1,-8.223686218,1,-0.036143892,1,-0.009399641,1,0.099440813,1,0.47448495,1,-0.449620605,1,0.14725399,1
3.016037703,-3.877017975,1,-3.75349021,1,-8.180492401,1,-0.032994691,1,-0.011155704,1,0.106712461,1,0.474177718,1,-0.449849844,1,0.147635192,1
3.020035505,-3.929649353,1,-3.82824254,1,-8.176599503,1,-0.026204068,1,-0.016696457,1,0.108603373,1,0.473894119,1,-0.450095624,1,0.148031592,1
3.024034977,-3.849329472,1,-3.873753309,1,-8.186598778,1,-0.025924006,1,-0.015529795,1,0.111606322,1,0.473606944,1,-0.450346678,1,0.14844428,1
3.028036833,-3.80909586,1,-3.99335742,1,-8.138569832,1,-0.0236414,1,-0.018792089,1,0.118553966,1,0.473329961,1,-0.450615138,1,0.148868904,1
3.032034636,-3.822814941,1,-4.05294466,1,-8.136669159,1,-0.023709713,1,-0.020935992,1,0.127607405,1,0.473032922,1,-0.450909346,1,0.149321258,1
3.036034346,-3.790266275,1,-3.978828192,1,-8.153328896,1,-0.02674019,1,-0.023338921,1,0.136027634,1,0.472718477,1,-0.451234967,1,0.149801314,1
3.040036201,-3.955267668,1,-3.856684446,1,-8.165433884,1,-0.026128745,1,-0.02491173,1,0.141008079,1,0.472392857,1,-0.451581448,1,0.150301024,1
3.044033766,-3.9856143,1,-3.756738424,1,-8.144574165,1,-0.027943056,1,-0.02062729,1,0.143361032,1,0.472060353,1,-0.451920748,1,0.150816709,1
3.048033476,-4.02084446,1,-3.668431282,1,-8.124650955,1,-0.022445293,1,-0.021947511,1,0.141508415,1,0.471723974,1,-0.452256382,1,0.151336923,1
3.05203557,-4.051614761,1,-3.639496088,1,-8.200022697,1,-0.018783163,1,-0.019206876,1,0.138348848,1,0.471417904,1,-0.452588111,1,0.151854083,1
3.056033611,-4.062151909,1,-3.470606089,1,-8.184351921,1,-0.011309837,1,-0.016499592,1,0.139193654,1,0.471131384,1,-0.452906489,1,0.152360603,1
3.060033321,-4.117005825,1,-3.676774979,1,-8.069864273,1,-0.007228362,1,-0.015980722,1,0.137238711,1,0.470878184,1,-0.453210801,1,0.152863219,1
3.064040899,-4.105649948,1,-3.704600811,1,-8.09381485,1,-0.003102961,1,-0.010352165,1,0.136186332,1,0.470620453,1,-0.453499645,1,0.153385669,1
3.068045139,-4.040181637,1,-3.822143316,1,-8.014420509,1,-0.00662979,1,-0.004985571,1,0.14133583,1,0.47037369,1,-0.453786314,1,0.153902069,1
3.072045088,-3.99829483,1,-3.995874643,1,-8.038539886,1,-0.012840982,1,0.000817122,1,0.142287388,1,0.470104486,1,-0.454055429,1,0.154457152,1
3.076046944,-3.940924406,1,-4.22755003,1,-7.983834267,1,-0.029050367,1,-0.000510294,1,0.155811921,1,0.469766468,1,-0.454327762,1,0.155048937,1
3.080044746,-3.926321268,1,-4.220058441,1,-7.962450027,1,-0.034412235,1,0.00565296,1,0.1665705,1,0.469358295,1,-0.454613864,1,0.155689642,1
3.084044456,-3.828560352,1,-4.242207527,1,-7.994228363,1,-0.054442439,1,0.006550641,1,0.185220376,1,0.468869358,1,-0.454915315,1,0.156398758,1
3.088046074,-3.700020313,1,-4.273199558,1,-8.036897659,1,-0.062074427,1,0.00011408,1,0.213749066,1,0.467121184,1,-0.454285949,1,0.159076795,1
3.092044115,-3.725794792,1,-4.328393459,1,-8.148089409,1,-0.073857717,1,-0.000494367,1,0.2266078,1,0.466454655,1,-0.454673171,1,0.159951076,1
3.096043587,-3.751867294,1,-4.38876009,1,-8.173547745,1,-0.094393171,1,-0.009058119,1,0.248978063,1,0.46570605,1,-0.455118179,1,0.160889909,1
3.100045681,-3.844627142,1,-4.40584898,1,-8.171311378,1,-0.108803965,1,-0.006992591,1,0.270495296,1,0.46485889,1,-0.455613703,1,0.161906004,1
3.104043484,-3.714409113,1,-4.500561714,1,-8.197593689,1,-0.131895661,1,-0.016718362,1,0.28885594,1,0.46389854,1,-0.456166387,1,0.162991151,1
3.108043194,-3.777338743,1,-4.311001301,1,-8.27374649,1,-0.142626986,1,-0.02346261,1,0.305088282,1,0.46284759,1,-0.456774712,1,0.164127126,1
3.11204505,-3.71712184,1,-4.277754784,1,-8.354468346,1,-0.162401512,1,-0.034406964,1,0.319150954,1,0.461722076,1,-0.457438558,1,0.165322155,1
3.116042852,-3.824461699,1,-4.148639202,1,-8.388076782,1,-0.167551905,1,-0.047964521,1,0.326416492,1,0.460518122,1,-0.458158791,1,0.166527554,1
3.120042324,-3.853405952,1,-4.032151699,1,-8.309326172,1,-0.183261558,1,-0.051586732,1,0.338662893,1,0.459259689,1,-0.458925426,1,0.16776523,1
3.124043941,-3.99161911,1,-3.868030548,1,-8.287003517,1,-0.198449805,1,-0.058310874,1,0.339467585,1,0.457934976,1,-0.459720522,1,0.169020608,1
3.128041744,-3.932244062,1,-3.666294336,1,-8.355347633,1,-0.210231215,1,-0.056822333,1,0.343449503,1,0.456549525,1,-0.460529089,1,0.170282081,1
3.132041693,-3.708107948,1,-3.514381409,1,-8.713197708,1,-0.205705673,1,-0.073758721,1,0.343008846,1,0.455168426,1,-0.461369902,1,0.171537325,1
3.136043549,-3.861635685,1,-3.765951633,1,-8.506109238,1,-0.231657237,1,-0.09758468,1,0.340100318,1,0.453756541,1,-0.462284088,1,0.17273508,1
3.140041113,-3.767191648,1,-3.639484644,1,-8.725775719,1,-0.237810463,1,-0.110942237,1,0.340068817,1,0.452306807,1,-0.463248849,1,0.173886552,1
3.144041061,-3.875594616,1,-4.097927094,1,-8.487170219,1,-0.260499835,1,-0.134492308,1,0.343450904,1,0.450805098,1,-0.464294046,1,0.175015628,1
3.148042679,-3.942677975,1,-3.687944412,1,-8.661241531,1,-0.277054101,1,-0.140789062,1,0.350063831,1,0.44919911,1,-0.465395361,1,0.176146522,1
3.152040482,-3.843155146,1,-3.395052195,1,-8.837445259,1,-0.240484312,1,-0.14831835,1,0.371827751,1,0.447658658,1,-0.46654433,1,0.177326292,1
3.156040192,-3.717158079,1,-3.960260868,1,-8.77735424,1,-0.254519284,1,-0.180896699,1,0.364264041,1,0.446136087,1,-0.467773855,1,0.178488761,1
3.160042048,-3.484526873,1,-3.97020793,1,-9.181074142,1,-0.2829642,1,-0.226108611,1,0.382057101,1,0.44454959,1,-0.469155073,1,0.179613099,1
3.16403985,-3.528706551,1,-3.628526688,1,-9.030437469,1,-0.274883747,1,-0.267295957,1,0.400366336,1,0.442918628,1,-0.470702857,1,0.180721968,1
3.168039799,-3.715635777,1,-4.093366623,1,-9.158782959,1,-0.267139077,1,-0.29872632,1,0.418147445,1,0.441367239,1,-0.472424805,1,0.181844264,1
3.172041416,-3.780147552,1,-3.84883666,1,-9.384871483,1,-0.302637756,1,-0.363740116,1,0.428274363,1,0.439720273,1,-0.474341244,1,0.182927817,1
3.176039457,-3.975205421,1,-2.994875431,1,-9.762849808,1,-0.216554165,1,-0.396247625,1,0.452341348,1,0.438182592,1,-0.47647506,1,0.183997437,1
3.180039167,-3.433071136,1,-3.578076839,1,-9.70370388,1,-0.16702114,1,-0.451534718,1,0.481052458,1,0.436914265,1,-0.478794932,1,0.185098469,1
3.184047222,-3.496081591,1,-4.586677074,1,-10.10469246,1,-0.18007794,1,-0.5492118,1,0.501974404,1,0.435744703,1,-0.481437266,1,0.186153188,1
3.188051224,-3.062762499,1,-4.115540028,1,-10.02522278,1,-0.174555212,1,-0.628889203,1,0.541479826,1,0.434548825,1,-0.484439522,1,0.187169924,1
3.192051172,-3.444397211,1,-3.922096729,1,-10.8998642,1,-0.121277034,1,-0.710271597,1,0.574426174,1,0.433500767,1,-0.487815171,1,0.188178718,1
3.196053028,-2.992678881,1,-4.517922401,1,-10.53097057,1,-0.11049962,1,-0.822810292,1,0.61654669,1,0.432562977,1,-0.491571844,1,0.189181298,1
3.200050831,-3.43834424,1,-4.569130898,1,-10.58640862,1,-0.091418251,1,-0.955067337,1,0.645625651,1,0.431732923,1,-0.495870978,1,0.19008249,1
3.204050779,-3.647363424,1,-4.964128017,1,-10.75916004,1,-0.076643735,1,-1.045573473,1,0.70634985,1,0.430968523,1,-0.500621676,1,0.190974265,1
3.208052397,-2.868362427,1,-5.014770985,1,-10.57844353,1,-0.066821709,1,-1.17909956,1,0.786388218,1,0.430206835,1,-0.505905569,1,0.191948071,1
3.2120502,-3.086121082,1,-5.320267677,1,-11.33031654,1,-0.072631218,1,-1.316552401,1,0.865592837,1,0.429427028,1,-0.511835039,1,0.193006098,1
3.216049671,-2.446614742,1,-5.476327896,1,-11.70778465,1,-0.102192305,1,-1.477006197,1,0.938592374,1,0.42854178,1,-0.518417299,1,0.194098666,1
3.220051765,-2.273053646,1,-4.718182087,1,-11.85267925,1,-0.100742586,1,-1.653757215,1,1.004026651,1,0.427567452,1,-0.525711238,1,0.195187911,1
3.224049568,-2.169779301,1,-3.985848904,1,-12.13695526,1,-0.044623911,1,-1.831368327,1,1.060559392,1,0.426751792,1,-0.533769429,1,0.196196288,1
3.228049517,-2.684529066,1,-4.091765404,1,-13.02299309,1,0.054343432,1,-2.011646509,1,1.090238214,1,0.426361859,1,-0.542569995,1,0.197029084,1
3.232051134,-1.421761394,1,-5.704266071,1,-12.55481434,1,0.04060116,1,-2.230948925,1,1.186830521,1,0.426178366,1,-0.552139103,1,0.197788879,1
3.236048937,-0.569993615,1,-5.930938244,1,-12.46894741,1,-0.007379291,1,-2.539190531,1,1.241360188,1,0.425944865,1,-0.562834263,1,0.198342532,1
3.240048647,-0.802551866,1,-6.295137405,1,-12.47824192,1,-0.048382957,1,-2.841642857,1,1.311435103,1,0.425706714,1,-0.57476902,1,0.198572353,1
3.244050503,-1.179454446,1,-5.98007822,1,-12.5655241,1,-0.043663666,1,-3.089310169,1,1.419557333,1,0.425459206,1,-0.587843359,1,0.198666021,1
3.248048067,-0.923736989,1,-7.334230423,1,-11.55328274,1,-0.071835235,1,-3.195132971,1,1.581797123,1,0.425063908,1,-0.601762176,1,0.198957622,1
3.252048016,-0.233983681,1,-8.266098022,1,-11.30681419,1,-0.024011688,1,-3.350350142,1,1.836600304,1,0.424285769,1,-0.616499543,1,0.199972704,1
3.256049871,-1.240570664,1,-8.850388527,1,-11.30923462,1,-0.069832779,1,-3.498531342,1,2.060281038,1,0.42306304,1,-0.632202148,1,0.201801777,1
3.260047674,-2.053157568,1,-8.22544384,1,-10.77789783,1,-0.186533362,1,-3.606018543,1,2.173423052,1,0.421121716,1,-0.648646116,1,0.204206362,1
3.264047384,-2.445761919,1,-6.393430233,1,-11.4362669,1,-0.265446454,1,-3.775793791,1,2.197926998,1,0.41868332,1,-0.665681124,1,0.206715226,1
3.26804924,-4.39799881,1,-5.438051224,1,-12.27760792,1,-0.316706687,1,-3.875170231,1,2.203157187,1,0.416029394,1,-0.683274865,1,0.209065691,1
3.272047043,-6.170394421,1,-7.032524109,1,-11.45796108,1,-0.391247183,1,-3.795926094,1,2.227921724,1,0.413049459,1,-0.700899422,1,0.211529806,1
3.276046753,-5.888044357,1,-8.969415665,1,-11.05255795,1,-0.575683534,1,-3.811158657,1,2.298493862,1,0.409223437,1,-0.718421817,1,0.214466497,1
3.280048609,-6.808327198,1,-10.29197311,1,-10.86071777,1,-0.838438869,1,-3.858865976,1,2.369914293,1,0.404219925,1,-0.736243248,1,0.217801705,1
3.28404665,-6.390012264,1,-11.12873268,1,-10.25728607,1,-1.181798458,1,-3.889821291,1,2.447452068,1,0.397580802,1,-0.754254758,1,0.221641243,1
3.28804636,-6.874039173,1,-12.45522213,1,-9.761460304,1,-1.57644403,1,-3.934439421,1,2.545610428,1,0.389000535,1,-0.772531211,1,0.226107687,1
3.292048454,-9.869756699,1,-13.79684544,1,-10.07925129,1,-1.981026649,1,-3.932066917,1,2.642952442,1,0.37817508,1,-0.791034281,1,0.231345177,1
3.296046257,-13.29125023,1,-15.08962059,1,-10.62254524,1,-2.320178032,1,-3.785499334,1,2.722874403,1,0.365042448,1,-0.809333205,1,0.237627342,1
3.300045967,-13.48898411,1,-14.10848045,1,-9.78662014,1,-2.647508383,1,-3.521207333,1,2.897055626,1,0.349352241,1,-0.826972425,1,0.245514974,1
3.304054022,-9.861673355,1,-13.24472713,1,-8.637646675,1,-2.959153652,1,-3.431838989,1,3.060326815,1,0.33077085,1,-0.84397006,1,0.255408555,1
3.308057785,-10.92061138,1,-14.0170927,1,-7.881223679,1,-3.224855185,1,-3.441301584,1,3.232830286,1,0.309712827,1,-0.861016154,1,0.266958356,1
3.312057495,-12.88407421,1,-12.79094887,1,-8.734369278,1,-3.456698656,1,-3.339672327,1,3.273425579,1,0.286275446,1,-0.877853096,1,0.280117035,1
3.316059589,-13.5243988,1,-12.25472164,1,-7.958459377,1,-3.575558186,1,-3.133043051,1,3.253827572,1,0.26112178,1,-0.893840432,1,0.294438601,1
3.320057631,-12.52948284,1,-13.73927784,1,-6.843702316,1,-3.709253311,1,-3.06759429,1,3.244986534,1,0.234452799,1,-0.909020543,1,0.309881061,1
3.324057102,-13.56634521,1,-14.41875935,1,-7.036899567,1,-3.922140837,1,-2.960831881,1,3.208453894,1,0.206262708,1,-0.923671424,1,0.326230854,1
3.328058958,-12.18034077,1,-12.30286789,1,-6.231582165,1,-4.168700218,1,-2.726088047,1,3.093404531,1,0.176315814,1,-0.937221408,1,0.343373418,1
3.332056522,-10.76759815,1,-11.46290207,1,-5.927338123,1,-4.319236755,1,-2.63531065,1,2.916720629,1,0.14531137,1,-0.949710488,1,0.360635281,1
3.336056232,-11.28915977,1,-10.28223801,1,-6.155118942,1,-4.342989922,1,-2.524597883,1,2.772331715,1,0.113905743,1,-0.96142447,1,0.377882361,1
3.340058088,-10.85448837,1,-10.12796021,1,-6.419351101,1,-4.373619556,1,-2.334667683,1,2.56648612,1,0.082545601,1,-0.97207278,1,0.394240022,1
3.344056129,-9.322917938,1,-9.484796524,1,-6.801333427,1,-4.374916077,1,-2.203610182,1,2.32049799,1,0.051531624,1,-0.981737614,1,0.410535038,1
3.34805584,-15.82724857,1,-4.529919147,1,-8.041814804,1,-4.124256134,1,-2.103181601,1,2.104787111,1,0.021464011,1,-0.99074167,1,0.426051557,1
