Time,inertial-6253.76535:estCompensatedAccelX,inertial-6253.76535:estCompensatedAccelX:valid,inertial-6253.76535:estCompensatedAccelY,inertial-6253.76535:estCompensatedAccelY:valid,inertial-6253.76535:estCompensatedAccelZ,inertial-6253.76535:estCompensatedAccelZ:valid,inertial-6253.76535:estAngularRateX,inertial-6253.76535:estAngularRateX:valid,inertial-6253.76535:estAngularRateY,inertial-6253.76535:estAngularRateY:valid,inertial-6253.76535:estAngularRateZ,inertial-6253.76535:estAngularRateZ:valid,inertial-6253.76535:estRoll,inertial-6253.76535:estRoll:valid,inertial-6253.76535:estPitch,inertial-6253.76535:estPitch:valid,inertial-6253.76535:estYaw,inertial-6253.76535:estYaw:valid,inertial-6253.76535:estLinearAccelX,inertial-6253.76535:estLinearAccelX:valid,inertial-6253.76535:estLinearAccelY,inertial-6253.76535:estLinearAccelY:valid,inertial-6253.76535:estLinearAccelZ,inertial-6253.76535:estLinearAccelZ:valid
0,-4.845035553,1,-1.045006752,1,-8.452013969,1,-0.00203827,1,-0.006922659,1,0.004026003,1,0.12169499,1,-0.521730125,1,0.193500191,1,0.029211044,1,-0.015700579,1,-0.035727501,1
0.003997696,-4.873610497,1,-1.036028147,1,-8.472682953,1,-0.003437568,1,-0.010782944,1,0.000908629,1,0.121678934,1,-0.521775961,1,0.193510294,1,0.001024723,1,-0.006883979,1,-0.056599617,1
0.007997184,-4.868067741,1,-0.998641312,1,-8.466164589,1,-0.005218541,1,-0.010512698,1,0.001702835,1,0.121660016,1,-0.521822333,1,0.193523824,1,0.006960869,1,0.030316174,1,-0.050286293,1
0.011992832,-4.919175625,1,-0.987928212,1,-8.474463463,1,0.00056046,1,-0.008011109,1,0.005313827,1,0.121640243,1,-0.521865606,1,0.19353579,1,-0.043780327,1,0.040837348,1,-0.058773994,1
0.015990272,-4.893606663,1,-0.969869196,1,-8.433972359,1,-0.0032042,1,-0.009957592,1,0.008990935,1,0.12161652,1,-0.521910489,1,0.193560407,1,-0.017830849,1,0.058669984,1,-0.018476486,1
0.019989761,-4.877459526,1,-1.026797891,1,-8.442304611,1,-0.002754429,1,-0.010368039,1,0.004707335,1,0.121600322,1,-0.52195102,1,0.19356966,1,-0.001340389,1,0.001581073,1,-0.026988029,1
0.023985408,-4.853447914,1,-0.995779455,1,-8.435364723,1,-0.00759595,1,-0.007640882,1,0.000628067,1,0.121576026,1,-0.521989107,1,0.193576127,1,0.022994518,1,0.032372415,1,-0.020208359,1
0.027982848,-4.853917122,1,-1.021218896,1,-8.467700005,1,-0.005038599,1,-0.009651423,1,0.003373199,1,0.121550426,1,-0.522033751,1,0.193592831,1,0.022903442,1,0.006691337,1,-0.052731514,1
0.031982593,-4.842080116,1,-1.026187778,1,-8.475205421,1,-0.002518034,1,-0.012486541,1,0.002518628,1,0.121528909,1,-0.522081435,1,0.193604663,1,0.035144329,1,0.001513004,1,-0.060446739,1
0.035978239,-4.853879452,1,-1.022350907,1,-8.470924377,1,-0.003969745,1,-0.014827561,1,0.005801621,1,0.121500164,1,-0.522140563,1,0.193618253,1,0.023846626,1,0.005072832,1,-0.056424141,1
0.03997568,-4.881717205,1,-0.990642309,1,-8.452025414,1,-0.00454526,1,-0.01499512,1,0.00191621,1,0.121476635,1,-0.522201419,1,0.193617508,1,-0.003475189,1,0.036547542,1,-0.037796021,1
0.043975424,-4.862907887,1,-1.007375002,1,-8.480223656,1,-0.008901495,1,-0.016091218,1,0.002646842,1,0.121459864,1,-0.522263527,1,0.193624541,1,0.015860558,1,0.019636989,1,-0.066277504,1
0.047971074,-4.832024574,1,-1.021957755,1,-8.488525391,1,-0.001666537,1,-0.01791022,1,0.004678219,1,0.121434599,1,-0.522341251,1,0.193630889,1,0.047402859,1,0.00479579,1,-0.074930191,1
0.051968511,-4.84964323,1,-1.029163361,1,-8.446557045,1,-0.007204074,1,-0.018226516,1,0.004766586,1,0.121415116,1,-0.522417307,1,0.193640143,1,0.030428886,1,-0.00261867,1,-0.033309937,1
0.055968255,-4.893005371,1,-1.026536107,1,-8.447148323,1,-0.001526645,1,-0.014497992,1,-4.35E-05,1,0.121393427,1,-0.522488356,1,0.193638727,1,-0.012331486,1,-0.00021553,1,-0.034220695,1
0.059963904,-4.86286974,1,-0.970837295,1,-8.453064919,1,-0.002805362,1,-0.016681306,1,0.003551671,1,0.12137574,1,-0.522555411,1,0.193641454,1,0.018372536,1,0.055294931,1,-0.040442467,1
0.063967489,-4.852967262,1,-0.966972888,1,-8.469604492,1,-0.004562549,1,-0.018842511,1,0.005414834,1,0.121350631,1,-0.522634625,1,0.193655476,1,0.0289464,1,0.058901012,1,-0.057343483,1
0.067967229,-4.85015583,1,-0.966308177,1,-8.490685463,1,-0.002427028,1,-0.017212955,1,0.004392526,1,0.121337466,1,-0.52270776,1,0.193654254,1,0.032378197,1,0.059411943,1,-0.078763962,1
0.071963139,-4.91950798,1,-1.02246964,1,-8.439649582,1,-0.004133916,1,-0.016911343,1,0.003833745,1,0.121323146,1,-0.522783339,1,0.193665862,1,-0.036333561,1,0.003085256,1,-0.028079987,1
0.07596083,-4.880578041,1,-1.021464109,1,-8.477930069,1,-0.000659375,1,-0.017856773,1,0.002774491,1,0.121310949,1,-0.522856593,1,0.193662375,1,0.003216743,1,0.003945112,1,-0.066701889,1
0.079960577,-4.86338377,1,-1.057025313,1,-8.442070961,1,-0.007694366,1,-0.01963741,1,0.00839346,1,0.121283121,1,-0.522930741,1,0.193677947,1,0.021039486,1,-0.031894088,1,-0.031173706,1
0.08395648,-4.859213352,1,-1.025297284,1,-8.449888229,1,-0.006025608,1,-0.020180326,1,0.004423721,1,0.121246345,1,-0.52300936,1,0.193698913,1,0.025876045,1,-0.000521779,1,-0.039335251,1
0.087954178,-4.876608372,1,-1.015721202,1,-8.442836761,1,-0.008153501,1,-0.017704748,1,0.011156894,1,0.121211007,1,-0.523084998,1,0.193714544,1,0.009120941,1,0.008712292,1,-0.032613754,1
0.091953918,-4.875583172,1,-1.006557226,1,-8.443173409,1,-0.004995901,1,-0.02014675,1,0.002431012,1,0.121181816,1,-0.523157775,1,0.193732202,1,0.010763168,1,0.0175879,1,-0.033273697,1
0.095949821,-4.891691685,1,-0.98716414,1,-8.454157829,1,-0.003967335,1,-0.016806673,1,0.005521391,1,0.121142216,1,-0.523242593,1,0.193751305,1,-0.004626274,1,0.036597729,1,-0.044630051,1
0.09994752,-4.87264204,1,-1.014489293,1,-8.463497162,1,-0.004752287,1,-0.018253382,1,0.010477262,1,0.121111184,1,-0.523314655,1,0.193771407,1,0.015033722,1,0.008969188,1,-0.054286003,1
0.103947267,-4.883442879,1,-1.06108892,1,-8.416620255,1,-0.004058427,1,-0.018116672,1,0.004822987,1,0.12107981,1,-0.523386836,1,0.193792716,1,0.004844189,1,-0.037937164,1,-0.007727623,1
0.10794317,-4.871301651,1,-1.010877132,1,-8.420605659,1,-0.006903092,1,-0.015121439,1,0.003814501,1,0.121057101,1,-0.523458779,1,0.193807602,1,0.017594814,1,0.01204145,1,-0.012038231,1
0.111940607,-4.901251793,1,-0.978397608,1,-8.483014107,1,-0.007221886,1,-0.015701143,1,0.006560253,1,0.121018283,1,-0.523532689,1,0.193831518,1,-0.01172924,1,0.044150829,1,-0.074767113,1
0.115940608,-4.911456108,1,-0.964887559,1,-8.424333572,1,-0.007105757,1,-0.014928158,1,0.008030591,1,0.120988198,1,-0.523597836,1,0.193844229,1,-0.021381855,1,0.05736953,1,-0.016370773,1
0.119936511,-4.882669926,1,-0.984534562,1,-8.450194359,1,-0.003542381,1,-0.014316699,1,0.007448468,1,0.120958,1,-0.523658812,1,0.193861932,1,0.007920742,1,0.03743273,1,-0.042495728,1
0.123934209,-4.892109871,1,-1.001083136,1,-8.458262444,1,-0.004354594,1,-0.01412289,1,0.005672293,1,0.12092676,1,-0.523723066,1,0.193884254,1,-0.000974655,1,0.020583749,1,-0.050843239,1
0.127933949,-4.87419939,1,-0.9822191,1,-8.421092987,1,-0.003824945,1,-0.012417994,1,0.001716788,1,0.120841846,1,-0.523755312,1,0.192723647,1,0.017208099,1,0.038714767,1,-0.013744354,1
0.131935492,-4.881935596,1,-1.020191669,1,-8.463456154,1,-0.004789676,1,-0.017520087,1,0.007000299,1,0.120811202,1,-0.523818016,1,0.192742571,1,0.01000309,1,0.000447273,1,-0.056383133,1
0.135933444,-4.894613266,1,-0.983349025,1,-8.450555801,1,-0.002806445,1,-0.012983673,1,0.0031582,1,0.120791592,1,-0.523873329,1,0.192750514,1,-0.002206326,1,0.037092388,1,-0.043732643,1
0.139933184,-4.903964043,1,-0.985384047,1,-8.458142281,1,-0.000599868,1,-0.012068282,1,0.002863017,1,0.120777965,1,-0.523935795,1,0.192761749,1,-0.011027813,1,0.034906209,1,-0.051607132,1
0.143934727,-4.89628315,1,-0.969786823,1,-8.449297905,1,-0.00620028,1,-0.017336948,1,0.001095392,1,0.120759852,1,-0.523989379,1,0.192767322,1,-0.002892494,1,0.050319374,1,-0.04300499,1
0.147932678,-4.926337242,1,-0.991214156,1,-8.460699081,1,-0.002983874,1,-0.011388377,1,0.003702241,1,0.120743342,1,-0.524050713,1,0.192777649,1,-0.032427788,1,0.02871716,1,-0.0546875,1
0.151932418,-4.904849529,1,-1.042974114,1,-8.435331345,1,-0.001858442,1,-0.008374939,1,0.002175311,1,0.120733432,1,-0.524101794,1,0.192778528,1,-0.010507584,1,-0.023156285,1,-0.029558182,1
0.15592806,-4.927734375,1,-1.028773427,1,-8.433559418,1,-0.003275849,1,-0.011645989,1,0.000970489,1,0.120723486,1,-0.524148226,1,0.192785308,1,-0.032999516,1,-0.009066463,1,-0.028000832,1
0.159925759,-4.914223671,1,-1.044062257,1,-8.441300392,1,-0.005389201,1,-0.012555473,1,0.004416552,1,0.12070062,1,-0.524195015,1,0.192804888,1,-0.01909256,1,-0.024574995,1,-0.035944939,1
0.163925499,-4.919986725,1,-1.021988988,1,-8.459972382,1,-0.001361164,1,-0.007296608,1,0.006022935,1,0.120678321,1,-0.524240077,1,0.192823067,1,-0.024473667,1,-0.002715826,1,-0.054814339,1
0.167921409,-4.906756878,1,-0.972887158,1,-8.4327631,1,-0.001930272,1,-0.009395409,1,0.005273337,1,0.120653063,1,-0.524276078,1,0.192834795,1,-0.010939121,1,0.046152234,1,-0.027755737,1
0.171919107,-4.920434952,1,-0.982806981,1,-8.424758911,1,-0.002578465,1,-0.009278543,1,0.001988232,1,0.120641999,1,-0.5243119,1,0.192848861,1,-0.024313927,1,0.036118448,1,-0.019913673,1
0.175918594,-4.910496712,1,-0.981479943,1,-8.431251526,1,-0.004204932,1,-0.004750178,1,0.00177175,1,0.120614983,1,-0.524344563,1,0.192863464,1,-0.014099121,1,0.037199318,1,-0.026535988,1
0.179914489,-4.886862278,1,-0.9965114,1,-8.459170341,1,-0.005236837,1,-0.008365713,1,0.003849404,1,0.120595232,1,-0.524371982,1,0.192874804,1,0.009767532,1,0.02198571,1,-0.054568291,1
0.183911934,-4.907818794,1,-1.010588288,1,-8.41587925,1,-0.002698711,1,-0.007961754,1,0.000866538,1,0.120573394,1,-0.524402142,1,0.192883462,1,-0.010933876,1,0.007707715,1,-0.011400223,1
0.187911421,-4.925719261,1,-0.958487153,1,-8.43536377,1,-0.001972431,1,-0.001377902,1,0.007550283,1,0.120555907,1,-0.524427235,1,0.19289726,1,-0.028621674,1,0.059646964,1,-0.030989647,1
0.191907331,-4.897928238,1,-0.971022785,1,-8.46944809,1,-0.002009708,1,-0.0026996,1,0.005122577,1,0.120539412,1,-0.52443862,1,0.192903101,1,-0.000733852,1,0.046966016,1,-0.065113068,1
0.19590503,-4.93624258,1,-0.989557564,1,-8.441512108,1,-0.001117337,1,-0.002492157,1,-0.000418147,1,0.120521039,1,-0.524453282,1,0.192910284,1,-0.038924694,1,0.028268278,1,-0.037229538,1
0.19990477,-4.930112362,1,-0.972180307,1,-8.444551468,1,0.001198805,1,-0.003199848,1,0.003156198,1,0.120524719,1,-0.524465978,1,0.192901984,1,-0.03268671,1,0.0456689,1,-0.040333748,1
0.203900665,-4.922289848,1,-1.004193068,1,-8.425906181,1,-3.49E-05,1,-0.002857158,1,0.001091526,1,0.120514289,1,-0.524475217,1,0.192911759,1,-0.024785995,1,0.013563156,1,-0.021722794,1
0.20789811,-4.919937134,1,-1.017719746,1,-8.434397697,1,-0.001604883,1,0.002361829,1,0.001146022,1,0.120503739,1,-0.524488091,1,0.192915007,1,-0.022324085,1,-5.98E-05,1,-0.030265808,1
0.211898118,-4.898990631,1,-1.035284042,1,-8.410258293,1,0.00057178,1,-0.000809309,1,0.003104934,1,0.12049517,1,-0.524487615,1,0.192915797,1,-0.001381874,1,-0.017695785,1,-0.006115913,1
0.215894014,-4.885551453,1,-1.008980989,1,-8.448156357,1,-0.005603583,1,0.000557046,1,-0.00123355,1,0.120488435,1,-0.524497747,1,0.19291763,1,0.012143135,1,0.008544564,1,-0.044055939,1
0.219891712,-4.925176144,1,-0.981943607,1,-8.443528175,1,-0.001933734,1,-0.002214761,1,0.002486526,1,0.120470449,1,-0.524501026,1,0.192920208,1,-0.027453899,1,0.035428762,1,-0.039426804,1
0.223897859,-4.91591692,1,-0.99594897,1,-8.436435699,1,-0.004192203,1,-6.60E-06,1,0.001208162,1,0.120455511,1,-0.524501264,1,0.192927584,1,-0.018192768,1,0.021297634,1,-0.032320976,1
0.227899909,-4.920706272,1,-1.017588377,1,-8.46176815,1,0.001253616,1,-5.56E-05,1,-0.00156783,1,0.120449543,1,-0.524495184,1,0.192928448,1,-0.023033619,1,-0.000388384,1,-0.057617188,1
0.231898367,-4.944177628,1,-0.998115242,1,-8.44328022,1,-0.004043071,1,0.004876913,1,0.003773717,1,0.120438278,1,-0.524496317,1,0.19293052,1,-0.046495438,1,0.018989503,1,-0.039124489,1
0.235898107,-4.886075497,1,-1.035454273,1,-8.423359871,1,-0.001062211,1,-0.000161679,1,0.004589847,1,0.120417438,1,-0.524497271,1,0.192945927,1,0.011614799,1,-0.018524885,1,-0.019184113,1
0.239893764,-4.910953045,1,-0.963834286,1,-8.445447922,1,-0.004769933,1,0.004663651,1,0.003325463,1,0.120400429,1,-0.524496317,1,0.192950308,1,-0.013270855,1,0.052952647,1,-0.041250229,1
0.243891463,-4.89170599,1,-0.986527741,1,-8.466627121,1,-0.00219281,1,-0.002100529,1,0.004904287,1,0.120379545,1,-0.524493992,1,0.192971125,1,0.005957127,1,0.030084908,1,-0.062398911,1
0.247891203,-4.872797012,1,-1.000246048,1,-8.446320534,1,-0.003119721,1,0.003380594,1,0.000371705,1,0.120366879,1,-0.524494648,1,0.192990974,1,0.024871349,1,0.016259909,1,-0.042079926,1
0.251887113,-4.886949062,1,-0.992350101,1,-8.451101303,1,-2.84E-05,1,0.000865757,1,0.003847185,1,0.120348789,1,-0.524487913,1,0.193003848,1,0.010662556,1,0.024007678,1,-0.046811104,1
0.255884796,-4.912118912,1,-0.990392029,1,-8.443192482,1,-0.002284471,1,0.000463464,1,-6.84E-05,1,0.120342165,1,-0.524487555,1,0.193010151,1,-0.014510632,1,0.025910079,1,-0.038896561,1
0.259884298,-4.928335667,1,-0.981955647,1,-8.438342094,1,-0.000533582,1,-1.81E-05,1,0.000910389,1,0.120340705,1,-0.524477899,1,0.19300814,1,-0.030809879,1,0.034340143,1,-0.033994675,1
0.263886094,-4.905739784,1,-0.97026825,1,-8.421869278,1,-0.001869571,1,0.003979696,1,0.001356618,1,0.120328814,1,-0.524470806,1,0.193013206,1,-0.008273125,1,0.045931697,1,-0.017476082,1
0.267884046,-4.90380764,1,-0.982342482,1,-8.454501152,1,-0.001304878,1,0.001547436,1,0.000697071,1,0.120320201,1,-0.524454236,1,0.193021551,1,-0.006481171,1,0.033794761,1,-0.050019264,1
0.271883786,-4.882392406,1,-0.974215746,1,-8.451543808,1,-0.000172937,1,0.004657018,1,0.001788917,1,0.120319985,1,-0.524438739,1,0.193023145,1,0.014802456,1,0.041928768,1,-0.046985626,1
0.275879681,-4.897040367,1,-0.976707041,1,-8.43969059,1,0.001604164,1,0.007718351,1,-0.00168727,1,0.12031994,1,-0.52442497,1,0.193027049,1,3.77E-05,1,0.039445221,1,-0.035065651,1
0.279877126,-4.894165993,1,-1.011220098,1,-8.453720093,1,-0.001529198,1,0.004647282,1,0.002471853,1,0.120314874,1,-0.524406791,1,0.193035185,1,0.002758503,1,0.004900217,1,-0.049001694,1
0.283877134,-4.887965679,1,-0.979461789,1,-8.428310394,1,-0.002012122,1,0.004485409,1,-0.00196747,1,0.120321982,1,-0.524380147,1,0.193032265,1,0.008733273,1,0.036733866,1,-0.023470879,1
0.28787303,-4.900938511,1,-0.973088622,1,-8.435296059,1,0.002425533,1,0.003256408,1,-0.004356448,1,0.120317176,1,-0.524358749,1,0.193031371,1,-0.00442028,1,0.043079019,1,-0.030348778,1
0.291870475,-4.871861935,1,-0.992828727,1,-8.440835953,1,0.002571332,1,0.004623258,1,-0.001595233,1,0.120326459,1,-0.524347186,1,0.193021879,1,0.024558067,1,0.02342391,1,-0.035840988,1
0.295870215,-4.877010822,1,-0.983325243,1,-8.42737484,1,0.00135537,1,0.003474254,1,-0.003582408,1,0.120335892,1,-0.524330914,1,0.193020031,1,0.019271374,1,0.033016086,1,-0.022311211,1
0.299871743,-4.908276558,1,-0.99561429,1,-8.471536636,1,0.000667729,1,0.00562045,1,-6.45E-05,1,0.120345928,1,-0.524319291,1,0.193016499,1,-0.01209259,1,0.020818353,1,-0.066426277,1
0.303869426,-4.867191792,1,-1.010809302,1,-8.438253403,1,0.002579201,1,0.00174779,1,-0.000773461,1,0.120347612,1,-0.524306595,1,0.193015397,1,0.028884888,1,0.005644798,1,-0.033084869,1
0.307869196,-4.892419338,1,-1.017891526,1,-8.457353592,1,0.000370515,1,0.003195983,1,-0.001325629,1,0.120356336,1,-0.52429682,1,0.193015978,1,0.003573895,1,-0.001358151,1,-0.052144051,1
0.311864823,-4.881986618,1,-1.007755756,1,-8.467815399,1,0.00220138,1,0.00196355,1,-0.000972913,1,0.12035758,1,-0.524288058,1,0.193020165,1,0.013932705,1,0.008793235,1,-0.062563896,1
0.315862536,-4.90239048,1,-0.982261002,1,-8.432149887,1,-0.002861004,1,0.000517685,1,0.00376781,1,0.120356068,1,-0.524287283,1,0.193026528,1,-0.00647831,1,0.034275711,1,-0.026892662,1
0.319862276,-4.894976616,1,-1.009768367,1,-8.477462769,1,0.005618307,1,-0.00172104,1,-0.00183048,1,0.120352969,1,-0.524287879,1,0.193026692,1,0.0009408,1,0.00674212,1,-0.07220459,1
0.323858172,-4.891831398,1,-1.013570666,1,-8.442835808,1,0.002599108,1,-0.000486127,1,0.004578367,1,0.120358773,1,-0.524287283,1,0.193036944,1,0.004080772,1,0.002988935,1,-0.03758049,1
0.327855885,-4.889920712,1,-1.017776608,1,-8.443434715,1,0.001652795,1,-0.001690393,1,-0.002110844,1,0.12035919,1,-0.524285316,1,0.193048283,1,0.005975246,1,-0.001212239,1,-0.038169861,1
0.331855625,-4.863539696,1,-0.979253411,1,-8.450503349,1,0.003679588,1,-0.000513056,1,0.001609416,1,0.12034782,1,-0.524289131,1,0.193058491,1,0.03238821,1,0.037213087,1,-0.045246124,1
0.33585152,-4.911484718,1,-0.993997633,1,-8.448836327,1,0.003428528,1,0.000601014,1,0.000441558,1,0.120348714,1,-0.524290919,1,0.193069294,1,-0.015541553,1,0.022475541,1,-0.043587685,1
0.339849204,-4.875862598,1,-0.998515964,1,-8.446956635,1,0.003301256,1,-0.000116615,1,0.000967754,1,0.120355517,1,-0.524287999,1,0.193070322,1,0.020056248,1,0.018015742,1,-0.041702271,1
0.343848974,-4.907721043,1,-1.046771526,1,-8.438809395,1,0.002772058,1,0.001068005,1,0.001906847,1,0.120356068,1,-0.524281919,1,0.193078309,1,-0.011853695,1,-0.030231476,1,-0.033525467,1
0.347844869,-4.899479866,1,-1.005519271,1,-8.443703651,1,-0.001914319,1,0.00073426,1,0.000511579,1,0.120354056,1,-0.524285495,1,0.193085834,1,-0.003582001,1,0.011001587,1,-0.03843689,1
0.351842552,-4.887903214,1,-1.004030347,1,-8.443532944,1,-0.001446147,1,-0.001301816,1,0.000387561,1,0.12034867,1,-0.52428329,1,0.19309251,1,0.007976055,1,0.012446761,1,-0.038249016,1
0.355842054,-4.891641617,1,-0.977998197,1,-8.45370388,1,0.001690354,1,0.000826312,1,-0.002336083,1,0.120342575,1,-0.524283051,1,0.193097815,1,0.004235268,1,0.03842777,1,-0.048412323,1
0.359837949,-4.867835045,1,-0.990752637,1,-8.438353539,1,-0.000258327,1,0.001732611,1,-0.000628381,1,0.120346807,1,-0.524281621,1,0.193089902,1,0.028029442,1,0.025709927,1,-0.033057213,1
0.363835663,-4.890421391,1,-1.015779734,1,-8.420898438,1,0.002193934,1,0.000582161,1,-0.000716865,1,0.120345965,1,-0.524282098,1,0.193091586,1,0.005447865,1,0.00067544,1,-0.015604019,1
0.367835402,-4.871365547,1,-1.036185026,1,-8.440863609,1,0.002462418,1,0.000679503,1,-0.001247106,1,0.120354027,1,-0.524278104,1,0.193080708,1,0.024469376,1,-0.019659877,1,-0.035558701,1
0.37183103,-4.863161087,1,-1.044055104,1,-8.438376427,1,-0.001147826,1,-0.002502142,1,0.001178496,1,0.120350681,1,-0.524280846,1,0.193086416,1,0.032697201,1,-0.027559519,1,-0.033081055,1
0.375828475,-4.854675293,1,-1.054629803,1,-8.42946434,1,-0.000759714,1,-0.001648246,1,0.001097635,1,0.120296732,1,-0.524272084,1,0.19311139,1,0.041108131,1,-0.038582563,1,-0.024071693,1
0.379834354,-4.85720396,1,-1.037093282,1,-8.46078968,1,0.00186498,1,-0.004641748,1,-0.002507627,1,0.120270632,1,-0.524300277,1,0.191889092,1,0.038818359,1,-0.021282315,1,-0.055509567,1
0.38383615,-4.870203495,1,-0.995333254,1,-8.477241516,1,-0.00463589,1,-0.004832931,1,0.003257285,1,0.120263524,1,-0.524314344,1,0.19189164,1,0.025938511,1,0.020409644,1,-0.072024345,1
0.387834102,-4.895747662,1,-0.94254607,1,-8.474493027,1,-0.004001637,1,-0.007236906,1,0.001977872,1,0.120252997,1,-0.524342716,1,0.191889152,1,0.00063467,1,0.073091567,1,-0.069402695,1
0.391833842,-4.902540207,1,-0.98231113,1,-8.462129593,1,0.001888662,1,-0.003695237,1,0.003111451,1,0.120242439,1,-0.524364412,1,0.191892773,1,-0.005974293,1,0.033225298,1,-0.057131767,1
0.395835638,-4.884344578,1,-0.975041747,1,-8.4773283,1,-0.002495793,1,-0.009637429,1,-0.000718916,1,0.120237976,1,-0.524391294,1,0.191895813,1,0.012448788,1,0.040441394,1,-0.07245636,1
0.39983359,-4.889547825,1,-1.00850606,1,-8.424869537,1,-0.00121559,1,-0.005742505,1,-0.000197928,1,0.120232604,1,-0.52442199,1,0.191891715,1,0.007505417,1,0.006913781,1,-0.020143509,1
0.40383333,-4.905068398,1,-1.040756226,1,-8.459665298,1,-0.003463342,1,-0.00561987,1,0.001259064,1,0.120227933,1,-0.524445951,1,0.191886202,1,-0.0078125,1,-0.02538991,1,-0.055051804,1
0.407828987,-4.916298866,1,-1.038386226,1,-8.468864441,1,-0.001601321,1,-0.004566032,1,-0.001099588,1,0.120220579,1,-0.524473548,1,0.191887662,1,-0.018808842,1,-0.023097634,1,-0.064374924,1
0.4118267,-4.894036293,1,-1.002662063,1,-8.445623398,1,-0.008043768,1,-0.003232428,1,0.002857883,1,0.120202608,1,-0.524491787,1,0.19189699,1,0.003608227,1,0.012465,1,-0.041203499,1
0.41582644,-4.881962299,1,-1.009714603,1,-8.456762314,1,-0.003759853,1,-0.007885923,1,-0.000333129,1,0.120192587,1,-0.524520934,1,0.191892207,1,0.015928745,1,0.005311012,1,-0.052474022,1
0.419822335,-4.840716839,1,-1.007638812,1,-8.481323242,1,-0.003799305,1,-0.011148786,1,0.00186095,1,0.120168269,1,-0.524553716,1,0.191898435,1,0.057451725,1,0.007163167,1,-0.077169418,1
0.423820019,-4.880969048,1,-0.968927443,1,-8.48127079,1,-0.001729851,1,-0.008730403,1,-0.000953339,1,0.120149598,1,-0.524589956,1,0.191900745,1,0.017506123,1,0.045696437,1,-0.077273369,1
0.427819788,-4.897547245,1,-0.974075556,1,-8.470664024,1,-0.002118272,1,-0.008345601,1,0.000356843,1,0.120145328,1,-0.524620712,1,0.191897914,1,0.001188278,1,0.040493965,1,-0.06681633,1
0.431815684,-4.927965641,1,-0.987421691,1,-8.4532547,1,-0.006186124,1,-0.009210737,1,0.004528267,1,0.120137237,1,-0.524649918,1,0.191895291,1,-0.028983116,1,0.027062953,1,-0.049538612,1
0.435813129,-4.931329727,1,-0.989158213,1,-8.447880745,1,-0.002040562,1,-0.007948347,1,-0.002546072,1,0.12012928,1,-0.524679363,1,0.191890553,1,-0.03209734,1,0.025242031,1,-0.044301987,1
0.439812601,-4.887917519,1,-0.999970555,1,-8.454174995,1,-0.003972343,1,-0.007430274,1,-0.003015155,1,0.120121352,1,-0.524707794,1,0.191884816,1,0.011554718,1,0.014346361,1,-0.050725937,1
0.443808526,-4.912055016,1,-0.960575342,1,-8.407419205,1,0.000312909,1,-0.00667865,1,-0.00208416,1,0.120117739,1,-0.524741054,1,0.191877484,1,-0.012300968,1,0.053691745,1,-0.004127502,1
0.447806209,-4.890774727,1,-0.972944379,1,-8.431331635,1,0.000224638,1,-0.008844288,1,0.002624054,1,0.120123014,1,-0.524766922,1,0.191868663,1,0.009198666,1,0.041352034,1,-0.028169632,1
0.451805949,-4.884942055,1,-0.976133108,1,-8.449175835,1,0.000951391,1,-0.006894664,1,-0.004790396,1,0.120119162,1,-0.524802446,1,0.191870287,1,0.015331268,1,0.038110137,1,-0.046182632,1
0.455801606,-4.878288269,1,-0.951023936,1,-8.51232338,1,-0.00104693,1,-0.006761055,1,-0.000404469,1,0.120127633,1,-0.52483201,1,0.191855982,1,0.02223587,1,0.063273311,1,-0.109481812,1
0.459805429,-4.903164387,1,-0.951637685,1,-8.405231476,1,0.005392701,1,-0.008234081,1,-0.003453031,1,0.12013676,1,-0.524846077,1,0.191841215,1,-0.002521515,1,0.062727988,1,-0.002467155,1
0.463805437,-4.917566776,1,-0.99953711,1,-8.484363556,1,9.46E-05,1,-0.005305139,1,-0.005668892,1,0.120160349,1,-0.524874628,1,0.191814825,1,-0.016681671,1,0.015009761,1,-0.081763268,1
0.467801601,-4.911684513,1,-0.991077125,1,-8.460291862,1,0.003845993,1,-0.006728296,1,-0.007706639,1,0.120180547,1,-0.524899006,1,0.191779435,1,-0.010593891,1,0.023625076,1,-0.057831764,1
0.471799821,-4.928586006,1,-0.977653742,1,-8.459248543,1,-0.002313649,1,-0.004515037,1,-0.004762905,1,0.120198809,1,-0.524922192,1,0.191752493,1,-0.027298927,1,0.037188172,1,-0.056920052,1
0.475799561,-4.935302258,1,-0.948775828,1,-8.462203026,1,0.002809238,1,-0.007736871,1,-0.00632065,1,0.120226383,1,-0.524947822,1,0.191717848,1,-0.033798218,1,0.066282451,1,-0.06002903,1
0.479795188,-4.922292709,1,-0.972422779,1,-8.438609123,1,0.002119272,1,-0.007619107,1,-0.0060779,1,0.120254993,1,-0.52497077,1,0.191685021,1,-0.020594597,1,0.042862833,1,-0.036574364,1
0.483792901,-4.875219822,1,-1.000401855,1,-8.411950111,1,0.003079178,1,-0.005859219,1,-0.003066982,1,0.120278142,1,-0.524996102,1,0.191655159,1,0.026693344,1,0.015063286,1,-0.010062218,1
0.487792909,-4.895644188,1,-1.031968951,1,-8.427093506,1,0.001830641,1,-0.00582442,1,-0.005866087,1,0.120297812,1,-0.525016427,1,0.19162491,1,0.006440163,1,-0.016350389,1,-0.025323868,1
0.491788805,-4.891087055,1,-1.047382116,1,-8.401964188,1,0.001599861,1,-0.006017773,1,-0.007776116,1,0.120316535,1,-0.52503407,1,0.191592902,1,0.011146545,1,-0.031616807,1,-0.000299454,1
0.495786488,-4.944190502,1,-1.032616138,1,-8.417312622,1,0.001404735,1,-0.004442718,1,-0.00392735,1,0.120333292,1,-0.525055349,1,0.191571876,1,-0.041776657,1,-0.01672256,1,-0.015769005,1
0.499786228,-4.925712585,1,-1.03618145,1,-8.443430901,1,-0.003569917,1,-0.006179525,1,-0.002317108,1,0.120340437,1,-0.525075376,1,0.191555798,1,-0.02312851,1,-0.020239472,1,-0.04199028,1
0.503782153,-4.929505825,1,-0.993453741,1,-8.469406128,1,-0.000951819,1,-0.004251683,1,-0.003047416,1,0.120346457,1,-0.525092721,1,0.191538155,1,-0.026775837,1,0.022528529,1,-0.06805706,1
0.507779837,-4.90170002,1,-1.021492958,1,-8.497741699,1,-0.00142078,1,-0.006652093,1,-0.005196027,1,0.120347939,1,-0.525113285,1,0.191523805,1,0.001204014,1,-0.005510211,1,-0.096492767,1
0.511779606,-4.896979809,1,-0.976114273,1,-8.443908691,1,-0.002868556,1,-0.008943557,1,0.001037653,1,0.120346934,1,-0.525135458,1,0.191514686,1,0.006112099,1,0.039846897,1,-0.042766571,1
0.51577574,-4.911813736,1,-1.013669729,1,-8.447942734,1,-0.00320419,1,-0.00420039,1,-0.004652545,1,0.120346725,1,-0.52516377,1,0.191501752,1,-0.008482456,1,0.002272964,1,-0.04693985,1
0.519773424,-4.889564037,1,-0.952859759,1,-8.43945694,1,-0.002295035,1,-0.006254604,1,-0.000205081,1,0.120340526,1,-0.525192142,1,0.191495433,1,0.014007568,1,0.06301403,1,-0.038585663,1
0.523773193,-4.920071602,1,-0.978053391,1,-8.461545944,1,0.001706429,1,-0.005481633,1,-0.000185426,1,0.120345034,1,-0.525211394,1,0.191479579,1,-0.016336918,1,0.037847102,1,-0.060772896,1
0.52777499,-4.935578346,1,-0.988131106,1,-8.420167923,1,0.000386848,1,-0.006443772,1,-0.003901542,1,0.120356165,1,-0.52523303,1,0.19147034,1,-0.031660557,1,0.02785033,1,-0.019510269,1
0.531772673,-4.913163662,1,-0.976944864,1,-8.458425522,1,-0.000564735,1,-0.002296659,1,-0.001190433,1,0.120364517,1,-0.525254548,1,0.191452786,1,-0.009063721,1,0.039094031,1,-0.057880402,1
0.535778582,-4.931179047,1,-0.988918304,1,-8.458338737,1,0.00476229,1,-0.004924906,1,-0.000880024,1,0.12038216,1,-0.525267601,1,0.191433907,1,-0.026968956,1,0.027261257,1,-0.05787468,1
0.539780617,-4.903098106,1,-0.97175622,1,-8.472540855,1,0.004046968,1,-0.002919497,1,-4.68E-05,1,0.12040285,1,-0.525280297,1,0.191417679,1,0.001219749,1,0.04458952,1,-0.072159767,1
0.543778837,-4.919913292,1,-0.966823578,1,-8.454039574,1,0.004038948,1,-0.003398663,1,-0.005707151,1,0.120427012,1,-0.525300026,1,0.191405326,1,-0.015428543,1,0.049713373,1,-0.053781509,1
0.547778547,-4.931637764,1,-0.982967138,1,-8.504587173,1,0.002660439,1,-0.006587754,1,0.002117008,1,0.12044277,1,-0.525311649,1,0.191392928,1,-0.027054787,1,0.03369534,1,-0.104400635,1
0.551774204,-4.915591717,1,-0.997243643,1,-8.446097374,1,0.008042925,1,-0.007376366,1,-0.003725186,1,0.120465063,1,-0.525339544,1,0.191385582,1,-0.010772705,1,0.019589782,1,-0.046068192,1
0.555771887,-4.882949352,1,-1.011690259,1,-8.44270134,1,0.001425375,1,-0.005659662,1,-0.004979277,1,0.120493673,1,-0.525362253,1,0.19136481,1,0.022061825,1,0.005370259,1,-0.042811394,1
0.559771657,-4.855530739,1,-1.032356262,1,-8.413863182,1,0.001995015,1,-0.003739855,1,-0.00403132,1,0.120515496,1,-0.525375128,1,0.191346601,1,0.049589634,1,-0.015120625,1,-0.014062881,1
0.563767552,-4.907990932,1,-1.024239182,1,-8.436681747,1,0.003088221,1,-0.005356182,1,0.002261241,1,0.120532945,1,-0.525393844,1,0.19133845,1,-0.00271225,1,-0.006867886,1,-0.036989212,1
0.567765474,-4.933087349,1,-1.022515059,1,-8.461162567,1,0.001823827,1,-0.0080401,1,0.000195538,1,0.120543592,1,-0.525420129,1,0.191342235,1,-0.027586937,1,-0.005069733,1,-0.061607361,1
0.571765244,-4.918217659,1,-1.010739565,1,-8.457271576,1,0.00091415,1,-0.0047052,1,0.001215088,1,0.120559417,1,-0.525449038,1,0.191336304,1,-0.012471676,1,0.006821632,1,-0.05787468,1
0.575760901,-4.880006313,1,-1.017278671,1,-8.435046196,1,0.001582174,1,-0.000273789,1,0.003024727,1,0.120552309,1,-0.525470853,1,0.191342056,1,0.025923252,1,0.000210166,1,-0.035746574,1
0.579758584,-4.924025059,1,-0.970896959,1,-8.478662491,1,0.007004987,1,-0.009063475,1,0.003268373,1,0.120561756,1,-0.525489986,1,0.191353157,1,-0.017932892,1,0.046659827,1,-0.079465866,1
0.583758354,-4.908754349,1,-0.955936432,1,-8.461065292,1,0.003174194,1,-0.008894246,1,0.00647279,1,0.120581739,1,-0.525514185,1,0.191365466,1,-0.002458096,1,0.061774015,1,-0.062005997,1
0.58775425,-4.897347927,1,-0.976747453,1,-8.472086906,1,0.00685578,1,-0.006109377,1,-0.000215578,1,0.120585747,1,-0.525548339,1,0.191376761,1,0.009238243,1,0.040976346,1,-0.073199272,1
0.591751933,-4.918079853,1,-0.964635193,1,-8.433074951,1,0.005666936,1,-0.005946508,1,0.002044216,1,0.120601885,1,-0.525567353,1,0.191381648,1,-0.011333466,1,0.05321306,1,-0.034294128,1
0.595751703,-4.906041622,1,-0.980722785,1,-8.43239212,1,0.00859209,1,-0.00505118,1,0.000153622,1,0.120626584,1,-0.525593817,1,0.191384539,1,0.000928402,1,0.037317514,1,-0.033764839,1
0.599747598,-4.917268276,1,-0.975682616,1,-8.440770149,1,0.008422188,1,-0.005027445,1,0.00680828,1,0.120642073,1,-0.525613129,1,0.191398337,1,-0.010134697,1,0.042476296,1,-0.042253494,1
0.603745282,-4.917904854,1,-1.005111337,1,-8.395672798,1,0.007754426,1,-0.003983523,1,0.001001306,1,0.120668776,1,-0.52564013,1,0.191403762,1,-0.01054287,1,0.013255715,1,0.00268364,1
0.607745051,-4.929780483,1,-0.984204292,1,-8.446022034,1,0.003768813,1,-0.002579001,1,0.005389634,1,0.120692044,1,-0.525661528,1,0.191405997,1,-0.022237301,1,0.034345388,1,-0.047794342,1
0.611740947,-4.882370949,1,-0.98678875,1,-8.418211937,1,0.009698274,1,-0.001335884,1,0.000406433,1,0.120719589,1,-0.525664628,1,0.19141835,1,0.02519846,1,0.031990409,1,-0.020027161,1
0.61574477,-4.934652805,1,-1.043801308,1,-8.44178772,1,0.008732636,1,-0.001280379,1,0.0026439,1,0.120745964,1,-0.525675416,1,0.191429839,1,-0.026992321,1,-0.024807096,1,-0.043683052,1
0.619745016,-4.909430504,1,-1.065814972,1,-8.408556938,1,0.004910924,1,-0.002587683,1,0.00326365,1,0.120765522,1,-0.525677443,1,0.191437677,1,-0.001752377,1,-0.046657681,1,-0.010482788,1
0.62374121,-4.910389423,1,-1.016701221,1,-8.373497963,1,0.005178323,1,-0.000215696,1,0.005855378,1,0.12078122,1,-0.525685072,1,0.191459164,1,-0.002646923,1,0.002583385,1,0.024523735,1
0.627738893,-4.912858963,1,-0.9936167,1,-8.406402588,1,0.007277952,1,0.001719156,1,0.006166899,1,0.12071804,1,-0.525669336,1,0.190303162,1,-0.005249977,1,0.025146365,1,-0.008241653,1
0.631738603,-4.927038193,1,-0.984582901,1,-8.449204445,1,0.005485606,1,0.00355247,1,0.009679517,1,0.12071833,1,-0.525666237,1,0.190343142,1,-0.019455433,1,0.034184575,1,-0.051028252,1
0.635734499,-4.893153191,1,-0.992781878,1,-8.435497284,1,0.006356766,1,0.001101339,1,0.005759687,1,0.120719843,1,-0.525658131,1,0.190385044,1,0.014361382,1,0.026003361,1,-0.037280083,1
0.639732242,-4.90229702,1,-0.997418821,1,-8.458787918,1,0.008702976,1,0.002995146,1,0.006181438,1,0.120733142,1,-0.525652647,1,0.190413207,1,0.005170822,1,0.021481454,1,-0.060557365,1
0.64373225,-4.90930748,1,-1.031149745,1,-8.428689003,1,0.005773823,1,0.003243073,1,0.010366205,1,0.120734453,1,-0.525645792,1,0.190450728,1,-0.001897335,1,-0.01223433,1,-0.030425072,1
0.647728145,-4.904866219,1,-0.986944377,1,-8.449913979,1,0.004017975,1,0.000792823,1,0.004595653,1,0.120734513,1,-0.525643647,1,0.190483138,1,0.00252533,1,0.031972468,1,-0.051643372,1
0.651726067,-4.967069626,1,-0.989124835,1,-8.429668427,1,0.0023791,1,0.005375991,1,0.006464868,1,0.120738804,1,-0.525639415,1,0.190510482,1,-0.059713364,1,0.029830515,1,-0.031381607,1
0.655725837,-4.905408382,1,-0.957451522,1,-8.425820351,1,0.006652637,1,0.003389668,1,0.007419119,1,0.120746262,1,-0.525623798,1,0.190538988,1,0.001815319,1,0.061575711,1,-0.027463913,1
0.659727633,-4.960569859,1,-0.988084674,1,-8.452306747,1,0.005376935,1,0.001211276,1,0.006400148,1,0.120761752,1,-0.525613844,1,0.190560594,1,-0.05343008,1,0.031078339,1,-0.053918839,1
0.663725555,-4.931968689,1,-0.987909079,1,-8.469814301,1,0.012380878,1,0.006675828,1,0.002362072,1,0.120779194,1,-0.525602102,1,0.190593913,1,-0.024928093,1,0.031407475,1,-0.071387291,1
0.667725325,-4.934225082,1,-0.947600961,1,-8.42918396,1,0.00753847,1,0.001900243,1,0.002797169,1,0.120810792,1,-0.525586367,1,0.190609917,1,-0.027318001,1,0.071990252,1,-0.030711174,1
0.671721458,-4.949013233,1,-0.963477433,1,-8.454022408,1,0.012225566,1,0.00547812,1,0.004970232,1,0.1208423,1,-0.525565386,1,0.190635309,1,-0.042283535,1,0.05639106,1,-0.05547905,1
0.675719142,-4.942305088,1,-0.993884683,1,-8.41043663,1,0.01084703,1,0.012133917,1,0.003394439,1,0.120869696,1,-0.525541425,1,0.190659761,1,-0.035778046,1,0.02622807,1,-0.011804581,1
0.679718912,-4.953701973,1,-0.959735572,1,-8.394111633,1,0.012740473,1,0.013535508,1,0.002591079,1,0.120910913,1,-0.525497556,1,0.190682441,1,-0.04754591,1,0.060749471,1,0.004693031,1
0.683715045,-4.956458092,1,-1.004219055,1,-8.436844826,1,0.016419705,1,0.014445255,1,0.004563058,1,0.120945811,1,-0.525443435,1,0.190702245,1,-0.050759792,1,0.016591072,1,-0.037812233,1
0.687712789,-5.022092342,1,-1.005226731,1,-8.378813744,1,0.014015683,1,0.017672708,1,0.003491328,1,0.120996594,1,-0.525380254,1,0.190726057,1,-0.116929054,1,0.016047239,1,0.020475388,1
0.691712499,-5.009011745,1,-0.992258132,1,-8.424634933,1,0.01340942,1,0.023262011,1,-0.003191454,1,0.121046327,1,-0.525303602,1,0.190735981,1,-0.104496956,1,0.029478967,1,-0.02502346,1
0.695714295,-5.002449989,1,-0.94926554,1,-8.433159828,1,0.019916562,1,0.026880369,1,-0.001566315,1,0.121112086,1,-0.525192738,1,0.190747187,1,-0.098873138,1,0.073089659,1,-0.033076286,1
0.699712276,-5.021188736,1,-0.907984257,1,-8.466195107,1,0.019526757,1,0.027852708,1,-0.009302927,1,0.121186987,1,-0.525084376,1,0.190747559,1,-0.11852932,1,0.115064263,1,-0.06566143,1
0.703712285,-5.007911682,1,-0.891965032,1,-8.430109024,1,0.029542893,1,0.036959518,1,-0.009000072,1,0.12129309,1,-0.524949193,1,0.190732822,1,-0.106396198,1,0.132054925,1,-0.029026985,1
0.707708418,-5.06580019,1,-0.917702079,1,-8.438904762,1,0.027811779,1,0.043090928,1,-0.009737583,1,0.121422231,1,-0.524793327,1,0.190706775,1,-0.165603638,1,0.107495308,1,-0.037196159,1
0.711706102,-5.128838062,1,-0.930258214,1,-8.405648232,1,0.032513984,1,0.050898075,1,-0.015364153,1,0.121560253,1,-0.52460742,1,0.19067052,1,-0.230215073,1,0.096209586,1,-0.003175735,1
0.71570611,-5.147973061,1,-0.938591182,1,-8.365921974,1,0.036698174,1,0.059066094,1,-0.012316301,1,0.121716164,1,-0.524383605,1,0.19063051,1,-0.251245022,1,0.089319289,1,0.037475586,1
0.719702244,-5.164594173,1,-0.968411803,1,-8.349617004,1,0.03854049,1,0.07699275,1,-0.01972061,1,0.121882968,1,-0.52411145,1,0.190595374,1,-0.270170689,1,0.061062455,1,0.054933548,1
0.723700225,-5.195039749,1,-0.920907795,1,-8.357225418,1,0.042629451,1,0.07846427,1,-0.020937188,1,0.122066423,1,-0.523792148,1,0.190553024,1,-0.303319931,1,0.110298812,1,0.048688889,1
0.727700472,-5.143514156,1,-0.91020298,1,-8.39548111,1,0.043946516,1,0.095576108,1,-0.027772728,1,0.122271016,1,-0.523427784,1,0.190493375,1,-0.254879951,1,0.12294066,1,0.011989594,1
0.731696665,-5.125618935,1,-0.930100739,1,-8.401376724,1,0.048901256,1,0.099478886,1,-0.034536172,1,0.122494601,1,-0.5230335,1,0.19041276,1,-0.240325451,1,0.105158269,1,0.007775307,1
0.735694587,-5.102171421,1,-0.892526984,1,-8.365836143,1,0.05024109,1,0.102447748,1,-0.042827971,1,0.122752264,1,-0.52260983,1,0.190293267,1,-0.220467567,1,0.145151496,1,0.045098305,1
0.739694357,-5.077330589,1,-0.841606021,1,-8.367628098,1,0.051188458,1,0.110527158,1,-0.051350389,1,0.123031832,1,-0.522167504,1,0.190148354,1,-0.199375629,1,0.198688745,1,0.04515934,1
0.743690252,-5.010008812,1,-0.832230628,1,-8.337669373,1,0.059740029,1,0.116628557,1,-0.052184001,1,0.123349681,1,-0.521698654,1,0.189972997,1,-0.136029243,1,0.211019337,1,0.077054977,1
0.747688174,-4.985415936,1,-0.84257108,1,-8.430533409,1,0.057219721,1,0.117440715,1,-0.06301301,1,0.123680115,1,-0.521204352,1,0.189770088,1,-0.115627766,1,0.20375663,1,-0.013762474,1
0.751687944,-4.895395756,1,-0.861753702,1,-8.43622303,1,0.063347958,1,0.120804846,1,-0.072393134,1,0.124039903,1,-0.520697176,1,0.189529106,1,-0.029910564,1,0.187907457,1,-0.017381668,1
0.755684078,-4.79534483,1,-0.79278481,1,-8.511108398,1,0.059251711,1,0.114238471,1,-0.078867473,1,0.124422386,1,-0.520189762,1,0.189250469,1,0.065835476,1,0.260402679,1,-0.090218544,1
0.759681821,-4.791911602,1,-0.851320028,1,-8.493876457,1,0.065949276,1,0.112158239,1,-0.091303416,1,0.124839164,1,-0.51970613,1,0.188925833,1,0.065163612,1,0.205669641,1,-0.071093559,1
0.763681531,-4.731584549,1,-0.877197027,1,-8.476075172,1,0.06364888,1,0.105674401,1,-0.094110027,1,0.12527886,1,-0.519232929,1,0.18856357,1,0.121473312,1,0.183782935,1,-0.051482201,1
0.767677426,-4.698182106,1,-0.919225037,1,-8.457126617,1,0.069393799,1,0.100575864,1,-0.096012644,1,0.125742093,1,-0.518776834,1,0.188177243,1,0.15100193,1,0.145935118,1,-0.030828476,1
0.771675408,-4.617389202,1,-1.032327414,1,-8.466273308,1,0.067442082,1,0.093867242,1,-0.097222283,1,0.126204938,1,-0.5183357,1,0.187796518,1,0.228048325,1,0.037001848,1,-0.038347244,1
0.775681555,-4.518918991,1,-1.131659985,1,-8.491798401,1,0.066435277,1,0.087754712,1,-0.094276339,1,0.126667753,1,-0.517920852,1,0.187418967,1,0.322993755,1,-0.058176875,1,-0.062376976,1
0.779683828,-4.497623444,1,-1.151337385,1,-8.546735764,1,0.063597105,1,0.081678391,1,-0.088784762,1,0.127101645,1,-0.517533183,1,0.187055543,1,0.340994358,1,-0.073958635,1,-0.115917206,1
0.783682048,-4.507250786,1,-1.139165878,1,-8.569137573,1,0.063321806,1,0.07015036,1,-0.078022823,1,0.127512515,1,-0.517191231,1,0.1867221,1,0.328460693,1,-0.058113217,1,-0.137125015,1
0.787682295,-4.538471699,1,-1.194323421,1,-8.635663033,1,0.054132558,1,0.062641926,1,-0.067175254,1,0.12788932,1,-0.516888261,1,0.186436892,1,0.294663906,1,-0.109906912,1,-0.202605247,1
0.791678488,-4.600984573,1,-1.255499005,1,-8.619967461,1,0.050554257,1,0.052463137,1,-0.055216841,1,0.128232881,1,-0.516636133,1,0.186183125,1,0.230007172,1,-0.168029189,1,-0.186073303,1
0.795676172,-4.628477097,1,-1.385807633,1,-8.630109787,1,0.045401603,1,0.044863619,1,-0.048614435,1,0.128526554,1,-0.516409755,1,0.185972795,1,0.200589657,1,-0.295720696,1,-0.195448875,1
0.79967618,-4.753076553,1,-1.47491622,1,-8.519862175,1,0.035884317,1,0.038252298,1,-0.036363266,1,0.128772318,1,-0.516223311,1,0.185799181,1,0.07440424,1,-0.3826406,1,-0.084575653,1
0.803672075,-4.808784962,1,-1.552292943,1,-8.474987984,1,0.025730714,1,0.032086033,1,-0.026307488,1,0.128957897,1,-0.51606673,1,0.185677215,1,0.017363548,1,-0.458355188,1,-0.039158821,1
0.807670295,-4.735630035,1,-1.56464982,1,-8.377059937,1,0.009251607,1,0.033364635,1,-0.010518452,1,0.129057333,1,-0.515927315,1,0.185604006,1,0.089333057,1,-0.469786525,1,0.059329987,1
0.811670244,-4.553704739,1,-1.554427981,1,-8.364008904,1,-0.007938641,1,0.026722869,1,0.002614119,1,0.129075378,1,-0.515809655,1,0.185592517,1,0.270256996,1,-0.459339261,1,0.072924614,1
0.815666199,-4.388229847,1,-1.518891096,1,-8.484037399,1,-0.018448165,1,0.009241806,1,0.013451204,1,0.128995806,1,-0.515753508,1,0.185648829,1,0.435254097,1,-0.424439073,1,-0.046749115,1
0.819664121,-4.240029335,1,-1.472275019,1,-8.672451019,1,-0.034900691,1,-0.009021494,1,0.022618964,1,0.128847778,1,-0.515756428,1,0.185733721,1,0.583479881,1,-0.379073858,1,-0.235015869,1
0.823664129,-4.261205673,1,-1.354212999,1,-8.743929863,1,-0.044206087,1,-0.020995872,1,0.028154029,1,0.128642559,1,-0.515823543,1,0.185836807,1,0.562874317,1,-0.262784839,1,-0.306591034,1
0.827660024,-4.457369328,1,-1.225500226,1,-8.683994293,1,-0.051117431,1,-0.033167932,1,0.038089037,1,0.128380582,1,-0.515949845,1,0.185969174,1,0.367784977,1,-0.136360645,1,-0.246975899,1
0.831658006,-4.524422169,1,-1.204990983,1,-8.571142197,1,-0.050421901,1,-0.044248894,1,0.040516913,1,0.128102273,1,-0.516116619,1,0.186119437,1,0.302150726,1,-0.118302107,1,-0.134616852,1
0.835657954,-4.519218445,1,-1.30221498,1,-8.492528915,1,-0.059523229,1,-0.053129733,1,0.050556034,1,0.127781555,1,-0.516332805,1,0.186305016,1,0.309193611,1,-0.218364596,1,-0.056688309,1
0.839654148,-4.517152786,1,-1.514938831,1,-8.502307892,1,-0.072497308,1,-0.066026926,1,0.056293041,1,0.127413467,1,-0.516592205,1,0.186519653,1,0.313465118,1,-0.434353232,1,-0.067314148,1
0.84365207,-4.509377956,1,-1.546138287,1,-8.49331665,1,-0.083016038,1,-0.070637241,1,0.072947443,1,0.126982525,1,-0.516895592,1,0.186769947,1,0.323820114,1,-0.469373465,1,-0.059313774,1
0.847651839,-4.490856647,1,-1.546067834,1,-8.52102375,1,-0.09479481,1,-0.084477857,1,0.076951943,1,0.126485303,1,-0.517236292,1,0.187063202,1,0.345237732,1,-0.473704576,1,-0.088120461,1
0.851653636,-4.613293648,1,-1.407606363,1,-8.474095345,1,-0.102335952,1,-0.084465623,1,0.086153112,1,0.125926405,1,-0.517615497,1,0.187390417,1,0.226023197,1,-0.340186596,1,-0.042411804,1
0.855651557,-4.685243607,1,-1.251848221,1,-8.403828621,1,-0.108717337,1,-0.085163847,1,0.091559641,1,0.125329852,1,-0.517993093,1,0.187743276,1,0.157282829,1,-0.189686894,1,0.026678085,1
0.859651566,-4.831436157,1,-1.120433331,1,-8.344189644,1,-0.106868967,1,-0.081468299,1,0.093944773,1,0.124713436,1,-0.518375278,1,0.188109919,1,0.014337063,1,-0.063699603,1,0.085129738,1
0.863647759,-4.966104031,1,-1.153357506,1,-8.273614883,1,-0.111544847,1,-0.070889905,1,0.090988666,1,0.124088824,1,-0.518725634,1,0.188481048,1,-0.11735487,1,-0.102099061,1,0.154679298,1
0.867645681,-4.897818089,1,-1.121560812,1,-8.179740906,1,-0.11070399,1,-0.062515929,1,0.085041329,1,0.123466529,1,-0.519037545,1,0.188845083,1,-0.046419621,1,-0.075733542,1,0.247706413,1
0.871645927,-4.991623402,1,-1.079724789,1,-8.236549377,1,-0.113545038,1,-0.056256026,1,0.096457653,1,0.122827366,1,-0.519317567,1,0.189227477,1,-0.137847424,1,-0.039451122,1,0.190213203,1
0.875642121,-5.049042702,1,-1.031995177,1,-8.191820145,1,-0.113645524,1,-0.042126901,1,0.100065432,1,0.122254483,1,-0.519454837,1,0.189843029,1,-0.194100857,1,0.00336957,1,0.234874725,1
0.879640043,-5.14531517,1,-1.156597376,1,-8.1900177,1,-0.118316375,1,-0.031856604,1,0.104427934,1,0.121523507,1,-0.51967597,1,0.189086303,1,-0.288496017,1,-0.127522588,1,0.236368179,1
0.883640349,-5.016844749,1,-1.105358481,1,-8.210280418,1,-0.119320676,1,-0.017811064,1,0.107477821,1,0.120805696,1,-0.519823194,1,0.189553753,1,-0.158775806,1,-0.082418561,1,0.216133118,1
0.887636483,-4.856472492,1,-0.982726157,1,-8.285445213,1,-0.134231329,1,-0.014945831,1,0.112591513,1,0.120054588,1,-0.519940615,1,0.190045372,1,0.002592564,1,0.033815444,1,0.14116478,1
0.891634405,-4.718831539,1,-0.824053645,1,-8.413642883,1,-0.130155712,1,-0.008512398,1,0.115071915,1,0.119284287,1,-0.520047128,1,0.190554425,1,0.141138077,1,0.185935259,1,0.013235092,1
0.895634413,-4.644934654,1,-0.788645267,1,-8.522068024,1,-0.125448614,1,-0.010050369,1,0.120801024,1,0.118514448,1,-0.520138562,1,0.19108507,1,0.215810776,1,0.214803457,1,-0.094857216,1
0.899630308,-4.63773489,1,-0.839602292,1,-8.495285034,1,-0.123620383,1,-0.014794935,1,0.113052808,1,0.117753886,1,-0.52024287,1,0.19160679,1,0.22389555,1,0.157377183,1,-0.067815781,1
0.90362829,-4.713903427,1,-0.786745787,1,-8.512558937,1,-0.120055899,1,-0.020466298,1,0.113866903,1,0.117009744,1,-0.520367801,1,0.192126274,1,0.148787498,1,0.203891277,1,-0.084954262,1
0.907628298,-4.688351631,1,-0.904393315,1,-8.530949593,1,-0.119302541,1,-0.022500748,1,0.114298187,1,0.116279781,1,-0.52051127,1,0.192638308,1,0.17555666,1,0.080010653,1,-0.103317261,1
0.911624432,-4.705798626,1,-1.100103736,1,-8.530646324,1,-0.122229405,1,-0.032925125,1,0.117250226,1,0.115538508,1,-0.520679712,1,0.193156198,1,0.159538746,1,-0.122041762,1,-0.103100777,1
0.915622652,-4.763457298,1,-1.276144981,1,-8.541862488,1,-0.123253658,1,-0.038603064,1,0.114321105,1,0.1148002,1,-0.520862341,1,0.193664998,1,0.103430271,1,-0.304406941,1,-0.114477158,1
0.919622898,-4.831886768,1,-1.334422946,1,-8.529251099,1,-0.132077724,1,-0.040955987,1,0.116201937,1,0.114026919,1,-0.521072924,1,0.194177017,1,0.036786556,1,-0.369318843,1,-0.102139473,1
0.92361933,-4.880162716,1,-1.266558886,1,-8.427146912,1,-0.135977864,1,-0.047996026,1,0.115337402,1,0.11323867,1,-0.521305442,1,0.194675654,1,-0.00951767,1,-0.308225691,1,-0.000401497,1
0.92761755,-4.74141264,1,-1.142788291,1,-8.446069717,1,-0.143430114,1,-0.054733951,1,0.111023657,1,0.112428166,1,-0.52156502,1,0.195166767,1,0.131433964,1,-0.191426933,1,-0.019804955,1
0.931623697,-4.738293171,1,-0.99043709,1,-8.718016624,1,-0.150085628,1,-0.070692748,1,0.114808597,1,0.111600757,1,-0.521866918,1,0.195641905,1,0.137113094,1,-0.046211839,1,-0.29242897,1
0.93562597,-4.708069801,1,-0.893663764,1,-8.846838951,1,-0.157990128,1,-0.072112806,1,0.112662099,1,0.110745236,1,-0.522195935,1,0.19612658,1,0.170125961,1,0.04317528,1,-0.4220438,1
0.939624429,-4.617063522,1,-0.92955339,1,-8.753619194,1,-0.154813826,1,-0.083164886,1,0.115321234,1,0.10988088,1,-0.522560298,1,0.196603492,1,0.264220238,1,-0.000191689,1,-0.32978344,1
0.943624198,-4.662399769,1,-1.050052404,1,-8.765369415,1,-0.162541837,1,-0.101697236,1,0.110254221,1,0.109013319,1,-0.522985518,1,0.197074294,1,0.222486973,1,-0.128225148,1,-0.342796326,1
0.947620332,-4.59660387,1,-1.059280753,1,-8.718225479,1,-0.167428732,1,-0.112917528,1,0.116676658,1,0.10811428,1,-0.523455739,1,0.197551668,1,0.292266846,1,-0.145274103,1,-0.297111511,1
0.951618075,-4.717276573,1,-1.0528332,1,-8.786066055,1,-0.171453029,1,-0.131217122,1,0.130702525,1,0.107178174,1,-0.524004757,1,0.198060304,1,0.176243782,1,-0.146996975,1,-0.36676693,1
0.955618322,-4.691132545,1,-1.031850338,1,-8.757619858,1,-0.176509082,1,-0.137162805,1,0.140224129,1,0.106200926,1,-0.524591506,1,0.198620468,1,0.207355499,1,-0.134547055,1,-0.340298653,1
0.959614456,-4.73897171,1,-1.056729674,1,-8.754199028,1,-0.179463059,1,-0.14982295,1,0.144845888,1,0.105186097,1,-0.525220931,1,0.199212477,1,0.164843559,1,-0.168292701,1,-0.339036942,1
0.963612139,-4.869972706,1,-1.114824414,1,-8.735414505,1,-0.182329088,1,-0.161514848,1,0.155441746,1,0.104153045,1,-0.525900781,1,0.199825257,1,0.039594173,1,-0.235428095,1,-0.322657585,1
0.967612147,-4.938337326,1,-1.1017313,1,-8.709334373,1,-0.184836537,1,-0.168555975,1,0.163433671,1,0.103098899,1,-0.52662158,1,0.200468376,1,-0.022675037,1,-0.231568277,1,-0.299179077,1
0.971608043,-5.041743755,1,-1.054583192,1,-8.671890259,1,-0.187748224,1,-0.173984677,1,0.160676792,1,0.102012955,1,-0.527369678,1,0.201137528,1,-0.119757652,1,-0.193928063,1,-0.264452934,1
0.975606024,-5.0401721,1,-1.010233879,1,-8.640845299,1,-0.191338718,1,-0.177891195,1,0.165249318,1,0.100917101,1,-0.528134167,1,0.201807305,1,-0.111725807,1,-0.159172475,1,-0.236221313,1
0.979606032,-4.980412483,1,-0.95655793,1,-8.682775497,1,-0.192446202,1,-0.180864424,1,0.167552799,1,0.099824175,1,-0.528922498,1,0.202477232,1,-0.045308113,1,-0.115069747,1,-0.281090736,1
0.983601928,-5.066093922,1,-0.803253114,1,-8.651144981,1,-0.18669036,1,-0.190702677,1,0.161933124,1,0.098728098,1,-0.529724836,1,0.203147948,1,-0.124216557,1,0.028635085,1,-0.252487183,1
0.98759985,-5.083010674,1,-0.789524257,1,-8.594770432,1,-0.17287299,1,-0.190289229,1,0.163051188,1,0.097659975,1,-0.530544519,1,0.203815803,1,-0.134217739,1,0.032997727,1,-0.199258804,1
0.991599858,-5.131028652,1,-0.721449196,1,-8.578166962,1,-0.166024387,1,-0.1969648,1,0.153288454,1,0.096647121,1,-0.531370878,1,0.204457864,1,-0.175266266,1,0.092173994,1,-0.185900688,1
0.995596051,-5.067949295,1,-0.692488372,1,-8.485590935,1,-0.161390096,1,-0.193100691,1,0.144415483,1,0.095690854,1,-0.532200277,1,0.205056146,1,-0.105195045,1,0.112715662,1,-0.096650124,1
0.999594212,-4.9729743,1,-0.690292656,1,-8.531937599,1,-0.161223739,1,-0.198828369,1,0.142710105,1,0.094761558,1,-0.53303194,1,0.20562537,1,-0.003212929,1,0.106724858,1,-0.146359444,1
1.003594279,-5.077094078,1,-0.499919385,1,-8.569776535,1,-0.161661476,1,-0.194749773,1,0.124836415,1,0.093849018,1,-0.533860266,1,0.206150755,1,-0.100357056,1,0.28905955,1,-0.187576294,1
1.007590413,-5.304371834,1,-0.282752991,1,-8.533333778,1,-0.155482858,1,-0.189981312,1,0.115132965,1,0.092966765,1,-0.534675002,1,0.206627876,1,-0.320777416,1,0.498453498,1,-0.154483795,1
1.011594534,-5.077793121,1,-0.356506288,1,-8.564980507,1,-0.147966534,1,-0.18083182,1,0.11068026,1,0.092132613,1,-0.535455644,1,0.207076073,1,-0.087631226,1,0.417352915,1,-0.189353943,1
1.015594721,-5.17236805,1,-0.47552985,1,-8.450456619,1,-0.137633771,1,-0.188757092,1,0.098679855,1,0.091352418,1,-0.536235154,1,0.207485139,1,-0.175650597,1,0.291439235,1,-0.07810688,1
1.019591212,-5.267399788,1,-0.33899036,1,-8.379210472,1,-0.134416193,1,-0.18046236,1,0.091897711,1,0.090620779,1,-0.536996603,1,0.207847118,1,-0.264282227,1,0.421508223,1,-0.010095596,1
1.023589134,-5.334187508,1,-0.325830668,1,-8.369002342,1,-0.124771655,1,-0.17561239,1,0.080565907,1,0.089943565,1,-0.537730634,1,0.208164543,1,-0.324902534,1,0.428670138,1,-0.003032684,1
1.027589083,-5.12528801,1,-0.36348334,1,-8.348389626,1,-0.117807843,1,-0.162843823,1,0.067907147,1,0.089319132,1,-0.53843379,1,0.208440378,1,-0.110097408,1,0.385478765,1,0.014535904,1
1.031585336,-5.145852089,1,-0.417332202,1,-8.336699486,1,-0.105737507,1,-0.161581784,1,0.058532063,1,0.088755161,1,-0.539109945,1,0.208668575,1,-0.124985695,1,0.326612681,1,0.023269653,1
1.035583019,-5.207520485,1,-0.447668701,1,-8.29949379,1,-0.100143097,1,-0.156969607,1,0.05064423,1,0.088251211,1,-0.539755464,1,0.208847418,1,-0.181236744,1,0.291777402,1,0.057620049,1
1.039582968,-5.204293251,1,-0.427495211,1,-8.286867142,1,-0.089929588,1,-0.148984879,1,0.041800536,1,0.0877918,1,-0.54037571,1,0.209007934,1,-0.172807693,1,0.307837993,1,0.067479134,1
1.043579102,-5.104160309,1,-0.374640167,1,-8.26647377,1,-0.083351023,1,-0.139275879,1,0.033421241,1,0.087378286,1,-0.540960073,1,0.209133103,1,-0.067774296,1,0.356981814,1,0.08524704,1
1.047577381,-5.145046711,1,-0.52868849,1,-8.213356018,1,-0.076357789,1,-0.133731842,1,0.031047039,1,0.087019376,1,-0.541513145,1,0.209221348,1,-0.10402441,1,0.19969368,1,0.135849953,1
1.05157733,-5.214273453,1,-0.434053868,1,-8.266116142,1,-0.067926638,1,-0.120365791,1,0.020327689,1,0.086687148,1,-0.542019248,1,0.209290102,1,-0.169011116,1,0.291333467,1,0.080789566,1
1.055573463,-5.246172428,1,-0.534035265,1,-8.183408737,1,-0.061929658,1,-0.111892812,1,0.019502211,1,0.086404681,1,-0.542485774,1,0.209338024,1,-0.197001457,1,0.188790679,1,0.161351204,1
1.059571743,-5.30210495,1,-0.513525069,1,-8.2007761,1,-0.055869784,1,-0.099140339,1,0.01012322,1,0.08614964,1,-0.5429129,1,0.209371954,1,-0.24935627,1,0.206987083,1,0.142019272,1
1.06357193,-5.330015182,1,-0.508078158,1,-8.161699295,1,-0.047181774,1,-0.089294203,1,0.008607624,1,0.085938372,1,-0.543290079,1,0.209378585,1,-0.274108887,1,0.210507989,1,0.179349899,1
1.067568183,-5.360622883,1,-0.587813795,1,-8.119905472,1,-0.044853993,1,-0.076585501,1,0.004871221,1,0.085759498,1,-0.543623805,1,0.209374174,1,-0.301922798,1,0.129135847,1,0.219592094,1
1.071566343,-5.349262238,1,-0.563903689,1,-8.094671249,1,-0.038017582,1,-0.059088565,1,0.001098245,1,0.085608877,1,-0.543894529,1,0.209351927,1,-0.2882967,1,0.151672721,1,0.24356842,1
1.075566292,-5.383603573,1,-0.599122941,1,-8.095743179,1,-0.028301703,1,-0.045020968,1,-0.007126903,1,0.08549384,1,-0.544104218,1,0.209320486,1,-0.320883274,1,0.115403593,1,0.241521835,1
1.079562187,-5.393265724,1,-0.586326301,1,-8.007686615,1,-0.023535244,1,-0.018929839,1,-0.003855835,1,0.085412346,1,-0.544223249,1,0.209275037,1,-0.329548836,1,0.127469361,1,0.329035759,1
1.083560228,-5.433047295,1,-0.458070427,1,-8.041143417,1,-0.017829927,1,-0.00059725,1,-0.017410528,1,0.08536429,1,-0.54426223,1,0.209216744,1,-0.36900425,1,0.255307823,1,0.295417786,1
1.087566376,-5.44396925,1,-0.44314453,1,-7.999162674,1,-0.008363927,1,0.01879603,1,-0.024021955,1,0.085356526,1,-0.544214785,1,0.209125847,1,-0.380323887,1,0.270189494,1,0.337643623,1
1.091568947,-5.365519047,1,-0.365340322,1,-7.988993645,1,0.001118525,1,0.039604135,1,-0.036656667,1,0.085400082,1,-0.544073582,1,0.20899795,1,-0.303055286,1,0.348417848,1,0.348493576,1
1.095567584,-5.407714844,1,-0.185776338,1,-8.08699131,1,0.016696136,1,0.062838808,1,-0.050715707,1,0.085531846,1,-0.543857634,1,0.208812565,1,-0.347057343,1,0.529173374,1,0.251486778,1
1.099567652,-5.445589066,1,-0.108678207,1,-8.087704659,1,0.033550832,1,0.085574508,1,-0.066149622,1,0.085754648,1,-0.543549955,1,0.208567828,1,-0.387506962,1,0.608262956,1,0.252168655,1
1.103564024,-5.474777699,1,-0.094116949,1,-8.116803169,1,0.05245186,1,0.109150663,1,-0.084874325,1,0.086097434,1,-0.543145061,1,0.208251506,1,-0.42008543,1,0.625859022,1,0.224864006,1
1.107561946,-5.429094791,1,-0.14097032,1,-8.055257797,1,0.068516687,1,0.1344679,1,-0.099448763,1,0.08653713,1,-0.542636454,1,0.207865879,1,-0.378661633,1,0.582895398,1,0.288650513,1
1.111562014,-5.336783409,1,-0.358318537,1,-7.958982468,1,0.081562616,1,0.147690535,1,-0.114899814,1,0.087074704,1,-0.542037845,1,0.207425952,1,-0.29136467,1,0.370295078,1,0.387542725,1
1.115558386,-5.129419804,1,-0.493674159,1,-7.955421448,1,0.084728941,1,0.163520306,1,-0.11667981,1,0.08764597,1,-0.541376829,1,0.206948444,1,-0.089540482,1,0.239999413,1,0.39400959,1
1.119556308,-5.021931648,1,-0.582443058,1,-8.080757141,1,0.081214622,1,0.169224262,1,-0.126788974,1,0.088225521,1,-0.540680647,1,0.206458658,1,0.012111664,1,0.15637809,1,0.271739006,1
1.123556614,-4.910300732,1,-0.504931211,1,-8.354819298,1,0.082631156,1,0.175152034,1,-0.123279408,1,0.088812679,1,-0.539958835,1,0.205949992,1,0.117688656,1,0.23911643,1,0.000860214,1
1.127552986,-4.772554874,1,-0.483512074,1,-8.538081169,1,0.081939429,1,0.163855031,1,-0.126734078,1,0.089130245,1,-0.539425135,1,0.203919649,1,0.250957012,1,0.263427526,1,-0.179968834,1
1.131551027,-4.656103134,1,-0.739554644,1,-8.636637688,1,0.082102016,1,0.150801614,1,-0.123790175,1,0.089716695,1,-0.53874433,1,0.203405693,1,0.361694336,1,0.012592852,1,-0.275559425,1
1.135551453,-4.799590588,1,-0.978658378,1,-8.539541245,1,0.072174311,1,0.140658095,1,-0.113829322,1,0.09027718,1,-0.538122177,1,0.202913955,1,0.212982655,1,-0.221543789,1,-0.175780296,1
1.139547944,-4.880125046,1,-1.305300474,1,-8.433592796,1,0.062567323,1,0.134000391,1,-0.105283126,1,0.090779379,1,-0.537537098,1,0.202452525,1,0.127533913,1,-0.54371959,1,-0.06729126,1
1.143546104,-4.779608727,1,-1.274297357,1,-8.396010399,1,0.049230166,1,0.120678857,1,-0.089102238,1,0.091201276,1,-0.536991537,1,0.2020576,1,0.223466873,1,-0.508938074,1,-0.027310371,1
1.147546411,-4.587476254,1,-1.182097077,1,-8.561432838,1,0.038350813,1,0.105087973,1,-0.075679801,1,0.091552645,1,-0.536511004,1,0.201711208,1,0.411560535,1,-0.413577914,1,-0.190612793,1
1.151542783,-4.488016605,1,-1.082187295,1,-8.716032982,1,0.022627121,1,0.083411388,1,-0.05843747,1,0.091810375,1,-0.536111414,1,0.20143865,1,0.507659912,1,-0.311327755,1,-0.34342289,1
1.155540943,-4.620974541,1,-1.037174106,1,-8.770756721,1,0.018962771,1,0.062401947,1,-0.05161722,1,0.092014365,1,-0.535799742,1,0.201217547,1,0.372081757,1,-0.264463305,1,-0.396751404,1
1.159541249,-4.771665573,1,-1.120882511,1,-8.735082626,1,0.016697256,1,0.047323823,1,-0.041953523,1,0.09217827,1,-0.535558879,1,0.20103392,1,0.21936512,1,-0.346688509,1,-0.360006332,1
1.163537383,-4.860032558,1,-1.327206016,1,-8.621346474,1,0.001511516,1,0.034899253,1,-0.025994258,1,0.09228076,1,-0.535379767,1,0.200897053,1,0.129491329,1,-0.552071214,1,-0.245458603,1
1.167541742,-4.840961456,1,-1.486233354,1,-8.609473228,1,-0.017763574,1,0.029471222,1,-0.007092813,1,0.092276037,1,-0.535242915,1,0.200839132,1,0.147411346,1,-0.711075366,1,-0.232903481,1
1.171542048,-4.838701725,1,-1.540508986,1,-8.562456131,1,-0.034248482,1,0.015203314,1,0.011332884,1,0.092161462,1,-0.535155118,1,0.200855404,1,0.148932457,1,-0.766270459,1,-0.185361862,1
1.175538659,-4.856573582,1,-1.362736344,1,-8.582260132,1,-0.05353247,1,0.007829123,1,0.028113339,1,0.091933675,1,-0.535116255,1,0.200959876,1,0.130734444,1,-0.590388298,1,-0.204797745,1
1.179536581,-4.87899828,1,-1.106964707,1,-8.613172531,1,-0.066042438,1,-0.00197747,1,0.043390717,1,0.091610491,1,-0.535118937,1,0.201121256,1,0.10833168,1,-0.337325454,1,-0.235474586,1
1.183536649,-4.8454566,1,-0.956641257,1,-8.599412918,1,-0.074612543,1,-0.012196025,1,0.044394214,1,0.091224872,1,-0.535162866,1,0.201327562,1,0.142242908,1,-0.190252304,1,-0.221634865,1
1.187532783,-4.812901974,1,-0.858606279,1,-8.674678802,1,-0.080115214,1,-0.027726062,1,0.051269893,1,0.090797357,1,-0.535260379,1,0.201548532,1,0.175617695,1,-0.095843315,1,-0.297059059,1
1.191530704,-4.781686783,1,-0.859477699,1,-8.673242569,1,-0.094723716,1,-0.048779689,1,0.0496209,1,0.090340741,1,-0.535428941,1,0.201765493,1,0.208250999,1,-0.100616097,1,-0.296113014,1
1.195530772,-4.865580082,1,-0.779467762,1,-8.569958687,1,-0.102228805,1,-0.067216538,1,0.048104752,1,0.089861251,1,-0.535686135,1,0.201955944,1,0.126520634,1,-0.024738133,1,-0.193745613,1
1.199527144,-4.942456245,1,-0.744822264,1,-8.491972923,1,-0.103918731,1,-0.082976617,1,0.043302074,1,0.08936207,1,-0.536002696,1,0.202132568,1,0.052306175,1,0.005585134,1,-0.116955757,1
1.203525066,-5.041238785,1,-0.745906234,1,-8.435411453,1,-0.108282268,1,-0.086804993,1,0.043191571,1,0.08885283,1,-0.536359131,1,0.202302277,1,-0.043479443,1,7.78E-05,1,-0.061790466,1
1.207525373,-5.097210884,1,-0.703875363,1,-8.359308243,1,-0.104455575,1,-0.086079583,1,0.046893746,1,0.08832968,1,-0.536717176,1,0.202469617,1,-0.096441746,1,0.037570238,1,0.01292038,1
1.211521506,-5.066007614,1,-0.614986718,1,-8.357584,1,-0.106811896,1,-0.076743446,1,0.043958776,1,0.087803885,1,-0.537056327,1,0.202647656,1,-0.062387943,1,0.121908069,1,0.013344765,1
1.215519547,-5.054133415,1,-0.538241863,1,-8.35820961,1,-0.103620127,1,-0.072149217,1,0.042007405,1,0.087290458,1,-0.537375212,1,0.202825174,1,-0.04783392,1,0.194215775,1,0.011506081,1
1.219519734,-5.063891411,1,-0.427320331,1,-8.381885529,1,-0.093893334,1,-0.071382791,1,0.040562205,1,0.086811319,1,-0.537676632,1,0.202985376,1,-0.05505991,1,0.300996035,1,-0.013323784,1
1.223515868,-5.051867962,1,-0.413553059,1,-8.434356689,1,-0.089249119,1,-0.061857745,1,0.037764732,1,0.086368151,1,-0.537958026,1,0.203136176,1,-0.040672779,1,0.310933053,1,-0.066877365,1
1.227514148,-5.056106567,1,-0.449750155,1,-8.450706482,1,-0.074248731,1,-0.061678879,1,0.033783339,1,0.08597485,1,-0.538217962,1,0.203268856,1,-0.042728901,1,0.271333128,1,-0.08423996,1
1.231514096,-5.054912567,1,-0.455084234,1,-8.455550194,1,-0.070053115,1,-0.056331888,1,0.024764353,1,0.085616775,1,-0.538468838,1,0.203383043,1,-0.039428234,1,0.262895614,1,-0.090079308,1
1.235509992,-5.076764584,1,-0.464493126,1,-8.428542137,1,-0.059928093,1,-0.046009161,1,0.022924883,1,0.085308336,1,-0.538681448,1,0.203476146,1,-0.059494972,1,0.250815243,1,-0.063916206,1
1.239507914,-5.09566021,1,-0.501213968,1,-8.445101738,1,-0.05646823,1,-0.043588422,1,0.013149602,1,0.085033484,1,-0.538875341,1,0.203547001,1,-0.076763153,1,0.211712778,1,-0.08124733,1
1.243507981,-5.118306637,1,-0.507011056,1,-8.414866447,1,-0.047862232,1,-0.041507039,1,0.01126647,1,0.084801324,1,-0.539049625,1,0.203590617,1,-0.097947121,1,0.20389986,1,-0.051718712,1
1.247509718,-5.132692814,1,-0.541881025,1,-8.341417313,1,-0.048110686,1,-0.032326329,1,0.004233879,1,0.084587701,1,-0.539203763,1,0.203613356,1,-0.111039162,1,0.167177916,1,0.021111488,1
1.251507998,-5.096028328,1,-0.578775585,1,-8.359416962,1,-0.043323223,1,-0.029926198,1,-0.001144047,1,0.08441972,1,-0.539327919,1,0.203611553,1,-0.073332787,1,0.128826141,1,0.002609253,1
1.255507946,-5.113730907,1,-0.652020872,1,-8.327266693,1,-0.038862221,1,-0.018945532,1,-0.006193869,1,0.084271587,1,-0.539424658,1,0.203590065,1,-0.090223789,1,0.054301381,1,0.034381866,1
1.25950408,-5.088171959,1,-0.655056059,1,-8.268380165,1,-0.038618442,1,-0.014208734,1,-0.012480503,1,0.084153682,1,-0.539489865,1,0.203537971,1,-0.064116955,1,0.050252497,1,0.093022346,1
1.263502121,-5.179864407,1,-0.664694428,1,-8.266289711,1,-0.03074624,1,-0.003858753,1,-0.011732215,1,0.084048472,1,-0.53952527,1,0.203478858,1,-0.15551281,1,0.039719641,1,0.095010757,1
1.267502308,-5.166172504,1,-0.744471014,1,-8.247819901,1,-0.031887367,1,0.000454312,1,-0.015099019,1,0.083953097,1,-0.539527595,1,0.203424826,1,-0.14180088,1,-0.040855587,1,0.113533974,1
1.271498799,-5.164653301,1,-0.829043031,1,-8.216071129,1,-0.030161176,1,0.017651223,1,-0.019913416,1,0.083874308,1,-0.539493024,1,0.203354537,1,-0.140572071,1,-0.126071751,1,0.145512581,1
1.27549696,-5.148844242,1,-0.828588247,1,-8.202165604,1,-0.025762992,1,0.019622959,1,-0.017997583,1,0.083809055,1,-0.539427161,1,0.203269973,1,-0.125315666,1,-0.126134992,1,0.159791946,1
1.279496908,-5.086718559,1,-0.737238586,1,-8.258342743,1,-0.021997981,1,0.025083687,1,-0.021514971,1,0.083748996,1,-0.539328396,1,0.203186914,1,-0.064018726,1,-0.035245955,1,0.104152679,1
1.283493161,-5.040448189,1,-0.691526711,1,-8.30452919,1,-0.019573057,1,0.029019553,1,-0.02766647,1,0.083716042,1,-0.539209127,1,0.203088745,1,-0.018749714,1,0.010240316,1,0.058585167,1
1.287491083,-5.060510159,1,-0.634410858,1,-8.373305321,1,-0.015265332,1,0.030627366,1,-0.024755305,1,0.083697014,1,-0.539070964,1,0.202989221,1,-0.039970875,1,0.06725502,1,-0.009486198,1
1.29149127,-5.110002995,1,-0.694137871,1,-8.350379944,1,-0.009263124,1,0.039061878,1,-0.030306516,1,0.083688147,1,-0.538920879,1,0.202886045,1,-0.090723991,1,0.00751698,1,0.014198303,1
1.295487523,-5.106626987,1,-0.721429288,1,-8.315472603,1,-0.014270636,1,0.041366972,1,-0.027468149,1,0.083705716,1,-0.538750529,1,0.202758506,1,-0.088777542,1,-0.019555986,1,0.049944878,1
1.299485445,-5.172141075,1,-0.670179844,1,-8.323350906,1,-0.00844568,1,0.043648049,1,-0.027807787,1,0.083720058,1,-0.538572133,1,0.202647224,1,-0.155788898,1,0.031888425,1,0.04295063,1
1.303485751,-5.111247063,1,-0.618810713,1,-8.364875793,1,-0.008054085,1,0.048154294,1,-0.032232009,1,0.083746672,1,-0.538379371,1,0.202526256,1,-0.096513271,1,0.083560824,1,0.00236702,1
1.307481885,-5.135259151,1,-0.547290087,1,-8.326190948,1,-0.002190967,1,0.051624149,1,-0.034070686,1,0.083796218,1,-0.538168788,1,0.202394202,1,-0.122294903,1,0.155584276,1,0.042068481,1
1.311479807,-5.057294369,1,-0.509730637,1,-8.32691288,1,0.003807573,1,0.057555389,1,-0.041525707,1,0.083880119,1,-0.537930787,1,0.202238813,1,-0.046328068,1,0.193946004,1,0.042477608,1
1.315480113,-5.123908043,1,-0.515442431,1,-8.323647499,1,0.013830924,1,0.061716553,1,-0.047803476,1,0.084019288,1,-0.537676036,1,0.202051714,1,-0.11508131,1,0.189506054,1,0.046916962,1
1.319476485,-5.102403164,1,-0.537468612,1,-8.286247253,1,0.021707347,1,0.068921126,1,-0.057105932,1,0.084193826,1,-0.537401199,1,0.201836303,1,-0.095885277,1,0.169056475,1,0.085564613,1
1.323480606,-5.085205078,1,-0.633508801,1,-8.30443573,1,0.017922059,1,0.072517343,1,-0.057647515,1,0.084376529,1,-0.537100673,1,0.201608717,1,-0.081212044,1,0.07467252,1,0.068745613,1
1.327480793,-5.037713051,1,-0.646222472,1,-8.313702583,1,0.024502788,1,0.078713603,1,-0.058953434,1,0.084599391,1,-0.536777914,1,0.201356351,1,-0.03643322,1,0.063961565,1,0.060932159,1
1.331477046,-5.051384926,1,-0.645095766,1,-8.301210403,1,0.024108101,1,0.080625392,1,-0.063798934,1,0.084819414,1,-0.536443174,1,0.201102838,1,-0.052918911,1,0.067072749,1,0.074935913,1
1.335474968,-5.057181358,1,-0.589805961,1,-8.397161484,1,0.024875507,1,0.085814089,1,-0.065599233,1,0.085053153,1,-0.536095381,1,0.200837627,1,-0.061639309,1,0.12446785,1,-0.019451141,1
1.339474916,-5.022180557,1,-0.592179835,1,-8.405136108,1,0.033831611,1,0.083620377,1,-0.073458426,1,0.085312255,1,-0.535732627,1,0.200542152,1,-0.029688358,1,0.124419034,1,-0.025806427,1
1.343471408,-5.064123631,1,-0.641939104,1,-8.393517494,1,0.028256457,1,0.088625558,1,-0.073974229,1,0.085605577,1,-0.535369515,1,0.200236499,1,-0.074685574,1,0.077272236,1,-0.012597084,1
1.34746933,-4.990687847,1,-0.724089444,1,-8.359945297,1,0.037836961,1,0.094420813,1,-0.079797588,1,0.085906021,1,-0.534978449,1,0.199917376,1,-0.004539967,1,-0.002192497,1,0.022706032,1
1.351469278,-4.992826462,1,-0.756489575,1,-8.37282753,1,0.038398281,1,0.09678071,1,-0.074232712,1,0.086219296,1,-0.534583747,1,0.199596912,1,-0.009999752,1,-0.03179729,1,0.011555672,1
1.35546577,-5.078643799,1,-0.790637791,1,-8.320690155,1,0.038655031,1,0.096035086,1,-0.078962244,1,0.086535253,1,-0.534171879,1,0.199281082,1,-0.099283695,1,-0.063119113,1,0.065507889,1
1.359463692,-5.105808735,1,-0.790921926,1,-8.322480202,1,0.036498856,1,0.10343688,1,-0.077717647,1,0.086846143,1,-0.533745944,1,0.198965058,1,-0.130034447,1,-0.060612023,1,0.065605164,1
1.36346364,-5.159686089,1,-0.80270803,1,-8.376811028,1,0.036295094,1,0.105771117,1,-0.078055874,1,0.087157868,1,-0.533294678,1,0.198636442,1,-0.187711716,1,-0.069588125,1,0.013281822,1
1.367460132,-5.111561298,1,-0.778817236,1,-8.373396873,1,0.036902148,1,0.114665486,1,-0.07483831,1,0.08747109,1,-0.532830477,1,0.198321328,1,-0.143497467,1,-0.042867839,1,0.018764496,1
1.371464133,-5.109797955,1,-0.755565345,1,-8.36499691,1,0.035954613,1,0.121949449,1,-0.079646342,1,0.087777898,1,-0.532332778,1,0.197999284,1,-0.145927429,1,-0.016824305,1,0.029401779,1
1.375464678,-5.099924088,1,-0.744973719,1,-8.349511147,1,0.034738503,1,0.128638491,1,-0.078560136,1,0.088151135,1,-0.531741023,1,0.19781214,1,-0.141040802,1,-0.002841473,1,0.047533035,1
1.379461408,-5.072170734,1,-0.737194836,1,-8.358535767,1,0.037242953,1,0.130948871,1,-0.08399003,1,0.088432074,1,-0.531210124,1,0.196292818,1,-0.117763042,1,0.007528722,1,0.040920258,1
1.38345933,-4.988586426,1,-0.616289496,1,-8.33740139,1,0.035734143,1,0.136907786,1,-0.088588245,1,0.088759214,1,-0.530650675,1,0.195945323,1,-0.038897514,1,0.131427705,1,0.064571381,1
1.387459874,-4.985660553,1,-0.505811155,1,-8.398527145,1,0.041045059,1,0.139265478,1,-0.092345409,1,0.089093968,1,-0.530081093,1,0.19558911,1,-0.04077673,1,0.244969308,1,0.006002426,1
1.391456246,-4.84479475,1,-0.453704089,1,-8.449193954,1,0.045612291,1,0.133058131,1,-0.09530241,1,0.089463182,1,-0.52951014,1,0.195206687,1,0.095270157,1,0.30043152,1,-0.042131424,1
1.395454168,-4.759036541,1,-0.505154848,1,-8.494756699,1,0.053375021,1,0.132532135,1,-0.103353322,1,0.089861855,1,-0.528954148,1,0.194804758,1,0.176334858,1,0.252578676,1,-0.085261345,1
1.399454474,-4.78335762,1,-0.577378273,1,-8.552622795,1,0.05563445,1,0.112647124,1,-0.104112111,1,0.090281337,1,-0.528424859,1,0.194391206,1,0.147544384,1,0.184118152,1,-0.140847206,1
1.403456807,-4.761033535,1,-0.621812403,1,-8.622973442,1,0.056222558,1,0.113189809,1,-0.103507489,1,0.09071856,1,-0.527934313,1,0.193959475,1,0.165724277,1,0.143580973,1,-0.209121704,1
1.407455444,-4.747974396,1,-0.681399763,1,-8.672409058,1,0.054895777,1,0.100844778,1,-0.101317681,1,0.0911607,1,-0.527479231,1,0.193533793,1,0.174938202,1,0.087917745,1,-0.256664276,1
1.41145575,-4.810176373,1,-0.804988086,1,-8.625460625,1,0.052957125,1,0.095837787,1,-0.10049627,1,0.091588043,1,-0.527059555,1,0.193115726,1,0.109189034,1,-0.031885266,1,-0.207987785,1
1.415451884,-4.78046608,1,-0.880936086,1,-8.57938385,1,0.053421132,1,0.084944881,1,-0.096714899,1,0.092022747,1,-0.526664555,1,0.192687258,1,0.135559559,1,-0.103996158,1,-0.160317421,1
1.419449806,-4.807793617,1,-0.896905124,1,-8.576634407,1,0.050092809,1,0.077461384,1,-0.099709883,1,0.092437193,1,-0.526313007,1,0.192276254,1,0.105259418,1,-0.116316438,1,-0.156168938,1
1.423449874,-4.845540047,1,-0.87357229,1,-8.556510925,1,0.044997539,1,0.068863541,1,-0.093424998,1,0.092838138,1,-0.525985301,1,0.191866502,1,0.064742088,1,-0.089458525,1,-0.134759903,1
1.427446246,-4.842603207,1,-0.909843922,1,-8.562300682,1,0.042206243,1,0.062882416,1,-0.092702746,1,0.093215324,1,-0.525681436,1,0.191477761,1,0.065107822,1,-0.122414827,1,-0.139360428,1
1.431444168,-4.815880775,1,-0.9226017,1,-8.548717499,1,0.039213795,1,0.060744077,1,-0.083899692,1,0.093576208,1,-0.52540338,1,0.191097453,1,0.089478016,1,-0.132004976,1,-0.124699593,1
1.435444236,-4.824707031,1,-0.952226341,1,-8.537937164,1,0.033502281,1,0.05896204,1,-0.081005514,1,0.093906201,1,-0.52512908,1,0.190749303,1,0.07833147,1,-0.158723533,1,-0.112839699,1
1.439440608,-4.829495907,1,-0.954995692,1,-8.514479637,1,0.032871753,1,0.049905803,1,-0.075639099,1,0.094209507,1,-0.524882615,1,0.190410241,1,0.071456432,1,-0.158824205,1,-0.088423729,1
1.443438649,-4.848172665,1,-1.003016472,1,-8.484015465,1,0.024376925,1,0.053074412,1,-0.073117971,1,0.094480611,1,-0.524642646,1,0.190094233,1,0.050748825,1,-0.204449832,1,-0.057005882,1
1.447438598,-4.879128933,1,-0.93382442,1,-8.554087639,1,0.023254421,1,0.044948582,1,-0.064951658,1,0.094721466,1,-0.524427235,1,0.189794898,1,0.017968655,1,-0.133128285,1,-0.126218796,1
1.451434731,-4.726761818,1,-0.943344414,1,-8.46530056,1,0.015737221,1,0.040955346,1,-0.059395663,1,0.094932847,1,-0.524223924,1,0.189532101,1,0.168614864,1,-0.140772343,1,-0.03660965,1
1.455432653,-4.840754986,1,-0.915278375,1,-8.586045265,1,0.020959625,1,0.033716183,1,-0.062402617,1,0.095130496,1,-0.524053514,1,0.189273238,1,0.053178787,1,-0.110961437,1,-0.156685829,1
1.45943296,-4.706486225,1,-0.898232162,1,-8.568589211,1,0.012176337,1,0.026742587,1,-0.053900439,1,0.095319808,1,-0.523902476,1,0.189028159,1,0.186168194,1,-0.092249095,1,-0.138646126,1
1.463429332,-4.751229763,1,-0.883477986,1,-8.669528961,1,0.011674928,1,0.017888561,1,-0.052236859,1,0.095473647,1,-0.523796499,1,0.188803643,1,0.140527248,1,-0.07614857,1,-0.239192963,1
1.467427373,-4.790637493,1,-0.820027053,1,-8.650216103,1,0.013173511,1,0.009981504,1,-0.045589712,1,0.095623359,1,-0.523720801,1,0.188592881,1,0.100478649,1,-0.011400223,1,-0.219633102,1
1.47142756,-4.83404541,1,-0.763851106,1,-8.623959541,1,0.009478472,1,0.002566402,1,-0.04250811,1,0.095772527,1,-0.523678958,1,0.188393831,1,0.056715965,1,0.046053052,1,-0.19329071,1
1.475424051,-4.824854374,1,-0.726994991,1,-8.629867554,1,0.01685532,1,0.000758631,1,-0.042117175,1,0.095921829,1,-0.52365458,1,0.188197568,1,0.065700531,1,0.084179282,1,-0.199201584,1
1.479421973,-4.825946331,1,-0.709876239,1,-8.573051453,1,0.016323207,1,-0.00702151,1,-0.045237854,1,0.096093647,1,-0.52364099,1,0.187986717,1,0.064493179,1,0.102753043,1,-0.142457962,1
1.483428121,-4.900889397,1,-0.729361951,1,-8.559717178,1,0.020835629,1,-0.008737163,1,-0.044058457,1,0.096274331,1,-0.523654819,1,0.187769845,1,-0.010332584,1,0.08478415,1,-0.129337311,1
1.487430453,-4.874115944,1,-0.793374777,1,-8.53212738,1,0.018451726,1,-0.009903684,1,-0.043276999,1,0.0964543,1,-0.523676932,1,0.187565833,1,0.016628265,1,0.02227807,1,-0.102002144,1
1.49142909,-4.87381506,1,-0.801407039,1,-8.529752731,1,0.02293746,1,-0.016804561,1,-0.042002685,1,0.096645385,1,-0.523712158,1,0.18735446,1,0.017227173,1,0.015840113,1,-0.099953651,1
1.495429397,-4.863491058,1,-0.749887764,1,-8.567957878,1,0.023563469,1,-0.015838251,1,-0.049025904,1,0.096832462,1,-0.523752987,1,0.187137961,1,0.027897835,1,0.068916798,1,-0.138515472,1
1.499425769,-4.894287109,1,-0.673782766,1,-8.524916649,1,0.023742044,1,-0.014682843,1,-0.051900007,1,0.097040974,1,-0.523796439,1,0.186899722,1,-0.002530575,1,0.146758795,1,-0.095855713,1
1.503424048,-4.839519024,1,-0.638700485,1,-8.590356827,1,0.024556775,1,-0.021653743,1,-0.051770974,1,0.097269572,1,-0.523846447,1,0.186652794,1,0.052660942,1,0.183744192,1,-0.161726952,1
1.507424235,-4.882482529,1,-0.606592357,1,-8.565031052,1,0.036650974,1,-0.020006264,1,-0.05839197,1,0.097533487,1,-0.523917556,1,0.186388195,1,0.010299206,1,0.218042791,1,-0.136964798,1
1.511420369,-4.799979687,1,-0.561957657,1,-8.610515594,1,0.035845716,1,-0.03381373,1,-0.059162445,1,0.097825147,1,-0.52400589,1,0.186104417,1,0.093550682,1,0.265093505,1,-0.183119774,1
1.515418649,-4.699579239,1,-0.443702191,1,-8.606863976,1,0.044893071,1,-0.036543842,1,-0.066292562,1,0.098150872,1,-0.524112999,1,0.185796142,1,0.194857597,1,0.386042684,1,-0.180258751,1
1.519418836,-4.701996803,1,-0.406564146,1,-8.623596191,1,0.053157322,1,-0.047631551,1,-0.069982313,1,0.098518498,1,-0.524249554,1,0.185461283,1,0.193595886,1,0.426212817,1,-0.197960854,1
1.523415327,-4.664176464,1,-0.373396397,1,-8.637373924,1,0.06451571,1,-0.047807865,1,-0.071827851,1,0.098924473,1,-0.524404943,1,0.185116231,1,0.232732773,1,0.462725878,1,-0.212835312,1
1.527413487,-4.657370567,1,-0.481783479,1,-8.662216187,1,0.071559235,1,-0.054081686,1,-0.073534675,1,0.099373192,1,-0.524587631,1,0.184755743,1,0.241085052,1,0.358029753,1,-0.238947868,1
1.531413794,-4.688700676,1,-0.509215057,1,-8.695393562,1,0.071313165,1,-0.064447448,1,-0.078824989,1,0.099847041,1,-0.52479589,1,0.184385806,1,0.211517334,1,0.334488153,1,-0.273535728,1
1.535410404,-4.656545639,1,-0.55482471,1,-8.725773811,1,0.073421977,1,-0.0764267,1,-0.073581405,1,0.100331195,1,-0.525043547,1,0.183999658,1,0.245768547,1,0.292834282,1,-0.305532455,1
1.539408684,-4.686665058,1,-0.579767466,1,-8.720697403,1,0.075242043,1,-0.081092305,1,-0.075959876,1,0.100827672,1,-0.525316656,1,0.1836133,1,0.217960358,1,0.271936715,1,-0.302214622,1
1.543409109,-4.657074451,1,-0.719478726,1,-8.761686325,1,0.078728251,1,-0.09407559,1,-0.073114678,1,0.101337165,1,-0.525646806,1,0.183228016,1,0.250344753,1,0.136351049,1,-0.345246315,1
1.547405839,-4.691842079,1,-0.713982165,1,-8.768980026,1,0.079455584,1,-0.106069587,1,-0.070427172,1,0.101837948,1,-0.526018381,1,0.182843998,1,0.218719482,1,0.145877063,1,-0.354782104,1
1.551403999,-4.685326099,1,-0.763446927,1,-8.734149933,1,0.077634715,1,-0.118093014,1,-0.071653567,1,0.102336071,1,-0.526436865,1,0.182468966,1,0.228774548,1,0.100393414,1,-0.32242775,1
1.555404305,-4.759292603,1,-0.776386201,1,-8.732435226,1,0.078237869,1,-0.12742427,1,-0.06437692,1,0.102830775,1,-0.526902735,1,0.182104528,1,0.158747196,1,0.091380298,1,-0.323419571,1
1.559406638,-4.756649971,1,-0.8712641,1,-8.703138351,1,0.075162061,1,-0.142035425,1,-0.057529904,1,0.103311434,1,-0.527415454,1,0.181757048,1,0.165723324,1,0.000283539,1,-0.297053337,1
1.563404799,-4.706458569,1,-1.029796481,1,-8.696258545,1,0.07086806,1,-0.150319502,1,-0.052548598,1,0.103772588,1,-0.527975261,1,0.181433886,1,0.220645428,1,-0.15465802,1,-0.293318748,1
1.567405105,-4.729390621,1,-1.143688917,1,-8.707657814,1,0.061630923,1,-0.169655964,1,-0.043384977,1,0.104193583,1,-0.528591931,1,0.181133509,1,0.202921867,1,-0.265329003,1,-0.308109283,1
1.571401238,-4.745893478,1,-1.212725997,1,-8.676476479,1,0.048666388,1,-0.180065528,1,-0.036786303,1,0.104556188,1,-0.529264927,1,0.180861369,1,0.192101955,1,-0.331666827,1,-0.280548096,1
1.575399399,-4.834724426,1,-1.00415504,1,-8.656458855,1,0.042899795,1,-0.192198545,1,-0.02955379,1,0.104858749,1,-0.529987037,1,0.180627108,1,0.10936594,1,-0.120929301,1,-0.26434803,1
1.579399705,-4.8198843,1,-1.089847565,1,-8.639819145,1,0.026303334,1,-0.204866394,1,-0.022563625,1,0.105115958,1,-0.530765593,1,0.180405945,1,0.130774021,1,-0.204867065,1,-0.251763344,1
1.583395839,-4.713943005,1,-1.192589879,1,-8.717165947,1,0.016658792,1,-0.220141903,1,-0.020581573,1,0.105306193,1,-0.531606734,1,0.180218533,1,0.243807793,1,-0.306452155,1,-0.333426476,1
1.587393999,-4.693351269,1,-1.146991253,1,-8.680617332,1,0.001747676,1,-0.237682566,1,-0.015262663,1,0.105435833,1,-0.532503068,1,0.180028901,1,0.271954536,1,-0.260234296,1,-0.301411629,1
1.591394305,-4.772724628,1,-1.301399827,1,-8.727631569,1,-0.010069154,1,-0.250396043,1,0.001238654,1,0.105491564,1,-0.533477068,1,0.179876447,1,0.200785637,1,-0.414685905,1,-0.353291512,1
1.595390439,-4.545878887,1,-1.521631956,1,-8.88360405,1,-0.03307683,1,-0.278499275,1,0.01095404,1,0.105455875,1,-0.53452903,1,0.179763064,1,0.436487675,1,-0.635767817,1,-0.514436722,1
1.599388719,-4.604124069,1,-1.656441569,1,-8.848736763,1,-0.063947938,1,-0.304625303,1,0.023761172,1,0.105298921,1,-0.535696685,1,0.179696098,1,0.388065815,1,-0.772503376,1,-0.485224724,1
1.603388667,-4.453636646,1,-1.622165561,1,-9.053881645,1,-0.099801771,1,-0.330219716,1,0.030630244,1,0.104994744,1,-0.536967337,1,0.179659113,1,0.549235344,1,-0.741436899,1,-0.696415901,1
1.607385039,-4.577740669,1,-1.441101551,1,-9.047184944,1,-0.147979379,1,-0.359610856,1,0.0342106,1,0.104520522,1,-0.538351715,1,0.179637387,1,0.436760426,1,-0.565059543,1,-0.69619751,1
1.61138308,-4.514616489,1,-1.414477825,1,-9.228843689,1,-0.199108332,1,-0.39634195,1,0.038347431,1,0.103847101,1,-0.53986454,1,0.179617986,1,0.512581825,1,-0.54484731,1,-0.884824753,1
1.615383267,-4.35518837,1,-1.210589528,1,-9.201967239,1,-0.221595377,1,-0.433924675,1,0.038589202,1,0.103009745,1,-0.541527867,1,0.179600775,1,0.685956955,1,-0.348806798,1,-0.865548134,1
1.619379759,-4.426014423,1,-1.418369412,1,-9.276920319,1,-0.264746994,1,-0.471207142,1,0.035940524,1,0.10206116,1,-0.54334116,1,0.179557115,1,0.630320072,1,-0.565428197,1,-0.948800087,1
1.623377681,-4.360263348,1,-1.512424111,1,-9.304681778,1,-0.302291781,1,-0.514613986,1,0.042650793,1,0.100960687,1,-0.545320749,1,0.179502711,1,0.71263361,1,-0.669658542,1,-0.985600471,1
1.627377868,-4.6828866,1,-0.764551222,1,-9.39142704,1,-0.292811751,1,-0.559709549,1,0.052715085,1,0.099755056,1,-0.547488272,1,0.178277925,1,0.408121586,1,0.067087114,1,-1.082294464,1
1.631374121,-4.298745632,1,-2.064896584,1,-9.321112633,1,-0.325036466,1,-0.616070807,1,0.075231902,1,0.098539963,1,-0.549841642,1,0.178298846,1,0.811901093,1,-1.2445364,1,-1.022924423,1
1.635372043,-4.607977867,1,-1.839263678,1,-9.483350754,1,-0.39852801,1,-0.672217548,1,0.085866824,1,0.0970442,1,-0.552447081,1,0.178381205,1,0.524377346,1,-1.032609463,1,-1.197227478,1
1.63937819,-4.323532581,1,-1.705969691,1,-9.559113503,1,-0.407594621,1,-0.724081278,1,0.102690674,1,0.09536735,1,-0.55525136,1,0.178503081,1,0.832148552,1,-0.914584756,1,-1.286005974,1
1.643380523,-4.589082718,1,-0.859118402,1,-9.655025482,1,-0.426631004,1,-0.77601856,1,0.123270757,1,0.093564734,1,-0.558284163,1,0.178712964,1,0.591780663,1,-0.084112585,1,-1.396112442,1
1.647378683,-4.119827747,1,-1.771037102,1,-9.592441559,1,-0.411667109,1,-0.831537127,1,0.146496654,1,0.091773227,1,-0.561524332,1,0.179000393,1,1.087885857,1,-1.012370825,1,-1.348913193,1
1.651378989,-4.489016533,1,-1.673793674,1,-9.826253891,1,-0.467278481,1,-0.903666139,1,0.168393105,1,0.089805439,1,-0.565041125,1,0.179360464,1,0.747777939,1,-0.932997167,1,-1.599536896,1
1.655375123,-4.412006855,1,-1.208467484,1,-9.813159943,1,-0.45896107,1,-0.960264921,1,0.181584522,1,0.087729856,1,-0.568803251,1,0.179768458,1,0.855825424,1,-0.486479402,1,-1.604610443,1
1.659373283,-4.448118687,1,-1.310264111,1,-9.706605911,1,-0.496949106,1,-1.034520388,1,0.207254454,1,0.085546143,1,-0.572843492,1,0.180283755,1,0.852962971,1,-0.608026803,1,-1.51776886,1
1.66337359,-4.720300198,1,-0.792072594,1,-10.00997829,1,-0.500289202,1,-1.087877393,1,0.225752264,1,0.083187595,1,-0.577148676,1,0.180894509,1,0.616116047,1,-0.111053526,1,-1.842325211,1
1.667369723,-4.856520176,1,-0.677532494,1,-9.617278099,1,-0.441524118,1,-1.127482533,1,0.236455381,1,0.080950208,1,-0.581637919,1,0.181554347,1,0.516636848,1,-0.016733289,1,-1.472084045,1
1.671367884,-4.418155193,1,-1.59552598,1,-9.177372932,1,-0.478831917,1,-1.188626885,1,0.275000811,1,0.078709461,1,-0.586343467,1,0.182327852,1,0.993395329,1,-0.954974949,1,-1.056015015,1
1.67536819,-4.985702038,1,-1.794861436,1,-9.521778107,1,-0.516398132,1,-1.254222155,1,0.293794662,1,0.076192871,1,-0.59131664,1,0.183255047,1,0.466295719,1,-1.176806688,1,-1.425767899,1
1.679364324,-5.330311775,1,-1.204769611,1,-9.42335701,1,-0.495366961,1,-1.290360332,1,0.315900922,1,0.07360357,1,-0.596478343,1,0.184250787,1,0.163523674,1,-0.609757423,1,-1.353946686,1
1.683362603,-5.037237167,1,-1.206582069,1,-9.487081528,1,-0.490647137,1,-1.337796092,1,0.358715415,1,0.070984393,1,-0.601826429,1,0.18541652,1,0.499792576,1,-0.634799182,1,-1.44556427,1
1.68736279,-4.88138485,1,-0.892194808,1,-9.564706802,1,-0.465798646,1,-1.387098312,1,0.392718613,1,0.068276741,1,-0.607367337,1,0.186795801,1,0.700229645,1,-0.344289064,1,-1.552402496,1
1.691359282,-5.062154293,1,-0.949991226,1,-9.49064827,1,-0.428529829,1,-1.444792509,1,0.410620153,1,0.065643556,1,-0.613129616,1,0.188273728,1,0.565643787,1,-0.425303936,1,-1.509157181,1
1.695357203,-5.110059738,1,-1.355243087,1,-9.463157654,1,-0.43972531,1,-1.506369352,1,0.440805823,1,0.062988184,1,-0.619116545,1,0.189892441,1,0.565525055,1,-0.853881001,1,-1.514065266,1
1.69935739,-5.756029129,1,-0.913092315,1,-10.18725204,1,-0.424099445,1,-1.559964657,1,0.468599528,1,0.060205344,1,-0.625358701,1,0.191672891,1,-0.030837059,1,-0.435994267,1,-2.272315025,1
1.703353882,-5.769444466,1,-0.31267187,1,-9.835219383,1,-0.348884583,1,-1.597656846,1,0.457970113,1,0.057581812,1,-0.631777942,1,0.193484575,1,0.006529808,1,0.141535014,1,-1.95591259,1
1.707351804,-4.479074001,1,-0.711157143,1,-9.635939598,1,-0.322642088,1,-1.677878141,1,0.499068052,1,0.055127669,1,-0.63841188,1,0.195391923,1,1.349130154,1,-0.278409451,1,-1.793975353,1
1.711352348,-4.95321703,1,-0.812455773,1,-10.50526905,1,-0.314307183,1,-1.794126391,1,0.530477047,1,0.052590858,1,-0.645458221,1,0.197502092,1,0.930182934,1,-0.401772052,1,-2.703436375,1
1.715348959,-5.58103323,1,-0.849941432,1,-10.89601707,1,-0.29993847,1,-1.884260535,1,0.516201973,1,0.050057493,1,-0.652911961,1,0.199662998,1,0.36043644,1,-0.461229056,1,-3.137185097,1
1.71935308,-4.086240768,1,-0.211014256,1,-11.67929363,1,-0.315894276,1,-2.086449862,1,0.474196225,1,0.04758079,1,-0.660890639,1,0.201701596,1,1.917021751,1,0.156214252,1,-3.967118263,1
1.723353624,-3.198438406,1,0.418890059,1,-12.38534832,1,-0.278196961,1,-2.369423628,1,0.397385627,1,0.045353044,1,-0.66988945,1,0.203371674,1,2.874059439,1,0.766473413,1,-4.726656437,1
1.727349997,-1.980859518,1,0.190063149,1,-11.50093842,1,-0.246363506,1,-2.660652399,1,0.341319621,1,0.043499436,1,-0.68000108,1,0.204691216,1,4.168848038,1,0.520762801,1,-3.903346062,1
1.731347919,-2.050617456,1,0.18678692,1,-11.60902786,1,-0.253187805,1,-2.956421137,1,0.292778641,1,0.04186222,1,-0.691278458,1,0.205708772,1,4.184458733,1,0.502124429,1,-4.08068037,1
1.735348225,-3.97456193,1,-0.212650612,1,-12.22016621,1,-0.277705938,1,-3.193185091,1,0.261931568,1,0.040308114,1,-0.703658581,1,0.206494823,1,2.353317976,1,0.087853,1,-4.769040108,1
1.739344358,-5.754819393,1,-0.813153148,1,-12.49623108,1,-0.31074962,1,-3.320245743,1,0.248988554,1,0.038689863,1,-0.71674329,1,0.207169324,1,0.670091152,1,-0.527934968,1,-5.127999783,1
1.743342638,-6.342234612,1,-0.829155445,1,-12.98370266,1,-0.327056497,1,-3.405100822,1,0.231583804,1,0.036991939,1,-0.730225623,1,0.207765684,1,0.18150425,1,-0.559676766,1,-5.70223093,1
1.747342825,-7.691048622,1,-1.271933198,1,-13.51561832,1,-0.294319898,1,-3.434791327,1,0.250338793,1,0.035344269,1,-0.743957758,1,0.208378479,1,-1.067869186,1,-1.01764214,1,-6.323924541,1
1.751338959,-7.771840572,1,-2.269045591,1,-12.73651886,1,-0.346485704,1,-3.373980045,1,0.342251688,1,0.033450384,1,-0.757614493,1,0.209335491,1,-1.05100584,1,-2.031422853,1,-5.635428429,1
1.755337238,-7.42112875,1,-2.357988834,1,-12.10927486,1,-0.436277032,1,-3.344371557,1,0.461936295,1,0.030765673,1,-0.771097362,1,0.210968718,1,-0.605111122,1,-2.14223814,1,-5.098780155,1
1.759337783,-7.884488106,1,-2.282837391,1,-11.92788982,1,-0.543867171,1,-3.290744543,1,0.55093956,1,0.027176198,1,-0.784436345,1,0.213293865,1,-0.975521564,1,-2.094739437,1,-5.008172035,1
1.763334155,-9.140566826,1,-2.183243275,1,-12.48122978,1,-0.670774519,1,-3.178556681,1,0.591171265,1,0.022723176,1,-0.797436595,1,0.216087848,1,-2.142196178,1,-2.028014898,1,-5.651124954,1
1.767332315,-10.01693439,1,-2.31890893,1,-12.3744688,1,-0.757492483,1,-3.019095421,1,0.63854605,1,0.017576626,1,-0.809892356,1,0.219283372,1,-2.93401289,1,-2.200375319,1,-5.631337166,1
1.771332622,-8.81755352,1,-2.644029617,1,-11.94913197,1,-0.80398035,1,-2.876504183,1,0.673548222,1,0.011847453,1,-0.821703851,1,0.222858801,1,-1.655468941,1,-2.565126896,1,-5.289552212,1
1.775328994,-7.443339825,1,-2.619110584,1,-11.44336605,1,-0.811298132,1,-2.828044176,1,0.689966679,1,0.005740406,1,-0.833097816,1,0.226735011,1,-0.205837727,1,-2.581350327,1,-4.865467072,1
1.779327273,-7.586876869,1,-2.860002995,1,-11.01461792,1,-0.838447571,1,-2.816171885,1,0.712822199,1,-0.000645137,1,-0.844409168,1,0.230895236,1,-0.275433064,1,-2.864193678,1,-4.518891335,1
1.78332746,-8.827886581,1,-3.476238012,1,-11.5766964,1,-0.939215958,1,-2.751338482,1,0.721047282,1,-0.007497445,1,-0.855536759,1,0.235315397,1,-1.444614887,1,-3.524325848,1,-5.162907124,1
1.787323952,-9.029990196,1,-3.514852524,1,-11.46612453,1,-1.048193693,1,-2.688949108,1,0.764348924,1,-0.015071038,1,-0.86637044,1,0.24005124,1,-1.577666283,1,-3.610302925,1,-5.133238316,1
1.791322112,-10.99960423,1,-4.458217144,1,-12.24208164,1,-1.280889392,1,-2.532769203,1,0.751241803,1,-0.023545546,1,-0.876808047,1,0.245079905,1,-3.481580257,1,-4.605492115,1,-5.988342285,1
1.795322418,-11.74916363,1,-5.71243763,1,-11.72166157,1,-1.537090302,1,-2.339741707,1,0.769323826,1,-0.033204321,1,-0.886444628,1,0.250295579,1,-4.171207905,1,-5.917693615,1,-5.542335033,1
1.79932487,-12.11359978,1,-7.088922977,1,-12.86060619,1,-1.906306028,1,-2.089700699,1,0.734678745,1,-0.044188805,1,-0.895172358,1,0.255580127,1,-4.481972694,1,-7.359109879,1,-6.750213623,1
1.803323627,-7.459301949,1,-5.619660378,1,-14.70936489,1,-2.226436615,1,-1.781422853,1,0.729684711,1,-0.056665398,1,-0.902795494,1,0.260870397,1,0.218729019,1,-5.962756634,1,-8.661074638,1
1.807323933,-7.761761665,1,-1.476720691,1,-14.50808716,1,-2.292880297,1,-1.520963669,1,0.788116872,1,-0.07019975,1,-0.909175456,1,0.266516596,1,-0.045237064,1,-1.898197651,1,-8.513985634,1
1.811320305,-10.94194031,1,3.75313282,1,-14.69050694,1,-2.151009321,1,-1.353661418,1,0.847416461,1,-0.083953395,1,-0.914633632,1,0.272554994,1,-3.192733765,1,3.25279665,1,-8.744826317,1
1.815318584,-14.40845299,1,4.135142803,1,-17.2375145,1,-1.644167781,1,-1.024752259,1,0.622683942,1,-0.095981397,1,-0.919207454,1,0.278084695,1,-6.632036209,1,3.566732645,1,-11.33362389,1
1.819318771,-7.718167305,1,2.189423323,1,-16.33375931,1,-1.190577745,1,-0.645718098,1,0.530105591,1,-0.105025217,1,-0.922239244,1,0.282376587,1,0.07619524,1,1.57011807,1,-10.45872688,1
1.823315144,-4.694141865,1,-1.323675156,1,-13.08420658,1,-0.97202599,1,-0.487974256,1,0.436622739,1,-0.112162255,1,-0.924241543,1,0.285981953,1,3.112034321,1,-1.983146191,1,-7.22926569,1
1.827313423,-2.362487793,1,-5.06043148,1,-11.33072662,1,-0.974085987,1,-0.50671041,1,0.292395383,1,-0.118233442,1,-0.926021457,1,0.288774848,1,5.454162598,1,-5.753797054,1,-5.493702412,1
1.83131361,-1.331478,1,-7.015947342,1,-10.2486763,1,-1.148229003,1,-0.594891548,1,0.134722397,1,-0.123938724,1,-0.928088188,1,0.290648878,1,6.49730444,1,-7.740604401,1,-4.43174696,1
1.835309863,-1.664922476,1,-7.504105568,1,-9.695314407,1,-1.402506948,1,-0.696730494,1,-0.04157884,1,-0.129729629,1,-0.930626929,1,0.291513503,1,6.17871666,1,-8.259861946,1,-3.902406216,1
1.839308023,-2.112703562,1,-6.634056568,1,-9.604887962,1,-1.628549218,1,-0.79019773,1,-0.244355947,1,-0.135584518,1,-0.933661342,1,0.291230679,1,5.748625755,1,-7.42049551,1,-3.84011507,1
1.84330833,-2.404335976,1,-5.101214409,1,-9.674858093,1,-1.737498164,1,-0.866694152,1,-0.483142406,1,-0.141033858,1,-0.937148631,1,0.289598644,1,5.477235794,1,-5.915198326,1,-3.941626549,1
1.847304702,-2.812736034,1,-3.869218349,1,-10.0611105,1,-1.710950375,1,-0.907562733,1,-0.732112825,1,-0.145366073,1,-0.941016257,1,0.286388904,1,5.091172695,1,-4.703609943,1,-4.361664295,1
1.851302862,-3.162898779,1,-3.271036386,1,-10.29850101,1,-1.607957482,1,-0.922151268,1,-0.983852983,1,-0.148085862,1,-0.945153236,1,0.281528354,1,4.764772415,1,-4.116095066,1,-4.633731365,1
1.855303168,-3.516678333,1,-3.416010857,1,-10.28950596,1,-1.468250036,1,-0.904667139,1,-1.240105152,1,-0.148881212,1,-0.949423075,1,0.274920106,1,4.43537569,1,-4.260544777,1,-4.658944607,1
1.859299541,-3.42039156,1,-4.19810915,1,-9.995030403,1,-1.363212943,1,-0.868284702,1,-1.48319149,1,-0.14771387,1,-0.953726113,1,0.26654169,1,4.556087971,1,-5.031025887,1,-4.397382736,1
1.86329782,-2.851246595,1,-5.03466177,1,-9.628699303,1,-1.307875633,1,-0.846187294,1,-1.708858013,1,-0.144818842,1,-0.958043158,1,0.256453454,1,5.149589539,1,-5.846393108,1,-4.062787533,1
1.867298007,-2.029652357,1,-5.84649229,1,-9.131762505,1,-1.288860083,1,-0.842562616,1,-1.910412073,1,-0.1404313,1,-0.962411642,1,0.244771272,1,5.995679855,1,-6.628895283,1,-3.597007751,1
1.871294498,-1.249330044,1,-6.371293545,1,-8.720775604,1,-1.295244932,1,-0.847998321,1,-2.087412834,1,-0.134823859,1,-0.966861665,1,0.231676638,1,6.800796986,1,-7.11784029,1,-3.217165947,1
1.875298858,-0.552188516,1,-6.457409859,1,-8.205141068,1,-1.309329987,1,-0.869672954,1,-2.243351221,1,-0.128183916,1,-0.971405864,1,0.217293203,1,7.5230937,1,-7.162714005,1,-2.733028412,1
1.879299283,-0.0884583,1,-5.994175434,1,-7.73765564,1,-1.295718551,1,-0.891063988,1,-2.39115715,1,-0.12034376,1,-0.976089001,1,0.200691238,1,8.01257515,1,-6.652008057,1,-2.297791481,1
1.883296013,0.394164085,1,-5.370102882,1,-7.414877892,1,-1.230901122,1,-0.926885068,1,-2.541923285,1,-0.111457109,1,-0.980849624,1,0.183882743,1,8.521190643,1,-5.975271702,1,-2.007768154,1
1.887294173,0.580737054,1,-4.795348644,1,-7.395871162,1,-1.137803435,1,-0.967855513,1,-2.678248882,1,-0.101218559,1,-0.985728204,1,0.165878892,1,8.734210014,1,-5.341113091,1,-2.022356987,1
1.891294956,0.551215231,1,-4.635391235,1,-7.514110565,1,-1.021696687,1,-0.995298743,1,-2.812440634,1,-0.089517348,1,-0.99068898,1,0.146686599,1,8.73138237,1,-5.114621162,1,-2.17493391,1
1.895291924,0.405986488,1,-4.87034893,1,-7.725847244,1,-0.924242556,1,-0.992950737,1,-2.928225279,1,-0.076358557,1,-0.995617151,1,0.126346871,1,8.612472534,1,-5.276202202,1,-2.42108202,1
1.899290085,0.150462463,1,-5.235941887,1,-7.901605606,1,-0.842714429,1,-0.96534878,1,-3.035961866,1,-0.061846316,1,-1.000347257,1,0.104880504,1,8.38202095,1,-5.562368393,1,-2.630310059,1
1.903290629,-0.116339423,1,-5.520402908,1,-8.060786247,1,-0.795581698,1,-0.900775433,1,-3.131129503,1,-0.04615131,1,-1.004748344,1,0.082365595,1,8.138383865,1,-5.762385368,1,-2.821263313,1
1.90728724,-0.309251636,1,-5.569150448,1,-8.399941444,1,-0.768922865,1,-0.81619817,1,-3.230637312,1,-0.029372329,1,-1.00865829,1,0.058808301,1,7.965916634,1,-5.722240448,1,-3.189393997,1
1.911285758,-0.494518757,1,-5.491840363,1,-8.705706596,1,-0.756404579,1,-0.702877283,1,-3.307225704,1,-0.011688228,1,-1.011970043,1,0.034334678,1,7.797867298,1,-5.552446842,1,-3.520700455,1
1.915286064,-0.562913477,1,-5.398334503,1,-8.88520813,1,-0.737807035,1,-0.569828749,1,-3.37634778,1,0.006748251,1,-1.014550447,1,0.009079838,1,7.742825985,1,-5.363487244,1,-3.721383095,1
1.919282436,-0.652201414,1,-5.379677773,1,-9.011294365,1,-0.730032921,1,-0.419859946,1,-3.432185888,1,0.02579576,1,-1.016314745,1,-0.016794162,1,7.66263485,1,-5.246862888,1,-3.863718987,1
1.923280597,-0.699424088,1,-5.238028526,1,-9.206339836,1,-0.725498557,1,-0.256227046,1,-3.480792046,1,0.045300595,1,-1.017175436,1,-0.043154813,1,7.619841099,1,-5.005167007,1,-4.069489956,1
1.927280903,-0.792130053,1,-5.223261356,1,-9.271533012,1,-0.72507596,1,-0.085628383,1,-3.506157637,1,0.065037347,1,-1.017095804,1,-0.069754682,1,7.526726246,1,-4.889023781,1,-4.139618397,1
1.931277037,-0.895468473,1,-5.2732234,1,-9.174656868,1,-0.736772299,1,0.103610031,1,-3.520315886,1,0.084758714,1,-1.016014934,1,-0.096384972,1,7.417823792,1,-4.837088108,1,-4.04137373,1
1.935275316,-0.858654678,1,-5.258057117,1,-9.017737389,1,-0.765645564,1,0.298849672,1,-3.506962538,1,0.104163282,1,-1.013890147,1,-0.122775525,1,7.443672657,1,-4.720565796,1,-3.876328468,1
1.939275503,-0.632092953,1,-5.01551199,1,-8.85291481,1,-0.79021585,1,0.483459413,1,-3.475570202,1,0.122980848,1,-1.010752678,1,-0.148637906,1,7.65397501,1,-4.378180027,1,-3.696699619,1
1.943272233,-0.38543877,1,-4.897204876,1,-8.599153519,1,-0.812707841,1,0.663955092,1,-3.418133497,1,0.140991926,1,-1.006655335,1,-0.173711896,1,7.879271507,1,-4.162347794,1,-3.421684742,1
1.947270393,-0.072035387,1,-4.615913391,1,-8.40836525,1,-0.83460933,1,0.826358914,1,-3.327819109,1,0.157984942,1,-1.001694322,1,-0.197749138,1,8.166629791,1,-3.786744833,1,-3.203701019,1
1.9512707,0.174967721,1,-4.283632755,1,-8.165095329,1,-0.834213197,1,0.963462949,1,-3.219685793,1,0.173796088,1,-0.995987892,1,-0.220535681,1,8.383425713,1,-3.364164829,1,-2.927972317,1
1.955272913,0.231073365,1,-4.018398285,1,-7.993064404,1,-0.831820071,1,1.090604424,1,-3.085994959,1,0.188349396,1,-0.989662826,1,-0.241890192,1,8.405735016,1,-3.013112545,1,-2.718984127,1
1.959271431,0.175572753,1,-3.801170111,1,-7.885818005,1,-0.818831146,1,1.211522818,1,-2.934965372,1,0.201559663,1,-0.982810378,1,-0.261696637,1,8.313251495,1,-2.715111732,1,-2.570711613,1
1.963271737,0.092394218,1,-3.621116161,1,-7.815777779,1,-0.807992339,1,1.327076316,1,-2.768342972,1,0.213364825,1,-0.97548306,1,-0.279842675,1,8.190104485,1,-2.459794998,1,-2.45573473,1
1.967268109,-0.104995057,1,-3.628118038,1,-7.730640888,1,-0.793584645,1,1.44666481,1,-2.590386391,1,0.223727778,1,-0.967744231,1,-0.296270281,1,7.950030804,1,-2.397447348,1,-2.321976185,1
1.971266031,-0.222893998,1,-3.575970411,1,-7.770028114,1,-0.789851487,1,1.556105614,1,-2.411877394,1,0.232654616,1,-0.959626615,1,-0.310989201,1,7.786839008,1,-2.282033205,1,-2.30911541,1
1.975266576,-0.352430999,1,-3.59051156,1,-7.75359869,1,-0.778198004,1,1.676099896,1,-2.221926451,1,0.240116313,1,-0.95116663,1,-0.323965073,1,7.609538078,1,-2.239795208,1,-2.236868858,1
1.979262948,-0.386323273,1,-3.5355618,1,-7.759811878,1,-0.771728933,1,1.782021046,1,-2.025531054,1,0.246160015,1,-0.942406237,1,-0.335231721,1,7.525584698,1,-2.134586334,1,-2.183912754,1
1.983261228,-0.556655943,1,-3.437041521,1,-7.833871841,1,-0.759033799,1,1.886428475,1,-1.833716869,1,0.250832826,1,-0.933389246,1,-0.344830036,1,7.303090572,1,-1.992376566,1,-2.195697784,1
1.987261415,-0.812222838,1,-3.28811717,1,-7.96639061,1,-0.74195528,1,1.989440799,1,-1.650260448,1,0.254250348,1,-0.92414546,1,-0.352845699,1,6.993387222,1,-1.805981636,1,-2.263112545,1
1.991257906,-1.190759659,1,-3.157059431,1,-8.111579895,1,-0.708460867,1,2.093495131,1,-1.484063029,1,0.256586492,1,-0.914663076,1,-0.359436274,1,6.558623314,1,-1.642887115,1,-2.340442181,1
1.995256305,-1.558871388,1,-3.12475872,1,-8.261189461,1,-0.665910006,1,2.206526756,1,-1.344296694,1,0.258052289,1,-0.904918194,1,-0.364771277,1,6.1320014,1,-1.582930923,1,-2.419540882,1
1.999256611,-1.801886916,1,-3.185717344,1,-8.245592117,1,-0.625304878,1,2.32675457,1,-1.216886282,1,0.258773983,1,-0.89485544,1,-0.368997991,1,5.827801704,1,-1.619947791,1,-2.330536842,1
2.003252745,-1.920431852,1,-3.421579361,1,-8.246724129,1,-0.586489975,1,2.432836294,1,-1.111857295,1,0.258898199,1,-0.884464383,1,-0.372272611,1,5.645265579,1,-1.834862947,1,-2.255545139,1
2.007251024,-1.96488452,1,-3.606782913,1,-8.268672943,1,-0.560517788,1,2.530112743,1,-1.034402966,1,0.258539468,1,-0.873763323,1,-0.374772549,1,5.534058571,1,-2.001607895,1,-2.198999882,1
2.011251211,-1.929628015,1,-3.767326355,1,-8.351341248,1,-0.533931136,1,2.610552311,1,-0.974951148,1,0.257836103,1,-0.86279285,1,-0.376715541,1,5.499989033,1,-2.145539522,1,-2.201356888,1
2.015247345,-1.984837174,1,-4.008704662,1,-8.40089798,1,-0.524797678,1,2.675216675,1,-0.935732186,1,0.256860763,1,-0.851599216,1,-0.378223419,1,5.373122215,1,-2.371892691,1,-2.169291019,1
2.019245625,-2.141960382,1,-4.15117979,1,-8.37227726,1,-0.517363966,1,2.733235836,1,-0.918974519,1,0.255714029,1,-0.840192735,1,-0.379487157,1,5.142029762,1,-2.500393152,1,-2.05800724,1
2.023245811,-2.450716257,1,-4.377080917,1,-8.566918373,1,-0.523901522,1,2.783817053,1,-0.916495621,1,0.254473269,1,-0.828595757,1,-0.38062501,1,4.757098198,1,-2.712975979,1,-2.169278145,1
2.027242184,-2.701992035,1,-4.616709232,1,-8.727648735,1,-0.533684254,1,2.831917524,1,-0.935055137,1,0.253183246,1,-0.816799939,1,-0.381750852,1,4.42734623,1,-2.939675808,1,-2.245997429,1
2.031240463,-3.065835238,1,-4.867571354,1,-9.018568039,1,-0.555535614,1,2.882863998,1,-0.965573072,1,0.251867563,1,-0.804790139,1,-0.382945508,1,3.982584715,1,-3.1778512,1,-2.452269554,1
2.035246849,-3.50764513,1,-5.185972214,1,-9.348751068,1,-0.582463264,1,2.944783211,1,-1.003348351,1,0.250538617,1,-0.792525053,1,-0.384260774,1,3.457086086,1,-3.483672619,1,-2.69695425,1
2.03924942,-4.130619049,1,-5.34988451,1,-9.589698792,1,-0.607443154,1,3.020550013,1,-1.050778508,1,0.249181911,1,-0.779950738,1,-0.385722101,1,2.747226715,1,-3.635148525,1,-2.851256847,1
2.043248177,-4.620004177,1,-5.436740398,1,-9.780076981,1,-0.627386153,1,3.118932724,1,-1.108537912,1,0.247834802,1,-0.766984105,1,-0.387339532,1,2.167106628,1,-3.709350586,1,-2.953442574,1
2.047248363,-5.000090599,1,-5.338471889,1,-9.938965797,1,-0.632505536,1,3.214114428,1,-1.174919248,1,0.246564731,1,-0.753585815,1,-0.389164209,1,1.692065716,1,-3.597714186,1,-3.022575855,1
2.051244736,-5.276793957,1,-5.214866161,1,-9.95222187,1,-0.634411216,1,3.316911221,1,-1.249771118,1,0.245449558,1,-0.739727795,1,-0.391233951,1,1.315886497,1,-3.459453821,1,-2.944598198,1
2.055243015,-5.373227119,1,-5.084951878,1,-10.05646992,1,-0.608233869,1,3.413366318,1,-1.323994994,1,0.24452202,1,-0.725416541,1,-0.39356041,1,1.115395069,1,-3.313379765,1,-2.956404209,1
2.059243441,-5.319288731,1,-5.002113342,1,-9.921265602,1,-0.575159907,1,3.486281395,1,-1.408058882,1,0.243884474,1,-0.710697651,1,-0.396183848,1,1.060925961,1,-3.212198019,1,-2.728163242,1
2.06324029,-5.151638031,1,-5.052406311,1,-9.745995522,1,-0.528803766,1,3.543376923,1,-1.479325414,1,0.243551284,1,-0.695657969,1,-0.399077237,1,1.116378307,1,-3.241950989,1,-2.459990025,1
2.067238331,-5.036393166,1,-5.199366093,1,-9.605144501,1,-0.490808904,1,3.575421572,1,-1.538957596,1,0.243515655,1,-0.680384517,1,-0.40221867,1,1.116230011,1,-3.366299152,1,-2.227018833,1
2.071238995,-4.99973774,1,-5.2281394,1,-9.442631721,1,-0.468986034,1,3.589201927,1,-1.592017889,1,0.243686587,1,-0.664966822,1,-0.405569971,1,1.034946918,1,-3.371142387,1,-1.973642349,1
2.075235367,-5.075708389,1,-5.24668026,1,-9.384828568,1,-0.44946599,1,3.592908621,1,-1.627568603,1,0.24399972,1,-0.649468064,1,-0.409089148,1,0.838972092,1,-3.364973545,1,-1.826562881,1
2.079233646,-5.248804092,1,-5.157002449,1,-9.323973656,1,-0.434451282,1,3.584506035,1,-1.655438066,1,0.244400188,1,-0.633953512,1,-0.412713498,1,0.544326782,1,-3.250292301,1,-1.678338051,1
2.083233833,-5.484988689,1,-5.000288486,1,-9.258197784,1,-0.419398457,1,3.571879625,1,-1.664926767,1,0.244856551,1,-0.618458807,1,-0.416404903,1,0.18535614,1,-3.068558693,1,-1.527267456,1
2.087230206,-5.721251011,1,-4.73167038,1,-9.231265068,1,-0.400274396,1,3.558518887,1,-1.66369164,1,0.245325521,1,-0.602998614,1,-0.420078218,1,-0.174774647,1,-2.775256872,1,-1.417131424,1
2.091228724,-5.918842793,1,-4.377248764,1,-9.200907707,1,-0.377664685,1,3.541581869,1,-1.643725395,1,0.245770901,1,-0.587622881,1,-0.423658282,1,-0.496874332,1,-2.396838665,1,-1.305855751,1
2.09522891,-6.042483807,1,-4.00754118,1,-9.222947121,1,-0.334983557,1,3.516293287,1,-1.604337215,1,0.246222615,1,-0.572347283,1,-0.427090079,1,-0.745480061,1,-2.003610134,1,-1.249390125,1
2.099225283,-6.17046833,1,-3.601644516,1,-9.182490349,1,-0.284252077,1,3.480592251,1,-1.551774979,1,0.246689454,1,-0.557236791,1,-0.430288583,1,-0.998296261,1,-1.574674845,1,-1.133162498,1
2.103223562,-6.26672411,1,-3.291301966,1,-9.110319138,1,-0.215659469,1,3.44046402,1,-1.489219308,1,0.247228041,1,-0.542324245,1,-0.43323949,1,-1.218905926,1,-1.241349459,1,-0.988199234,1
2.107223749,-6.253430843,1,-3.017603397,1,-8.920134544,1,-0.143441632,1,3.38515234,1,-1.41620338,1,0.247857198,1,-0.527667642,1,-0.435893297,1,-1.328926086,1,-0.944612741,1,-0.728458405,1
2.111226082,-6.212747097,1,-2.781592369,1,-8.774829865,1,-0.068744376,1,3.316240549,1,-1.333405018,1,0.24859637,1,-0.513324976,1,-0.438235432,1,-1.409938812,1,-0.685382605,1,-0.51707077,1
2.1152246,-6.066155434,1,-2.585054636,1,-8.596069336,1,0.008279631,1,3.222938776,1,-1.249513507,1,0.249458343,1,-0.499379039,1,-0.440268099,1,-1.382625103,1,-0.465396881,1,-0.27602005,1
2.119225025,-5.931368828,1,-2.446373701,1,-8.533686638,1,0.06681329,1,3.108095169,1,-1.165890574,1,0.250435203,1,-0.485911518,1,-0.442023814,1,-1.363889694,1,-0.303151131,1,-0.155359268,1
2.123221874,-5.911819935,1,-2.301045179,1,-8.461595535,1,0.114666209,1,2.980979204,1,-1.087698579,1,0.251506716,1,-0.472990513,1,-0.443532467,1,-1.456460953,1,-0.134339094,1,-0.029109955,1
2.127220154,-5.781690598,1,-2.242978573,1,-8.47355938,1,0.150483653,1,2.847191334,1,-1.006981015,1,0.252468765,1,-0.46063596,1,-0.445196986,1,-1.434232712,1,-0.054577589,1,0.009492874,1
2.131220579,-5.751433849,1,-2.201202631,1,-8.602866173,1,0.14853406,1,2.699971437,1,-0.936126709,1,0.253553391,1,-0.448925823,1,-0.446301103,1,-1.506861687,1,0.009016991,1,-0.073493958,1
2.13521719,-6.004991531,1,-2.262090683,1,-8.713355064,1,0.134375185,1,2.554698944,1,-0.857516527,1,0.25452742,1,-0.43786031,1,-0.447235078,1,-1.858176231,1,-0.03187418,1,-0.141208649,1
2.139215469,-6.342657089,1,-2.298703432,1,-8.8914814,1,0.09915369,1,2.425438643,1,-0.779996395,1,0.255291522,1,-0.427399784,1,-0.447962463,1,-2.288721561,1,-0.051105976,1,-0.279539108,1
2.143215895,-6.897102356,1,-2.310765266,1,-9.382725716,1,0.047992744,1,2.306107521,1,-0.702883422,1,0.255791157,1,-0.417496234,1,-0.448480129,1,-2.931509733,1,-0.048816919,1,-0.733485222,1
2.147212505,-7.779278278,1,-2.243378878,1,-9.884345055,1,0.002570241,1,2.230385065,1,-0.627735734,1,0.256012976,1,-0.408061922,1,-0.448787093,1,-3.898204565,1,0.029859304,1,-1.199804306,1
2.151210785,-8.822561264,1,-2.115134001,1,-10.5430088,1,-0.044697784,1,2.193882227,1,-0.572959244,1,0.255959332,1,-0.398907423,1,-0.448868275,1,-5.023829937,1,0.166538715,1,-1.824335098,1
2.155210972,-9.997836113,1,-2.074907064,1,-11.35487747,1,-0.093268618,1,2.21356988,1,-0.520259798,1,0.255645216,1,-0.389844507,1,-0.448742062,1,-6.280937195,1,0.212639093,1,-2.602537155,1
2.159207344,-11.6187048,1,-2.178240299,1,-11.95144176,1,-0.128549337,1,2.33976984,1,-0.484788865,1,0.255057126,1,-0.380551964,1,-0.448365748,1,-7.986028671,1,0.112774372,1,-3.164711952,1
2.163205624,-12.7963686,1,-2.153243542,1,-12.21079445,1,-0.151797265,1,2.533272028,1,-0.455234647,1,0.254241645,1,-0.37066111,1,-0.447679311,1,-9.25368309,1,0.139529467,1,-3.387857437,1
2.167206049,-13.34722996,1,-1.956739426,1,-12.2643137,1,-0.166237161,1,2.7624259,1,-0.44464305,1,0.25324294,1,-0.359962702,1,-0.4466995,1,-9.902271271,1,0.336585999,1,-3.402905464,1
2.17120266,-13.33568478,1,-1.643025637,1,-12.01380444,1,-0.152548492,1,2.985740423,1,-0.446813017,1,0.252177596,1,-0.34838593,1,-0.445464671,1,-9.996920586,1,0.650655746,1,-3.111932755,1
2.175200939,-12.87903404,1,-1.491446018,1,-11.51410198,1,-0.120851591,1,3.178543091,1,-0.43714115,1,0.251139998,1,-0.335996866,1,-0.444017321,1,-9.654411316,1,0.803101778,1,-2.570471764,1
2.179201365,-12.17172432,1,-1.474374175,1,-10.77463531,1,-0.077754937,1,3.335421085,1,-0.419083416,1,0.250211984,1,-0.322938323,1,-0.44235599,1,-9.067946434,1,0.822103143,1,-1.788848877,1
2.183197737,-11.25882339,1,-1.551619768,1,-9.904037476,1,-0.044079587,1,3.426020861,1,-0.401435196,1,0.24939841,1,-0.309408247,1,-0.440515727,1,-8.28081131,1,0.747701406,1,-0.876513481,1
2.187196255,-10.31331253,1,-1.711492419,1,-9.031223297,1,-0.018334035,1,3.461635351,1,-0.37317276,1,0.248688728,1,-0.295655012,1,-0.438531339,1,-7.463700294,1,0.591285348,1,0.036772728,1
2.191202641,-9.33846283,1,-1.765098691,1,-8.275712967,1,-0.013511049,1,3.426947355,1,-0.348607332,1,0.248042703,1,-0.281926125,1,-0.436450571,1,-6.617560387,1,0.541208386,1,0.83083725,1
2.195205212,-8.639028549,1,-1.836418867,1,-7.740815163,1,-0.011067287,1,3.342628717,1,-0.319159269,1,0.247422025,1,-0.268463701,1,-0.43434611,1,-6.044835091,1,0.472998142,1,1.401855469,1
2.19920373,-8.298176765,1,-1.839042306,1,-7.344927788,1,-0.015039643,1,3.208980799,1,-0.30103296,1,0.246824563,1,-0.255454212,1,-0.432270825,1,-5.82687664,1,0.472963214,1,1.831074715,1
2.203204155,-8.194604874,1,-1.911293745,1,-7.122742653,1,-0.026759295,1,3.056574345,1,-0.2798118,1,0.246242359,1,-0.243014544,1,-0.43027398,1,-5.841206551,1,0.402684212,1,2.083707809,1
2.207200766,-8.377080917,1,-1.964000225,1,-6.954539299,1,-0.044041093,1,2.89447999,1,-0.257749259,1,0.245660678,1,-0.231207058,1,-0.428364396,1,-6.135930538,1,0.351217985,1,2.279563904,1
2.211199045,-8.753375053,1,-2.012698412,1,-6.973716736,1,-0.067905284,1,2.747969151,1,-0.245225504,1,0.245024472,1,-0.2200073,1,-0.426553845,1,-6.618983746,1,0.302588224,1,2.285627365,1
2.215199232,-9.168412209,1,-1.799271941,1,-7.024218082,1,-0.084393814,1,2.611076355,1,-0.253212035,1,0.244369328,1,-0.209379748,1,-0.424886227,1,-7.135573387,1,0.515305638,1,2.258126736,1
2.219195843,-9.504421234,1,-1.643298388,1,-7.097874641,1,-0.077865012,1,2.485764503,1,-0.268663585,1,0.243742555,1,-0.19924362,1,-0.423400819,1,-7.568653107,1,0.670315266,1,2.205440521,1
2.223194122,-9.792375565,1,-1.561991692,1,-7.005065918,1,-0.06859757,1,2.374671221,1,-0.297353357,1,0.243198529,1,-0.189537928,1,-0.422131062,1,-7.949742317,1,0.750975847,1,2.317300797,1
2.227194548,-9.859650612,1,-1.650452495,1,-6.870501518,1,-0.061058927,1,2.277327061,1,-0.331692874,1,0.2427468,1,-0.18021059,1,-0.421091914,1,-8.106685638,1,0.662333846,1,2.469184875,1
2.231191158,-9.722706795,1,-1.856042027,1,-6.707152367,1,-0.061674438,1,2.172086954,1,-0.369093299,1,0.242371976,1,-0.171237603,1,-0.420301259,1,-8.056147575,1,0.456925511,1,2.648294449,1
2.235189199,-9.391710281,1,-1.987235785,1,-6.460218906,1,-0.066945985,1,2.05658865,1,-0.399997771,1,0.242021725,1,-0.162660182,1,-0.419759691,1,-7.807872772,1,0.325795889,1,2.909571171,1
2.239189863,-8.98118782,1,-2.079332113,1,-6.093252182,1,-0.081974782,1,1.935178638,1,-0.428629428,1,0.24167414,1,-0.154501528,1,-0.419455439,1,-7.47614193,1,0.233457804,1,3.289573669,1
2.243186235,-8.582243919,1,-1.997322679,1,-5.864527225,1,-0.095992684,1,1.799479008,1,-0.452947527,1,0.241308138,1,-0.146827579,1,-0.419382691,1,-7.151400089,1,0.314726472,1,3.530088902,1
2.247184277,-8.286480904,1,-1.836251974,1,-5.640814304,1,-0.106888071,1,1.648123384,1,-0.479056209,1,0.240922421,1,-0.139684081,1,-0.419552922,1,-6.924785614,1,0.474552631,1,3.764377117,1
2.25118494,-8.059285164,1,-1.776840448,1,-5.319241524,1,-0.118046649,1,1.492531657,1,-0.504596949,1,0.240529343,1,-0.13311255,1,-0.419962674,1,-6.761263847,1,0.53234911,1,4.095345497,1
2.255181313,-7.933310032,1,-1.604060411,1,-5.191811085,1,-0.127471238,1,1.337317705,1,-0.527822018,1,0.240127027,1,-0.127117261,1,-0.420621425,1,-6.693427563,1,0.703149557,1,4.231090069,1
2.259179831,-7.889369011,1,-1.353708863,1,-5.173336506,1,-0.134231761,1,1.181041121,1,-0.557545245,1,0.239725485,1,-0.121703245,1,-0.42154336,1,-6.702027321,1,0.95127809,1,4.256875515,1
2.263180256,-7.991015434,1,-1.282278419,1,-5.343165398,1,-0.148901984,1,1.024821758,1,-0.579665065,1,0.23930122,1,-0.116884865,1,-0.422726452,1,-6.85046339,1,1.020036101,1,4.093470573,1
2.267176628,-8.238197327,1,-1.295350432,1,-5.554708004,1,-0.17937772,1,0.882096648,1,-0.606224179,1,0.238815784,1,-0.112620801,1,-0.424133688,1,-7.139074326,1,1.003512502,1,3.887683392,1
2.271181107,-8.870977402,1,-1.374894619,1,-5.855483055,1,-0.221022651,1,0.762647033,1,-0.627084315,1,0.238204867,1,-0.108842269,1,-0.425767243,1,-7.808582783,1,0.919163465,1,3.592282295,1
2.275181532,-9.905835152,1,-1.553295732,1,-6.29519701,1,-0.270708531,1,0.693204522,1,-0.636470973,1,0.237412393,1,-0.105427377,1,-0.427557468,1,-8.876646996,1,0.734115005,1,3.157856464,1
2.279177904,-11.07322598,1,-1.575178742,1,-6.702302456,1,-0.333771139,1,0.672750235,1,-0.657569706,1,0.236395061,1,-0.102174282,1,-0.429445505,1,-10.07568264,1,0.703385711,1,2.756277561,1
2.283176184,-12.1445446,1,-1.454743505,1,-7.062035561,1,-0.386152714,1,0.711525321,1,-0.674800158,1,0.235152662,1,-0.098867819,1,-0.43140471,1,-11.17917538,1,0.812823892,1,2.402522087,1
2.287176609,-12.89090919,1,-1.156744599,1,-7.235209465,1,-0.426501215,1,0.797418475,1,-0.68971163,1,0.233709693,1,-0.095315434,1,-0.433364809,1,-11.96011925,1,1.097942948,1,2.23588562,1
2.291173458,-12.99816704,1,-0.778149545,1,-7.131840229,1,-0.440807402,1,0.897601545,1,-0.704334557,1,0.23214747,1,-0.091372512,1,-0.435303897,1,-12.10577202,1,1.462566853,1,2.34626627,1
2.295171499,-12.58968925,1,-0.313827544,1,-6.900513172,1,-0.426154286,1,0.985573947,1,-0.719674528,1,0.230578423,1,-0.087054715,1,-0.437229514,1,-11.73935509,1,1.912874222,1,2.584759235,1
2.299171925,-11.70664501,1,0.073956013,1,-6.445883751,1,-0.387123853,1,1.042502403,1,-0.7238397,1,0.229111731,1,-0.082426421,1,-0.439129353,1,-10.90141392,1,2.28761363,1,3.046376228,1
2.303168297,-10.51504993,1,0.295468152,1,-5.862313271,1,-0.336661637,1,1.044012427,1,-0.715415478,1,0.227817178,1,-0.077697635,1,-0.440998286,1,-9.755918503,1,2.497670412,1,3.636404991,1
2.307166815,-9.305867195,1,0.316368908,1,-5.195888042,1,-0.285347342,1,0.987308204,1,-0.698941708,1,0.226716444,1,-0.073086359,1,-0.442849189,1,-8.59170723,1,2.508878469,1,4.308561802,1
2.31116724,-8.241595268,1,0.243319198,1,-4.632391453,1,-0.243511707,1,0.879665792,1,-0.673270643,1,0.225785241,1,-0.068811119,1,-0.444694877,1,-7.569142342,1,2.427640676,1,4.876983166,1
2.315163851,-7.604897976,1,0.13858512,1,-4.174612045,1,-0.221280292,1,0.733510375,1,-0.64149797,1,0.22498709,1,-0.065076597,1,-0.446546257,1,-6.968887329,1,2.315861464,1,5.338886261,1
2.31916213,-7.338788033,1,0.097990125,1,-3.975963593,1,-0.210141599,1,0.572176397,1,-0.606771767,1,0.224250346,1,-0.061981365,1,-0.448408574,1,-6.732988358,1,2.268683672,1,5.541008949,1
2.323162556,-7.362017632,1,0.167355642,1,-3.925607443,1,-0.213379145,1,0.397974581,1,-0.55715251,1,0.223513857,1,-0.059572741,1,-0.450257748,1,-6.779730797,1,2.331356764,1,5.594356537,1
2.327159405,-7.668011189,1,0.233448222,1,-4.034733772,1,-0.225609899,1,0.235212252,1,-0.517152727,1,0.222742274,1,-0.057855982,1,-0.452081144,1,-7.102485657,1,2.390320301,1,5.487855911,1
2.331157446,-7.961381912,1,0.414961994,1,-4.246880531,1,-0.24416922,1,0.098428093,1,-0.474878401,1,0.221901536,1,-0.056777336,1,-0.453879595,1,-7.406388283,1,2.563961267,1,5.278111458,1
2.335158348,-8.34377861,1,0.752439916,1,-4.542911053,1,-0.247858196,1,-0.030700084,1,-0.437418938,1,0.221014321,1,-0.056253903,1,-0.455631912,1,-7.793896198,1,2.893050194,1,4.984262943,1
2.339154959,-8.547063828,1,0.976167083,1,-4.900436401,1,-0.243345946,1,-0.126164913,1,-0.397019625,1,0.220129833,1,-0.056189995,1,-0.457329541,1,-7.997805595,1,3.10835743,1,4.628661156,1
2.343153477,-8.643668175,1,1.139193654,1,-5.179353714,1,-0.233757421,1,-0.206025675,1,-0.358706087,1,0.219263554,1,-0.056514774,1,-0.458954453,1,-8.091238976,1,3.263090134,1,4.351416588,1
2.347160101,-8.772333145,1,1.187512994,1,-5.411652088,1,-0.223255247,1,-0.279398948,1,-0.319276005,1,0.218437463,1,-0.057170637,1,-0.460485488,1,-8.213499069,1,3.303456783,1,4.120514393,1
2.351162672,-8.703363419,1,1.287004709,1,-5.578347206,1,-0.211011946,1,-0.330762982,1,-0.281808317,1,0.217657924,1,-0.058092237,1,-0.461921781,1,-8.135531425,1,3.395404577,1,3.954957008,1
2.355161667,-8.566119194,1,1.421535134,1,-5.730020523,1,-0.198406309,1,-0.387629211,1,-0.24582164,1,0.216927901,1,-0.059271175,1,-0.463267744,1,-7.986776829,1,3.522828579,1,3.804156303,1
2.359162092,-8.380664825,1,1.621653676,1,-5.852499485,1,-0.196051374,1,-0.451455086,1,-0.216600612,1,0.216213062,1,-0.060713612,1,-0.464532197,1,-7.787240505,1,3.715950489,1,3.682353497,1
2.363158703,-8.319694519,1,1.78759861,1,-6.010293484,1,-0.196044862,1,-0.520825326,1,-0.1874284,1,0.215506971,1,-0.062435329,1,-0.46573469,1,-7.70946312,1,3.874940634,1,3.525022984,1
2.367157221,-8.384044647,1,1.880781651,1,-6.121541023,1,-0.200477391,1,-0.578019977,1,-0.159513742,1,0.21478425,1,-0.064423352,1,-0.466891587,1,-7.754409313,1,3.960969687,1,3.41408062,1
2.371157646,-8.606563568,1,1.948490381,1,-6.228091717,1,-0.213665605,1,-0.633844793,1,-0.142136395,1,0.21403271,1,-0.066670008,1,-0.467996061,1,-7.955002785,1,4.021204948,1,3.307680607,1
2.375154495,-8.769851685,1,2.081133366,1,-6.375104427,1,-0.234090582,1,-0.673232436,1,-0.130232334,1,0.213222459,1,-0.069105767,1,-0.469079405,1,-8.09452343,1,4.14577961,1,3.160766125,1
2.379153013,-8.79903698,1,2.15382266,1,-6.459419727,1,-0.259371996,1,-0.703039765,1,-0.118585616,1,0.212301672,1,-0.071668617,1,-0.470801175,1,-8.098706245,1,4.209316254,1,3.076626301,1
2.383153439,-8.773690224,1,2.16711235,1,-6.499836922,1,-0.290772617,1,-0.718091547,1,-0.110380851,1,0.211284995,1,-0.074350476,1,-0.471856892,1,-8.047200203,1,4.212508202,1,3.036422729,1
2.387150049,-8.735948563,1,2.16899848,1,-6.522034168,1,-0.329142451,1,-0.735530257,1,-0.106810138,1,0.210130543,1,-0.077106491,1,-0.472890198,1,-7.982581615,1,4.202958107,1,3.014585018,1
2.391148567,-0.924463511,1,2.3588202,1,-9.317806244,1,-0.385661155,1,-0.951798081,1,-0.053872239,1,0.20877102,1,-0.080172896,1,-0.473929763,1,-0.141199112,1,4.379324913,1,0.219264984,1
2.395148993,-10.48895264,1,2.97902894,1,-8.37258625,1,-0.156935751,1,-1.465279579,1,0.385778636,1,0.207609236,1,-0.085154124,1,-0.474392086,1,-9.657136917,1,4.987622261,1,1.162887573,1
2.399145842,-3.66041255,1,0.35596624,1,-4.561146736,1,-0.090655088,1,-1.68293035,1,0.656840324,1,0.207180247,1,-0.091767207,1,-0.473553389,1,-2.764173269,1,2.359294176,1,4.96959877,1
2.403144121,9.796944618,1,-0.880332887,1,-3.577706575,1,-0.2121187,1,-1.979016304,1,0.894432783,1,0.206392795,1,-0.099536464,1,-0.472029746,1,10.76882076,1,1.114002466,1,5.947511673,1
2.407145023,0.792091727,1,-2.17786479,1,-6.983675957,1,-0.33320424,1,-2.100349903,1,1.141287684,1,0.205080241,1,-0.108465172,1,-0.469692826,1,1.850820303,1,-0.197879434,1,2.535276413,1
2.411141872,-4.071118355,1,-2.967315435,1,-11.39213467,1,-0.511859715,1,-2.051665068,1,1.336037993,1,0.20300521,1,-0.117600054,1,-0.466505527,1,-2.923619747,1,-1.009118438,1,-1.878965378,1
2.41514039,0.975201607,1,-0.630025029,1,-12.91759777,1,-0.52958411,1,-2.075295925,1,1.448567629,1,0.200408474,1,-0.126766846,1,-0.462635875,1,2.211684227,1,1.301286578,1,-3.410085678,1
2.419141054,3.683653593,1,-0.760440707,1,-12.93540287,1,-0.494210273,1,-2.196818829,1,1.511539102,1,0.197799116,1,-0.136300802,1,-0.458477885,1,5.012574196,1,1.143652558,1,-3.434874535,1
2.423138142,1.71458447,1,-1.115715384,1,-13.12192822,1,-0.44725731,1,-2.303185701,1,1.527163148,1,0.195341423,1,-0.146322623,1,-0.454212904,1,3.140542984,1,0.762343287,1,-3.630291939,1
2.427142382,1.55639863,1,-2.114717245,1,-12.32144737,1,-0.477355838,1,-2.421720982,1,1.512516141,1,0.192868546,1,-0.156761199,1,-0.450026304,1,3.083277702,1,-0.263090134,1,-2.840322495,1
2.431143284,1.983233452,1,-2.422860146,1,-11.68755817,1,-0.521544337,1,-2.586803198,1,1.4857651,1,0.190216988,1,-0.167735055,1,-0.445990324,1,3.616028309,1,-0.599657059,1,-2.218579292,1
2.435140133,-0.536960483,1,-2.95537281,1,-11.21278477,1,-0.551789343,1,-2.753027678,1,1.456594348,1,0.187399417,1,-0.17933777,1,-0.442143172,1,1.207605839,1,-1.162506938,1,-1.757957458,1
2.439138651,-3.160375118,1,-3.270275593,1,-10.66736889,1,-0.557816625,1,-2.86144352,1,1.414314747,1,0.184513852,1,-0.191454664,1,-0.438521504,1,-1.299335361,1,-1.508707523,1,-1.228883743,1
2.443139076,-4.461749554,1,-3.072949648,1,-10.84350395,1,-0.56493336,1,-2.908312559,1,1.38339901,1,0.181581035,1,-0.203832269,1,-0.435065836,1,-2.482011795,1,-1.343363166,1,-1.423271179,1
2.447135687,-5.475724697,1,-4.545653343,1,-11.47189522,1,-0.597275734,1,-2.929317236,1,1.366860986,1,0.178595737,1,-0.216299951,1,-0.431665242,1,-3.376732349,1,-2.848713398,1,-2.071562767,1
2.451134205,-9.001996994,1,-5.191120625,1,-11.23357487,1,-0.626176476,1,-2.90563035,1,1.319525957,1,0.175412357,1,-0.228777632,1,-0.428347945,1,-6.783981323,1,-3.528813839,1,-1.854405403,1
2.45513463,-9.789917946,1,-5.684858799,1,-11.27090836,1,-0.640676737,1,-2.798328638,1,1.23234725,1,0.172151789,1,-0.240904495,1,-0.425197035,1,-7.456555367,1,-4.057869911,1,-1.91355896,1
2.459131479,-9.873293877,1,-5.602995396,1,-11.4440527,1,-0.631966293,1,-2.691581488,1,1.128569841,1,0.168890208,1,-0.252524972,1,-0.422324717,1,-7.429723263,1,-4.011199951,1,-2.108805656,1
2.463129759,-10.31554317,1,-5.529437065,1,-11.17717838,1,-0.665407896,1,-2.616438627,1,1.001775026,1,0.165653691,1,-0.263712764,1,-0.419800341,1,-7.766179562,1,-3.972469568,1,-1.864378929,1
2.467130423,-9.372416496,1,-5.375546455,1,-11.06076908,1,-0.670137167,1,-2.527453661,1,0.862341583,1,0.162469313,1,-0.2744717,1,-0.417714953,1,-6.721615791,1,-3.852766991,1,-1.770662308,1
2.471127272,-8.335267067,1,-5.011239052,1,-11.48777962,1,-0.63263768,1,-2.434628248,1,0.700071931,1,0.159425378,1,-0.284741461,1,-0.416156352,1,-5.587927818,1,-3.521145344,1,-2.22044754,1
2.475125551,-8.112138748,1,-4.626724243,1,-11.24858189,1,-0.621579289,1,-2.37612009,1,0.536114812,1,0.156646639,1,-0.294635892,1,-0.415204704,1,-5.272062778,1,-3.166700602,1,-2.004451752,1
2.479125738,-7.542637825,1,-3.917684555,1,-11.58364487,1,-0.569207668,1,-2.306412935,1,0.40335995,1,0.154153034,1,-0.304173291,1,-0.414779812,1,-4.613434792,1,-2.484940529,1,-2.3630867,1
2.48312211,-7.160693645,1,-3.057716131,1,-11.51631641,1,-0.557142556,1,-2.245103121,1,0.30788824,1,0.151880905,1,-0.313386321,1,-0.414780319,1,-4.145647049,1,-1.650069356,1,-2.319595337,1
2.487120628,-6.890385628,1,-3.05731082,1,-11.70495892,1,-0.584026694,1,-2.181354523,1,0.265752196,1,0.149685934,1,-0.322297573,1,-0.415008694,1,-3.792550802,1,-1.673915386,1,-2.532100677,1
2.491121054,-7.371101379,1,-1.480256677,1,-11.57324314,1,-0.584110022,1,-2.117973328,1,0.263578624,1,0.147427216,1,-0.330976427,1,-0.415243924,1,-4.192873955,1,-0.121585011,1,-2.424227715,1
2.495117664,-6.258476734,1,-0.970555961,1,-10.84453869,1,-0.589724243,1,-2.043156862,1,0.306789756,1,0.145123646,1,-0.339364469,1,-0.415354013,1,-3.00277853,1,0.363134563,1,-1.719117165,1
2.499115705,-5.552562237,1,0.476999581,1,-10.26007843,1,-0.572506845,1,-1.994899511,1,0.399094582,1,0.142697215,1,-0.347557366,1,-0.415110171,1,-2.221416235,1,1.784706593,1,-1.158157349,1
2.503116131,-5.463040829,1,1.472354889,1,-9.942213058,1,-0.505181849,1,-1.988781452,1,0.478425056,1,0.140312955,1,-0.355693758,1,-0.414456546,1,-2.057188988,1,2.754523754,1,-0.864336967,1
2.507118702,-5.096012592,1,1.151980042,1,-9.211891174,1,-0.414839625,1,-1.969234109,1,0.538258851,1,0.138155401,1,-0.363805026,1,-0.413467079,1,-1.615909338,1,2.410714149,1,-0.158930779,1
2.511116982,-4.575193405,1,1.012754083,1,-8.769387245,1,-0.380890489,1,-1.954463124,1,0.590775132,1,0.136132032,1,-0.371903956,1,-0.41223523,1,-1.02118063,1,2.249302626,1,0.257881165,1
2.515117645,-4.180924892,1,-0.210557476,1,-9.006350517,1,-0.370475411,1,-1.950923443,1,0.619630873,1,0.134120226,1,-0.379972875,1,-0.410784632,1,-0.553508043,1,1.003953099,1,-0.005327225,1
2.519114017,-4.739210606,1,-0.418459028,1,-9.408232689,1,-0.395468801,1,-1.954813004,1,0.663528979,1,0.131929874,1,-0.388056993,1,-0.409156114,1,-1.038488388,1,0.772436857,1,-0.433931351,1
2.523112535,-5.446662903,1,-1.041069865,1,-9.278231621,1,-0.295567483,1,-1.923873782,1,0.605307579,1,0.12995328,1,-0.396072745,1,-0.407482803,1,-1.673493862,1,0.128203034,1,-0.331297874,1
2.527112961,-5.409525394,1,-1.448360562,1,-8.83243084,1,-0.307897598,1,-1.889368773,1,0.547281265,1,0.128217489,1,-0.403949618,1,-0.406078517,1,-1.5654006,1,-0.298455358,1,0.086767197,1
2.531109333,-5.517247677,1,-0.739603698,1,-9.695277214,1,-0.25126949,1,-1.843788385,1,0.499467492,1,0.126544818,1,-0.411609441,1,-0.404826283,1,-1.604351997,1,0.391631782,1,-0.803640366,1
2.535107613,-6.024160385,1,-1.868521214,1,-8.811692238,1,-0.245589778,1,-1.848920584,1,0.39269641,1,0.125213325,1,-0.419171512,1,-0.403921247,1,-2.043596029,1,-0.752853155,1,0.051832199,1
2.539108038,-7.102237701,1,-0.808560312,1,-10.19663048,1,-0.207861066,1,-1.835491657,1,0.361371189,1,0.123960793,1,-0.426658899,1,-0.403280079,1,-3.054897308,1,0.292289197,1,-1.361538887,1
2.54310441,-8.221148491,1,-0.508490205,1,-9.604868889,1,-0.173726484,1,-1.813385129,1,0.263734728,1,0.123059772,1,-0.434083045,1,-0.40292573,1,-4.107820034,1,0.580679178,1,-0.798855782,1
2.547102928,-7.130782604,1,1.034523845,1,-10.21086788,1,-0.10606765,1,-1.761302114,1,0.246285036,1,0.12241891,1,-0.441299766,1,-0.402791888,1,-2.953526974,1,2.114396811,1,-1.433849335,1
2.551103115,-10.40780067,1,0.142487884,1,-9.776527405,1,-0.093384065,1,-1.714945078,1,0.16427727,1,0.122073837,1,-0.448320925,1,-0.40285331,1,-6.168558598,1,1.215734243,1,-1.028461456,1
