Time,inertial-6253.76535:scaledAccelX,inertial-6253.76535:scaledAccelY,inertial-6253.76535:scaledAccelZ,inertial-6253.76535:scaledGyroX,inertial-6253.76535:scaledGyroY,inertial-6253.76535:scaledGyroZ,inertial-6253.76535:scaledMagX,inertial-6253.76535:scaledMagY,inertial-6253.76535:scaledMagZ,inertial-6253.76535:roll,inertial-6253.76535:pitch,inertial-6253.76535:yaw
0,0.5472133159637451,0.1808090955018997,-0.821807921,-0.025511449,0.007650589,-0.013841595,-0.251908481,-0.096258834,0.2317143380641937,-0.198195875,0.5758190155029297,2.583908796310425
0.005001216,0.5489079356193542,0.1827159970998764,-0.820504427,-0.023799652,0.004904267,-0.012884993,-0.25224331,-0.096265897,0.2316037118434906,-0.198399246,0.5758323669433594,2.583878040313721
0.009997824,0.5504747033119202,0.1834502220153809,-0.81907928,-0.0206725,0.001074275,-0.01122575,-0.252500921,-0.096271329,0.2315185815095901,-0.198569,0.5758294463157654,2.583862066268921
0.014994944,0.5483134984970093,0.1847286969423294,-0.819022775,-0.017013598,-0.001286453,-0.008290555,-0.252586365,-0.096273132,0.2314903438091278,-0.198716983,0.5758184790611267,2.583874225616455
0.019993344,0.5459012389183044,0.1848423480987549,-0.818797052,-0.015182142,-0.003592534,-0.007374529,-0.252652109,-0.096274517,0.2314686328172684,-0.198853955,0.5757893323898315,2.583902835845947
0.024992513,0.5473036170005798,0.1825303286314011,-0.818821728,-0.012340429,-0.004126507,-0.005092232,-0.252728969,-0.096360482,0.2314634770154953,-0.198960587,0.5757730603218079,2.583926200866699
0.029993216,0.5456179976463318,0.1832495778799057,-0.81912756,-0.009682368,-0.007255979,-0.002563542,-0.252843827,-0.096513085,0.2314615547657013,-0.19904004,0.5757331252098083,2.583976745605469
0.034994688,0.5443586111068726,0.1846271306276321,-0.821185291,-0.007086933,-0.009928847,-0.003427074,-0.252881914,-0.096563689,0.2314609289169312,-0.199119702,0.5756801962852478,2.584039926528931
0.039991297,0.5452283620834351,0.1834137439727783,-0.820087433,-0.004944572,-0.009664358,-0.000667896,-0.25291121,-0.096602619,0.2314604371786118,-0.199173465,0.5756358504295349,2.584105491638184
0.044988673,0.5445790886878967,0.1824419349431992,-0.822250247,-0.003088323,-0.010302415,0.000765138,-0.252920926,-0.096615531,0.2314602732658386,-0.19921644,0.5755864977836609,2.584176540374756
0.049987584,0.544027567,0.1796935051679611,-0.821661532,-0.002585008,-0.008755199,-0.001117319,-0.252928615,-0.096624859,0.2315264642238617,-0.19925046,0.5755327939987183,2.584234476089478
0.05498701,0.5459424257278442,0.1781688183546066,-0.823228121,-0.003999897,-0.010095737,-0.001599834,-0.252931148,-0.096627951,0.2315484136343002,-0.199283138,0.5754819512367249,2.584281921386719
0.059987456,0.5449283719062805,0.1765137910842896,-0.822598338,-0.002174467,-0.010232065,-0.001241166,-0.252933085,-0.096630335,0.2315652966499329,-0.199307457,0.5754281282424927,2.584323406219482
0.064989187,0.542914093,0.1739377826452255,-0.825459242,-0.005694121,-0.008682917,-0.001004582,-0.252933741,-0.096631125,0.2315708994865417,-0.199351907,0.5753762722015381,2.584356307983398
0.069986045,0.5432939529418945,0.1780686229467392,-0.826263964,-0.006949462,-0.009474367,-0.003096018,-0.252533972,-0.096894018,0.2315205037593842,-0.199409038,0.5753161311149597,2.584387063980103
0.074983425,0.5438796877861023,0.1778788268566132,-0.82358706,-0.00619188,-0.006974649,-0.005465777,-0.252302378,-0.097046092,0.2314902544021606,-0.199478239,0.5752692222595215,2.584390402
0.079981826,0.5447187423706055,0.1791496127843857,-0.822396874,-0.006788702,-0.007735929,-0.002424429,-0.25212419,-0.097163104,0.2314669787883759,-0.199546576,0.575232983,2.584418296813965
0.084981248,0.5447851419448853,0.1796734035015106,-0.822096884,-0.009012845,-0.006233843,-0.004084084,-0.252065092,-0.097201899,0.2314592599868774,-0.199621528,0.5751979351043701,2.584431171417236
0.089981437,0.5406779050827026,0.177794412,-0.822627485,-0.008097012,-0.004926716,-0.004110023,-0.252133727,-0.097224653,0.2319938689470291,-0.199700043,0.5751654505729675,2.584448575973511
0.094982915,0.5422452092170715,0.1753928363323212,-0.823469043,-0.010150282,-0.004566752,-0.006740335,-0.252271533,-0.097225033,0.2327162176370621,-0.199783817,0.5751315355300903,2.584433794021606
0.099985152,0.5441738367080688,0.1761824935674667,-0.822376966,-0.013333025,-0.004082833,-0.006413736,-0.25237757,-0.097225331,0.2332720160484314,-0.199893832,0.5751082301139832,2.584410429000854
0.104982525,0.5449198484420776,0.177381307,-0.822311103,-0.011625707,-0.002655813,-0.007645422,-0.252412736,-0.097225435,0.2334562987089157,-0.199993446,0.5750871896743774,2.584397792816162
0.109980673,0.5425971746444702,0.1758463829755783,-0.823211014,-0.013043055,-0.002697235,-0.007964392,-0.252439797,-0.09722551,0.2335981130599976,-0.200104222,0.5750620365142822,2.584375858306885
0.114980094,0.5425158143043518,0.1754125654697418,-0.821029305,-0.014542171,0.000676917,-0.01053517,-0.252248973,-0.097137287,0.2325923442840576,-0.200230956,0.5750536918640137,2.584335327148438
0.119980544,0.5426245927810669,0.1741093695163727,-0.822256029,-0.01636631,0.001528627,-0.01249848,-0.252102166,-0.097069405,0.2318184822797775,-0.200369164,0.5750427842140198,2.584280252456665
0.124982014,0.5417259335517883,0.177083284,-0.821900964,-0.016971936,-0.000228694,-0.011360197,-0.252053469,-0.097046904,0.2315618842840195,-0.200509146,0.5750184655189514,2.584251403808594
0.129978627,0.5426068902015686,0.181405172,-0.821704388,-0.018926032,0.000147799,-0.01244464,-0.252016008,-0.097029582,0.2313644289970398,-0.200671196,0.5749989748001099,2.584230899810791
0.134976,0.5432267189025879,0.1834147274494171,-0.820267797,-0.017014969,0.000195269,-0.01281441,-0.252202094,-0.096960224,0.2315288037061691,-0.200827852,0.5749818086624146,2.584220886230469
0.139974147,0.5453105568885803,0.1810890138149261,-0.820751429,-0.014967352,-6.61E-05,-0.00971793,-0.252545983,-0.096842527,0.2318876683712006,-0.200958312,0.5749770998954773,2.584205389022827
0.144973829,0.5438710451126099,0.1832121461629868,-0.820927799,-0.014063017,-0.003962362,-0.009195414,-0.252660006,-0.096803509,0.2320066690444946,-0.201091364,0.5749397873878479,2.584216356277466
0.149974018,0.5451307892799377,0.1853247284889221,-0.818357825,-0.012689039,-0.003480065,-0.008094697,-0.252747744,-0.096773483,0.2320982217788696,-0.201210469,0.5749210119247437,2.584239244
0.154975489,0.5461087822914124,0.1845549792051315,-0.817695141,-0.013102588,-0.00346757,-0.007029412,-0.252776831,-0.096763521,0.2321285754442215,-0.201328352,0.5749022960662842,2.584251403808594
0.159972101,0.5442089438438416,0.1821310520172119,-0.819517791,-0.009836777,-0.004669326,-0.005652578,-0.252527833,-0.097238012,0.2316879630088806,-0.201415226,0.574875534,2.584259748458862
0.164969474,0.5442966818809509,0.1823612153530121,-0.819305956,-0.010060913,-0.004093342,-0.005426769,-0.252445281,-0.097395346,0.2315418571233749,-0.201514542,0.5748484134674072,2.584267616271973
0.169967622,0.5439032316207886,0.1802981942892075,-0.819926918,-0.009473455,-0.004778788,-0.00661479,-0.252381742,-0.097516403,0.2314294427633286,-0.201600403,0.5748195648193359,2.584272623062134
0.174967289,0.5446015596389771,0.1770109981298447,-0.822397172,-0.00868596,-0.00452946,-0.00657074,-0.252360672,-0.097556539,0.2313921749591827,-0.201677203,0.5747915506362915,2.584259033203125
0.179967493,0.5468286275863647,0.1776871532201767,-0.824031532,-0.011452248,-0.007030074,-0.006612796,-0.25175193,-0.09763974,0.232450396,-0.201772586,0.5747503638267517,2.584230184555054
0.184968963,0.5460412502288818,0.1757465749979019,-0.822290719,-0.013476555,-0.006416306,-0.009009723,-0.251403451,-0.097680271,0.2330702394247055,-0.201875925,0.5747122764587402,2.584179878234863
0.189965561,0.5467594861984253,0.1751694232225418,-0.820953012,-0.014798651,-0.00888203,-0.011554119,-0.251135319,-0.097711459,0.2335471659898758,-0.201990038,0.5746625065803528,2.584109544754028
0.194962695,0.5476690530776978,0.1783587634563446,-0.820311785,-0.0158241,-0.00732966,-0.009450343,-0.251046419,-0.0977218,0.2337052971124649,-0.202121213,0.5746256709098816,2.584062099456787
0.199961081,0.54505986,0.178536132,-0.82008779,-0.016421108,-0.008410957,-0.010393886,-0.251342803,-0.097726554,0.2334089726209641,-0.20224826,0.5745728015899658,2.584035158157349
0.20496051,0.543631911,0.181248739,-0.823200226,-0.01663265,-0.007667582,-0.01254463,-0.251808941,-0.097724915,0.2328891903162003,-0.202399477,0.574522853,2.584001779556274
0.209961221,0.5424565672874451,0.1835685521364212,-0.82087177,-0.015941808,-0.008908806,-0.009990318,-0.252167583,-0.097723648,0.2324892580509186,-0.202527761,0.5744625926017761,2.584009408950806
0.214962691,0.5442616939544678,0.1871213167905807,-0.818897963,-0.01506331,-0.008622874,-0.008590451,-0.252286494,-0.097723231,0.2323566526174545,-0.202665031,0.5744153261184692,2.584021806716919
0.219959289,0.5433202981948853,0.188043624,-0.819738626,-0.01099102,-0.010886942,-0.008607117,-0.252378017,-0.097722903,0.2322546243667603,-0.202769905,0.5743536949157715,2.584045648574829
0.224956676,0.5427938103675842,0.186328724,-0.819494307,-0.009913687,-0.010623598,-0.006187825,-0.252258629,-0.097777419,0.232118696,-0.202863783,0.5742963552474976,2.584073781967163
0.229955077,0.5397205352783203,0.1836727410554886,-0.820440412,-0.009946257,-0.011350553,-0.003656621,-0.252166778,-0.097819366,0.2320141047239304,-0.202940106,0.5742356777191162,2.584115266799927
0.234960377,0.5400757193565369,0.1815361231565475,-0.823029101,-0.005696344,-0.009878289,-0.004694726,-0.25213632,-0.097833276,0.2319794297218323,-0.202996314,0.5741727352142334,2.584142684936523
0.239960834,0.5423365235328674,0.1815933436155319,-0.822830379,-0.006709508,-0.010608213,-0.004525683,-0.252112865,-0.097843975,0.2319527566432953,-0.203063771,0.5741028785705566,2.584167242050171
0.244962558,0.5409446358680725,0.1834851503372192,-0.82396394,-0.007884863,-0.009048868,-0.004546313,-0.252075166,-0.097991616,0.2320299744606018,-0.203143209,0.5740482807159424,2.584193706512451
0.249959424,0.5409908890724182,0.1829771846532822,-0.822541893,-0.008866779,-0.009053666,-0.005111265,-0.252015918,-0.098250918,0.2321764230728149,-0.203227624,0.5739955306053162,2.584208250045776
0.254956812,0.5424259305000305,0.1811724007129669,-0.821535289,-0.008377997,-0.008566554,-0.003977534,-0.251996279,-0.098336905,0.2322249710559845,-0.203296408,0.5739516019821167,2.584218263626099
0.259955198,0.5433577299118042,0.1812776178121567,-0.822983801,-0.00778036,-0.007965532,-0.004481609,-0.251981139,-0.098403059,0.2322623282670975,-0.203365505,0.5739070177078247,2.584220886230469
0.264954627,0.5445690751075745,0.1795798242092133,-0.824617207,-0.007841534,-0.007897584,-0.004868651,-0.251976132,-0.098424993,0.2322747111320496,-0.203435898,0.5738633871078491,2.584218740463257
0.269955575,0.5417342185974121,0.1800710260868073,-0.82290256,-0.009243416,-0.006453604,-0.004685626,-0.251577437,-0.098383799,0.2320769876241684,-0.203511044,0.5738199949264526,2.584225177764893
0.274957061,0.5438026189804077,0.1812672168016434,-0.822803795,-0.009859253,-0.005773795,-0.003696583,-0.251445234,-0.098370142,0.2320114225149155,-0.203592792,0.5737876296043396,2.584231138
0.279953659,0.5439615249633789,0.1847040057182312,-0.822703421,-0.009801721,-0.008833719,-0.005974941,-0.251343489,-0.09835963,0.2319609671831131,-0.203686222,0.5737342834472656,2.584232568740845
0.284951031,0.5419390797615051,0.1837472319602966,-0.822321892,-0.009595905,-0.006784183,-0.004265798,-0.251309752,-0.098356143,0.2319442480802536,-0.203763843,0.5736930370330811,2.584253787994385
0.289949179,0.5427078604698181,0.1838988810777664,-0.822316468,-0.009111824,-0.00820113,-0.00548551,-0.251780808,-0.098242655,0.2318898886442184,-0.203851998,0.5736458897590637,2.584271430969238
0.294948608,0.5445416569709778,0.1808147579431534,-0.821900725,-0.008491837,-0.007698775,-0.004856241,-0.252059996,-0.098177604,0.2318615764379501,-0.203928977,0.5736076235771179,2.584270954
0.29994905,0.5440762639045715,0.1811644583940506,-0.822103798,-0.008522565,-0.007882959,-0.004455012,-0.252274811,-0.098127559,0.2318398058414459,-0.204005674,0.5735639333724976,2.584284543991089
0.304950535,0.5425902605056763,0.1830422878265381,-0.821353018,-0.008457755,-0.009008221,-0.006382072,-0.252346039,-0.098110966,0.2318325936794281,-0.204087242,0.5735046863555908,2.584302425384521
0.309947133,0.5426927804946899,0.1846449822187424,-0.822090626,-0.00910054,-0.008022672,-0.006488586,-0.252204448,-0.098044798,0.231765941,-0.204179555,0.573458731,2.584324836730957
0.314944506,0.5413398146629333,0.1834779679775238,-0.822215497,-0.00842475,-0.006614899,-0.004676843,-0.251959443,-0.097969003,0.231682226,-0.204249889,0.5734208226203918,2.584353446960449
0.319942653,0.5394088625907898,0.1851444393396378,-0.822128177,-0.008742161,-0.006496702,-0.002396834,-0.251770943,-0.097910687,0.231617808,-0.204330072,0.5733857154846191,2.584401369094849
0.324942082,0.5411083698272705,0.1875437498092651,-0.821770668,-0.00630787,-0.005335373,-0.003909779,-0.251708418,-0.097891353,0.2315964549779892,-0.204401895,0.5733491182327271,2.584450483322144
0.329942524,0.5393558144569397,0.1861559897661209,-0.821995795,-0.007756602,-0.004026868,-0.003344503,-0.251660317,-0.097876482,0.2315800189971924,-0.204481304,0.5733198523521423,2.584489822387695
0.334944248,0.5407968163490295,0.1832892894744873,-0.822526336,-0.007253294,-0.004286946,-0.002345712,-0.251841992,-0.098160833,0.232879102,-0.20454517,0.5732950568199158,2.584519624710083
0.339940876,0.5418882369995117,0.182885468,-0.823379993,-0.006043972,-0.002156963,-0.002126479,-0.251981765,-0.098379627,0.2338786572217941,-0.204602495,0.5732777118682861,2.584537029266357
0.344938487,0.5433881282806396,0.1823130548000336,-0.822468817,-0.006541141,-0.002961075,-0.000640376,-0.252028108,-0.098452173,0.2342100888490677,-0.204654649,0.5732628703117371,2.584556579589844
0.349936903,0.5403990149497986,0.1845687329769135,-0.823053539,-0.006091759,-0.002462091,-0.000109207,-0.252063751,-0.098507993,0.2344651073217392,-0.204709888,0.5732402801513672,2.584603786468506
0.354936332,0.5410248041152954,0.1855224072933197,-0.820856452,-0.007402742,-0.001575374,0.00042247,-0.252102256,-0.098503314,0.2338698208332062,-0.20477666,0.5732312202453613,2.584652185440063
0.359936506,0.540051281,0.1859798729419708,-0.822002113,-0.005338107,-0.000528,0.000312463,-0.25215885,-0.098476253,0.2327243685722351,-0.20483239,0.5732279419898987,2.584711552
0.364937991,0.5415729284286499,0.1859277337789536,-0.821574211,-0.006413545,-0.000671538,-0.001949818,-0.252177626,-0.098467283,0.2323445677757263,-0.204896227,0.573215663,2.584751605987549
0.36994049,0.5433989763259888,0.1847885251045227,-0.821014643,-0.004238436,0.000325879,0.001571363,-0.25219208,-0.098460384,0.2320523262023926,-0.20493941,0.5732176899909973,2.584795236587524
0.374937862,0.5422221422195435,0.1846829056739807,-0.821046174,-0.005268641,-0.000451943,0.003198662,-0.252196848,-0.098458089,0.231955424,-0.204988226,0.5732172131538391,2.584849834442139
0.379936248,0.5437762141227722,0.1840506792068481,-0.823152244,-0.005226266,-0.001031218,0.000590995,-0.252002925,-0.098460153,0.2318770736455917,-0.205035135,0.5732123851776123,2.584886551
0.384935439,0.5411239266395569,0.1817188262939453,-0.821227908,-0.006036497,0.001298598,-0.001237758,-0.251938611,-0.098460838,0.2318510860204697,-0.205085546,0.573212743,2.584908962249756
0.389935881,0.5418705344200134,0.182558,-0.821040034,-0.005802111,0.000291423,-0.000252643,-0.25188911,-0.09846136,0.2318311035633087,-0.205138072,0.5732153058052063,2.584936618804932
0.394937605,0.5418688654899597,0.1830058097839355,-0.819787264,-0.006385583,0.00046918,-0.001008931,-0.251872718,-0.098461531,0.2318244725465775,-0.205194712,0.5732157826423645,2.584966183
0.399934471,0.5400851368904114,0.1841948926448822,-0.821762562,-0.007387088,0.002672847,-0.002262027,-0.252058089,-0.098458745,0.2317233979701996,-0.205269173,0.573225737,2.584995269775391
0.404931843,0.5400309562683105,0.1817005723714828,-0.821763813,-0.00731314,0.00301009,-0.002477819,-0.252168566,-0.098457098,0.2316661179065704,-0.205339655,0.5732312798500061,2.585009574890137
0.409930229,0.5409138798713684,0.1801211684942245,-0.822886407,-0.009668045,0.004008071,-0.00104867,-0.252253592,-0.098455831,0.23162204,-0.205408022,0.5732431411743164,2.585031270980835
0.414929658,0.5397795438766479,0.1817068457603455,-0.822770894,-0.009785755,0.004513315,-0.003062312,-0.252281785,-0.098455414,0.2316074222326279,-0.205488205,0.5732554197311401,2.585049867630005
0.4199301,0.5418992042541504,0.1846515238285065,-0.822643876,-0.010265832,0.004589057,-0.003668188,-0.252303123,-0.098483697,0.2316248565912247,-0.205580592,0.5732702612876892,2.585064888000488
0.424931586,0.5429996252059937,0.185667485,-0.822267175,-0.010000756,0.005803982,-0.003030923,-0.252309889,-0.098521918,0.2316595166921616,-0.205673993,0.5732941031455994,2.585082054138184
0.429928452,0.5434205532073975,0.1879501640796661,-0.820762098,-0.009192329,0.004467971,-0.001579421,-0.252315074,-0.098551333,0.2316861897706985,-0.205761269,0.5733121037483215,2.585119485855103
0.434925824,0.5421932935714722,0.1888227909803391,-0.821411371,-0.00921972,0.003669418,-0.002142006,-0.252316803,-0.098561086,0.2316950410604477,-0.205853507,0.573326588,2.585155248641968
0.43992421,0.544099748,0.1871284395456314,-0.821427763,-0.007494779,0.002599928,-0.003235441,-0.252318114,-0.098568588,0.2317018508911133,-0.205930829,0.5733389258384705,2.585175752639771
0.444923639,0.5430247783660889,0.1847942918539047,-0.820972979,-0.007480618,0.002600152,-0.000608285,-0.252167135,-0.098728269,0.2315033376216888,-0.205991521,0.5733515024185181,2.585203647613525
0.449923843,0.5435624718666077,0.187249556,-0.821910977,-0.005534801,0.002369552,-0.000937346,-0.252050996,-0.098851137,0.2313506007194519,-0.206053287,0.5733579397201538,2.585237026
0.454925567,0.5440635085105896,0.1892502158880234,-0.818966329,-0.00380294,0.000877858,-0.000677353,-0.252012491,-0.098891877,0.231299952,-0.206113026,0.5733614563941956,2.585275888442993
0.459922165,0.5442220568656921,0.1900185346603394,-0.820771694,-0.004039463,0.001268599,-0.001454846,-0.251982868,-0.098923221,0.2312609851360321,-0.206174344,0.5733616948127747,2.585310697555542
0.464919537,0.5429588556289673,0.1873685270547867,-0.821058571,-0.001443206,0.001205877,-0.002224182,-0.251973689,-0.098931544,0.231474757,-0.206212848,0.5733660459518433,2.585341215133667
0.469917685,0.5430817008018494,0.1861329674720764,-0.821539462,-0.001354915,0.001923689,0.001120579,-0.251967221,-0.09893585,0.2318684607744217,-0.206244513,0.5733717679977417,2.585390090942383
0.474917114,0.5437564849853516,0.1846744269132614,-0.821965873,-0.000874759,0.000581959,0.001477909,-0.251965076,-0.09893728,0.2319989949464798,-0.206267372,0.5733729004859924,2.585418701171875
0.479917318,0.5439247488975525,0.1831743717193604,-0.823004365,-0.004232178,0.00036736,0.000901461,-0.251963437,-0.098938376,0.2320994436740875,-0.206309289,0.5733734369277954,2.585447311401367
0.484919041,0.5443129539489746,0.1829286813735962,-0.821588933,-0.004201275,0.001284328,0.000867143,-0.2519629,-0.098938741,0.2321327477693558,-0.206346497,0.573380709,2.585473537445068
0.489915907,0.5446128845214844,0.1816969364881516,-0.819775045,-0.004680294,0.00096803,0.001088692,-0.251961917,-0.098876327,0.2316271811723709,-0.206387818,0.5733909606933594,2.585487365722656
0.49491328,0.5444411039352417,0.1832782626152039,-0.819328249,-0.004247839,-0.001356777,-8.98E-05,-0.251961589,-0.098855637,0.2314595431089401,-0.206429511,0.5733903646469116,2.585515022277832
0.499911427,0.5424395203590393,0.1848337203264236,-0.81990701,-0.004755707,-0.000515634,0.000966958,-0.25196135,-0.098839715,0.2313305586576462,-0.206484899,0.5733833312988281,2.585554361343384
0.504916966,0.5427758693695068,0.1838594377040863,-0.820845485,-0.004323125,-0.000280286,-0.0015342,-0.251961291,-0.098834433,0.2312877923250198,-0.206535608,0.5733850598335266,2.585577726364136
0.509917438,0.5413615107536316,0.1827424317598343,-0.82220155,-0.005694194,-0.001144712,3.598237526603043e-05,-0.251859814,-0.098985232,0.2312047630548477,-0.206579253,0.5733697414398193,2.585601568222046
0.514919162,0.5429335832595825,0.1826069056987762,-0.821652055,-0.005286057,-0.002857908,-0.001833043,-0.251801044,-0.099073559,0.2311648279428482,-0.206635132,0.5733544826507568,2.585602045059204
0.51991576,0.5436660647392273,0.1813793778419495,-0.820735693,-0.005982177,-0.002579418,-0.001755569,-0.251755863,-0.099141516,0.2311341166496277,-0.206682831,0.5733446478843689,2.585613965988159
0.524913669,0.5443820953369141,0.1844210773706436,-0.821749628,-0.006909609,-0.000836516,-0.002938411,-0.251740873,-0.099164054,0.2311239391565323,-0.206752166,0.5733366012573242,2.585619926452637
0.529912055,0.544910729,0.1836469769477844,-0.820243299,-0.008275942,-0.003313305,-0.003843173,-0.251871467,-0.099091552,0.2311745136976242,-0.206825048,0.5733178853988647,2.585619926452637
0.534911215,0.5425383448600769,0.1862012,-0.820114255,-0.007441316,-0.002234081,-0.001710765,-0.252058089,-0.098976925,0.2312501966953278,-0.206893593,0.573309064,2.585651159286499
0.539911687,0.5391196608543396,0.1862586736679077,-0.820561111,-0.007767449,-0.00150839,-0.002261468,-0.252201676,-0.098888725,0.2313084304332733,-0.206969872,0.573291004,2.585695266723633
0.544913173,0.5379539132118225,0.1867936551570892,-0.821963787,-0.008226389,-0.000232319,-0.000985035,-0.252249271,-0.098859482,0.2313277423381805,-0.207039624,0.5732755661010742,2.585744142532349
0.54990977,0.540138841,0.1881562322378159,-0.823333383,-0.007090926,-0.000467464,-0.002940678,-0.252285898,-0.098836973,0.2313425838947296,-0.207104236,0.5732665061950684,2.585791110992432
0.554907143,0.5416454076766968,0.1878039836883545,-0.823749006,-0.006037193,0.003209599,-0.000674319,-0.251900494,-0.098937474,0.2314907163381577,-0.207166731,0.5732830166816711,2.58581543
0.559905529,0.541358471,0.1880014687776566,-0.822254896,-0.00401956,0.003896574,4.071353032486513e-05,-0.251603931,-0.099014804,0.2316046953201294,-0.207212627,0.573300302,2.585855246
0.564904988,0.5431340932846069,0.1891244947910309,-0.821797788,-0.002576743,0.002606511,0.001717801,-0.251505584,-0.099040449,0.231642485,-0.207251772,0.5733088254928589,2.585909366607666
0.5699054,0.5414962768554688,0.1898928582668304,-0.821471989,-0.000607373,0.002590396,0.002672217,-0.251429945,-0.099060178,0.2316715568304062,-0.207279563,0.573320746,2.585969924926758
0.574906886,0.5406730771064758,0.193157747,-0.822210968,0.000296897,0.00263912,0.00485634,-0.251574606,-0.099115752,0.2322801351547241,-0.207309067,0.5733332633972168,2.586057424545288
0.579903722,0.5412362813949585,0.1882302910089493,-0.821523845,0.002048198,0.002658961,0.005764192,-0.251857519,-0.099208079,0.2333540022373199,-0.207311928,0.5733487010002136,2.586120605
0.584901631,0.5441192388534546,0.1858586966991425,-0.821193039,0.002955759,0.001122823,0.005560501,-0.251951337,-0.099238694,0.2337100803852081,-0.20730342,0.5733571648597717,2.586169719696045
0.589900017,0.5441431403160095,0.1831310838460922,-0.822466314,0.002533346,0.002693821,0.004476129,-0.252023518,-0.099262245,0.2339840680360794,-0.207301989,0.5733770132064819,2.586204767227173
0.594899476,0.5445070862770081,0.1836948841810226,-0.821705878,0.00081434,0.000380179,0.005006789,-0.252047449,-0.099270053,0.2340749055147171,-0.207297444,0.5733822584152222,2.586254358291626
0.599899888,0.5447355508804321,0.1839981973171234,-0.819790423,-0.000234192,0.000704863,0.004734396,-0.251994669,-0.099359423,0.2325529605150223,-0.207309395,0.573392391,2.586287260055542
0.604901373,0.5434393286705017,0.1853907555341721,-0.819948554,0.001715957,-0.001153136,0.004609351,-0.251977146,-0.099389061,0.2320483177900314,-0.207309127,0.5733909606933594,2.586348056793213
0.609897971,0.5448216199874878,0.1858620494604111,-0.820255041,-0.000459783,-0.001808452,0.00276644,-0.251963675,-0.09941186,0.2316600233316422,-0.207334101,0.573391855,2.586381435394287
0.614896119,0.5438567399978638,0.1858386695384979,-0.82176435,-0.000972785,-0.001232812,0.002912464,-0.251959205,-0.099419422,0.2315312623977661,-0.207344234,0.5733837485313416,2.586434841156006
0.619894803,0.5445380806922913,0.1825903505086899,-0.820639968,0.001583898,-0.000616226,0.00561797,-0.251906365,-0.099425748,0.231481135,-0.207332224,0.5733910202980042,2.586478710174561
0.624894202,0.5455777049064636,0.1807031184434891,-0.822538078,-0.003056933,-0.000723126,0.003368247,-0.251876593,-0.099427968,0.2314766198396683,-0.207346961,0.5733931064605713,2.586493015289307
0.629894376,0.5437659025192261,0.1812200546264648,-0.820804596,-0.000479777,-0.001226085,0.0019836,-0.251853704,-0.099429682,0.2314731627702713,-0.207359463,0.5733895897865295,2.586516618728638
0.634895861,0.5442595481872559,0.1843812763690948,-0.821137965,-0.002380606,-0.001811699,0.002150392,-0.251846105,-0.099430248,0.2314720153808594,-0.207388654,0.5733837485313416,2.586553573608398
0.639898121,0.5418728590011597,0.1840631365776062,-0.821694076,-0.004527688,0.000315745,-0.000196937,-0.251867831,-0.099459521,0.231415331,-0.207443044,0.5733820199966431,2.586574792861938
0.644895494,0.5426793694496155,0.182199702,-0.821284473,-0.006540237,-0.000221297,-0.000612073,-0.251902848,-0.099498309,0.2313402593135834,-0.207488954,0.573378325,2.586581468582153
0.64989388,0.5429402589797974,0.1833315193653107,-0.822857916,-0.007997816,0.001021468,-0.002614109,-0.25192982,-0.099528149,0.2312824875116348,-0.207554087,0.5733773708343506,2.586583137512207
0.654893339,0.5423111319541931,0.1831844300031662,-0.819695234,-0.007530347,0.000434722,-0.001377361,-0.25193876,-0.099538043,0.2312633246183395,-0.207620606,0.5733778476715088,2.586592674255371
0.659893751,0.5432944893836975,0.1844246685504913,-0.821652949,-0.007625345,0.001725355,-0.005290231,-0.251945615,-0.099545658,0.2312485724687576,-0.20770666,0.5733790993690491,2.586575746536255
0.664895475,0.5467002391815186,0.1854483336210251,-0.823955059,-0.01001483,-0.000361865,-0.006573542,-0.251652986,-0.099448629,0.2316360324621201,-0.207801118,0.5733765363693237,2.586551904678345
0.669892073,0.5407712459564209,0.1837103366851807,-0.821232915,-0.012034605,-0.000648926,-0.008576595,-0.251427859,-0.099373966,0.2319341599941254,-0.207909614,0.5733561515808105,2.586519718170166
0.674889445,0.5409552454948425,0.1827192902565002,-0.820518792,-0.011552768,0.003916903,-0.006509959,-0.251353234,-0.099349208,0.2320330291986465,-0.20800887,0.5733684301376343,2.586477518081665
0.679887891,0.5437763929367065,0.1919364184141159,-0.821686625,-0.012581285,0.002125003,-0.005064461,-0.251295775,-0.099330164,0.2321090847253799,-0.208124787,0.5733718872070313,2.586501359939575
0.684887528,0.5420976877212524,0.196555495,-0.819695473,-0.008159637,0.002964512,-0.005222657,-0.251388609,-0.099351577,0.2320234477519989,-0.20822987,0.5733745098114014,2.586544036865234
0.689888,0.5438486933708191,0.1918552666902542,-0.818388164,-0.004521657,0.002603885,-0.002013025,-0.251573145,-0.09939608,0.2318454533815384,-0.208293274,0.5733831524848938,2.586569071
0.694889724,0.5430894494056702,0.1902916878461838,-0.820881605,-0.002963688,0.002032254,-0.000461721,-0.25163433,-0.099410839,0.2317864298820496,-0.208347529,0.5733906030654907,2.586602926254272
0.699886322,0.543587327,0.1933189332485199,-0.820422769,-0.002023757,0.00144376,-8.97E-05,-0.251681417,-0.099422194,0.2317410260438919,-0.208392352,0.5733976364135742,2.586659908294678
0.704883695,0.5431759357452393,0.1926077306270599,-0.821413279,-0.001649467,-0.000374191,0.00123753,-0.251697034,-0.099425957,0.2317259609699249,-0.208431065,0.5733883380889893,2.586712837219238
0.709882379,0.5416257977485657,0.1918003559112549,-0.820717216,0.001042757,-0.000732128,0.003750546,-0.251708686,-0.099430069,0.2315817475318909,-0.208448753,0.5733932256698608,2.586788415908813
0.714881539,0.5411902666091919,0.1921219378709793,-0.821284294,0.004373605,0.000425939,0.005622828,-0.251712561,-0.099431433,0.2315339297056198,-0.208437607,0.5733905434608459,2.586883544921875
0.719882011,0.5400245189666748,0.190088078,-0.822833061,0.006213261,0.001283814,0.007357508,-0.251715541,-0.099432483,0.2314971387386322,-0.208420813,0.5734001398086548,2.586966514587402
0.724883437,0.5411809086799622,0.1891551166772842,-0.822835207,0.006432495,0.004495008,0.007178502,-0.251716524,-0.099432826,0.2314849346876144,-0.208398074,0.5734179615974426,2.587041854858398
0.729880333,0.5421851277351379,0.188315138,-0.821836352,0.006086461,0.004104445,0.007439864,-0.251670361,-0.099425383,0.2324226647615433,-0.208363831,0.5734421014785767,2.587115049362183
0.734877706,0.5427571535110474,0.1909666955471039,-0.821393907,0.008846542,0.004084746,0.008954597,-0.251643449,-0.099421009,0.2329679578542709,-0.20833534,0.5734670758247375,2.587200642
0.739876091,0.5425794124603271,0.1898714154958725,-0.821239829,0.006940614,0.003685872,0.009872598,-0.251622736,-0.099417642,0.2333875447511673,-0.208294556,0.5734977722167969,2.587291002
0.744875491,0.5426335334777832,0.1902941763401031,-0.821836352,0.008425222,0.004892215,0.009394896,-0.251615852,-0.099416524,0.2335266619920731,-0.208260342,0.5735321640968323,2.587375402450562
0.749875963,0.5439215302467346,0.1892609596252441,-0.820949078,0.010423169,0.004815575,0.012032058,-0.251749575,-0.099418648,0.2330130189657211,-0.208197922,0.5735676884651184,2.587473869
0.754877448,0.5435713529586792,0.189272016,-0.820175409,0.010536934,0.005389475,0.01317623,-0.251934111,-0.099422351,0.2322168201208115,-0.20813936,0.5736116766929626,2.587582111358643
0.759874046,0.5428670048713684,0.1890910863876343,-0.821145952,0.01139555,0.006642359,0.01349895,-0.252076089,-0.099425197,0.2316041886806488,-0.208071947,0.5736604332923889,2.587697744369507
0.764871418,0.5420287251472473,0.1889710128307343,-0.821615338,0.014090465,0.006485275,0.014250685,-0.252123177,-0.099426143,0.2314010560512543,-0.207992375,0.573698103,2.587818145751953
0.769869804,0.5418079495429993,0.1880510896444321,-0.820628285,0.013726228,0.008568923,0.016558142,-0.252159387,-0.099426873,0.231244758,-0.207902625,0.5737558603286743,2.587940454483032
0.774875402,0.5420572757720947,0.1863149553537369,-0.819716275,0.013787407,0.005345034,0.016023992,-0.251878142,-0.099370629,0.232434094,-0.2078152,0.5737974643707275,2.588045358657837
0.779876351,0.5427805185317993,0.1831291019916534,-0.822021842,0.012337521,0.005894171,0.016451696,-0.251661748,-0.099327356,0.2333492189645767,-0.207728833,0.5738426446914673,2.588135480880737
0.784878075,0.5424759984016418,0.1850228607654572,-0.82002598,0.012295555,0.005866727,0.014456419,-0.251589984,-0.099313013,0.233652651,-0.207645521,0.5738821029663086,2.588222742080688
0.789874971,0.5422682762145996,0.1855756342411041,-0.821166396,0.012936759,0.005348003,0.014245191,-0.25153476,-0.099301971,0.2338861227035522,-0.20756954,0.573925257,2.588316679000854
0.794872344,0.5416468977928162,0.188615158,-0.819646537,0.012499901,0.007430669,0.014569083,-0.251712501,-0.099242724,0.2333149611949921,-0.207490891,0.5739704370498657,2.588431596755981
0.799870729,0.5420851111412048,0.1885043531656265,-0.818686485,0.013916275,0.005295421,0.01380164,-0.252047539,-0.099140927,0.2322196662425995,-0.207417086,0.5740096569061279,2.588544368743896
0.804870129,0.5423867702484131,0.185716838,-0.818057001,0.014830215,0.005778065,0.014030019,-0.252158642,-0.099107169,0.231856495,-0.207324177,0.5740469694137573,2.588652610778809
0.809870362,0.5426983237266541,0.1846489608287811,-0.819495738,0.014243208,0.004053087,0.015060278,-0.252244115,-0.099081196,0.2315770536661148,-0.207225397,0.5740852355957031,2.588763236999512
0.814871788,0.543900728,0.1819998621940613,-0.820077538,0.015425417,0.004510159,0.013706441,-0.252272457,-0.09907259,0.2314843982458115,-0.207127988,0.5741227865219116,2.588842391967773
0.819868445,0.5444015264511108,0.1805898100137711,-0.818655074,0.01276602,0.004184246,0.012265344,-0.25248754,-0.099334143,0.2312209755182266,-0.207041457,0.5741660594940186,2.588908672332764
0.824865818,0.5443065762519836,0.1802870184183121,-0.820017338,0.010350708,0.002899763,0.010998314,-0.252558857,-0.099420868,0.2311336249113083,-0.206971407,0.5741842985153198,2.588967800140381
0.829863966,0.5455716252326965,0.1783817708492279,-0.821039557,0.00989178,0.003523859,0.008005433,-0.252613723,-0.099487588,0.231066421,-0.206909478,0.5742100477218628,2.589003086090088
0.834863365,0.5463986396789551,0.1785073280334473,-0.820756912,0.00816682,0.003626919,0.010326123,-0.252631932,-0.099509716,0.2310441434383392,-0.206855699,0.5742449760437012,2.589049100875854
0.839863837,0.5433910489082336,0.1823479384183884,-0.821502149,0.005630041,0.00390191,0.008349438,-0.252503425,-0.099266797,0.2319693863391876,-0.206830233,0.5742623209953308,2.589105367660522
0.844865263,0.5439730882644653,0.1810470223426819,-0.82299614,0.002784206,0.003410419,0.005119784,-0.252425522,-0.099121928,0.2325093746185303,-0.206821203,0.5742884874343872,2.589140176773071
0.84986186,0.544617772,0.1806076616048813,-0.822315693,0.002773996,0.005375438,0.00586921,-0.252365589,-0.09901046,0.2329248636960983,-0.206809297,0.5743221640586853,2.589169741
0.854859293,0.5450109243392944,0.1844807714223862,-0.819755852,0.003349543,0.004099106,0.006111933,-0.252345711,-0.098973498,0.2330626249313354,-0.206801608,0.5743483304977417,2.589225053787231
0.859857678,0.5455575585365295,0.1879043877124786,-0.819722474,0.001677073,0.003783783,0.005661067,-0.252329171,-0.098949209,0.2327152639627457,-0.206804961,0.5743709802627563,2.589287757873535
0.864857316,0.5470747351646423,0.187381774,-0.818874002,0.004827753,0.001912805,0.006247678,-0.252322406,-0.098945327,0.2321428954601288,-0.206793085,0.5743975043296814,2.589349746704102
0.869858027,0.5474617481231689,0.1831181794404984,-0.817537665,0.00480196,0.000210252,0.004203091,-0.25231719,-0.098942347,0.2317025065422058,-0.206773296,0.5744106769561768,2.589385271072388
0.87485975,0.545190692,0.1834977120161057,-0.817086577,0.004205114,-0.000871912,0.006029089,-0.252315462,-0.098941356,0.2315564751625061,-0.206758261,0.5744087696075439,2.589437007904053
0.879856646,0.5449564456939697,0.1841920465230942,-0.816398501,0.005049274,-0.004504881,0.005322506,-0.25231415,-0.098940596,0.2314441204071045,-0.206741586,0.5743934512138367,2.589486837387085
0.884854019,0.5449095368385315,0.1842838376760483,-0.817625403,0.004301916,-0.006610104,0.005519486,-0.252310038,-0.099097855,0.2308596819639206,-0.206717685,0.5743733644485474,2.589551926
0.889852405,0.5449702143669128,0.1836900264024734,-0.818569124,0.004126084,-0.008940913,0.00736271,-0.252306908,-0.09921886,0.2304099798202515,-0.206686392,0.5743412971496582,2.589628458023071
0.894852102,0.5451732873916626,0.1817568689584732,-0.818449378,0.0036377,-0.007280763,0.005921225,-0.252305865,-0.099258982,0.2302608788013458,-0.206669599,0.5743126273155212,2.589670181274414
0.899852514,0.5474279522895813,0.1813087314367294,-0.820081353,0.001572669,-0.009235639,0.005368908,-0.252305031,-0.099289849,0.2301461547613144,-0.206652701,0.5742723941802979,2.589710474014282
0.904854,0.5467562675476074,0.1824410557746887,-0.819787323,0.000911525,-0.011524998,0.002560896,-0.252334267,-0.099267565,0.2304483652114868,-0.2066513,0.5742241144180298,2.589745759963989
0.909856498,0.5438541769981384,0.1797494292259216,-0.819603622,-0.001250948,-0.013124962,0.002276272,-0.25238657,-0.099217534,0.2310249358415604,-0.20665738,0.5741597414016724,2.589775085449219
0.914853871,0.5462684035301208,0.1764616072177887,-0.818991005,-0.001744988,-0.013247963,-7.65E-06,-0.252403915,-0.099200949,0.2312161177396774,-0.206665695,0.5741095542907715,2.589767456054688
0.919852555,0.5467191934585571,0.1759529560804367,-0.817186832,-0.00547974,-0.015001291,-0.00115545,-0.252417266,-0.099188186,0.2313632220029831,-0.206693143,0.5740382671356201,2.589760541915894
0.924851954,0.5468899607658386,0.1777209341526031,-0.819301844,-0.006060813,-0.016468428,-0.004059465,-0.252421677,-0.099183947,0.2314119935035706,-0.206741855,0.573949397,2.589752197265625
0.929852426,0.545012891,0.1768645495176315,-0.820167184,-0.011820869,-0.018308977,-0.006178703,-0.252298027,-0.098974548,0.2321078032255173,-0.206822306,0.5738546252250671,2.589719533920288
0.934853911,0.5429943799972534,0.1774522066116333,-0.820380747,-0.012087262,-0.016739115,-0.00708794,-0.252257049,-0.098905116,0.2323385179042816,-0.206905514,0.5737654566764832,2.589697360992432
0.939850748,0.5434326529502869,0.1829292774200439,-0.81886071,-0.016824966,-0.017679069,-0.010722875,-0.252225518,-0.098851696,0.2325160354375839,-0.20704028,0.573663592,2.589674234390259
0.94484812,0.5422862768173218,0.1840332895517349,-0.817936361,-0.017429404,-0.016359381,-0.014306094,-0.252215058,-0.098833986,0.2325748950242996,-0.207179546,0.5735737085342407,2.589645624160767
0.949846506,0.543589711,0.1790153533220291,-0.822781146,-0.01967282,-0.016700443,-0.014843308,-0.252155542,-0.099021442,0.2329707741737366,-0.207326889,0.5734784603118896,2.589569330215454
0.954845965,0.5419619679450989,0.175800547,-0.823192418,-0.025866136,-0.015029536,-0.017047159,-0.252123058,-0.099133365,0.2331887930631638,-0.207509801,0.5733814239501953,2.589464664459229
0.959846675,0.5410935878753662,0.1803307980298996,-0.822446942,-0.025356585,-0.013117944,-0.018621959,-0.252098083,-0.099219479,0.2333565503358841,-0.207704738,0.5732938051223755,2.589384556
0.964848101,0.5433601140975952,0.187524825,-0.821686089,-0.028808072,-0.012581171,-0.018530013,-0.252089798,-0.099248029,0.2334121763706207,-0.207934156,0.5732154846191406,2.589322328567505
0.969844997,0.5409560799598694,0.1909277439117432,-0.822323143,-0.027528616,-0.009584526,-0.019609889,-0.251857579,-0.099303998,0.2333659529685974,-0.208161086,0.5731474757194519,2.589274644851685
0.97484237,0.5415475964546204,0.1918317228555679,-0.822470725,-0.027311893,-0.007684256,-0.017176103,-0.25155288,-0.099356845,0.2332608550786972,-0.2083828,0.5730883479118347,2.589226007461548
0.979840517,0.5397712588310242,0.1924742609262466,-0.823186576,-0.024867531,-0.006648391,-0.015592022,-0.251318395,-0.099397503,0.2331800013780594,-0.208583891,0.5730323791503906,2.58920145
0.984839916,0.5404645800590515,0.1959870755672455,-0.822855175,-0.024131969,-0.005314923,-0.014452727,-0.251240671,-0.099410981,0.2331531941890717,-0.208788335,0.5729830265045166,2.589193820953369
0.989840388,0.5411851406097412,0.1995382905006409,-0.821236312,-0.020720538,-0.00474871,-0.011777436,-0.251180828,-0.099421352,0.2331325560808182,-0.208976805,0.5729455947875977,2.589209794998169
0.994842112,0.5434330701828003,0.1961037814617157,-0.819586992,-0.016733382,-0.004117209,-0.008344778,-0.251409411,-0.099369623,0.2330800145864487,-0.209115997,0.572920024,2.589223623275757
0.999838948,0.5434943437576294,0.1984000653028488,-0.820513427,-0.013721212,-0.007363773,-0.00465954,-0.251585275,-0.099329822,0.233039603,-0.209240973,0.572878361,2.589281558990479
1.004836321,0.5433753132820129,0.1949456781148911,-0.818555951,-0.009357279,-0.007970599,-0.001284383,-0.251643598,-0.099316627,0.2330261915922165,-0.209316418,0.572834313,2.589330434799194
1.009834766,0.5428337454795837,0.1932366490364075,-0.818080366,-0.006206143,-0.008303321,-0.000372298,-0.25168848,-0.099306472,0.2330158799886703,-0.209382921,0.5727989673614502,2.589386701583862
1.014834166,0.5430132746696472,0.1921336799860001,-0.817092001,-0.004827169,-0.009315087,-0.000661681,-0.251673371,-0.099419884,0.2329282015562057,-0.209435776,0.5727536678314209,2.589429855
1.019834399,0.5436168909072876,0.1897343099117279,-0.818706512,-0.003842335,-0.010990427,0.001211414,-0.251631439,-0.099625245,0.2327755242586136,-0.209472388,0.5727018713951111,2.589479207992554
1.024836302,0.5436846613883972,0.189858153,-0.820299447,-0.001648052,-0.011569972,0.001849715,-0.251617521,-0.099693336,0.2327249050140381,-0.209499627,0.5726500153541565,2.589531421661377
1.029833198,0.543248177,0.1897594332695007,-0.819875896,-0.001719362,-0.012631773,0.00262026,-0.251606822,-0.099745728,0.2326859533786774,-0.209518477,0.5725942254066467,2.589592456817627
1.034830809,0.5433129072189331,0.1880155503749847,-0.820443034,-0.00079905,-0.012946053,0.002335594,-0.251603276,-0.099763103,0.2326730340719223,-0.209533453,0.5725342631340027,2.589638233184814
1.039829254,0.5420536994934082,0.1862844377756119,-0.822154105,-0.001224676,-0.011909607,0.003429553,-0.251724601,-0.100121342,0.2316084802150726,-0.209536433,0.5724777579307556,2.589680910110474
1.044834852,0.5394355654716492,0.1879623830318451,-0.823042631,-0.001066193,-0.011675733,0.002563645,-0.251764804,-0.100240126,0.2312555015087128,-0.209559038,0.5724152326583862,2.589736223220825
1.049835205,0.5409381985664368,0.189769447,-0.823016465,-0.002022983,-0.01088942,0.003576797,-0.251795769,-0.100331523,0.2309838980436325,-0.209573701,0.5723658204078674,2.589809179
1.054837227,0.5417143106460571,0.1897023469209671,-0.823807836,-0.00139743,-0.01058075,0.003868499,-0.251806051,-0.100361831,0.2308938354253769,-0.209587306,0.5723153948783875,2.589879512786865
1.059834123,0.5410552024841309,0.1901751458644867,-0.822850168,-0.001359087,-0.007437723,0.006289594,-0.251568317,-0.100285538,0.2311180233955383,-0.209592,0.5722852945327759,2.589959383010864
1.064831495,0.5412124991416931,0.1917905807495117,-0.822625935,0.003334102,-0.006326506,0.008168054,-0.251428723,-0.100235596,0.2312649935483932,-0.209572628,0.5722553730010986,2.590055704116821
1.069829941,0.5408762693405151,0.1922162622213364,-0.82409054,0.002261748,-0.006325481,0.008017574,-0.251321316,-0.100197174,0.2313780784606934,-0.209571481,0.5722240209579468,2.590149641036987
1.074829102,0.5431616306304932,0.1891416162252426,-0.820374668,0.003075692,-0.0057361,0.009309855,-0.251285702,-0.100184433,0.2314155697822571,-0.209546432,0.5722100138664246,2.590224027633667
1.079829454,0.5430397987365723,0.1880619674921036,-0.820082724,0.002525404,-0.003794751,0.007013902,-0.251201123,-0.100233704,0.231415644,-0.209536046,0.5722012519836426,2.590284348
1.084831476,0.5419999957084656,0.1880820691585541,-0.822783828,0.003571224,-0.003250594,0.008391704,-0.251115412,-0.100309618,0.2313866466283798,-0.20951651,0.572189987,2.590355396270752
1.089828849,0.5394250750541687,0.1850992441177368,-0.823179841,0.002125657,-0.002790922,0.006540694,-0.251049429,-0.10036803,0.2313643395900726,-0.209501266,0.5721831321716309,2.590400695800781
1.09482646,0.5404569506645203,0.1853175014257431,-0.822009623,0.001926707,-0.000253453,0.00713261,-0.251027554,-0.100387394,0.2313569486141205,-0.209488511,0.5721877217292786,2.590445995330811
1.099825144,0.5404940247535706,0.1862891465425491,-0.820519388,0.001292829,0.000201222,0.007746261,-0.251010716,-0.100402296,0.2313512563705444,-0.20947744,0.5721985697746277,2.590501308441162
1.104824543,0.5410976409912109,0.186173677,-0.819856584,0.001369253,0.000371411,0.007453516,-0.251256377,-0.100294396,0.2320515811443329,-0.209477246,0.5722036361694336,2.590553998947144
1.109825015,0.5412328243255615,0.1884146183729172,-0.818565547,0.001009493,9.683324606157839e-05,0.007731822,-0.251445383,-0.100211374,0.2325904220342636,-0.209476486,0.5722150802612305,2.590621948242188
1.114826798,0.5399027466773987,0.18401961,-0.816809535,0.000637585,-0.002956563,0.00832466,-0.251508057,-0.100183845,0.2327690869569778,-0.209461316,0.5722091794013977,2.590672969818115
1.119823575,0.5405826568603516,0.1861359626054764,-0.818385899,0.002382847,-0.002434518,0.00782925,-0.251556277,-0.100162663,0.2329065650701523,-0.209448025,0.5721955299377441,2.590731143951416
1.124820948,0.5424134135246277,0.1920722126960754,-0.817384481,0.003487182,-0.006130378,0.010866055,-0.251486868,-0.100160383,0.2326104938983917,-0.209430292,0.5721813440322876,2.590831041
1.129819393,0.5412386059761047,0.1986985951662064,-0.816361308,0.006992968,-0.007391427,0.010707098,-0.251347125,-0.100163423,0.232037216,-0.209410772,0.5721614956855774,2.590966939926147
1.134818792,0.5424220561981201,0.2017998695373535,-0.817107499,0.009973355,-0.01103932,0.013386124,-0.251300782,-0.100164428,0.2318471372127533,-0.209364638,0.5721240639686584,2.591132164001465
1.139819264,0.5425697565078735,0.1946956664323807,-0.817141175,0.014118622,-0.010965503,0.01500004,-0.251265138,-0.100165203,0.2317008823156357,-0.20926854,0.5720884799957275,2.591270685195923
1.14482069,0.5423982739448547,0.1904028654098511,-0.816300631,0.015701871,-0.012798389,0.016421633,-0.251253307,-0.100165464,0.2316523939371109,-0.209156647,0.5720510482788086,2.591393232345581
1.149817109,0.545998752,0.1901549994945526,-0.819195986,0.01757464,-0.012640292,0.017063588,-0.251309335,-0.100166813,0.2313511222600937,-0.20903343,0.5720112323760986,2.591522216796875
1.154814482,0.5461999177932739,0.1898892670869827,-0.817763627,0.019982731,-0.016747342,0.017008614,-0.251327902,-0.10016726,0.2312512248754501,-0.208901137,0.571952224,2.591660499572754
1.159812808,0.5454126596450806,0.1868705600500107,-0.81894362,0.017810725,-0.01626211,0.017599756,-0.251342207,-0.100167602,0.2311743646860123,-0.208772838,0.5718909502029419,2.591777563095093
1.164812326,0.5459837317466736,0.1815434694290161,-0.819461226,0.017342085,-0.017964499,0.017835431,-0.251346946,-0.100167714,0.2311488837003708,-0.208629549,0.5718280673027039,2.591883182525635
1.169812441,0.5452704429626465,0.1800733655691147,-0.82035619,0.014853411,-0.019576071,0.0152879,-0.251057684,-0.099916212,0.2314700186252594,-0.208505973,0.5717518925666809,2.591969252
1.174813986,0.5451719760894775,0.1810507625341415,-0.82080555,0.013096175,-0.018354971,0.015022967,-0.250889301,-0.099770553,0.2316608279943466,-0.208396375,0.5716820955276489,2.592068910598755
1.179816484,0.5474356412887573,0.1817426234483719,-0.82032156,0.010932719,-0.0177559,0.011168435,-0.250759721,-0.099658489,0.2318076491355896,-0.208311051,0.5716174840927124,2.592125654220581
1.184814334,0.5439837574958801,0.1833151578903198,-0.820919394,0.007878497,-0.018956911,0.012496963,-0.250716746,-0.099621333,0.2318563312292099,-0.208244339,0.5715404748916626,2.592214345932007
1.189812779,0.5410975813865662,0.1870744675397873,-0.82118535,0.006621085,-0.019725215,0.012611032,-0.25085181,-0.099647202,0.2318976819515228,-0.208186582,0.5714594125747681,2.592330217
1.194812417,0.5415037274360657,0.18978259,-0.820136964,0.007880025,-0.018654641,0.011111649,-0.251066089,-0.099710703,0.2319153100252151,-0.208132431,0.5713775157928467,2.592444181442261
1.199812889,0.5428754687309265,0.1889577955007553,-0.818266094,0.00850871,-0.019495539,0.012265953,-0.251230985,-0.099759564,0.2319288700819016,-0.208064064,0.5712993741035461,2.592564105987549
1.204814553,0.5457960367202759,0.1877064406871796,-0.81740737,0.009567847,-0.022205742,0.012895555,-0.251285672,-0.099775761,0.2319333553314209,-0.20798777,0.5712147951126099,2.592672348022461
1.209811211,0.5426056981086731,0.1875444948673248,-0.81795764,0.010501856,-0.022941865,0.013364299,-0.251327723,-0.099788226,0.2319368124008179,-0.207899287,0.5711284875869751,2.592796802520752
1.214808822,0.5422354340553284,0.185510054,-0.818925798,0.009490938,-0.022677086,0.011444953,-0.25139448,-0.099683806,0.232586458,-0.207825363,0.5710261464118958,2.592900753
1.219807267,0.5397214889526367,0.1859778165817261,-0.817851901,0.009596315,-0.025048498,0.013187553,-0.2514458,-0.099603467,0.2330863177776337,-0.207746342,0.5709143877029419,2.593024015426636
1.224806666,0.5414156317710876,0.1857136785984039,-0.821985483,0.009710304,-0.025001369,0.013172097,-0.251462847,-0.099576823,0.2332520484924316,-0.207657203,0.5708050727844238,2.593148946762085
1.229807138,0.5419269204139709,0.1891154646873474,-0.821129203,0.01086326,-0.024637815,0.01409683,-0.25147596,-0.099556319,0.2333795875310898,-0.207574263,0.5706931948661804,2.593292951583862
1.234808803,0.5406262278556824,0.1902580559253693,-0.820748031,0.01103684,-0.025708085,0.015774762,-0.25153631,-0.099494331,0.2330256104469299,-0.207489133,0.5705851912498474,2.593458890914917
1.23980546,0.5395731329917908,0.1914728283882141,-0.823199809,0.010361009,-0.024035323,0.015532735,-0.251639366,-0.099390827,0.2323525696992874,-0.207401931,0.5704775452613831,2.593638181686401
1.244803071,0.5370639562606812,0.1910773664712906,-0.824407458,0.013778676,-0.022476876,0.016887967,-0.25167352,-0.09935651,0.2321293950080872,-0.207296267,0.570381224,2.593820333480835
1.249801517,0.5366509556770325,0.1885181218385696,-0.825461864,0.013446765,-0.017792905,0.017161183,-0.251699805,-0.099330105,0.2319577038288116,-0.207192749,0.57030189,2.593983888626099
1.254800916,0.5335673689842224,0.1898456364870071,-0.82670933,0.01397525,-0.014905764,0.01645134,-0.251708508,-0.09932135,0.231900766,-0.207098365,0.5702301263809204,2.594161033630371
1.259801388,0.5341007113456726,0.1906386762857437,-0.828040242,0.015438921,-0.009290363,0.019245656,-0.251451224,-0.099321529,0.2316529750823975,-0.206989557,0.5701907873153687,2.594340801239014
1.264802814,0.5345839262008667,0.1931534558534622,-0.826035678,0.015756741,-0.005160959,0.01942322,-0.2513659,-0.099321589,0.2315708100795746,-0.206888705,0.570180357,2.594524383544922
1.269799471,0.5304343104362488,0.1914632618427277,-0.826705813,0.016010942,-0.000110419,0.021097315,-0.251300275,-0.099321634,0.2315075844526291,-0.20677793,0.5701828598976135,2.594715118408203
1.274796844,0.5320740342140198,0.1872424334287643,-0.828964651,0.017436197,0.005165602,0.02252903,-0.25127849,-0.099321648,0.2314866185188293,-0.206644312,0.5702167749404907,2.594891309738159
1.279795408,0.5354637503623962,0.1845833957195282,-0.827113986,0.017957073,0.007591612,0.024021639,-0.251312166,-0.099317968,0.2317708432674408,-0.206499293,0.5702725052833557,2.595047712
1.284794927,0.5331760048866272,0.1854415982961655,-0.825130701,0.017588688,0.009845381,0.025970215,-0.2513358,-0.09931583,0.2319394052028656,-0.206361637,0.5703361034393311,2.595221042633057
1.28979528,0.5351234078407288,0.1870783716440201,-0.82574898,0.018331675,0.013459231,0.02584924,-0.251353979,-0.099314183,0.2320690900087357,-0.206228122,0.5704196095466614,2.595385551452637
1.294796824,0.5374119281768799,0.1930671483278275,-0.825167239,0.020822668,0.013632402,0.026489027,-0.251359999,-0.099313632,0.2321120947599411,-0.20609349,0.5705099105834961,2.595585346221924
1.29979372,0.5341914296150208,0.1969216465950012,-0.824219406,0.02488195,0.01589565,0.030127455,-0.251532733,-0.099367678,0.232149065,-0.205930471,0.5706055164337158,2.595831632614136
1.304791093,0.533532977,0.2004630714654922,-0.824479938,0.028489474,0.019708777,0.034360658,-0.251759499,-0.099440522,0.2321652472019196,-0.205745533,0.5707207918167114,2.596103668212891
1.309790492,0.5364906191825867,0.2009170800447464,-0.826301038,0.032863844,0.024324097,0.037870586,-0.251933992,-0.099496566,0.2321777045726776,-0.205529392,0.5708691477775574,2.596388816833496
1.314795732,0.5344921946525574,0.2036150544881821,-0.825049102,0.039972544,0.027643019,0.042191062,-0.251991868,-0.099515148,0.2321818321943283,-0.205264851,0.5710372924804688,2.596710920333862
1.319796443,0.5342780351638794,0.2013687789440155,-0.826423347,0.04559698,0.032616559,0.045970995,-0.252036393,-0.099529445,0.2321850061416626,-0.204962343,0.5712319612503052,2.597039222717285
1.324797988,0.5333897471427917,0.1981456279754639,-0.829425514,0.050618973,0.039703339,0.049038753,-0.251457572,-0.099395938,0.231873557,-0.204630092,0.5714640021324158,2.597357273101807
1.329794288,0.5312816500663757,0.1942540854215622,-0.832522154,0.054534376,0.046267714,0.054487292,-0.251012206,-0.09929321,0.2316339015960693,-0.204247028,0.5717194080352783,2.597702264785767
1.33479166,0.5350645184516907,0.190882221,-0.831225514,0.055255514,0.054194693,0.057015412,-0.250864536,-0.099259153,0.2315544486045837,-0.20385541,0.5720341205596924,2.598017692565918
1.339790106,0.5358746647834778,0.1893018484115601,-0.8318519,0.057654545,0.062794536,0.05670229,-0.250750929,-0.099232949,0.2314933091402054,-0.203466564,0.5723891258239746,2.598309755325317
1.344789505,0.5374497771263123,0.1890616416931152,-0.83304882,0.056821056,0.069953196,0.05667929,-0.250998318,-0.098986849,0.2315892279148102,-0.203079611,0.5727742910385132,2.598614454269409
1.349789977,0.5381988286972046,0.1862193048000336,-0.836621046,0.059391942,0.07966315,0.054637205,-0.251476914,-0.098557435,0.2317805290222168,-0.202684432,0.5732073783874512,2.598879814147949
1.354791641,0.5383812189102173,0.1822814643383026,-0.841118515,0.061461527,0.089263596,0.056852143,-0.251635611,-0.098415054,0.231843963,-0.202273548,0.5736751556396484,2.599135637283325
1.359788299,0.5398890972137451,0.1823931485414505,-0.845368743,0.062742263,0.101308636,0.054527357,-0.251757711,-0.098305494,0.2318927645683289,-0.201873899,0.5742083191871643,2.599364280700684
1.364785671,0.5446487069129944,0.1783048212528229,-0.841796517,0.061364412,0.1105533912777901,0.051338781,-0.251798183,-0.098269165,0.2319089472293854,-0.20149298,0.5747939944267273,2.599517345428467
1.369784594,0.5520347356796265,0.1732190698385239,-0.844967544,0.061046481,0.1205898895859718,0.046288233,-0.251826137,-0.098445058,0.2317910343408585,-0.201118857,0.5754294395446777,2.599601030349731
1.374783993,0.5569657683372498,0.1654565930366516,-0.846565306,0.054530412,0.1306428462266922,0.042094596,-0.251835376,-0.098503388,0.2317519336938858,-0.200784341,0.5761103630065918,2.599596977233887
1.379784465,0.5561551451683044,0.1524414867162704,-0.851166487,0.045432717,0.1423271000385284,0.035853285,-0.251842499,-0.098548263,0.2317218482494354,-0.200486213,0.5768387317657471,2.599500894546509
1.384786129,0.5411763787269592,0.1424896270036697,-0.862923026,0.01478485,0.1689419150352478,0.038924988,-0.251844853,-0.098563142,0.2317118793725967,-0.200333476,0.5776669383049011,2.599393606185913
1.389782786,0.5166268348693848,0.1641958504915237,-0.870526731,-0.025313174,0.2182900607585907,0.059865355,-0.252396554,-0.098161042,0.2313110083341599,-0.200411841,0.5787116289138794,2.599560260772705
1.394780397,0.452919602,0.1985234022140503,-0.877061427,-0.104929939,0.3295158743858337,0.1360713094472885,-0.252715558,-0.09792538,0.2310807853937149,-0.200798035,0.5802682638168335,2.600390434265137
1.39977932,0.3879401087760925,0.2235068827867508,-0.870606184,-0.199721545,0.5235989093780518,0.2768126130104065,-0.25296101,-0.097744055,0.2309036403894424,-0.201390073,0.5828990936279297,2.602111816
1.404778957,0.4016273617744446,0.2498459368944168,-0.867697597,-0.269597441,0.7383198142051697,0.4132172465324402,-0.2530424,-0.097683929,0.2308449000120163,-0.202057719,0.5868381857872009,2.604460954666138
1.409779429,0.4724836945533752,0.2613992393016815,-0.878735423,-0.323752761,0.9315167665481567,0.4800365269184113,-0.2534163,-0.097488642,0.2306623756885529,-0.202868089,0.5918741822242737,2.606814384460449
1.414781213,0.5691726803779602,0.2072535008192062,-0.930026054,-0.410244912,1.041925907,0.4745847880840302,-0.253854185,-0.097273618,0.230463371,-0.204112798,0.5975380539894104,2.608436584472656
1.419777751,0.6314923167228699,0.1594632267951965,-0.937816918,-0.489169925,1.065129280090332,0.426526278,-0.254191101,-0.09710817,0.230310246,-0.205834597,0.603230894,2.609366416931152
1.424775124,0.6505720019340515,0.1519310027360916,-0.969101667,-0.594176054,1.072901964187622,0.3806194067001343,-0.25430283,-0.097053304,0.2302594780921936,-0.208270863,0.6088535189628601,2.609972476959229
1.429773808,0.6432302594184875,0.2569646239280701,-1.017572165,-0.595739603,1.057287216186523,0.3064829409122467,-0.254388809,-0.097011097,0.2302204072475433,-0.211179838,0.6142046451568604,2.61085844
1.434773207,0.6136667728424072,0.1243252232670784,-1.107204318,-0.727590382,1.084208726882935,0.2502996921539307,-0.256890863,-0.09662617,0.2266584783792496,-0.21449995,0.6194888949394226,2.610634565353394
1.439773679,0.5233853459358215,0.3085628151893616,-1.126366377,-0.723486841,1.093388199806213,0.2255205512046814,-0.258816034,-0.096329994,0.2239178270101547,-0.218521237,0.6246107220649719,2.611597776412964
1.444775224,0.4816995859146118,0.3605131804943085,-1.131171227,-0.660151362,1.113059043884277,0.2562608420848846,-0.259454399,-0.096231788,0.2230090796947479,-0.222012043,0.6297916769981384,2.612919330596924
1.449777722,0.4469551146030426,0.4620288610458374,-1.136639714,-0.539184391,1.154209256,0.325987846,-0.259945542,-0.096156225,0.2223098576068878,-0.224886298,0.6351991295814514,2.615102052688599
1.454775333,0.4632079005241394,0.4941298067569733,-1.112929463,-0.375932962,1.235010027885437,0.4045213758945465,-0.261282712,-0.096299879,0.2200907915830612,-0.226685911,0.6411314010620117,2.617719173431396
1.459773898,0.4555685818195343,0.4682421982288361,-1.131157875,-0.308679223,1.366521478,0.475257933,-0.263499022,-0.096581005,0.2163739800453186,-0.227909207,0.6478210687637329,2.620392799377441
1.464773417,0.5511807799339294,0.427582711,-1.154155254,-0.323703289,1.484282374382019,0.5486151576042175,-0.264233887,-0.096674226,0.21514155,-0.229005978,0.6552914977073669,2.622925996780396
1.469773769,0.9984994530677795,0.1857243329286575,-1.116240263,-0.484408021,1.623504757881165,0.8103693723678589,-0.264799327,-0.096745946,0.2141932845115662,-0.229603559,0.6644870638847351,2.624455690383911
1.474775314,0.7736875414848328,0.3178935647010803,-1.073438644,-0.624536037,1.728861927986145,1.025120973587036,-0.264986843,-0.096769728,0.2138788551092148,-0.230422467,0.6740414500236511,2.629224777
1.47977221,0.8997390866279602,0.5708917379379272,-1.10618341,-0.489169091,1.693779706954956,1.130056142807007,-0.268880606,-0.096281357,0.2094602882862091,-0.230801105,0.6836031079292297,2.635199069976807
1.484769821,0.8895398378372192,0.5951586961746216,-1.133014083,-0.264429361,1.625942468643188,1.129459857940674,-0.270171702,-0.096119426,0.2079951763153076,-0.229605988,0.6925554275512695,2.641485452651978
1.489768505,0.8813613057136536,0.5218931436538696,-1.176681161,-0.204629734,1.601256728172302,1.108554124832153,-0.271165103,-0.09599483,0.2068678736686707,-0.22792083,0.7013615965843201,2.647028684616089
1.494767904,0.8930923938751221,0.6839377284049988,-1.237271547,-0.123366296,1.547364592552185,1.112964987754822,-0.271494508,-0.095953517,0.206494078,-0.226393938,0.7098044753074646,2.653664350509644
1.499768615,0.866643488,0.8491203784942627,-1.364884257,0.1410252898931503,1.373427748680115,1.069242000579834,-0.275480688,-0.09386126,0.2013653963804245,-0.223553896,0.7170878052711487,2.661409854888916
1.504770279,0.698709249,0.8373178839683533,-1.436190248,0.4090135395526886,1.135184526443481,0.9593576192855835,-0.277726114,-0.092657641,0.198466882,-0.219422296,0.7225887179374695,2.669004440307617
1.509767175,0.466712624,0.6959667801856995,-1.425711989,0.6179543137550354,0.9519669413566589,0.8770632743835449,-0.279453814,-0.091731533,0.1962366849184036,-0.21403192,0.7268190383911133,2.676113843917847
1.514764547,0.2509132027626038,0.5469470024108887,-1.387831569,0.7185425758361816,0.8396772742271423,0.8301466703414917,-0.280026704,-0.091424458,0.1954971849918365,-0.207931325,0.7303340435028076,2.682885408401489
1.519762993,0.058713663,0.4240952730178833,-1.354556918,0.700226903,0.7585983872413635,0.7944857478141785,-0.282066226,-0.089156754,0.1927825957536697,-0.201827794,0.7332796454429626,2.689524173736572
1.52476263,-0.064605147,0.3625181615352631,-1.334635019,0.6110911965370178,0.693402886,0.7718343138694763,-0.284354627,-0.086356349,0.1897188723087311,-0.196183711,0.735767126,2.696195125579834
1.529763103,-0.145514488,0.3481382727622986,-1.319930911,0.5065346956253052,0.6370159983634949,0.7642907500267029,-0.286115408,-0.084201626,0.1873615384101868,-0.191064194,0.7378954887390137,2.702991247177124
1.534764767,-0.205663592,0.3706576228141785,-1.310298562,0.4293369352817535,0.5692591071128845,0.7580759525299072,-0.286699265,-0.083487161,0.1865798979997635,-0.186354458,0.7396149039268494,2.710044384002686
1.539761424,-0.239047289,0.3943246304988861,-1.313252568,0.3855622708797455,0.4756004810333252,0.7353771328926086,-0.287148505,-0.082937427,0.1859784722328186,-0.181907102,0.7407915592193604,2.717201948165894
1.544759035,-0.240004599,0.4029397964477539,-1.320025206,0.3663136065006256,0.3595562875270844,0.6988853216171265,-0.288827568,-0.079384752,0.1843234598636627,-0.177613065,0.7413151860237122,2.724344730377197
1.549757957,-0.252437055,0.4025669991970062,-1.324722052,0.3610838055610657,0.2237283289432526,0.6485097408294678,-0.290119499,-0.076651208,0.1830500364303589,-0.173450306,0.7410798072814941,2.731274366378784
1.554757357,-0.285454065,0.3972398936748505,-1.314822912,0.3622084259986877,0.079293489,0.596615195,-0.290547878,-0.075744823,0.1826277822256088,-0.169406682,0.7400259375572205,2.737983942
1.559757829,-0.32483694,0.387467086,-1.297656894,0.3619179129600525,-0.061973415,0.5473533272743225,-0.290877491,-0.075047418,0.1823029071092606,-0.165460467,0.7381938695907593,2.744488239
1.564759493,-0.365513921,0.3644197881221771,-1.274948239,0.3525362312793732,-0.193657339,0.5100318789482117,-0.291458726,-0.073111892,0.1813632398843765,-0.16161415,0.735664964,2.750884056091309
1.56975615,-0.403776854,0.3316736817359924,-1.251101851,0.328447551,-0.312942803,0.479354203,-0.292383194,-0.069899336,0.1797990202903748,-0.157896042,0.7325031757354736,2.757082462310791
1.574753761,-0.428804338,0.3023823201656342,-1.226042271,0.2852986454963684,-0.419759095,0.4581127762794495,-0.292689741,-0.068834111,0.1792803555727005,-0.154397741,0.7288104295730591,2.763106346130371
1.579752445,-0.439470857,0.2857707738876343,-1.202924967,0.2311302423477173,-0.518281579,0.4450005888938904,-0.292925596,-0.068014488,0.1788812875747681,-0.15117307,0.7246419787406921,2.769027471542358
1.584758282,-0.438494474,0.2842369377613068,-1.188034892,0.1690946519374847,-0.609216034,0.4414466917514801,-0.293003798,-0.06774272,0.1787489503622055,-0.148265556,0.7200453281402588,2.774985313415527
1.589758992,-0.4184497,0.2970519363880157,-1.184942245,0.1086591631174088,-0.702219427,0.44324553,-0.29272297,-0.063754477,0.1790618151426315,-0.145662189,0.7150115966796875,2.781061649
1.594760418,-0.383182079,0.3164249658584595,-1.191077232,0.05408489,-0.80559963,0.4457924962043762,-0.292629868,-0.062432051,0.1791655570268631,-0.143335149,0.7095101475715637,2.787211179733276
1.599757075,-0.335835248,0.3301708102226257,-1.205161214,-0.002267028,-0.913599074,0.4365579783916473,-0.292558223,-0.061414532,0.1792453825473785,-0.141311944,0.7035114169120789,2.793327331542969
1.604754448,-0.279347837,0.3310729265213013,-1.224533558,-0.067390643,-1.032245159,0.4073367118835449,-0.292534471,-0.061077144,0.1792718470096588,-0.139698878,0.6969406604766846,2.799213171005249
1.609753132,-0.221303686,0.3270722627639771,-1.242686868,-0.145304918,-1.159479141,0.3618955910205841,-0.292201668,-0.058777791,0.1807100772857666,-0.138639465,0.6897624135017395,2.804813385009766
1.614752531,-0.156585887,0.3281389474868774,-1.258563042,-0.238344118,-1.294214964,0.2927213609218597,-0.292013466,-0.057510626,0.1815378218889236,-0.138301358,0.681941032,2.809935569763184
1.619753003,-0.101341918,0.3371456563472748,-1.262988806,-0.337410808,-1.433380246,0.2046632915735245,-0.291868687,-0.056535628,0.1821747273206711,-0.138815612,0.6734416484832764,2.814518690109253
1.624754429,-0.061320052,0.3521487712860107,-1.253273129,-0.421970814,-1.567739248,0.098251261,-0.291820675,-0.056212336,0.1823859065771103,-0.140144587,0.6642686128616333,2.818510770797729
1.629751325,-0.033285707,0.3743092715740204,-1.231222153,-0.490120828,-1.689108729,-0.02050247,-0.290731341,-0.05504607,0.1841044425964355,-0.142278403,0.654480517,2.821883201599121
1.634748697,-0.012592753,0.3960634469985962,-1.206181169,-0.536622226,-1.798907995,-0.146135539,-0.289308935,-0.053734139,0.1862433850765228,-0.145099849,0.6441359519958496,2.824620485305786
1.639747381,0.009149915,0.4158504903316498,-1.177710056,-0.558544993,-1.893977165,-0.276547134,-0.288214505,-0.052724697,0.1878891438245773,-0.148459241,0.6333089470863342,2.826666355133057
1.64474678,0.033564758,0.4297932684421539,-1.14557755,-0.560346365,-1.975735068,-0.405584991,-0.287851602,-0.052389983,0.1884348541498184,-0.152241617,0.6220643520355225,2.828026533126831
1.649747252,0.056346983,0.4351731836795807,-1.11249423,-0.550810754,-2.044819593,-0.530813813,-0.287572384,-0.052132446,0.1888547390699387,-0.156327873,0.6104692816734314,2.828708887
1.654748917,0.078268006,0.4340397715568542,-1.081299663,-0.533975184,-2.099538803,-0.653141201,-0.284717888,-0.051811937,0.1927300691604614,-0.160642877,0.5985904335975647,2.828712463378906
1.659745812,0.1081933677196503,0.4286578595638275,-1.056488514,-0.515243173,-2.141096354,-0.768555582,-0.282521546,-0.05156533,0.1957118660211563,-0.16513972,0.5865015983581543,2.828072071075439
1.664743423,0.14161855,0.4209442436695099,-1.036043644,-0.500456691,-2.174878836,-0.877544165,-0.281793267,-0.05148356,0.1967005729675293,-0.169803187,0.574238658,2.826842784881592
1.669742584,0.1807601302862167,0.4132886826992035,-1.017222643,-0.491231829,-2.204412222,-0.978439093,-0.281232923,-0.051420644,0.1974613219499588,-0.174617097,0.5618239641189575,2.825058221817017
1.674741983,0.2186440974473953,0.4026344120502472,-0.997355461,-0.48770085,-2.229271173,-1.068273783,-0.279187322,-0.052020151,0.2000647932291031,-0.179551512,0.5492868423461914,2.822749137878418
1.679742455,0.2543621361255646,0.3887957334518433,-0.978554606,-0.491619468,-2.248984098,-1.147378683,-0.275732785,-0.053108722,0.2044454514980316,-0.184605762,0.5366648435592651,2.820010662078857
1.684744239,0.2859282493591309,0.373091996,-0.957857251,-0.504094958,-2.257982492,-1.214352131,-0.274587333,-0.053469669,0.2058980017900467,-0.189781755,0.5239955186843872,2.816918611526489
1.689740777,0.3116296529769897,0.3594935536384583,-0.938671231,-0.52311182,-2.257178307,-1.2704705,-0.273705989,-0.053747397,0.2070156335830688,-0.195072949,0.5113409757614136,2.813541650772095
1.694738746,0.334997833,0.3469766080379486,-0.918339849,-0.544298053,-2.24448657,-1.312930584,-0.273413748,-0.053839486,0.2073862254619598,-0.200463027,0.4987686574459076,2.809918642044067
1.699737072,0.3583907783031464,0.3384599685668945,-0.898509622,-0.566360235,-2.222513914,-1.350446701,-0.267631203,-0.056803986,0.213099793,-0.205954403,0.4863202273845673,2.806064844
1.704736471,0.377021849,0.3297185003757477,-0.879531682,-0.579161167,-2.18863678,-1.3756181,-0.265713841,-0.05778696,0.2149943113327026,-0.211453706,0.4740592539310455,2.802099466323853
1.709736943,0.3897025287151337,0.3226576447486877,-0.866395712,-0.584573805,-2.143145323,-1.393582582,-0.264238536,-0.058543287,0.2164520174264908,-0.216928735,0.462024599,2.798060894012451
1.714738727,0.4084058403968811,0.3161152303218842,-0.865500629,-0.579670429,-2.098104954,-1.400854111,-0.263749361,-0.05879407,0.2169353663921356,-0.222285584,0.4502432942390442,2.793992042541504
1.719741225,0.4306357800960541,0.3115130662918091,-0.875467896,-0.574677765,-2.059088469,-1.397705197,-0.259378821,-0.061775796,0.2208541035652161,-0.227501988,0.4386722445487976,2.78982687
1.724738836,0.4710219204425812,0.3024671077728271,-0.901239693,-0.580925405,-2.037299633,-1.386602163,-0.256941259,-0.063454568,0.2230311632156372,-0.232595682,0.4272658824920654,2.785704851150513
1.729737163,0.5344105362892151,0.2883210778236389,-0.933361828,-0.603676915,-2.038726807,-1.379739165,-0.255065709,-0.064746268,0.2247062474489212,-0.237663299,0.4159302711486816,2.781538724899292
1.734736919,0.6037605404853821,0.2696865200996399,-0.968295038,-0.641744614,-2.065462828,-1.384335041,-0.254443824,-0.065174572,0.2252616733312607,-0.242776886,0.4045185446739197,2.777294397354126
1.739737391,0.6696636080741882,0.2575275599956512,-0.995811701,-0.688506067,-2.115869045,-1.405290723,-0.251892656,-0.067144044,0.2274526357650757,-0.248037755,0.3929103910923004,2.772847890853882
1.744739056,0.7199325561523438,0.2536221146583557,-1.010392308,-0.739696145,-2.185138941,-1.438361287,-0.248956665,-0.069450773,0.2299574911594391,-0.253489107,0.3809680938720703,2.768274545669556
1.749735713,0.7517070174217224,0.2570036053657532,-1.011863351,-0.782675683,-2.262049913,-1.47862947,-0.24669762,-0.071225643,0.2318848073482513,-0.259117305,0.3686324059963226,2.763638734817505
1.754733562,0.7590455412864685,0.2577761113643646,-0.998718977,-0.807778001,-2.338044405,-1.516529918,-0.245948568,-0.071814157,0.2325238585472107,-0.264801204,0.355885923,2.759014368057251
1.759732485,0.7454221844673157,0.2605635821819305,-0.968964994,-0.815511703,-2.399003983,-1.545837283,-0.245372221,-0.072266974,0.2330155819654465,-0.27045989,0.3428012132644653,2.754446506500244
1.764731884,0.7181752324104309,0.2564003467559814,-0.927669227,-0.806929171,-2.441759586,-1.559132695,-0.241375223,-0.076010779,0.2372372448444366,-0.275970429,0.3294782936573029,2.749922037124634
1.769732356,0.6888437867164612,0.2360848933458328,-0.88560158,-0.789136648,-2.458478212,-1.558336377,-0.238299802,-0.078891389,0.2404855340719223,-0.281250685,0.3160770535469055,2.745510578155518
1.774734139,0.6638870239257813,0.2078989297151566,-0.842389882,-0.772929668,-2.443071604,-1.542259812,-0.237280056,-0.079846546,0.2415626049041748,-0.286300421,0.3027817606925964,2.741204738616943
1.779730916,0.6518504619598389,0.1680128276348114,-0.806611717,-0.765106499,-2.408430815,-1.517008305,-0.236495435,-0.080581471,0.2423913478851318,-0.291153133,0.2897221446037292,2.736926555633545
1.784728527,0.6516770720481873,0.1302432864904404,-0.776553452,-0.771745145,-2.353886127,-1.484850764,-0.233535081,-0.082999758,0.2440835386514664,-0.295896292,0.2770146131515503,2.732546091079712
1.789727211,0.661912739,0.1041138470172882,-0.746424675,-0.787164092,-2.290102243,-1.447896481,-0.22852698,-0.087059326,0.2468187808990479,-0.300617337,0.2647069990634918,2.728202342987061
1.79472661,0.6790722608566284,0.084164947,-0.718492448,-0.806626618,-2.217553854,-1.412567139,-0.226866379,-0.088405401,0.2477257400751114,-0.305337965,0.2528564929962158,2.723898649215698
1.799727082,0.6943135261535645,0.07903669,-0.690534294,-0.816369832,-2.133356094,-1.37499547,-0.225588664,-0.089441113,0.2484235912561417,-0.310040891,0.2415049225091934,2.719711542129517
1.804728866,0.7068063020706177,0.081509039,-0.65852648,-0.804798603,-2.039386272,-1.33915484,-0.225164995,-0.089784533,0.2486549764871597,-0.314642608,0.230681837,2.715580940246582
1.809725642,0.7227173447608948,0.09113948,-0.627361059,-0.776197374,-1.933550239,-1.300788403,-0.218849108,-0.095520429,0.2538844347000122,-0.319075227,0.2204760313034058,2.711462259292603
1.814723372,0.7431222200393677,0.1056588366627693,-0.600429833,-0.727488577,-1.82871294,-1.256441116,-0.216754884,-0.097422339,0.2556184232234955,-0.323228538,0.210874155,2.707496643066406
1.819721699,0.7583692073822021,0.1083054766058922,-0.578372836,-0.663931906,-1.719955444,-1.20797658,-0.215143502,-0.09888573,0.2569526135921478,-0.327003002,0.2019103765487671,2.703628301620483
1.824721098,0.7685734629631042,0.1058356463909149,-0.556892157,-0.588245988,-1.603280306,-1.14306736,-0.214609206,-0.099370964,0.2573949992656708,-0.330339968,0.1936254054307938,2.699921607971191
1.829721808,0.7656555771827698,0.1027251556515694,-0.534422338,-0.505467892,-1.479797006,-1.071728945,-0.210433125,-0.103559501,0.2597014904022217,-0.333189577,0.1860368400812149,2.696259737014771
1.834723592,0.766742468,0.086468287,-0.507511318,-0.427877396,-1.348302603,-0.98418498,-0.208116755,-0.10589242,0.2609528303146362,-0.335572302,0.1792401969432831,2.692782163619995
1.839720726,0.8015930652618408,0.065880872,-0.520020723,-0.373562157,-1.219227791,-0.894970834,-0.206334472,-0.107687443,0.2619156241416931,-0.337567866,0.1732885986566544,2.689346551895142
1.844718575,0.8535289764404297,0.038786676,-0.533004045,-0.351917028,-1.109959245,-0.810813427,-0.205743492,-0.108282641,0.2622348666191101,-0.339382887,0.168063685,2.685876846313477
1.849717259,0.918287992,0.026083071,-0.543777525,-0.347146481,-1.019233942,-0.737583756,-0.203496844,-0.110377669,0.2639661431312561,-0.341129541,0.1634951829910278,2.682351112365723
1.854722857,1.008477926254272,0.02388332,-0.557928801,-0.355459332,-0.95809257,-0.668853939,-0.200944901,-0.112723157,0.2660382688045502,-0.342875034,0.1594712883234024,2.678789615631104
1.85972321,1.119823932647705,0.021163067,-0.579720736,-0.368619084,-0.93538332,-0.614907622,-0.19898136,-0.114527844,0.2676326632499695,-0.344632506,0.1558073312044144,2.675147294998169
1.864724994,1.212303519248962,0.009964844,-0.589640737,-0.381400645,-0.951880693,-0.578828812,-0.198330283,-0.115126245,0.2681613266468048,-0.346394658,0.1522391736507416,2.671436548233032
1.869721651,1.269853591918945,-0.010255981,-0.582200706,-0.392653406,-0.988174558,-0.561705709,-0.197829321,-0.115586676,0.2685680985450745,-0.348156124,0.1485988050699234,2.667642593383789
1.874719262,1.284235239028931,-0.033818752,-0.551312089,-0.39730677,-1.026583076,-0.558103323,-0.196098655,-0.117945686,0.2696955800056458,-0.349903971,0.1447815746068954,2.663772344589233
1.879717588,1.259181857,-0.061469395,-0.492918521,-0.398121804,-1.046081543,-0.558140218,-0.194767043,-0.119760789,0.2705631256103516,-0.35163784,0.1408328860998154,2.659948110580444
1.884717345,1.199668765068054,-0.092283189,-0.407217503,-0.388445288,-1.02065134,-0.548503876,-0.194325507,-0.120362647,0.2708507776260376,-0.353313923,0.1369473040103912,2.656248807907104
1.889717817,1.119178295135498,-0.122130856,-0.307203025,-0.363606364,-0.933294654,-0.525072396,-0.193985775,-0.12082573,0.271072119,-0.354868501,0.1334217041730881,2.652703762054443
1.89471972,1.055866003036499,-0.146549672,-0.211820066,-0.32529828,-0.787701309,-0.481761754,-0.192874283,-0.122171998,0.2722164392471313,-0.356246829,0.1306329071521759,2.649197578430176
1.899716616,1.028095006942749,-0.161649168,-0.128028572,-0.273007244,-0.5963673,-0.416497737,-0.191009074,-0.12441387,0.2741798162460327,-0.357383758,0.1288843005895615,2.645738124847412
1.904714227,1.040424585342407,-0.172137439,-0.064422861,-0.201077819,-0.376124889,-0.336752266,-0.190390602,-0.125157237,0.2748308181762695,-0.35816741,0.1283892840147018,2.642233371734619
1.909712672,1.084676623344421,-0.179601401,-0.019374119,-0.116003662,-0.144101575,-0.253619283,-0.189914733,-0.125729203,0.2753317356109619,-0.358537674,0.1292539685964584,2.638586521148682
1.91471231,1.137303352355957,-0.191401839,0.00333325,-0.024976643,0.085955545,-0.172375709,-0.189756945,-0.125918865,0.2754978239536285,-0.358427912,0.1314342170953751,2.634689092636108
1.91971302,1.200592637062073,-0.200139403,0.009053049,0.070517182,0.3012586832046509,-0.096280254,-0.187705919,-0.128033906,0.2785280644893646,-0.357824564,0.1348725557327271,2.630481243133545
1.924715042,1.258539915084839,-0.201692536,0.00191436,0.1610188633203506,0.5014604330062866,-0.019728765,-0.187025845,-0.128735214,0.2795328497886658,-0.356772184,0.1394718289375305,2.626072645187378
1.929711819,1.303111196,-0.203457788,-0.008854925,0.2398699671030045,0.6792957186698914,0.064495668,-0.186502576,-0.12927483,0.280305952,-0.355301231,0.1451042294502258,2.621571063995361
1.934709787,1.341021180152893,-0.192002445,-0.023385897,0.3087872862815857,0.8344064354896545,0.1601865440607071,-0.186329067,-0.129453748,0.2805622816085815,-0.35348928,0.1516745090484619,2.617145061
1.939708114,1.365039706230164,-0.17601043,-0.03798857,0.3682469129562378,0.9701885581016541,0.2718590199947357,-0.187529072,-0.129775688,0.2800390124320984,-0.351358771,0.159100816,2.612974405288696
1.944707632,1.382532596588135,-0.149605975,-0.0527234,0.4168810546398163,1.091157913208008,0.4046697020530701,-0.188256949,-0.129928038,0.2796871960163116,-0.348959982,0.1673309504985809,2.609253883361816
1.949708343,1.391521811485291,-0.104625702,-0.074919358,0.4599937200546265,1.192093253135681,0.5562448501586914,-0.188817024,-0.130045235,0.2794165015220642,-0.34632051,0.176288977,2.606213569641113
1.954710007,1.217864513397217,-0.062755764,-0.258324414,0.4962521195411682,1.306717872619629,0.7240177392959595,-0.189002723,-0.130084097,0.2793267667293549,-0.343335271,0.1856769323348999,2.604221343994141
1.959706903,-0.381164134,-0.139365107,-0.996015668,-0.081231579,1.911385536193848,1.048916101455688,-0.191209748,-0.129383296,0.2790911495685577,-0.342229545,0.1946559846401215,2.607022047042847
1.964704275,-0.33071062,0.5797147750854492,-1.644561172,0.2211886197328568,1.928421258926392,1.272638798,-0.194023028,-0.128414065,0.2788450717926025,-0.341241419,0.2056328058242798,2.612807989120483
1.969702601,-1.024522662,1.050896167755127,-1.924551606,0.3854671716690063,1.632420063018799,1.297217130661011,-0.196187645,-0.127668306,0.2786557376384735,-0.338851631,0.2123135477304459,2.623682737350464
1.97470212,-1.188946486,1.258508324623108,-1.801182866,0.4980871379375458,1.580662488937378,1.456224679946899,-0.196905389,-0.127421021,0.278592974,-0.336570293,0.2193393111228943,2.636221647262573
1.979703546,-1.295786381,1.242482423782349,-1.405424356,0.5819175243377686,1.708226561546326,1.621283411979675,-0.197457641,-0.127230763,0.2785446643829346,-0.333799541,0.2271303981542587,2.649719953536987
1.984705329,-0.742678165,1.070581197738647,-0.916023195,0.720755398,2.128576517105103,1.642702460289001,-0.203774586,-0.124214128,0.2774167060852051,-0.330269516,0.2386051416397095,2.660253047943115
1.989708066,-0.572409034,0.7860432267189026,-0.592873096,0.8025224208831787,2.702722549438477,1.646728516,-0.208635047,-0.121893026,0.276548833,-0.32624948,0.2531859278678894,2.668294191360474
1.994705677,-0.052321002,0.6314123272895813,-0.496671528,0.9069414734840393,3.324318647384644,1.600484848022461,-0.210246682,-0.121123396,0.2762610614299774,-0.321811199,0.2717625796794891,2.673182487487793
1.999704123,0.7095014452934265,0.485441655,-0.582923114,0.97837311,3.771467447280884,1.470682621002197,-0.211486727,-0.120531209,0.2760396301746368,-0.316936791,0.293462336,2.674069881439209
2.004703522,1.312777876853943,0.4819555282592773,-0.849209666,1.010481357574463,3.880079030990601,1.225460529327393,-0.216827437,-0.117631175,0.2740760445594788,-0.312358648,0.3159800171852112,2.672453880310059
2.009704351,1.565720438957214,0.3183927834033966,-1.131969929,0.9971230030059814,3.828724861,1.032704710960388,-0.225921288,-0.112665951,0.2706539630889893,-0.307579875,0.3377109169960022,2.668563128
2.014706373,1.78074038,0.1939932405948639,-1.447708845,0.9542969465255737,3.535047531,0.8630391955375671,-0.228936642,-0.111019582,0.2695192396640778,-0.302669168,0.3578042387962341,2.663402080535889
2.019703627,1.853234767913818,-0.021109113,-1.628549814,0.7730330228805542,3.103933572769165,0.706704319,-0.231256738,-0.109752811,0.2686461806297302,-0.298377126,0.3753928244113922,2.657077312469482
2.02470088,1.812134146690369,-0.273833215,-1.600141406,0.5740448236465454,2.665293694,0.651732326,-0.232026041,-0.10933277,0.2683566808700562,-0.294497013,0.3906319141387939,2.650488376617432
2.029699326,1.598240852355957,-0.395913392,-1.491356015,0.3401216864585876,2.308620452880859,0.701663077,-0.247362167,-0.103003778,0.2588038742542267,-0.291391075,0.4039462208747864,2.645349979400635
2.034698963,1.443408966064453,-0.360041946,-1.418326259,0.1671805083751678,2.025302171707153,0.8272284269332886,-0.252447337,-0.100905202,0.2556363344192505,-0.288854361,0.4159279763698578,2.642170190811157
2.039699554,1.223779797554016,-0.216353744,-1.307007432,0.02114113,1.770689487457275,0.9199284911155701,-0.256360024,-0.09929049,0.2531991600990295,-0.286929667,0.4265450537204742,2.641294479370117
2.044701099,1.042291641235352,0.030299935,-1.177317262,-0.07460691,1.580293536186218,0.9461462497711182,-0.257657379,-0.098755084,0.2523910105228424,-0.285892874,0.435991108,2.642431259155273
2.049697876,0.9313795566558838,0.3492131233215332,-1.025739551,-0.097148284,1.434562325,0.9211546182632446,-0.266215861,-0.09564101,0.247943327,-0.285498142,0.4446678757667542,2.645565748214722
2.054695368,0.805889904,0.6448267102241516,-0.867959261,-0.047407001,1.350399017333984,0.8228713274002075,-0.270924479,-0.093939789,0.2455218136310577,-0.285616338,0.4526318311691284,2.649801731109619
2.059693813,0.7425344586372375,0.7945305705070496,-0.717812181,0.066414803,1.311304211616516,0.7020276188850403,-0.274547428,-0.092630818,0.2436586320400238,-0.285657823,0.460269034,2.654064416885376
2.064693689,0.633412778,0.8261100649833679,-0.621587455,0.1999000608921051,1.318459510803223,0.5711067318916321,-0.27574873,-0.092196792,0.2430408298969269,-0.285371482,0.4676475524902344,2.657860756
2.069694519,0.6120917797088623,0.7323744893074036,-0.607761323,0.3508459031581879,1.323731184005737,0.5075183510780334,-0.279134601,-0.090562969,0.2406716197729111,-0.284241438,0.4750187397003174,2.660856246948242
2.074696302,0.6097853183746338,0.558388889,-0.664701045,0.4737027883529663,1.303930997848511,0.4908888638019562,-0.28273946,-0.088710442,0.2379762828350067,-0.282079756,0.4822420179843903,2.663071393966675
2.079692841,0.6754544973373413,0.3510546684265137,-0.775993407,0.5495181083679199,1.232485533,0.5243971943855286,-0.285513192,-0.087285057,0.235902414,-0.278957307,0.4892283380031586,2.664520978927612
2.084690332,0.7037653923034668,0.1660078465938568,-0.867567122,0.5849596858024597,1.115284085273743,0.5936276912689209,-0.286432892,-0.086812422,0.2352147549390793,-0.275013924,0.4957019090652466,2.665767431259155
2.089688778,0.7356744408607483,0.048552923,-0.922034562,0.5903642177581787,0.9846739172935486,0.6795679926872253,-0.287140578,-0.086448766,0.2346856445074081,-0.27047351,0.5016584992408752,2.667296409606934
2.094688416,0.7076890468597412,0.007757769,-0.935723901,0.5636259317398071,0.8795722723007202,0.7292634844779968,-0.291410118,-0.084149346,0.2308712750673294,-0.26582247,0.5070724487304688,2.669398307800293
2.099689007,0.6829776167869568,0.048773088,-0.934569895,0.5126208066940308,0.8100922107696533,0.7344497442245483,-0.294695258,-0.082380109,0.2279363721609116,-0.261493266,0.5121157765388489,2.671960830688477
2.104691029,0.6969159841537476,0.1452296376228333,-0.919071376,0.4718093276023865,0.7648206353187561,0.6965593695640564,-0.295784533,-0.081793457,0.2269632071256638,-0.257672757,0.516925573,2.674784421920776
2.109687805,0.6901738047599792,0.2529301941394806,-0.908974588,0.4472253620624542,0.7120674848556519,0.6257718801498413,-0.296622664,-0.081342071,0.2262144386768341,-0.254358917,0.5213361382484436,2.677775621414185
2.114685297,0.6938841342926025,0.2960793077945709,-0.904897213,0.4451239407062531,0.646969199,0.5595096945762634,-0.298412919,-0.079526991,0.2250131815671921,-0.251211882,0.5253187417984009,2.680729150772095
2.119683743,0.6628986597061157,0.2909096479415894,-0.909156144,0.447263628,0.5905492901802063,0.5157627463340759,-0.301319599,-0.076446421,0.2231253087520599,-0.248077959,0.5289008021354675,2.683588981628418
2.124689341,0.6498705744743347,0.259884387,-0.927841783,0.4476476311683655,0.5350372195243835,0.4765519797801971,-0.302283406,-0.075424962,0.2224993258714676,-0.244920239,0.532151997,2.686192512512207
2.12969017,0.6309186816215515,0.2019314616918564,-0.934082031,0.4464119970798492,0.4722359180450439,0.4515968561172485,-0.303024977,-0.074639022,0.2220176756381989,-0.241652101,0.5350205302238464,2.688539505004883
2.134691954,0.6031802296638489,0.1439786851406097,-0.932141304,0.4306425750255585,0.4210984706878662,0.4381875395774841,-0.303270847,-0.074378416,0.2218579798936844,-0.238357708,0.5376043915748596,2.690731287002563
2.13968873,0.5841585397720337,0.1177326142787933,-0.930137753,0.4014520943164825,0.3757901191711426,0.4183464050292969,-0.306331784,-0.071094468,0.2205623686313629,-0.235195845,0.5399200916290283,2.692920923233032
2.144685984,0.5647771954536438,0.1307549327611923,-0.920496702,0.3729812204837799,0.3328445255756378,0.3940884470939636,-0.307346702,-0.070005573,0.2201327681541443,-0.232278824,0.5419617891311646,2.695147991
2.149684668,0.5605894923210144,0.1594130545854568,-0.916425526,0.351458728,0.2988512516021729,0.3680792152881622,-0.308127612,-0.069167733,0.2198022156953812,-0.229588449,0.543810248,2.697433948516846
2.154684782,0.5548552870750427,0.1902841478586197,-0.897981226,0.3380326330661774,0.2687393724918365,0.3512432277202606,-0.308386564,-0.068889931,0.2196926027536392,-0.227044985,0.5454781055450439,2.699800252914429
2.159685373,0.5440424084663391,0.2185477614402771,-0.883757472,0.3324804902076721,0.2406113147735596,0.3379359245300293,-0.309892565,-0.067137711,0.2183686941862106,-0.224608868,0.5469889044761658,2.702368497848511
2.164687157,0.5253836512565613,0.2479217499494553,-0.863610744,0.3357983529567719,0.2238597720861435,0.3319181203842163,-0.310715288,-0.066176012,0.2176229804754257,-0.22220628,0.5483902096748352,2.705080032348633
2.169683933,0.5233928561210632,0.2687318921089172,-0.873273849,0.347235769,0.2116905301809311,0.3284626305103302,-0.311348319,-0.06543605,0.2170492112636566,-0.219774604,0.54973197,2.707868099212646
2.174681664,0.5645685791969299,0.2254296839237213,-0.889455795,0.3545595407485962,0.1798702031373978,0.3216146528720856,-0.311558217,-0.065190695,0.2168589681386948,-0.217189595,0.5509515404701233,2.710306882858276
2.179680347,0.5634887218475342,0.1885480135679245,-0.871880293,0.3562043309211731,0.1507693827152252,0.3265804350376129,-0.312013745,-0.064101622,0.2167080789804459,-0.214497671,0.5520249605178833,2.712715387
2.184679985,0.5595166087150574,0.170455739,-0.874129355,0.3550630509853363,0.1291534155607224,0.3215484619140625,-0.312461287,-0.062832661,0.2166535258293152,-0.211782262,0.55300796,2.715115547180176
2.189680576,0.5667204260826111,0.1515987366437912,-0.888083637,0.3404359519481659,0.1115430444478989,0.3003788590431213,-0.312805653,-0.061856285,0.2166115492582321,-0.209170923,0.5538633465766907,2.717307329177856
2.194682598,0.5551438331604004,0.125993475,-0.885084093,0.3200753629207611,0.086239502,0.2870441377162933,-0.312919855,-0.061532535,0.2165976166725159,-0.20664382,0.5545634031295776,2.719342231750488
2.199679375,0.5527006387710571,0.1300063580274582,-0.874135375,0.299190342,0.081389323,0.2751672863960266,-0.313007712,-0.061283432,0.2165869027376175,-0.204286665,0.5552387833595276,2.721379518508911
2.204676867,0.5458167791366577,0.1523683965206146,-0.860717595,0.2843696177005768,0.071123466,0.2582822144031525,-0.314047039,-0.059810583,0.2164375185966492,-0.202103809,0.5558398962020874,2.723522901535034
2.209675312,0.5436362624168396,0.1615529209375381,-0.861148655,0.2667113840579987,0.066929474,0.2410550713539124,-0.314846754,-0.058677323,0.216322586,-0.200071901,0.556401253,2.725582599639893
2.214674711,0.5439763069152832,0.1563751101493835,-0.859062016,0.254116565,0.069785058,0.2242252379655838,-0.315111935,-0.058301557,0.2162844687700272,-0.198153213,0.5569585561752319,2.727506399154663
2.219675064,0.5524499416351318,0.1474510431289673,-0.866331995,0.2451091855764389,0.073554479,0.2135450839996338,-0.315315962,-0.05801243,0.2162551432847977,-0.196280375,0.5575359463691711,2.729287385940552
2.224676847,0.5534816980361938,0.140695795,-0.861235023,0.2332092225551605,0.077515885,0.1982135325670242,-0.315532774,-0.057307914,0.2162130773067474,-0.194506273,0.5581156015396118,2.730989933013916
2.229673386,0.5567387342453003,0.1381592154502869,-0.860989153,0.2187794744968414,0.084096909,0.1806401908397675,-0.315850407,-0.056150399,0.2161480188369751,-0.192856833,0.5587257742881775,2.732567310333252
2.234671116,0.5493966937065125,0.1381401866674423,-0.858072281,0.2076597511768341,0.090892464,0.1616847217082977,-0.315955728,-0.055766586,0.2161264419555664,-0.191339865,0.5593305230140686,2.734052181243896
2.239669561,0.5408043265342712,0.131299615,-0.851421773,0.1983463615179062,0.092802502,0.1496232151985168,-0.316036761,-0.055471271,0.2161098420619965,-0.189895645,0.5599308609962463,2.735435724258423
2.244669199,0.5466472506523132,0.1344220787286758,-0.85516715,0.1949432790279388,0.092437565,0.1397846788167953,-0.316063643,-0.055373348,0.2161043435335159,-0.18849799,0.5605372786521912,2.736794233322144
2.249669552,0.5554398894309998,0.1367192566394806,-0.849360228,0.1944828033447266,0.089943722,0.1291834264993668,-0.316575229,-0.053386908,0.2172815352678299,-0.187138095,0.5611261129379272,2.738121509552002
2.254671335,0.5581331253051758,0.1375257670879364,-0.846152186,0.1987548470497131,0.083248429,0.118796319,-0.316744834,-0.052728243,0.2176718562841415,-0.185777694,0.5616616010665894,2.739389419555664
2.259674072,0.5591201186180115,0.1287576109170914,-0.849318266,0.1954256296157837,0.080287598,0.1064491644501686,-0.316875368,-0.052221447,0.2179721891880035,-0.184460476,0.5621800422668457,2.740538597106934
2.264678001,0.5613424181938171,0.1169798225164413,-0.852671146,0.1912926882505417,0.080542415,0.09096203,-0.316918641,-0.052053399,0.218071774,-0.183187559,0.5626801252365112,2.741539716720581
2.269676447,0.5586315989494324,0.1135527193546295,-0.855848491,0.1822268515825272,0.081269592,0.074588932,-0.316756308,-0.051531322,0.2170423269271851,-0.182019219,0.5631690621376038,2.742444515228271
2.274676323,0.555645764,0.1278568357229233,-0.852311969,0.1755221486091614,0.080206081,0.056689057,-0.316654056,-0.051261019,0.216427281,-0.180976465,0.5636229515075684,2.743333101272583
2.279676914,0.548221231,0.1432361900806427,-0.850927413,0.1711383461952209,0.080084525,0.046725061,-0.316575408,-0.05105304,0.2159540504217148,-0.180025294,0.5640552639961243,2.744240045547485
2.284678698,0.5465880632400513,0.1573102623224258,-0.846823514,0.1714794188737869,0.079038665,0.037682731,-0.316549331,-0.050984077,0.2157971411943436,-0.179108933,0.5644779205322266,2.745166778564453
2.289675474,0.5452192425727844,0.1715153604745865,-0.84013617,0.1770748645067215,0.078449972,0.03102373,-0.317210764,-0.050513044,0.2157699167728424,-0.178218722,0.5648906230926514,2.746142625808716
2.294672966,0.5484033226966858,0.1791952848434448,-0.833479881,0.1868439018726349,0.080099903,0.028801098,-0.318117321,-0.049935382,0.2158551961183548,-0.177315488,0.5653242468833923,2.747114419937134
2.299671412,0.5534541010856628,0.1781129539012909,-0.829607904,0.1933382153511047,0.076944567,0.0314008,-0.318814844,-0.04949091,0.2159208208322525,-0.176352769,0.5657592415809631,2.748085737228394
2.304670811,0.5472779870033264,0.1799381375312805,-0.828895807,0.199912429,0.072145738,0.035618093,-0.31904611,-0.04934353,0.2159425765275955,-0.175343245,0.5661534667015076,2.749122142791748
2.309671402,0.5461294054985046,0.1827863156795502,-0.823875606,0.2133330851793289,0.065109752,0.042023152,-0.319224089,-0.049230132,0.2159593105316162,-0.174242109,0.566520095,2.750221490859985
2.314673185,0.5443909168243408,0.1974106580018997,-0.819581151,0.2162062525749207,0.057160255,0.045153905,-0.319237769,-0.048888505,0.2159605324268341,-0.173163131,0.5668491125106812,2.751405954360962
2.319669962,0.5513841509819031,0.1886975467205048,-0.818445086,0.2236403822898865,0.049251594,0.050511554,-0.319248289,-0.048625648,0.2159614861011505,-0.171988785,0.5671523809432983,2.752576112747192
2.324667454,0.5479694008827209,0.1665046215057373,-0.821758151,0.2219634205102921,0.043658897,0.058261316,-0.319251806,-0.048538487,0.2159617990255356,-0.170750678,0.5674324631690979,2.753675699234009
2.329666138,0.5430198311805725,0.1577097177505493,-0.82400769,0.2170463800430298,0.044545569,0.064045794,-0.319254458,-0.048471425,0.2159620374441147,-0.16951327,0.5677143931388855,2.754811049
2.334665537,0.5349974632263184,0.1570281833410263,-0.825446844,0.211131677,0.046979975,0.066906229,-0.319228768,-0.048306957,0.2157899588346481,-0.168302715,0.5679967403411865,2.755968809127808
2.339666367,0.5325849652290344,0.1512314230203629,-0.82786411,0.2048168480396271,0.049420539,0.068004273,-0.319182098,-0.04803659,0.2154834717512131,-0.167111799,0.5682948231697083,2.757123231887817
2.344668388,0.5308143496513367,0.1492883414030075,-0.82963866,0.1957348585128784,0.055087849,0.072158687,-0.319166631,-0.047946941,0.215381846,-0.1659583,0.5686181783676147,2.758275747299194
2.349665642,0.5261345505714417,0.1513315141201019,-0.829026759,0.1824345290660858,0.064005025,0.074091941,-0.31915471,-0.047877964,0.2153036594390869,-0.164877862,0.5689802169799805,2.759448766708374
2.354663134,0.5211395025253296,0.1534511595964432,-0.831171811,0.1722974628210068,0.073563628,0.075295486,-0.319150776,-0.04785509,0.2152777314186096,-0.163856015,0.5693792700767517,2.760650873184204
2.359661818,0.5173408389091492,0.1608719974756241,-0.831377506,0.164953887,0.082426824,0.079363048,-0.319295555,-0.046686675,0.2152476161718369,-0.162877664,0.5698245167732239,2.761935949325562
2.364661217,0.5170462727546692,0.1699505895376205,-0.830604255,0.1603425741195679,0.09021467,0.088018082,-0.319343567,-0.046299249,0.2152376174926758,-0.16191268,0.570311427,2.763304948806763
2.369662285,0.5164627432823181,0.1794236,-0.831766069,0.1573139727115631,0.096263535,0.097233161,-0.319380522,-0.046001151,0.2152299284934998,-0.160959646,0.5708346366882324,2.764757871627808
2.37466383,0.5157119035720825,0.1815847754478455,-0.833554626,0.1614181250333786,0.1003512814640999,0.1026200726628304,-0.319392771,-0.045902308,0.2152273803949356,-0.15996623,0.5713721513748169,2.766239643096924
2.379660845,0.5177843570709229,0.1744652092456818,-0.83946377,0.1586386412382126,0.1051910296082497,0.1086183711886406,-0.319559753,-0.045163941,0.2150712758302689,-0.158951297,0.5719364285469055,2.767739057540894
2.384658337,0.5214161276817322,0.1669600754976273,-0.840399563,0.1596734076738358,0.1111194863915443,0.1115280985832214,-0.319654107,-0.04475522,0.2149813771247864,-0.157917559,0.5725359320640564,2.769197940826416
2.389656782,0.5280937552452087,0.162517712,-0.836497784,0.1593519598245621,0.1153637990355492,0.1119375973939896,-0.319726706,-0.044440739,0.2149121910333633,-0.1568764,0.5731729865074158,2.770623445510864
2.39466238,0.5309762954711914,0.1587871462106705,-0.831918836,0.1570669114589691,0.1198579072952271,0.1128649637103081,-0.319750786,-0.044336461,0.214889258,-0.155843258,0.5738317370414734,2.772021293640137
2.39966321,0.5341269969940186,0.1491300165653229,-0.829008579,0.1567558646202087,0.1214281469583511,0.1135954558849335,-0.320166796,-0.043989588,0.2147912979125977,-0.154795572,0.5745139122009277,2.773386478424072
2.404664755,0.5381597280502319,0.1338703185319901,-0.824243367,0.1567046344280243,0.1202824786305428,0.1173123717308044,-0.320705593,-0.043605696,0.2146778404712677,-0.153695166,0.5751997232437134,2.774703502655029
2.40966177,0.5446548461914063,0.1233500465750694,-0.822294295,0.1495484113693237,0.1211743578314781,0.1146697402000427,-0.321120143,-0.043310314,0.2145905345678329,-0.152625695,0.5758934020996094,2.775950432
2.414659977,0.5452420115470886,0.1240293979644775,-0.823570728,0.1393526494503021,0.1206879839301109,0.1147371232509613,-0.321257591,-0.043212373,0.2145615816116333,-0.151625946,0.5765864253044128,2.777208328
2.419658422,0.5410953164100647,0.1241117641329765,-0.825917542,0.1308618187904358,0.1214489489793777,0.1115032061934471,-0.32136336,-0.043137014,0.2145393043756485,-0.150687218,0.5772669911384583,2.778452873
2.424658537,0.5354081988334656,0.1347399353981018,-0.824550569,0.1306089013814926,0.1214958429336548,0.1114432290196419,-0.321406811,-0.042599611,0.2149753719568253,-0.149771899,0.577932596,2.779771327972412
2.42965889,0.536542535,0.1449726819992065,-0.822798789,0.1324742287397385,0.1183494329452515,0.118972011,-0.32144022,-0.042186119,0.2153109014034271,-0.148826331,0.5786015391349792,2.781191349029541
2.434660912,0.537021279,0.1521002799272537,-0.819267392,0.1351484954357147,0.1143007129430771,0.1267242431640625,-0.321451306,-0.042049009,0.2154221534729004,-0.147846267,0.5792460441589355,2.782668590545654
2.439657688,0.5385605692863464,0.1553303897380829,-0.821516454,0.1380119472742081,0.111623079,0.1337582617998123,-0.32145983,-0.041943517,0.2155077457427979,-0.146843955,0.5798759460449219,2.784210681915283
2.444655418,0.5331622362136841,0.1508802026510239,-0.824180901,0.140013263,0.1068182662129402,0.1418555080890656,-0.321804076,-0.041532185,0.2149434238672256,-0.145790398,0.5804795622825623,2.785827159881592
2.449654102,0.5289496779441833,0.1492472589015961,-0.831531942,0.1468551754951477,0.1056544259190559,0.1506377011537552,-0.32241413,-0.040835142,0.2139098793268204,-0.144665465,0.5810819864273071,2.787469863891602
2.454653502,0.5323467254638672,0.1529327481985092,-0.832557023,0.148416206,0.1076600030064583,0.1566715240478516,-0.322616428,-0.040604014,0.2135671824216843,-0.143513486,0.5816958546638489,2.789169788360596
2.459654093,0.5338849425315857,0.153883234,-0.830545306,0.1529105752706528,0.1093236953020096,0.1642810702323914,-0.322772056,-0.040426176,0.2133034765720367,-0.142324582,0.5823294520378113,2.790906906
2.464655876,0.5302895903587341,0.1534996628761292,-0.830261648,0.1603633910417557,0.1090417504310608,0.1774156540632248,-0.322823644,-0.040367208,0.2132160514593124,-0.141060606,0.582965076,2.792741060256958
2.469652891,0.5304641723632813,0.1531794816255569,-0.829415798,0.1701977252960205,0.1078336611390114,0.1877366602420807,-0.322680056,-0.039505418,0.2141968905925751,-0.139697716,0.5835919976234436,2.794641017913818
2.474650383,0.5317076444625854,0.1488424390554428,-0.829990625,0.1802801787853241,0.106660433,0.1938228756189346,-0.322632462,-0.039219666,0.2145221084356308,-0.138261437,0.5842170715332031,2.796532392501831
2.479649067,0.5288220643997192,0.1504384577274323,-0.833739102,0.1841761320829391,0.1118548884987831,0.2018151134252548,-0.322595835,-0.038999796,0.2147723585367203,-0.136793718,0.5848686099052429,2.798502922058105
2.484648466,0.525634229,0.1417683959007263,-0.834350348,0.18087177,0.1208929121494293,0.2068806737661362,-0.322583675,-0.038926892,0.2148553282022476,-0.135309309,0.5855645537376404,2.800447940826416
2.489649057,0.5208092331886292,0.1392215490341187,-0.836285055,0.1786533743143082,0.131624773,0.2140095829963684,-0.323325098,-0.03810535,0.2136775851249695,-0.133822963,0.5863094329833984,2.802452087402344
2.494650841,0.5155918598175049,0.1608584225177765,-0.845541537,0.185466468,0.1426452547311783,0.223214865,-0.323756754,-0.037643529,0.2129798233509064,-0.132322714,0.5870913863182068,2.804616689682007
2.499647856,0.514285684,0.1663773208856583,-0.848559201,0.1917743682861328,0.151524693,0.2362063676118851,-0.324088871,-0.037288193,0.2124429494142532,-0.130749986,0.5879206657409668,2.806883811950684
2.504645348,0.5155284404754639,0.1700851619243622,-0.848342836,0.2004976272583008,0.1668296605348587,0.2521041631698608,-0.324198991,-0.037170369,0.2122649401426315,-0.12909697,0.588840127,2.809244155883789
2.509644032,0.5215255618095398,0.1612402498722076,-0.848992646,0.2099646776914597,0.1761679649353027,0.2678169012069702,-0.324435264,-0.036380582,0.2125197052955627,-0.12731953,0.5898207426071167,2.811647653579712
2.514643431,0.5185476541519165,0.1410206258296967,-0.855644226,0.2135419994592667,0.1940179765224457,0.2835855782032013,-0.32466644,-0.035413705,0.2129992097616196,-0.125424653,0.5908814668655396,2.814068555831909
2.519644499,0.5237888693809509,0.1282305121421814,-0.864595771,0.2088231593370438,0.2155748158693314,0.295144796,-0.324844301,-0.034669761,0.213368148,-0.123515084,0.5920623540878296,2.816485643386841
2.524646044,0.5232042670249939,0.1356661319732666,-0.86810106,0.2054975628852844,0.245818704,0.3082346022129059,-0.32490328,-0.034423083,0.2134904861450195,-0.121618137,0.5933873653411865,2.819010257720947
2.529648781,0.5383691787719727,0.1334094554185867,-0.870905697,0.1921639144420624,0.2786136567592621,0.3212191164493561,-0.324948639,-0.03423328,0.2135846018791199,-0.119755313,0.5949187874794006,2.821547031402588
2.534646511,0.5406437516212463,0.1385066658258438,-0.869132936,0.1770902872085571,0.3140416145324707,0.3402043282985687,-0.325716197,-0.03325377,0.2122228443622589,-0.117924422,0.5966233015060425,2.824197769165039
2.539644957,0.5299313068389893,0.1311398446559906,-0.885958493,0.1788274943828583,0.3638027906417847,0.3490720689296722,-0.32630679,-0.032500107,0.2111750543117523,-0.116039075,0.5985437035560608,2.826924562454224
2.544644356,0.5268141627311707,0.1037998646497726,-0.894918263,0.1587954759597778,0.4118162989616394,0.366017222,-0.326502591,-0.032250203,0.2108276337385178,-0.114143968,0.6007156372070313,2.829538583755493
2.549645424,0.5257003307342529,0.1161583513021469,-0.89760071,0.1227154135704041,0.474363238,0.3846375644207001,-0.326653272,-0.032057922,0.2105603069067001,-0.112446986,0.6031804084777832,2.832304000854492
2.554647207,0.5273619890213013,0.168081209,-0.89893347,0.1454555094242096,0.5492649078369141,0.3921694159507751,-0.327165127,-0.031149119,0.2103860527276993,-0.110772856,0.6060411930084229,2.835429906845093
2.559644461,0.5372161269187927,0.095157914,-0.90619415,0.1464037746191025,0.6211176514625549,0.3904758989810944,-0.328026026,-0.029595384,0.2101653963327408,-0.108846404,0.6092628240585327,2.838043689727783
2.564641953,0.5288624167442322,0.059366807,-0.928484917,0.1118916422128677,0.7029009461402893,0.392605186,-0.328311473,-0.029080195,0.210092232,-0.107103005,0.6128265857696533,2.840496301651001
2.569640398,0.5124388933181763,0.087472379,-0.922062874,0.1270974278450012,0.7948625087738037,0.3805550932884216,-0.328531116,-0.028683791,0.2100359201431274,-0.105449885,0.6168534755706787,2.843110799789429
2.574640036,0.5367918014526367,-0.037085123,-0.951437056,0.036843676,0.898950458,0.3680821657180786,-0.328603923,-0.028552352,0.2100172638893127,-0.10393817,0.6213827133178711,2.844879627227783
2.579640865,0.525472879,0.068891011,-0.937641621,-0.036972772,1.001864433288574,0.3682668805122375,-0.329928368,-0.026631767,0.2068904191255569,-0.103298239,0.6264328956604004,2.847270011901855
2.584642887,0.5141246318817139,0.1065338626503944,-0.912435174,-0.026178313,1.101294755935669,0.3550709784030914,-0.330367535,-0.02599494,0.2058536112308502,-0.102654099,0.6319548487663269,2.849621057510376
2.589639664,0.5467751622200012,0.050564732,-0.944636703,-0.024033796,1.197244167327881,0.3482142388820648,-0.330705464,-0.025504943,0.2050558477640152,-0.10182485,0.6379580497741699,2.851584434509277
2.594637394,0.5193450450897217,0.054720346,-0.930297136,-0.051976189,1.306347966194153,0.3406941890716553,-0.330817521,-0.025342468,0.204791322,-0.101243287,0.6444535255432129,2.853475332260132
2.599635601,0.5386821031570435,0.093906894,-0.936947405,-0.045092098,1.412539839744568,0.3306974470615387,-0.332941383,-0.024191162,0.2013722211122513,-0.100835741,0.6514953970909119,2.855479717254639
2.604635477,0.5277026891708374,0.095046803,-0.933084667,-0.031363469,1.526382565498352,0.3158940970897675,-0.334149837,-0.02355545,0.1994428187608719,-0.100371778,0.6590613126754761,2.85730505
2.609636545,0.5592162013053894,0.090756685,-0.96928066,-0.024000889,1.648246645927429,0.3078361451625824,-0.33507964,-0.023066312,0.1979582607746124,-0.099926136,0.6672389507293701,2.858938455581665
2.614638329,0.5292801856994629,0.094236217,-0.966919601,-0.000471998,1.771075963973999,0.3064343333244324,-0.335387945,-0.022904122,0.1974660158157349,-0.099426262,0.6759454607963562,2.860552310943604
2.619635105,0.5045610666275024,0.092334859,-1.004483819,0.024151431,1.922285795211792,0.2879104912281036,-0.337116808,-0.022256004,0.194361612,-0.098886766,0.6853141784667969,2.862096786499023
2.624632835,0.5274806618690491,0.096590936,-1.03121376,0.039822184,2.098737001419067,0.2888098955154419,-0.339194208,-0.021513382,0.1905836910009384,-0.098347232,0.6955890655517578,2.863476514816284
2.629631519,0.5322970151901245,0.1467987149953842,-1.052535653,0.075315557,2.29069972,0.2949009537696838,-0.340792626,-0.020941986,0.1876768469810486,-0.097797029,0.7067756652832031,2.865079879760742
2.634630919,0.5434249639511108,0.1803867667913437,-1.107679844,0.1188491359353065,2.499471664428711,0.3226037323474884,-0.341322631,-0.020752519,0.1867129951715469,-0.097022712,0.7189698815345764,2.866847038269043
2.63963151,0.530167818,0.2088424414396286,-1.165167928,0.1606354713439941,2.730596303939819,0.3554754853248596,-0.341730446,-0.020606739,0.1859713643789291,-0.096009724,0.7322198152542114,2.868892192840576
2.644633532,0.529221773,0.2316724509000778,-1.206357718,0.1809071600437164,2.982678890228271,0.4111599922180176,-0.345186472,-0.019235024,0.178938627,-0.09476877,0.746716321,2.871354103088379
2.649631023,0.435230553,0.2585166096687317,-1.181649327,0.1794436872005463,3.265995025634766,0.4952341318130493,-0.347845644,-0.018179582,0.1735274195671082,-0.093285598,0.7625014781951904,2.874390602111816
2.654628515,0.3646869957447052,0.3075788617134094,-1.189715385,0.1465985029935837,3.623626470565796,0.6352713704109192,-0.348727375,-0.017829617,0.171733171,-0.091560818,0.7800484895706177,2.878540515899658
2.65963316,0.3374385237693787,0.3407676517963409,-1.209525704,0.1097342893481255,4.025840759277344,0.8379130959510803,-0.349405795,-0.017560344,0.1703526228666306,-0.089172535,0.7996522188186646,2.884086132049561
2.664632797,0.2656355202198029,0.3583552837371826,-1.217007279,0.1057955697178841,4.476631164550781,1.086444616317749,-0.352020949,-0.016497202,0.1640361100435257,-0.085479952,0.821515679,2.891563892364502
2.669634104,0.1531437933444977,0.2824344336986542,-1.193975925,0.049322098,5.010360717773438,1.361916184425354,-0.356449962,-0.014694465,0.1532518565654755,-0.080325417,0.8459949493408203,2.900754451751709
2.674635887,0.2612025439739227,0.3147658109664917,-1.264486909,-0.075375505,5.547902584075928,1.623731374740601,-0.357918531,-0.014096713,0.1496759951114655,-0.074096076,0.8733992576599121,2.912218094
2.679632664,0.5522682666778564,0.3634529113769531,-1.298001885,-0.141070724,5.894991397857666,1.749912858009338,-0.359048486,-0.013636782,0.146924615,-0.067317024,0.9027731418609619,2.924856424331665
2.684630156,0.8158690929412842,0.3752802014350891,-1.343945742,-0.07821124,6.028119564056396,1.758628964424133,-0.359423161,-0.013484278,0.1460123062133789,-0.05943517,0.9327550530433655,2.938018321990967
2.689629078,0.9999011754989624,0.2976028621196747,-1.310111403,-0.010323673,6.060402393341064,1.785516381263733,-0.366650194,-0.007618775,0.1240949556231499,-0.049989495,0.9627424478530884,2.951692342758179
2.694628954,0.8688662052154541,0.5194269418716431,-1.264526963,0.081021965,6.184185028076172,1.826933145523071,-0.369046539,-0.005673885,0.1168275773525238,-0.039585393,0.9931149482727051,2.967800140380859
2.699629545,0.9652966856956482,0.6356499195098877,-1.322343826,0.3527947664260864,6.230119228363037,1.936771392822266,-0.370890349,-0.004177425,0.1112358272075653,-0.025691953,1.023656964302063,2.986342906951904
2.704631567,1.229366421699524,0.6358084678649902,-1.419049382,0.5348578095436096,6.227162361,2.020487070083618,-0.371501744,-0.003681227,0.1093817129731178,-0.008362968,1.053987383842468,3.007326841
2.709628582,1.489431738853455,0.541213334,-1.584517837,0.6147329807281494,6.116369247436523,2.024922847747803,-0.376668185,0.003359229,0.086962827,0.011614836,1.083452820777893,3.030411243438721
2.714626312,1.639175534248352,0.4343316853046417,-1.527706504,0.5921579003334045,5.964719772338867,2.130181312561035,-0.379543304,0.007341417,0.074334554,0.035197087,1.111901760101318,3.056565523147583
2.719624758,1.574955463409424,0.5603010058403015,-1.463226438,0.6936926245689392,5.864070892333984,2.281291246414185,-0.381755531,0.010405439,0.064617954,0.063387528,1.139625191688538,3.088140964508057
2.724624157,1.836583256721497,0.6212592124938965,-1.564955115,0.8206601142883301,5.630300998687744,2.307328462600708,-0.382489055,0.011421411,0.061396115,0.095488213,1.165664553642273,3.123272419
2.72962451,1.804386377334595,0.6358436942100525,-1.532886982,0.9238521456718445,5.385782241821289,2.390856027603149,-0.38394922,0.016206037,0.046534114,0.1329105347394943,1.189815998077393,-3.119822979
2.734626532,1.890871405601501,0.6703607439994812,-1.543717384,1.054710984230042,5.104287147521973,2.461949825286865,-0.385336637,0.021829039,0.029119179,0.1756352931261063,1.211947917938232,-3.074520588
2.739623785,1.683533430099487,0.6400712728500366,-1.328499913,1.216996431350708,4.911924362182617,2.559613466262817,-0.386404186,0.026155557,0.015719566,0.2256653606891632,1.232442855834961,-3.02319479
2.744621277,1.511876344680786,0.670312762,-1.2046175,1.462575435638428,4.723976135253906,2.607904195785522,-0.386758149,0.02759015,0.011276509,0.2829288244247437,1.251224875450134,-2.965655088
2.749619722,1.537222743034363,0.5525051355361938,-1.195236444,1.739749431610107,4.437647819519043,2.603276491165161,-0.387030482,0.02869397,0.007857878,0.3468942940235138,1.267395257949829,-2.903598547
2.75461936,1.354894280433655,0.468489408,-1.059215426,2.007160186767578,4.175529003143311,2.598568916320801,-0.384907603,0.037140328,-0.011025068,0.4174624681472778,1.281158089637756,-2.836637974
2.759619951,1.290832161903381,0.3063509166240692,-1.046217918,2.163729429244995,3.926793336868286,2.499729633331299,-0.383274198,0.043639228,-0.025554214,0.492207944,1.292475224,-2.767246723
2.764621735,0.9962120652198792,0.081994131,-1.134420514,2.019250154495239,3.719647884368896,2.367539167404175,-0.3827326,0.045794141,-0.030371802,0.5682093501091003,1.301343321800232,-2.697191477
2.76961875,1.085524797439575,-0.106742263,-1.461143017,1.527290463447571,3.391068458557129,2.263430833816528,-0.382315874,0.0474522,-0.034078609,0.6401313543319702,1.307244420051575,-2.62913537
2.77461648,0.9654970169067383,0.003135279,-1.511513352,1.006761074066162,2.972189664840698,2.254645109176636,-0.379898995,0.051689655,-0.043923296,0.7050307393074036,1.310165882110596,-2.56433773
2.779615164,0.8034135103225708,0.2023793458938599,-1.268621922,0.6913520693778992,2.699236869812012,2.230935335159302,-0.375735283,0.058678895,-0.060209814,0.766477644,1.311502099,-2.500880003
2.784614801,1.084663510322571,0.054905869,-1.359534144,0.2668802738189697,2.524182081222534,2.098435878753662,-0.374354661,0.060996395,-0.065610111,0.822872519,1.312020063400269,-2.441304684
2.789615393,0.8653137683868408,0.2802668809890747,-1.401278377,-0.021957248,2.110812664031982,2.029953002929688,-0.373292387,0.062779553,-0.069765285,0.8689477443695068,1.310556888580322,-2.389590263
2.794623137,0.5276249051094055,0.5522810816764832,-1.34811306,-0.128294632,1.681020140647888,1.925878167152405,-0.372940153,0.063370816,-0.071143061,0.905175507,1.307860970497131,-2.346578598
2.799625874,0.3066195249557495,0.5932671427726746,-1.186896443,-0.126100406,1.392731428146362,1.824295878410339,-0.366884619,0.0716369,-0.084803775,0.936152458,1.304453253746033,-2.309388399
2.804623604,0.1023930907249451,0.4877011179924011,-1.010156393,-0.14466691,1.294307708740234,1.770845890045166,-0.364876717,0.074377783,-0.089333415,0.966310978,1.300711154937744,-2.274171352
2.809622288,0.1230107992887497,0.4311329424381256,-1.002837658,-0.177171201,1.201830506324768,1.718983412,-0.363331765,0.076486699,-0.092818663,0.9941591620445251,1.296647906303406,-2.241305113
2.814621687,0.2261149287223816,0.4586396813392639,-1.093083501,-0.209551141,0.9550041556358337,1.600749015808105,-0.362819493,0.077185974,-0.0939743,1.015193343162537,1.292226076126099,-2.214940786
2.81962204,0.2475991100072861,0.4817932844161987,-1.119114757,-0.271543443,0.6191211938858032,1.436824202537537,-0.359262079,0.082801297,-0.099922635,1.028055787086487,1.287554025650024,-2.196426153
2.824623823,0.2639012038707733,0.4848787486553192,-1.096078038,-0.341497421,0.2675303220748901,1.261505722999573,-0.357299745,0.085919619,-0.103146888,1.033590197563171,1.282705187797546,-2.18524003
2.829621077,0.2440618872642517,0.4831531047821045,-1.075922966,-0.410141051,-0.087743931,1.066956043243408,-0.35578987,0.088318959,-0.105627723,1.031876326,1.277776837348938,-2.18137002
2.834618568,0.1845974624156952,0.4919946491718292,-1.058730006,-0.481465429,-0.442285359,0.8494738340377808,-0.355289221,0.089114532,-0.106450327,1.023051977157593,1.272881507873535,-2.18463254
2.839617252,0.091551647,0.4923208951950073,-1.028131604,-0.543171823,-0.779896259,0.6226913332939148,-0.353975952,0.091924094,-0.107862964,1.007718563079834,1.268022656440735,-2.194484472
2.844616652,0.002171654,0.4769743680953979,-0.975416422,-0.5969854,-1.073714375,0.4023807644844055,-0.352604657,0.095071562,-0.109117627,0.9871742129325867,1.263227701187134,-2.209759951
2.849617481,-0.069823124,0.4453718662261963,-0.917536557,-0.645673156,-1.322290421,0.1891490519046783,-0.351549536,0.097493328,-0.110083006,0.9624086022377014,1.258481025695801,-2.22955966
2.854619503,-0.109779418,0.40824917,-0.879884839,-0.708609879,-1.533050299,-0.01682961,-0.351199657,0.098296337,-0.110403106,0.9339113235473633,1.253760338,-2.253224373
2.859616518,-0.119281381,0.3742032051086426,-0.857105792,-0.785765469,-1.727591038,-0.21659635,-0.350930482,0.098914199,-0.110649399,0.9019514918327332,1.248980164527893,-2.280334949
2.864614725,-0.11040888,0.3448922336101532,-0.8370772,-0.869459331,-1.912150383,-0.408059776,-0.351910084,0.100346178,-0.1065825,0.8667389154434204,1.244054555892944,-2.310580492
2.869613409,-0.091190778,0.3145636916160583,-0.818616211,-0.953147948,-2.088551283,-0.598956108,-0.352663815,0.1014479845762253,-0.103453293,0.8285422325134277,1.238879561424255,-2.34371376
2.874612808,-0.07015124,0.2828338742256165,-0.802810609,-1.028727651,-2.257346869,-0.785968781,-0.352913737,0.1018133237957954,-0.102415711,0.7877026796340942,1.233350276947021,-2.379450321
2.879613161,-0.051612478,0.2579341530799866,-0.787405312,-1.096516252,-2.414621592,-0.96415621,-0.353106052,0.1020944267511368,-0.101617359,0.7446914315223694,1.227364420890808,-2.417304754
2.884614944,-0.045302387,0.241314635,-0.772999108,-1.15066123,-2.559733152,-1.128454208,-0.355252892,0.1016770452260971,-0.098415986,0.6999656558036804,1.220816016197205,-2.456899881
2.889611721,-0.042014118,0.2296730428934097,-0.753350616,-1.187890291,-2.682431221,-1.276684999,-0.359011084,0.1008395925164223,-0.092983335,0.6542426347732544,1.213644623756409,-2.49753046
2.894609451,-0.035636097,0.2244453281164169,-0.733869016,-1.205326438,-2.783092499,-1.406592727,-0.360257238,0.1005619093775749,-0.091181964,0.608189583,1.205828547477722,-2.538561821
2.899607897,-0.016312495,0.2214129120111465,-0.729217529,-1.203939319,-2.866497278,-1.51339376,-0.361216038,0.1003482565283775,-0.089795932,0.5624330639839172,1.197304248809814,-2.579418659
2.904607534,0.010757861,0.2128754258155823,-0.728718519,-1.182223678,-2.94486165,-1.597877741,-0.36153397,0.1002774089574814,-0.089336351,0.5174973011016846,1.187985897064209,-2.619729519
2.909608841,0.039717283,0.2025929987430573,-0.727946699,-1.144864678,-3.019079924,-1.670473695,-0.368584692,0.09498971,-0.077253513,0.4737415611743927,1.177849650382996,-2.659250259
2.914610863,0.077042677,0.1888001561164856,-0.734957278,-1.105617166,-3.093342066,-1.729730129,-0.370922565,0.093236409,-0.073247075,0.4314466714859009,1.166864275932312,-2.697617531
2.919607878,0.1248496323823929,0.1657827347517014,-0.751481414,-1.072287798,-3.168445587,-1.781194806,-0.372721404,0.09188737,-0.07016439,0.3907524943351746,1.155000448226929,-2.734681606
2.92460537,0.1733091324567795,0.1344398111104965,-0.772732377,-1.046388388,-3.244510889,-1.824981689,-0.373317868,0.091440052,-0.06914223,0.351770818,1.142256855964661,-2.770327806
2.929610014,0.2308769822120667,0.1048986837267876,-0.799784839,-1.035137892,-3.324798107,-1.860119462,-0.379273802,0.085349083,-0.058004156,0.3145440816879272,1.128613948822021,-2.8046
2.934609652,0.2911158204078674,0.074818134,-0.832805872,-1.048752666,-3.414237022,-1.889426708,-0.38260892,0.081907369,-0.051749449,0.2789646089076996,1.114053010940552,-2.837274551
2.93961072,0.3505158722400665,0.044543233,-0.868468404,-1.087540984,-3.511193752,-1.914676428,-0.385175079,0.079259209,-0.046936881,0.2449467778205872,1.098543882369995,-2.86832881
2.944612503,0.4142577648162842,0.017209267,-0.902279317,-1.15630424,-3.614792347,-1.940292716,-0.386025995,0.078381129,-0.045341123,0.2123234272003174,1.082103729248047,-2.89776659
2.949609518,0.4871872961521149,-0.00504782,-0.934543371,-1.245053053,-3.729133844,-1.964663386,-0.389847934,0.073581807,-0.03771415,0.1809457391500473,1.064710259437561,-2.925734043
2.954607248,0.5665417313575745,-0.017308364,-0.96334964,-1.336289167,-3.855629444,-1.999320269,-0.394309014,0.067832135,-0.028732318,0.1506391316652298,1.046357750892639,-2.952331305
2.959605694,0.6218926906585693,-0.023211565,-0.983091176,-1.418791294,-3.99764514,-2.049019575,-0.397741556,0.063408144,-0.021821409,0.1213191673159599,1.026995301246643,-2.977620602
2.964605093,0.6657836437225342,-0.019469267,-0.994843423,-1.490207314,-4.140228271,-2.098313332,-0.398879707,0.061941233,-0.019529883,0.093011878,1.006623029708862,-3.00161171
2.9696064,0.70701772,-0.014011295,-1.011097908,-1.549138308,-4.266303062,-2.142650843,-0.399755448,0.060812552,-0.01776671,0.065841414,0.985352099,-3.024267197
2.974608183,0.7264105081558228,-0.016774371,-1.022785187,-1.591724634,-4.389612198,-2.188078165,-0.404617995,0.051657684,-0.003171336,0.039886106,0.9632064700126648,-3.045782566
2.979604959,0.731671154,-0.024868561,-1.025759935,-1.620928884,-4.501979351,-2.233097315,-0.408359379,0.044613637,0.008058812,0.015181839,0.9402385354042053,-3.066034317
2.98460269,0.7281909584999084,-0.042722948,-1.028845429,-1.64368856,-4.594727993,-2.276704788,-0.40959996,0.042277966,0.011782518,-0.008294304,0.9165847897529602,-3.085115671
2.989601374,0.7224841713905334,-0.063811578,-1.028324962,-1.664335012,-4.661499023,-2.321064711,-0.410554469,0.040480826,0.014647655,-0.030606385,0.892393947,-3.103100061
2.994600773,0.717678964,-0.079253525,-1.028769255,-1.684719086,-4.70169735,-2.356451511,-0.412698567,0.034001499,0.024909489,-0.051814273,0.8678183555603027,-3.120207548
2.999601126,0.7126120924949646,-0.092742093,-1.03274262,-1.699518204,-4.722907066,-2.38676548,-0.416196287,0.023067031,0.042220965,-0.071972802,0.8429726362228394,-3.136340857
3.004602909,0.7067860960960388,-0.103452511,-1.038270831,-1.708870649,-4.722818851,-2.405878782,-0.417356074,0.019441368,0.047961123,-0.09109652,0.8179792761802673,3.131724834442139
3.009599686,0.7053490281105042,-0.107787907,-1.044442773,-1.712687016,-4.712946892,-2.416946173,-0.418248475,0.016651668,0.052377783,-0.109230153,0.7929013967514038,3.117587327957153
3.014597178,0.7080384492874146,-0.10709551,-1.055534124,-1.713791132,-4.6882658,-2.415344954,-0.418544352,0.015726656,0.053842261,-0.126413554,0.7678380012512207,3.104301929473877
3.019595861,0.7238757610321045,-0.104505323,-1.073665261,-1.70984745,-4.65511179,-2.401438236,-0.419909865,-0.002303204,0.079058573,-0.142661661,0.742868185,3.091793537139893
3.024595261,0.7485865354537964,-0.091942102,-1.100006342,-1.695131183,-4.623617649,-2.384721518,-0.420362651,-0.008281564,0.08741983,-0.158021778,0.7179891467094421,3.080192327
3.029595852,0.78050828,-0.078241348,-1.129810452,-1.665906429,-4.592297077,-2.365710497,-0.42071107,-0.012881506,0.09385325,-0.172480434,0.6932294964790344,3.069435358047485
3.034597635,0.8134700059890747,-0.064317927,-1.168508768,-1.624351144,-4.563882351,-2.349569082,-0.420826584,-0.014406759,0.095986448,-0.186069682,0.6685755252838135,3.059405326843262
3.03959465,0.8504846692085266,-0.050460178,-1.211208105,-1.580044031,-4.541740894,-2.33726716,-0.418929338,-0.029644443,0.1145151481032372,-0.198834285,0.6439975500106812,3.049695730209351
3.044592619,0.905034602,-0.037809502,-1.2600981,-1.535994053,-4.525437832,-2.325249434,-0.417808771,-0.038177174,0.1248377338051796,-0.21083647,0.6195186972618103,3.04057765
3.049591303,0.9611741304397583,-0.016324097,-1.30792141,-1.491874456,-4.524561405,-2.324158669,-0.41694656,-0.044742528,0.1327802687883377,-0.222181171,0.5950542092323303,3.031959295272827
3.05459094,1.024480938911438,0.009496769,-1.35591948,-1.440176725,-4.533571243,-2.331546545,-0.416660666,-0.046919476,0.1354138553142548,-0.232885271,0.5705668926239014,3.023783206939697
3.059591532,1.095042824745178,0.030562224,-1.397717118,-1.379256487,-4.551669121,-2.352235317,-0.412860811,-0.056913592,0.1473830342292786,-0.242947742,0.5460279583930969,3.015722751617432
3.064599037,1.171147584915161,0.051139008,-1.434390426,-1.311231017,-4.574261665,-2.380951881,-0.407990873,-0.068616398,0.1613780707120895,-0.252402216,0.521427333,3.007754087
