Time,inertial-6253.76535:estCompensatedAccelX,inertial-6253.76535:estCompensatedAccelX:valid,inertial-6253.76535:estCompensatedAccelY,inertial-6253.76535:estCompensatedAccelY:valid,inertial-6253.76535:estCompensatedAccelZ,inertial-6253.76535:estCompensatedAccelZ:valid,inertial-6253.76535:estAngularRateX,inertial-6253.76535:estAngularRateX:valid,inertial-6253.76535:estAngularRateY,inertial-6253.76535:estAngularRateY:valid,inertial-6253.76535:estAngularRateZ,inertial-6253.76535:estAngularRateZ:valid,inertial-6253.76535:estRoll,inertial-6253.76535:estRoll:valid,inertial-6253.76535:estPitch,inertial-6253.76535:estPitch:valid,inertial-6253.76535:estYaw,inertial-6253.76535:estYaw:valid
0,-5.271992207,1,-2.275565624,1,-7.928266525,1,0.010786211,1,-0.015946731,1,0.001480046,1,0.2974842488765717,1,-0.552595496,1,0.7332627177238464,1
0.00400128,-5.27896595,1,-2.305742502,1,-7.966776848,1,0.009926658,1,-0.015555735,1,0.003852703,1,0.2975275218486786,1,-0.55266118,1,0.7332560420036316,1
0.00799872,-5.279360294,1,-2.290677071,1,-7.959654331,1,0.008982132,1,-0.01491529,1,0.004984556,1,0.2975699901580811,1,-0.552718163,1,0.7332409620285034,1
0.011997952,-5.250622272,1,-2.285628796,1,-7.956608772,1,0.006107781,1,-0.015418042,1,0.0009794,1,0.2976120114326477,1,-0.552776396,1,0.7332346439361572,1
0.015999231,-5.229119301,1,-2.284087658,1,-7.975224018,1,0.013948692,1,-0.013296985,1,0.000734909,1,0.2976556420326233,1,-0.55283308,1,0.7332184910774231,1
0.019996673,-5.274037361,1,-2.282014847,1,-7.977048397,1,0.008241858,1,-0.012169219,1,0.00065598,1,0.2977045178413391,1,-0.552878618,1,0.7332012057304382,1
0.023995904,-5.254105091,1,-2.288926125,1,-7.943791866,1,0.011966469,1,-0.013732108,1,0.003474283,1,0.2977515757083893,1,-0.552933276,1,0.7331883907318115,1
0.027997185,-5.263576508,1,-2.280066729,1,-7.992792606,1,0.009917296,1,-0.012615073,1,-0.000849175,1,0.2978011071681976,1,-0.552975178,1,0.7331724762916565,1
0.031994622,-5.249840736,1,-2.305715799,1,-7.952680588,1,0.005785752,1,-0.00971962,1,0.002682959,1,0.2978425025939941,1,-0.553017139,1,0.7331487536430359,1
0.035993855,-5.265111923,1,-2.34304738,1,-7.967387676,1,0.008695493,1,-0.01005445,1,-0.001921694,1,0.297879159,1,-0.553052664,1,0.7331405878067017,1
0.039995138,-5.277145863,1,-2.332098484,1,-7.970919609,1,0.010225235,1,-0.008176556,1,0.001845424,1,0.2979161143302917,1,-0.553085148,1,0.7331318855285645,1
0.043992575,-5.235656261,1,-2.322890043,1,-8.007536888,1,0.005991268,1,-0.003247785,1,-0.000395359,1,0.2979516386985779,1,-0.553116143,1,0.7331199645996094,1
0.047991809,-5.239519596,1,-2.330631495,1,-7.983876228,1,0.005185034,1,-0.007887756,1,-0.000809232,1,0.2979893088340759,1,-0.553135574,1,0.7331069707870483,1
0.051993344,-5.283742428,1,-2.33761549,1,-7.970841408,1,0.003462448,1,-0.00580169,1,-0.002375148,1,0.2980169653892517,1,-0.553157628,1,0.7330966591835022,1
0.055991039,-5.264997005,1,-2.29972744,1,-7.955880642,1,0.00807933,1,-0.003221874,1,0.002584108,1,0.2980421781539917,1,-0.553177178,1,0.733089805,1
0.059990272,-5.248086929,1,-2.303044081,1,-7.952643394,1,0.003809644,1,-0.003620062,1,0.002299576,1,0.2980653643608093,1,-0.55319196,1,0.7330790758132935,1
0.063991554,-5.250186443,1,-2.330487967,1,-7.966508865,1,0.006566334,1,-0.006004829,1,-0.002254677,1,0.2980897426605225,1,-0.553205371,1,0.7330745458602905,1
0.067988992,-5.251099586,1,-2.275554657,1,-7.985952854,1,0.005967554,1,-0.003499285,1,0.004459224,1,0.2981113195419312,1,-0.553228498,1,0.7330737113952637,1
0.071988225,-5.243510723,1,-2.288521528,1,-7.996385574,1,0.006287548,1,-0.006069467,1,0.000227977,1,0.2981405854225159,1,-0.55324614,1,0.733063281,1
0.075989507,-5.180582047,1,-2.273788452,1,-7.964828491,1,0.007601503,1,-0.007339353,1,-0.002304915,1,0.2981692552566528,1,-0.553272367,1,0.7330596446990967,1
0.079986691,-5.235013962,1,-2.298909426,1,-7.988069057,1,0.005309784,1,-0.008613872,1,-0.001701418,1,0.2982079684734344,1,-0.553301632,1,0.7330415844917297,1
0.083986178,-5.240521908,1,-2.30667901,1,-7.997448921,1,0.006471775,1,-0.007454965,1,0.001947846,1,0.2982435822486877,1,-0.553340316,1,0.7330348491668701,1
0.087987453,-5.259274483,1,-2.318832397,1,-8.000393867,1,0.008156558,1,-0.01245892,1,-0.003404557,1,0.2982870042324066,1,-0.553380966,1,0.7330193519592285,1
0.091984637,-5.242545605,1,-2.334605694,1,-7.989977837,1,0.009008174,1,-0.010835192,1,0.003351777,1,0.2983263731002808,1,-0.553420007,1,0.7330135107040405,1
0.09598387,-5.243065834,1,-2.326704502,1,-7.963371277,1,0.008561358,1,-0.008596315,1,-0.000825078,1,0.2983731627464294,1,-0.553463757,1,0.7330046892166138,1
0.099991299,-5.205662727,1,-2.326716661,1,-7.947752953,1,0.011479505,1,-0.010769895,1,0.001054856,1,0.2984083890914917,1,-0.553513169,1,0.7330034971237183,1
0.103994623,-5.228127956,1,-2.321323872,1,-7.939581394,1,0.005929647,1,-0.012046976,1,0.001846129,1,0.298452616,1,-0.553561211,1,0.7329883575439453,1
0.107994109,-5.259658337,1,-2.343812704,1,-7.970943451,1,0.006568028,1,-0.011947585,1,0.002359101,1,0.2984814047813416,1,-0.553621531,1,0.7329920530319214,1
0.111995392,-5.238814354,1,-2.368984222,1,-7.955690384,1,0.006767306,1,-0.00789072,1,0.001568858,1,0.2985093593597412,1,-0.553669631,1,0.732991099,1
0.115992829,-5.272377014,1,-2.359842062,1,-7.965772152,1,0.004205804,1,-0.012010872,1,0.004878132,1,0.2985344529151917,1,-0.553719461,1,0.7329959869384766,1
0.119992062,-5.277553558,1,-2.354922771,1,-7.95252943,1,0.005057638,1,-0.010543973,1,0.007974951,1,0.2985374331474304,1,-0.553775728,1,0.7330135107040405,1
0.123993345,-5.242323399,1,-2.368155241,1,-7.966404438,1,-0.00063869,1,-0.010260788,1,0.007779402,1,0.2985410690307617,1,-0.553822815,1,0.7330271005630493,1
0.127990782,-5.26454401,1,-2.3583076,1,-7.973300934,1,0.002836042,1,-0.011271857,1,0.006630864,1,0.2985381484031677,1,-0.55386883,1,0.733036995,1
0.131990016,-5.29242897,1,-2.309242725,1,-7.984899521,1,0.002811765,1,-0.009090996,1,0.006292291,1,0.2985421717166901,1,-0.553912282,1,0.7330573201179504,1
0.13599129,-5.240799427,1,-2.245881319,1,-7.964510918,1,1.774206248228438e-05,1,-0.010120749,1,0.008980174,1,0.298540473,1,-0.553959429,1,0.7330794334411621,1
0.139988735,-5.284665108,1,-2.306836128,1,-7.933041573,1,0.001158854,1,-0.010691959,1,0.008115418,1,0.2985391616821289,1,-0.554008365,1,0.733096182,1
0.143987969,-5.243297577,1,-2.308980942,1,-7.953010082,1,0.000707175,1,-0.009134782,1,0.006306175,1,0.2985460162162781,1,-0.554048121,1,0.7330993413925171,1
0.147989497,-5.223497868,1,-2.292102575,1,-7.980626583,1,0.002555338,1,-0.009355207,1,0.001188331,1,0.2985574007034302,1,-0.554092169,1,0.7331154942512512,1
0.151986942,-5.262673378,1,-2.324134588,1,-7.967455864,1,0.000206531,1,-0.012624198,1,0.004193531,1,0.2985686063766479,1,-0.554143846,1,0.7331147193908691,1
0.155986175,-5.241773129,1,-2.295709133,1,-7.972646236,1,0.002101152,1,-0.011762779,1,0.004362665,1,0.2985835671424866,1,-0.554200172,1,0.7331189513206482,1
0.159987718,-5.255801201,1,-2.274610043,1,-7.940314293,1,0.005229816,1,-0.010363196,1,0.000503439,1,0.2985978126525879,1,-0.55424422,1,0.7331263422966003,1
0.163985148,-5.265697479,1,-2.302052021,1,-7.988917351,1,0.007680453,1,-0.007192319,1,0.003219099,1,0.2986224889755249,1,-0.554288864,1,0.7331218719482422,1
0.167984381,-5.25779295,1,-2.302524567,1,-7.975121498,1,0.002866791,1,-0.012924965,1,0.00054259,1,0.2986473441123962,1,-0.554337442,1,0.7331165075302124,1
0.171985671,-5.297120571,1,-2.275048256,1,-7.938477993,1,0.00449315,1,-0.010813858,1,0.006485064,1,0.2986770868301392,1,-0.554377973,1,0.7331103086471558,1
0.175982848,-5.303315163,1,-2.265249252,1,-7.986625195,1,0.005254254,1,-0.008288837,1,-0.00043507,1,0.298698902,1,-0.554419458,1,0.73311156,1
0.179982334,-5.289163589,1,-2.337794781,1,-7.9290452,1,0.006436506,1,-0.004857973,1,0.002699203,1,0.2987363636493683,1,-0.554452538,1,0.7330990433692932,1
0.183983609,-5.285864353,1,-2.337104082,1,-7.956978321,1,0.006649567,1,-0.007968453,1,0.003031889,1,0.2987585663795471,1,-0.55448395,1,0.7330965995788574,1
0.187981054,-5.277015209,1,-2.305486202,1,-7.940982819,1,0.004304471,1,-0.001868499,1,0.001094259,1,0.298783004,1,-0.554516673,1,0.733090878,1
0.191980541,-5.285936356,1,-2.333758354,1,-7.937030315,1,0.004171919,1,-0.004234382,1,0.002118602,1,0.2987935543060303,1,-0.554532349,1,0.7330897450447083,1
0.19598183,-5.298719406,1,-2.346632719,1,-7.952980518,1,0.005320294,1,-0.003741717,1,0.001816059,1,0.2988123893737793,1,-0.554546714,1,0.7330830097198486,1
0.199979261,-5.273744106,1,-2.331688643,1,-7.938661098,1,0.004866561,1,-0.004347569,1,0.001033898,1,0.2988331615924835,1,-0.554559648,1,0.7330831289291382,1
0.203978494,-5.313827515,1,-2.320667982,1,-7.937347889,1,0.003535681,1,0.000124451,1,0.003678621,1,0.2988496422767639,1,-0.554564476,1,0.7330858707427979,1
0.207979783,-5.306677818,1,-2.283442497,1,-7.935031891,1,0.002887193,1,-0.001334464,1,-0.000148761,1,0.2988620400428772,1,-0.554567516,1,0.7330938577651978,1
0.211977214,-5.273889065,1,-2.296588898,1,-7.926593304,1,0.005578156,1,0.002198054,1,0.002415263,1,0.2988699674606323,1,-0.554562628,1,0.733095109,1
0.215976447,-5.275292397,1,-2.312490702,1,-7.95669651,1,0.005251102,1,0.002063082,1,-0.00231036,1,0.2988877892494202,1,-0.554552913,1,0.7330928444862366,1
0.219983622,-5.249120235,1,-2.293527365,1,-7.943747044,1,0.002031058,1,0.003810041,1,0.00327895,1,0.2989077568054199,1,-0.554545581,1,0.7330919504165649,1
0.223987207,-5.249642849,1,-2.301963091,1,-7.937961102,1,0.003542259,1,-0.001352714,1,-0.002364001,1,0.2989187240600586,1,-0.554533958,1,0.7330977320671082,1
0.227986693,-5.223326683,1,-2.281879902,1,-7.961040974,1,0.00788133,1,0.006389046,1,-0.002469171,1,0.2989375293254852,1,-0.554522753,1,0.7330948114395142,1
0.231987968,-5.263370991,1,-2.325192451,1,-7.946129322,1,0.0026404,1,0.001294388,1,-0.002659754,1,0.2987751960754395,1,-0.554683745,1,0.7330034971237183,1
0.235985413,-5.264705658,1,-2.313039541,1,-7.968831539,1,0.00257433,1,0.003814022,1,-0.000201526,1,0.2987836897373199,1,-0.554666877,1,0.7330011129379272,1
0.239984646,-5.303166389,1,-2.279122353,1,-7.962541103,1,0.003360783,1,0.006859158,1,-0.004700666,1,0.2988012433052063,1,-0.554651022,1,0.7330000996589661,1
0.243986174,-5.289916039,1,-2.30092454,1,-7.968109608,1,0.007209163,1,0.004703959,1,-0.002840109,1,0.2988220155239105,1,-0.554620385,1,0.7329972386360168,1
0.24798362,-5.264706135,1,-2.31717062,1,-7.943689346,1,0.006526676,1,0.004760745,1,0.000263139,1,0.2988481223583221,1,-0.55460006,1,0.7329966425895691,1
0.251982838,-5.270514011,1,-2.320212126,1,-7.984050274,1,0.004020493,1,0.004886115,1,0.000410403,1,0.2988595068454742,1,-0.554586768,1,0.7330019474029541,1
0.255984396,-5.282612324,1,-2.343351364,1,-7.930995464,1,0.009279205,1,0.004891444,1,-0.000901206,1,0.2988787889480591,1,-0.554560184,1,0.7330116033554077,1
0.259981811,-5.25620985,1,-2.313068151,1,-7.969117165,1,0.004889268,1,0.00756513,1,-0.002161621,1,0.2989015281200409,1,-0.554541588,1,0.7330137491226196,1
0.263981044,-5.272068024,1,-2.310229301,1,-7.992272854,1,0.005143489,1,0.009944656,1,-0.001167546,1,0.2989239692687988,1,-0.554510534,1,0.7330142259597778,1
0.267982334,-5.281458378,1,-2.325178623,1,-7.936115742,1,0.00557223,1,0.008025995,1,-0.002422421,1,0.2989363074302673,1,-0.554481864,1,0.7330273985862732,1
0.271979511,-5.278200626,1,-2.32335043,1,-7.960621834,1,0.001907945,1,0.011451304,1,-0.000303765,1,0.29894489,1,-0.554444551,1,0.7330307960510254,1
0.275979012,-5.266791821,1,-2.313467503,1,-7.998456955,1,0.003735162,1,0.008664626,1,-0.000228736,1,0.2989525198936462,1,-0.554409802,1,0.7330414652824402,1
0.27998054,-5.266601086,1,-2.309843302,1,-7.956359386,1,0.003630957,1,0.00826384,1,-0.000520028,1,0.2989673018455505,1,-0.554370284,1,0.7330471277236938,1
0.283977985,-5.277142525,1,-2.305529833,1,-7.972589493,1,0.001948486,1,0.015524355,1,-0.004509045,1,0.2989763915538788,1,-0.554327428,1,0.73304975,1
0.287977487,-5.272930622,1,-2.309369087,1,-7.972147942,1,0.005103723,1,0.010939858,1,-0.004176275,1,0.2989840507507324,1,-0.554275572,1,0.7330585718154907,1
0.291978747,-5.248847485,1,-2.31257081,1,-7.957737446,1,-0.00070113,1,0.011470394,1,-0.001421296,1,0.2989978790283203,1,-0.554225683,1,0.7330564260482788,1
0.295975924,-5.303352833,1,-2.348715782,1,-7.953660011,1,-0.000645682,1,0.018258817,1,-0.002125455,1,0.2989997565746307,1,-0.554158807,1,0.7330601215362549,1
0.299975425,-5.273890972,1,-2.327986479,1,-7.953542709,1,-0.002722411,1,0.019482143,1,-0.005827581,1,0.2989994883537292,1,-0.554090381,1,0.7330707311630249,1
0.303976715,-5.290034771,1,-2.317043304,1,-7.953303337,1,-0.000425045,1,0.02242649,1,-0.002980818,1,0.2989849448204041,1,-0.554009318,1,0.7330837249755859,1
0.307974398,-5.296702862,1,-2.348644733,1,-7.932832241,1,-0.001430333,1,0.018233635,1,-0.004434844,1,0.2989716231822968,1,-0.553933263,1,0.7331050634384155,1
0.311973631,-5.275174618,1,-2.335839033,1,-7.948566914,1,-0.003989633,1,0.024177141,1,-0.003202821,1,0.2989548444747925,1,-0.553839803,1,0.7331175804138184,1
0.315974921,-5.248727322,1,-2.283360958,1,-7.952947617,1,-0.003400356,1,0.0236638,1,-0.004512802,1,0.2989329993724823,1,-0.553753197,1,0.7331364750862122,1
0.319972366,-5.277627468,1,-2.279565573,1,-7.967623711,1,0.001006945,1,0.029697433,1,-0.005273276,1,0.2989208698272705,1,-0.553653419,1,0.7331464290618896,1
0.32397157,-5.269235134,1,-2.280962467,1,-7.961473942,1,0.001014222,1,0.023424506,1,-0.004964316,1,0.2989102303981781,1,-0.553556919,1,0.7331661581993103,1
0.327972859,-5.280179977,1,-2.295016289,1,-7.931102753,1,0.007798705,1,0.023166094,1,-0.005141238,1,0.2989205121994019,1,-0.553462148,1,0.7331826090812683,1
0.331970304,-5.259036541,1,-2.27102375,1,-7.968924522,1,0.006630453,1,0.021323714,1,-0.002298537,1,0.298934281,1,-0.553361535,1,0.733201802,1
0.335969806,-5.215321064,1,-2.295854568,1,-7.919939041,1,0.009911398,1,0.023692138,1,-0.007724048,1,0.2989715933799744,1,-0.553268909,1,0.7332070469856262,1
0.339977205,-5.211501122,1,-2.322387218,1,-7.96955061,1,0.013930441,1,0.022840679,1,-0.007583203,1,0.2990139126777649,1,-0.553168714,1,0.7332079410552979,1
0.343980551,-5.183752537,1,-2.341879606,1,-7.98900032,1,0.00985634,1,0.024535671,1,-0.00767439,1,0.2990524172782898,1,-0.553077638,1,0.7332206964492798,1
0.347980022,-5.198335648,1,-2.334873915,1,-8.005268097,1,0.012169146,1,0.021552876,1,-0.002742531,1,0.2990871965885162,1,-0.552987695,1,0.7332277297973633,1
0.35198158,-5.217537403,1,-2.337766409,1,-7.986023426,1,0.009543819,1,0.018493943,1,-0.006233801,1,0.2991213500499725,1,-0.552908063,1,0.7332377433776855,1
0.355978996,-5.251393318,1,-2.329483747,1,-7.975982189,1,0.00839808,1,0.019195762,1,-0.004813211,1,0.299153745,1,-0.5528301,1,0.7332417964935303,1
0.359978229,-5.239118099,1,-2.310290337,1,-7.96242094,1,0.011020602,1,0.020294979,1,-0.004751455,1,0.2991881966590881,1,-0.552750051,1,0.7332445383071899,1
0.363979787,-5.288114071,1,-2.316543818,1,-7.979444981,1,0.008164207,1,0.019808728,1,-0.003945123,1,0.2992253005504608,1,-0.552672565,1,0.7332533597946167,1
0.367977202,-5.253383636,1,-2.278902054,1,-7.963050842,1,0.010618521,1,0.015555429,1,-0.001860207,1,0.2992611825466156,1,-0.552591741,1,0.7332625389099121,1
0.371976435,-5.244607925,1,-2.33152771,1,-7.992809296,1,0.017162232,1,0.019483253,1,-0.003781853,1,0.2993165850639343,1,-0.552513838,1,0.733264148,1
0.375977725,-5.260191917,1,-2.301524878,1,-7.982596397,1,0.014397332,1,0.012385459,1,-0.009254645,1,0.2993839979171753,1,-0.552441955,1,0.7332673072814941,1
0.37997517,-5.231886864,1,-2.333039761,1,-7.96526432,1,0.017123768,1,0.020411506,1,-0.006835243,1,0.2994505763053894,1,-0.552372038,1,0.7332623,1
0.383974403,-5.223015308,1,-2.280438185,1,-7.982366562,1,0.01428326,1,0.01309868,1,-0.006123202,1,0.2995283603668213,1,-0.55230546,1,0.7332528233528137,1
0.387975693,-5.24229002,1,-2.296640873,1,-7.977488995,1,0.016902123,1,0.016176496,1,-0.009705812,1,0.2996009290218353,1,-0.552231908,1,0.7332407236099243,1
0.391973108,-5.249727726,1,-2.29156661,1,-7.954213619,1,0.019824507,1,0.017471898,1,-0.004074953,1,0.299683541,1,-0.552159369,1,0.7332276105880737,1
0.39597261,-5.243420601,1,-2.294088125,1,-7.951119423,1,0.017702147,1,0.013720159,1,-0.01280391,1,0.2997657656669617,1,-0.552092969,1,0.7332160472869873,1
0.399973899,-5.18640089,1,-2.323166847,1,-7.9845047,1,0.019659389,1,0.017414546,1,-0.010085937,1,0.2998513579368591,1,-0.552025914,1,0.7331933379173279,1
0.403971314,-5.215470314,1,-2.323361397,1,-7.962363243,1,0.0197977,1,0.011366722,1,-0.006005237,1,0.2999456226825714,1,-0.551955223,1,0.7331843376159668,1
0.407970548,-5.220452309,1,-2.362613916,1,-7.981974125,1,0.017764263,1,0.012996057,1,-0.010435581,1,0.300032765,1,-0.551896572,1,0.7331671118736267,1
0.411971837,-5.196465969,1,-2.342206478,1,-7.990988731,1,0.018365903,1,0.013753621,1,-0.004684023,1,0.3001143932342529,1,-0.551832378,1,0.7331494688987732,1
0.415969282,-5.211232662,1,-2.298400164,1,-7.950695038,1,0.01825455,1,0.014336826,1,-0.009780962,1,0.3002009987831116,1,-0.551769435,1,0.7331295013427734,1
0.419968754,-5.242651939,1,-2.28074789,1,-7.985459328,1,0.015167125,1,0.013860325,1,-0.011459019,1,0.3002630472183228,1,-0.551710904,1,0.7331157922744751,1
0.423970044,-5.219707966,1,-2.297796011,1,-7.991877079,1,0.016203312,1,0.013447396,1,-0.009550622,1,0.3003377318382263,1,-0.551647663,1,0.733088493,1
0.427967489,-5.209534645,1,-2.322764635,1,-7.972143173,1,0.013756634,1,0.017843977,1,-0.009372277,1,0.3004008531570435,1,-0.551586628,1,0.7330661416053772,1
0.431966722,-5.221819401,1,-2.271980047,1,-7.994585514,1,0.014952252,1,0.015392459,1,-0.011891929,1,0.300475001,1,-0.551517308,1,0.7330353260040283,1
0.435968012,-5.255304337,1,-2.313598394,1,-8.019433022,1,0.01959746,1,0.008122198,1,-0.010863967,1,0.300555021,1,-0.551463127,1,0.7330040335655212,1
0.439965427,-5.230714798,1,-2.346384525,1,-8.013027191,1,0.011048421,1,0.014629886,1,-0.009449893,1,0.3006280362606049,1,-0.551401138,1,0.7329730987548828,1
0.44396466,-5.22010231,1,-2.362630129,1,-7.979552746,1,0.013919288,1,0.008761644,1,-0.011123622,1,0.3006914258003235,1,-0.551346183,1,0.7329490184783936,1
0.447966218,-5.241730213,1,-2.327097654,1,-7.962748051,1,0.014876148,1,0.009955721,1,-0.010380027,1,0.3007606565952301,1,-0.551291227,1,0.7329181432723999,1
0.451963633,-5.185623169,1,-2.37541008,1,-7.967867374,1,0.011630341,1,0.009696102,1,-0.007909551,1,0.3008291125297546,1,-0.551239491,1,0.7328901886940002,1
0.455963135,-5.171832085,1,-2.35934186,1,-7.980673313,1,0.011425929,1,0.006198023,1,-0.007403714,1,0.3008976578712463,1,-0.551194549,1,0.7328658103942871,1
0.459970564,-5.135782719,1,-2.378606081,1,-8.013894081,1,0.012747318,1,0.005180161,1,-0.003725164,1,0.3009562492370605,1,-0.551163912,1,0.7328432202339172,1
0.46397388,-5.155264378,1,-2.37021327,1,-7.997009754,1,0.009397962,1,0.003577002,1,-0.007629922,1,0.3010138273239136,1,-0.551140249,1,0.7328193187713623,1
0.467973381,-5.18772316,1,-2.377939701,1,-7.997302055,1,0.008960258,1,0.001884701,1,-0.008863918,1,0.3010559678077698,1,-0.551130295,1,0.7328017354011536,1
0.471974909,-5.187835217,1,-2.363422632,1,-7.996619225,1,0.007396704,1,-0.003161851,1,0.000407686,1,0.301093191,1,-0.551134944,1,0.7327843904495239,1
0.475972354,-5.188512802,1,-2.349910498,1,-7.983873367,1,0.000109533,1,-0.005017483,1,-0.001357116,1,0.3008421659469604,1,-0.55133605,1,0.733355701,1
0.479971826,-5.207901478,1,-2.368689299,1,-7.958479881,1,0.002671899,1,-0.001865226,1,-0.002861365,1,0.3009583353996277,1,-0.551303804,1,0.7326835989952087,1
0.483973116,-5.220535278,1,-2.345160484,1,-7.955105782,1,0.002730075,1,-0.003742839,1,0.002779985,1,0.3009783029556274,1,-0.551314414,1,0.7326700687408447,1
0.487970293,-5.229675293,1,-2.334798574,1,-7.999463558,1,0.003175007,1,-0.005799423,1,-0.005217162,1,0.3009943962097168,1,-0.551329494,1,0.7326646447181702,1
0.491969526,-5.24467659,1,-2.301999807,1,-7.974733353,1,0.003736372,1,-0.003576577,1,0.000744628,1,0.301004946,1,-0.551344931,1,0.7326535582542419,1
0.495970815,-5.236999989,1,-2.294789314,1,-7.968748569,1,0.004347771,1,-0.002874247,1,-0.003173029,1,0.3010298609733582,1,-0.551348329,1,0.732637346,1
0.499968261,-5.241085529,1,-2.287987947,1,-7.949845314,1,0.00760048,1,-0.00235969,1,-0.00349014,1,0.3010686933994293,1,-0.551364064,1,0.7326219081878662,1
0.503967762,-5.232665062,1,-2.318992853,1,-7.945266247,1,0.006051087,1,-0.003672538,1,-0.005013345,1,0.301096648,1,-0.551372707,1,0.7326030731201172,1
0.507969022,-5.21846962,1,-2.323070526,1,-7.941267014,1,0.007315196,1,-0.000201199,1,-0.004761305,1,0.3011363446712494,1,-0.55137974,1,0.7325792908668518,1
0.511966705,-5.235898972,1,-2.310065508,1,-7.971434593,1,0.005991799,1,-0.002475495,1,-0.000813595,1,0.3011713325977325,1,-0.55138284,1,0.7325584292411804,1
0.515965939,-5.23041296,1,-2.321370363,1,-7.969002724,1,0.005042045,1,-0.001186617,1,-0.000142219,1,0.3011979758739471,1,-0.551377892,1,0.73254925,1
0.519967496,-5.226691723,1,-2.353332281,1,-7.960066795,1,0.000422512,1,-0.001857247,1,-0.000806878,1,0.3012221455574036,1,-0.5513798,1,0.732541025,1
0.523964942,-5.243806839,1,-2.336606026,1,-7.929614544,1,0.005983821,1,0.00059917,1,0.001958722,1,0.3012385368347168,1,-0.551382542,1,0.7325345277786255,1
0.527964175,-5.220333099,1,-2.328316927,1,-7.961853027,1,0.000748407,1,0.001632631,1,-0.003174786,1,0.3012617230415344,1,-0.551374376,1,0.7325239181518555,1
0.531965971,-5.24260664,1,-2.351978064,1,-7.952833176,1,-0.000382077,1,0.00075166,1,-0.001079113,1,0.3012651205062866,1,-0.551372826,1,0.7325224280357361,1
0.535963655,-5.219749451,1,-2.359207392,1,-7.97570467,1,-0.001899772,1,0.003658382,1,-0.001417759,1,0.3012653589248657,1,-0.551364064,1,0.7325208187103271,1
0.539962888,-5.226298332,1,-2.344881773,1,-7.9298172,1,-0.000871413,1,0.002991415,1,-0.001685073,1,0.3012534976005554,1,-0.551349878,1,0.7325231432914734,1
0.543964446,-5.24567461,1,-2.313386202,1,-7.990912914,1,0.003495638,1,0.003108887,1,-0.006259288,1,0.3012541532516479,1,-0.551334262,1,0.732516885,1
0.547961831,-5.234352112,1,-2.261319876,1,-7.977186203,1,0.000257521,1,-0.000429767,1,-0.002150032,1,0.3012658953666687,1,-0.551321745,1,0.7324962019920349,1
0.551961362,-5.26127243,1,-2.274740219,1,-7.989711761,1,0.005169567,1,0.001355143,1,-0.004691109,1,0.3012793660163879,1,-0.551304042,1,0.7324819564819336,1
0.555962622,-5.24441576,1,-2.301658392,1,-7.965870857,1,0.006054656,1,0.00382637,1,-0.001898156,1,0.3013051748275757,1,-0.551282406,1,0.7324714660644531,1
0.559960067,-5.227156639,1,-2.346175194,1,-8.01861763,1,0.011033188,1,0.003810424,1,-0.000615555,1,0.3013578057289124,1,-0.551268756,1,0.7324579358100891,1
0.563959539,-5.260404587,1,-2.398396015,1,-7.983929157,1,0.01579117,1,-0.00435725,1,0.002069063,1,0.3014128804206848,1,-0.551259577,1,0.7324628829956055,1
0.567960858,-5.245447636,1,-2.377820015,1,-7.9815979,1,0.016871598,1,-0.000580618,1,0.002854964,1,0.3014705777168274,1,-0.551263511,1,0.7324695587158203,1
0.571958005,-5.244568348,1,-2.378930807,1,-7.989644527,1,0.016197158,1,-0.004162313,1,0.004400169,1,0.3015366196632385,1,-0.551270604,1,0.732471228,1
0.575957239,-5.231688023,1,-2.366025209,1,-7.980537415,1,0.017145678,1,-0.001037743,1,-0.001694114,1,0.3015972673892975,1,-0.551285028,1,0.7324756979942322,1
0.579958498,-5.221450329,1,-2.353087187,1,-7.975693226,1,0.013961465,1,-0.004498303,1,0.000708357,1,0.3016641736030579,1,-0.551290929,1,0.7324770092964172,1
0.583962083,-5.237555981,1,-2.369081974,1,-7.976406574,1,0.017216103,1,-0.002879449,1,0.001597257,1,0.3017240166664124,1,-0.551302731,1,0.732473612,1
0.587961614,-5.210206509,1,-2.364549875,1,-7.984457016,1,0.0135234,1,-0.003962919,1,0.00270675,1,0.3017747104167938,1,-0.551316917,1,0.7324789762496948,1
0.591962874,-5.207016468,1,-2.334780216,1,-7.978213787,1,0.008344423,1,-0.000577154,1,0.002291306,1,0.3018167614936829,1,-0.551325023,1,0.7324846386909485,1
0.595960557,-5.236175537,1,-2.351534367,1,-7.970655918,1,0.008294193,1,-0.003893126,1,0.002599433,1,0.3018491864204407,1,-0.551337302,1,0.7324916124343872,1
0.599959791,-5.217570782,1,-2.331866264,1,-7.980960846,1,0.010960609,1,-0.002907588,1,0.00700789,1,0.3018748760223389,1,-0.551358163,1,0.7325101494789124,1
0.60396111,-5.237579823,1,-2.328159571,1,-7.98343277,1,0.008654379,1,-0.003406548,1,0.000542257,1,0.3018961548805237,1,-0.551376939,1,0.7325236797332764,1
0.607958555,-5.172870636,1,-2.36546731,1,-7.977905273,1,0.003588997,1,-0.003707933,1,0.003603603,1,0.3019239902496338,1,-0.551401973,1,0.7325278520584106,1
0.611957788,-5.183805466,1,-2.374495506,1,-7.999849319,1,0.000104318,1,-0.001827857,1,0.000611766,1,0.3019466400146484,1,-0.551421463,1,0.732533336,1
0.615959287,-5.201904297,1,-2.353577852,1,-8.006829262,1,0.00396664,1,-0.009529344,1,0.004139179,1,0.3019647002220154,1,-0.551448882,1,0.7325316071510315,1
0.619956732,-5.205358982,1,-2.326868296,1,-7.996263504,1,0.00470747,1,-0.013059858,1,0.001964981,1,0.3019835948944092,1,-0.551493645,1,0.732536793,1
0.623955965,-5.23093462,1,-2.350014925,1,-7.972186089,1,0.002095472,1,-0.010771294,1,0.004500653,1,0.3019949197769165,1,-0.551538944,1,0.7325315475463867,1
0.627957523,-5.221237183,1,-2.328485489,1,-7.966094971,1,0.004485781,1,-0.010949085,1,0.005328255,1,0.3020040392875671,1,-0.551579535,1,0.7325354814529419,1
0.631954968,-5.239215851,1,-2.301105261,1,-7.964990616,1,0.001386094,1,-0.011506403,1,0.002186316,1,0.3020167648792267,1,-0.551626384,1,0.7325270771980286,1
0.635954201,-5.248458385,1,-2.318484545,1,-8.001045227,1,0.001474181,1,-0.013913965,1,0.00345494,1,0.3020250499248505,1,-0.551677585,1,0.7325263619422913,1
0.639955699,-5.247868538,1,-2.323568106,1,-7.977108955,1,0.002225656,1,-0.009352571,1,0.001960876,1,0.3020317554473877,1,-0.551722467,1,0.7325246334075928,1
0.643953145,-5.24238205,1,-2.297435522,1,-7.971254826,1,0.003881961,1,-0.013714148,1,0.004484981,1,0.3020497560501099,1,-0.551773906,1,0.7325268387794495,1
0.647952616,-5.252668858,1,-2.331617117,1,-7.968964577,1,0.00389827,1,-0.014259318,1,0.002663027,1,0.3020623922348022,1,-0.551817536,1,0.7325261235237122,1
0.651953936,-5.233565331,1,-2.351061344,1,-7.991151333,1,-0.000350659,1,-0.013262745,1,0.003541995,1,0.3020753264427185,1,-0.551870883,1,0.7325224876403809,1
0.655951381,-5.191596031,1,-2.356448889,1,-7.932819843,1,0.001979366,1,-0.011499287,1,0.003074785,1,0.3020833134651184,1,-0.551926315,1,0.732515275,1
0.659950614,-5.218206882,1,-2.377136946,1,-7.983633041,1,-0.001646216,1,-0.014201002,1,0.003486227,1,0.302083284,1,-0.551983595,1,0.7325131297111511,1
0.663951874,-5.228815079,1,-2.38834691,1,-7.989073753,1,-0.003156762,1,-0.013157107,1,0.005905244,1,0.3020811080932617,1,-0.552034795,1,0.732513964,1
0.66794908,-5.24697113,1,-2.332744837,1,-7.936078548,1,-0.002768286,1,-0.017459482,1,0.009135511,1,0.3020665049552917,1,-0.552099466,1,0.7325220704078674,1
0.671948552,-5.218196392,1,-2.360925198,1,-7.977101803,1,-0.005656328,1,-0.011110811,1,0.000810142,1,0.3020527064800262,1,-0.55215627,1,0.7325236201286316,1
0.675949812,-5.224824905,1,-2.350567102,1,-7.981363297,1,-0.006451891,1,-0.013152242,1,0.004873237,1,0.3020316958427429,1,-0.552202523,1,0.7325221300125122,1
0.679947495,-5.214345455,1,-2.324014425,1,-7.946650982,1,-0.004378808,1,-0.012600763,1,0.005372373,1,0.3020096123218536,1,-0.552255154,1,0.7325299978256226,1
0.683946729,-5.23972702,1,-2.343351364,1,-7.961601734,1,-0.003628078,1,-0.013149995,1,0.003020514,1,0.3019830584526062,1,-0.552303493,1,0.7325384616851807,1
0.687948048,-5.221586227,1,-2.282392263,1,-7.975110531,1,-0.000666041,1,-0.014084784,1,0.002248307,1,0.3019737303256989,1,-0.552361906,1,0.732529342,1
0.691945493,-5.207472324,1,-2.278045177,1,-7.975092888,1,-0.000498173,1,-0.01336994,1,0.002365408,1,0.3019674718379974,1,-0.552420437,1,0.7325159311294556,1
0.695944726,-5.243989944,1,-2.301901102,1,-7.995859146,1,-0.001383066,1,-0.01644812,1,0.0007651,1,0.3019666075706482,1,-0.552473366,1,0.7325085401535034,1
0.699945986,-5.232488632,1,-2.34817028,1,-7.997364521,1,-0.005415948,1,-0.013292652,1,0.002081493,1,0.3019615411758423,1,-0.552535653,1,0.7324914932250977,1
0.703949332,-5.263091087,1,-2.329484463,1,-8.008153915,1,-0.002139703,1,-0.019573521,1,0.000117709,1,0.3019516468048096,1,-0.552599967,1,0.7324805855751038,1
0.707948565,-5.234226227,1,-2.352423429,1,-7.985935211,1,-0.002329256,1,-0.018173052,1,0.003388035,1,0.3019508719444275,1,-0.552671611,1,0.7324610352516174,1
0.711950064,-5.221003056,1,-2.363109589,1,-7.957423687,1,-0.006375163,1,-0.01491807,1,0.002797961,1,0.3019392490386963,1,-0.552736521,1,0.7324498891830444,1
0.715947509,-5.196183681,1,-2.372368097,1,-7.956523895,1,-0.006664477,1,-0.01598396,1,0.00531766,1,0.3019201159477234,1,-0.552806079,1,0.7324402928352356,1
0.719946742,-5.203866959,1,-2.403161049,1,-7.945526123,1,-0.006915279,1,-0.020229373,1,0.007858328,1,0.301896334,1,-0.552889347,1,0.7324294447898865,1
0.7239483,-5.21191597,1,-2.42104125,1,-7.957209587,1,-0.010226748,1,-0.019992931,1,0.005141453,1,0.3018575310707092,1,-0.552971959,1,0.7324281930923462,1
0.727945745,-5.239578247,1,-2.391923189,1,-7.99367094,1,-0.011322886,1,-0.027092094,1,0.009054281,1,0.3016225695610046,1,-0.553195834,1,0.7323659658432007,1
0.731944978,-5.208514214,1,-2.358404875,1,-7.951586246,1,-0.014818777,1,-0.015591541,1,0.011344114,1,0.3015620112419128,1,-0.553282022,1,0.7323824167251587,1
0.735946476,-5.280067921,1,-2.316397667,1,-7.975505352,1,-0.01193716,1,-0.022371987,1,0.009796787,1,0.3014973402023315,1,-0.553370655,1,0.7323935031890869,1
0.739943922,-5.28630352,1,-2.332034588,1,-7.978094578,1,-0.013013712,1,-0.021034814,1,0.009248082,1,0.3014289140701294,1,-0.553459585,1,0.7324119210243225,1
0.743943453,-5.256803989,1,-2.336583138,1,-7.965226173,1,-0.016340217,1,-0.020343143,1,0.012323534,1,0.3013634085655212,1,-0.553550541,1,0.732432485,1
0.747944951,-5.233799458,1,-2.305309534,1,-7.96795702,1,-0.015273785,1,-0.020137561,1,0.011353239,1,0.3012996912002563,1,-0.553641558,1,0.7324509024620056,1
0.751942396,-5.258500576,1,-2.320870161,1,-7.974224567,1,-0.01183602,1,-0.016774468,1,0.007443542,1,0.3012318909168243,1,-0.553731203,1,0.7324734926223755,1
0.755941868,-5.285384655,1,-2.293218374,1,-7.944050789,1,-0.011351058,1,-0.01771275,1,0.009877842,1,0.301176131,1,-0.553816259,1,0.7324888110160828,1
0.759943426,-5.260611057,1,-2.296199799,1,-7.937279224,1,-0.009846824,1,-0.020158758,1,0.007602363,1,0.301123321,1,-0.553899348,1,0.7325046062469482,1
0.763940871,-5.265402317,1,-2.277167559,1,-7.998641014,1,-0.008487919,1,-0.020145195,1,0.006277209,1,0.3010847568511963,1,-0.553984225,1,0.7325064539909363,1
0.767940104,-5.255293846,1,-2.272345781,1,-7.934056759,1,-0.011168662,1,-0.017925441,1,0.001359965,1,0.3010572791099548,1,-0.554068565,1,0.732501209,1
0.771941364,-5.262036324,1,-2.289544344,1,-7.929008961,1,-0.005648859,1,-0.020015361,1,0.009393485,1,0.3010300695896149,1,-0.554153025,1,0.7324947118759155,1
0.775938809,-5.273954391,1,-2.328068256,1,-7.97629118,1,-0.007595115,1,-0.017778479,1,0.007894918,1,0.3010076284408569,1,-0.55423969,1,0.7325012683868408,1
0.779938042,-5.254332542,1,-2.318367958,1,-7.981398582,1,-0.003634266,1,-0.016371764,1,0.005767887,1,0.3009824752807617,1,-0.554315329,1,0.7325049638748169,1
0.783939302,-5.24397707,1,-2.333994627,1,-7.956979275,1,-0.003307528,1,-0.016168732,1,0.006347542,1,0.3009611666202545,1,-0.554389894,1,0.732514501,1
0.787937045,-5.250195026,1,-2.360809326,1,-7.979156971,1,-0.005966989,1,-0.016563205,1,0.007310935,1,0.3009432554244995,1,-0.554464042,1,0.7325218319892883,1
0.791936278,-5.235289574,1,-2.33580184,1,-7.944589138,1,-0.006261453,1,-0.016914072,1,0.009303339,1,0.3009079694747925,1,-0.55454129,1,0.7325363159179688,1
0.795937538,-5.233692169,1,-2.324282408,1,-7.956785679,1,-0.001940491,1,-0.015134068,1,0.009242922,1,0.3008852899074554,1,-0.554611266,1,0.7325472235679626,1
0.799934983,-5.252702236,1,-2.325397968,1,-7.950012207,1,-0.007390363,1,-0.015877996,1,0.006845068,1,0.3008560836315155,1,-0.554684043,1,0.7325667142868042,1
0.803934216,-5.271672726,1,-2.309341908,1,-7.938512325,1,-0.004436937,1,-0.015021564,1,0.007793551,1,0.300824761,1,-0.554752469,1,0.7325860261917114,1
0.807935715,-5.24417305,1,-2.280288219,1,-7.919248581,1,-0.001753363,1,-0.012486855,1,0.009862123,1,0.3007989525794983,1,-0.554820716,1,0.7326035499572754,1
0.81193316,-5.292390823,1,-2.326072216,1,-7.941104889,1,-0.004994417,1,-0.01704091,1,0.008840729,1,0.3007770776748657,1,-0.554885626,1,0.7326245307922363,1
0.815932691,-5.270014286,1,-2.364476204,1,-7.957710743,1,-0.002836151,1,-0.011493088,1,0.007137315,1,0.3007566332817078,1,-0.554944932,1,0.7326423525810242,1
0.819934189,-5.287558556,1,-2.287698746,1,-7.938009262,1,-0.001856439,1,-0.010994046,1,0.005149012,1,0.3007401525974274,1,-0.555001318,1,0.7326498031616211,1
0.823937535,-5.267051697,1,-2.281135082,1,-7.965873718,1,-0.001559775,1,-0.012622848,1,0.0070671,1,0.300736278,1,-0.555059373,1,0.732661247,1
0.827936769,-5.281945705,1,-2.306967735,1,-7.947900772,1,-0.002697417,1,-0.014611682,1,0.004764094,1,0.3007245063781738,1,-0.555115104,1,0.7326759099960327,1
0.831938028,-5.284706116,1,-2.324771643,1,-7.938173294,1,0.000307863,1,-0.013139486,1,0.007025366,1,0.3007233440876007,1,-0.555173278,1,0.7326833009719849,1
0.835935473,-5.24711132,1,-2.302284479,1,-7.952827454,1,0.002177315,1,-0.010975402,1,0.004874749,1,0.3007232546806335,1,-0.55522728,1,0.7326911091804504,1
0.839935005,-5.26193285,1,-2.318431616,1,-7.962583065,1,0.001729063,1,-0.010223839,1,0.004102323,1,0.300719142,1,-0.55528146,1,0.7326979637145996,1
0.843936503,-5.273399353,1,-2.342000246,1,-7.9807868,1,0.004329526,1,-0.012884885,1,0.004424864,1,0.3007235825061798,1,-0.555340946,1,0.7327050566673279,1
0.847934186,-5.276587486,1,-2.343670368,1,-7.947624207,1,0.000218641,1,-0.011296806,1,0.007238709,1,0.3007363677024841,1,-0.555398107,1,0.7326981425285339,1
0.851933718,-5.247040749,1,-2.368802786,1,-7.987412453,1,0.003759076,1,-0.013660355,1,0.00530882,1,0.3007436394691467,1,-0.555455863,1,0.7327070236206055,1
0.855934978,-5.265617847,1,-2.32471323,1,-7.964078903,1,0.003594874,1,-0.019525357,1,0.003712224,1,0.3007596135139465,1,-0.555521607,1,0.7327060699462891,1
0.859932423,-5.257642746,1,-2.340863466,1,-7.98941946,1,0.003553773,1,-0.015696621,1,0.006756367,1,0.3007690012454987,1,-0.555587947,1,0.7327091693878174,1
0.863931656,-5.266340733,1,-2.34433341,1,-7.97627449,1,0.004504232,1,-0.017235072,1,0.010696147,1,0.3007805347442627,1,-0.555662751,1,0.7327138781547546,1
0.867933214,-5.236252785,1,-2.358293056,1,-7.995254993,1,-0.001134239,1,-0.019409718,1,0.00520389,1,0.300775409,1,-0.555732667,1,0.7327280044555664,1
0.871930897,-5.237336159,1,-2.33411479,1,-7.976215839,1,3.705175186041743e-05,1,-0.018779371,1,0.004259712,1,0.3007705211639404,1,-0.555806279,1,0.7327325344085693,1
0.875930369,-5.237461567,1,-2.33301115,1,-7.966950893,1,0.001562608,1,-0.019158229,1,0.009740394,1,0.300762266,1,-0.555883288,1,0.7327476143836975,1
0.879931629,-5.247364044,1,-2.312340736,1,-7.966777802,1,0.001966982,1,-0.019346491,1,0.009141663,1,0.3007661402225494,1,-0.555972397,1,0.7327525019645691,1
0.883929074,-5.268373489,1,-2.316139698,1,-7.956621647,1,0.001639819,1,-0.016894253,1,0.006962844,1,0.3007668852806091,1,-0.556048989,1,0.7327616214752197,1
0.887928307,-5.274542332,1,-2.336139917,1,-7.965875626,1,-0.00154842,1,-0.021955557,1,0.005517138,1,0.3007662892341614,1,-0.556134224,1,0.7327619791030884,1
0.891929865,-5.293395996,1,-2.32385993,1,-7.964058399,1,0.004756495,1,-0.016273702,1,0.007023146,1,0.3007628321647644,1,-0.556218207,1,0.7327677607536316,1
0.89592731,-5.307892799,1,-2.317144632,1,-7.959392548,1,0.003505775,1,-0.022229265,1,0.005644163,1,0.300775409,1,-0.556295335,1,0.7327626943588257,1
0.899926543,-5.265785217,1,-2.309578896,1,-7.932191372,1,-0.001379804,1,-0.023716941,1,0.006834985,1,0.3007790446281433,1,-0.556387782,1,0.7327659130096436,1
0.903928041,-5.291959286,1,-2.318368196,1,-7.954344749,1,0.002448485,1,-0.021388603,1,0.002630348,1,0.30078125,1,-0.556470215,1,0.7327625155448914,1
0.907925487,-5.245099068,1,-2.30499053,1,-7.946574688,1,0.001590245,1,-0.021199429,1,0.005201389,1,0.300799161,1,-0.556551814,1,0.732746422,1
0.91192472,-5.266859055,1,-2.319651365,1,-7.942528248,1,0.001455666,1,-0.021631692,1,0.006439019,1,0.3008041381835938,1,-0.556640208,1,0.7327387928962708,1
0.915926039,-5.288214684,1,-2.303417683,1,-7.926228046,1,0.002755205,1,-0.020689065,1,0.005763475,1,0.3008125722408295,1,-0.556723833,1,0.7327382564544678,1
0.919923484,-5.28416729,1,-2.31881237,1,-7.946186543,1,0.006198165,1,-0.021531245,1,0.006102431,1,0.3008269071578979,1,-0.556811988,1,0.7327297925949097,1
0.923922956,-5.29510355,1,-2.298989058,1,-7.928113937,1,0.004077033,1,-0.01828324,1,0.005963191,1,0.3008453845977783,1,-0.556897044,1,0.7327212691307068,1
0.927924752,-5.272278309,1,-2.306989193,1,-7.949378967,1,0.003954813,1,-0.022123802,1,0.004359785,1,0.3008640706539154,1,-0.556980908,1,0.7327150106430054,1
0.931922436,-5.264826775,1,-2.310471058,1,-7.945671082,1,0.002258932,1,-0.021879885,1,0.009922525,1,0.3008722960948944,1,-0.55707252,1,0.7327143549919128,1
0.935921907,-5.234712124,1,-2.37603569,1,-7.96231699,1,0.001720114,1,-0.023225632,1,0.006117943,1,0.3008752465248108,1,-0.557164371,1,0.7327207922935486,1
0.939923227,-5.265501022,1,-2.340373039,1,-7.965973377,1,0.000995471,1,-0.025171008,1,0.009161884,1,0.3008808493614197,1,-0.557260513,1,0.7327203154563904,1
0.943926275,-5.286266327,1,-2.342760801,1,-7.93144989,1,0.002256396,1,-0.021229841,1,0.009017637,1,0.300876796,1,-0.557360291,1,0.7327308654785156,1
0.947925746,-5.275880814,1,-2.358062029,1,-7.936015129,1,0.001483303,1,-0.023900772,1,0.010370614,1,0.3008695840835571,1,-0.557453752,1,0.7327513694763184,1
0.951927304,-5.304474831,1,-2.338402033,1,-7.951607704,1,0.001182462,1,-0.024797676,1,0.010607239,1,0.3008674383163452,1,-0.557551861,1,0.7327649593353271,1
0.955924988,-5.281574249,1,-2.268197536,1,-7.943258286,1,7.931060827104375e-05,1,-0.022474635,1,0.008779163,1,0.300872803,1,-0.557652473,1,0.7327709794044495,1
0.959924459,-5.289823055,1,-2.236696005,1,-7.932332993,1,0.002507686,1,-0.020247636,1,0.005521771,1,0.3008770346641541,1,-0.557746887,1,0.7327694296836853,1
0.963925779,-5.269201756,1,-2.277706385,1,-7.921999931,1,0.004217539,1,-0.026286967,1,0.009896724,1,0.3008861541748047,1,-0.557849467,1,0.7327741384506226,1
0.967923224,-5.290960312,1,-2.270690203,1,-7.935551643,1,0.003774426,1,-0.02379615,1,0.004546709,1,0.3009023070335388,1,-0.557947934,1,0.732771635,1
0.971922457,-5.278765202,1,-2.30478549,1,-7.926306248,1,0.007406382,1,-0.023856722,1,0.004980728,1,0.3009329438209534,1,-0.558042884,1,0.7327520847320557,1
0.975923717,-5.276266098,1,-2.315030336,1,-7.943841457,1,0.00588891,1,-0.024300082,1,0.002648524,1,0.3006757199764252,1,-0.558331311,1,0.7333503365516663,1
0.979921162,-5.27724123,1,-2.321005106,1,-7.932211876,1,0.006809545,1,-0.023637656,1,0.002761044,1,0.3007954061031342,1,-0.558385193,1,0.7326746582984924,1
0.983920634,-5.302051067,1,-2.36030364,1,-7.928340435,1,0.00708868,1,-0.021233445,1,0.007193628,1,0.3008194863796234,1,-0.55848074,1,0.7326714992523193,1
0.987922192,-5.281733513,1,-2.379227161,1,-7.900381088,1,0.002782252,1,-0.021985024,1,0.006241011,1,0.300838828,1,-0.558570981,1,0.7326747179031372,1
0.991919637,-5.322596073,1,-2.362872124,1,-7.895830631,1,0.00549243,1,-0.017644469,1,0.007657865,1,0.3008501827716827,1,-0.558663428,1,0.7326765060424805,1
0.99591887,-5.295916557,1,-2.366248369,1,-7.887624741,1,-0.000662855,1,-0.0180845,1,0.00774357,1,0.3008441925048828,1,-0.558746159,1,0.7326911091804504,1
0.999920368,-5.318084717,1,-2.340870619,1,-7.904706955,1,-0.00084451,1,-0.016517492,1,0.009217666,1,0.3008314967155457,1,-0.558828413,1,0.7327139377593994,1
1.003917813,-5.322614193,1,-2.326900721,1,-7.90569973,1,-0.001832436,1,-0.0114883,1,0.012732684,1,0.3008119463920593,1,-0.558901608,1,0.7327355742454529,1
1.007917047,-5.352400303,1,-2.315576792,1,-7.895584583,1,-0.002773329,1,-0.012057689,1,0.007824387,1,0.3007859885692596,1,-0.558959901,1,0.7327685356140137,1
1.011918545,-5.302913666,1,-2.309800148,1,-7.899494648,1,-0.002445339,1,-0.012212837,1,0.008955529,1,0.3007629811763763,1,-0.559011102,1,0.7327949404716492,1
1.01591599,-5.324580669,1,-2.329767704,1,-7.904333591,1,-0.004903978,1,-0.009720095,1,0.007434116,1,0.3007317781448364,1,-0.559058964,1,0.7328275442123413,1
1.019915462,-5.326087952,1,-2.331720114,1,-7.894298553,1,-0.004309522,1,-0.007775275,1,0.007850287,1,0.300709069,1,-0.55910033,1,0.7328519225120544,1
1.023917079,-5.287351608,1,-2.331038237,1,-7.904224873,1,-0.003915317,1,-0.006489241,1,0.009945575,1,0.3006812632083893,1,-0.559139311,1,0.7328759431838989,1
1.027914524,-5.324449062,1,-2.301507235,1,-7.941618919,1,0.000117147,1,-0.006290616,1,0.005459372,1,0.3006501793861389,1,-0.559167862,1,0.732906163,1
1.031913996,-5.295667648,1,-2.2552526,1,-7.963717461,1,-0.001071365,1,-0.00819936,1,0.008257591,1,0.3006270229816437,1,-0.559209108,1,0.7329270243644714,1
1.035915494,-5.309108257,1,-2.277690649,1,-7.937655449,1,-0.0026985,1,-0.000454933,1,0.009151719,1,0.3006035685539246,1,-0.559240401,1,0.7329641580581665,1
1.039912939,-5.273087502,1,-2.290668726,1,-7.925749302,1,0.000942001,1,-0.005774122,1,0.007506641,1,0.300580233,1,-0.559271932,1,0.7329944372177124,1
1.043912411,-5.328816414,1,-2.268793583,1,-7.90506649,1,-0.000689619,1,-0.007216788,1,0.005072002,1,0.3005757033824921,1,-0.55929637,1,0.7330062985420227,1
1.047913671,-5.289337158,1,-2.295202255,1,-7.924991131,1,0.001466471,1,-0.002257451,1,0.005139385,1,0.3005608916282654,1,-0.55931437,1,0.7330260276794434,1
1.051911473,-5.313401699,1,-2.312523127,1,-7.922805309,1,0.004405518,1,-0.002158354,1,0.002377873,1,0.300563633,1,-0.559332669,1,0.7330390810966492,1
1.055910707,-5.300787449,1,-2.280950069,1,-7.940978527,1,0.000364242,1,-0.004907801,1,0.001900157,1,0.3005605340003967,1,-0.559350312,1,0.7330530285835266,1
1.059911966,-5.302289486,1,-2.284235954,1,-7.931756496,1,-0.000160135,1,8.571636863052845e-05,1,0.001757174,1,0.3005585074424744,1,-0.559362531,1,0.7330589294433594,1
1.063915491,-5.326704025,1,-2.283107758,1,-7.910751343,1,0.003393505,1,-0.001655344,1,0.004041791,1,0.3005633354187012,1,-0.5593732,1,0.7330545783042908,1
1.067914963,-5.341351509,1,-2.288903236,1,-7.927696705,1,0.005887371,1,0.000752049,1,0.000475635,1,0.3005708754062653,1,-0.559378028,1,0.733063281,1
1.071916342,-5.319097519,1,-2.294100761,1,-7.934662342,1,-0.002364006,1,-0.002176583,1,0.000534941,1,0.3005812168121338,1,-0.559390843,1,0.7330676317214966,1
1.075913787,-5.313835144,1,-2.303892374,1,-7.929207325,1,0.003634162,1,0.003502936,1,0.001308452,1,0.3005832433700562,1,-0.559388399,1,0.7330743074417114,1
1.079912901,-5.312399387,1,-2.357385397,1,-7.891429424,1,0.002675733,1,0.000391283,1,0.005118265,1,0.3005757927894592,1,-0.559395313,1,0.7330911159515381,1
1.083914518,-5.285237312,1,-2.337468624,1,-7.919933319,1,-0.002178224,1,0.003891629,1,0.001777827,1,0.3005696535110474,1,-0.55939579,1,0.7331086993217468,1
1.087911963,-5.344091892,1,-2.343187332,1,-7.92219162,1,0.001520022,1,0.002955023,1,9.914184920489788e-05,1,0.3005633950233459,1,-0.559390426,1,0.7331214547157288,1
1.091911197,-5.2836833,1,-2.301112652,1,-7.891325951,1,-0.002980453,1,0.003666261,1,0.003192329,1,0.3005526065826416,1,-0.559378743,1,0.7331398725509644,1
1.095912695,-5.2894454,1,-2.269558668,1,-7.933108807,1,0.000899053,1,0.003752504,1,-0.001471732,1,0.3005462288856506,1,-0.559364319,1,0.7331453561782837,1
1.09991014,-5.29840517,1,-2.30146575,1,-7.927770138,1,-0.00035074,1,0.003175691,1,0.001446513,1,0.3005349934101105,1,-0.559350729,1,0.7331575751304626,1
1.103909373,-5.333999157,1,-2.299024343,1,-7.933688164,1,7.428592653013766e-06,1,0.006698077,1,0.001163369,1,0.3005324602127075,1,-0.559331894,1,0.733164907,1
1.107910872,-5.309733868,1,-2.296388388,1,-7.942798138,1,0.0034679,1,0.005424508,1,-0.000785313,1,0.3005357384681702,1,-0.55931145,1,0.733176589,1
1.111908317,-5.299376965,1,-2.301083803,1,-7.926778316,1,0.002002017,1,0.008181907,1,-0.002144722,1,0.3005440831184387,1,-0.55929327,1,0.7331767678260803,1
1.115907788,-5.30877018,1,-2.310817719,1,-7.922327518,1,0.004158892,1,0.007650022,1,-0.002384605,1,0.3005548715591431,1,-0.559255183,1,0.7331801652908325,1
1.119909406,-5.287692547,1,-2.277629852,1,-7.924269676,1,0.001573056,1,0.008615417,1,-0.001766234,1,0.3005705773830414,1,-0.559224963,1,0.7331763505935669,1
1.123906851,-5.306932926,1,-2.324075699,1,-7.908281326,1,0.002717648,1,0.006290829,1,-0.003265285,1,0.3005790114402771,1,-0.559189856,1,0.7331779003143311,1
1.127906322,-5.267105103,1,-2.298442125,1,-7.902354717,1,0.004520473,1,0.009600932,1,-0.003922133,1,0.300588071,1,-0.55915612,1,0.7331815958023071,1
1.131907582,-5.316420555,1,-2.310390234,1,-7.926661015,1,0.005051088,1,0.009973063,1,-0.008529686,1,0.3006113171577454,1,-0.559110045,1,0.7331676483154297,1
1.135905027,-5.32930994,1,-2.287897348,1,-7.905982971,1,0.008682031,1,0.009348003,1,-0.006680504,1,0.3006519973278046,1,-0.559070706,1,0.7331430315971375,1
1.139904261,-5.269548893,1,-2.298348427,1,-7.920305729,1,0.004660364,1,0.010827305,1,-0.00384556,1,0.3006768226623535,1,-0.55902952,1,0.7331417202949524,1
1.14390552,-5.317746639,1,-2.327158689,1,-7.935829163,1,0.006627508,1,0.01246156,1,-0.002496251,1,0.300703764,1,-0.558985591,1,0.7331414818763733,1
1.147902966,-5.254779339,1,-2.319589376,1,-7.923837185,1,0.004647365,1,0.005771321,1,-0.002596764,1,0.3007276654243469,1,-0.558942139,1,0.7331380248069763,1
1.151902676,-5.269309044,1,-2.346000433,1,-7.944919586,1,0.005765005,1,0.007763568,1,-0.004684838,1,0.3007515072822571,1,-0.558908701,1,0.73314023,1
1.155904055,-5.323237896,1,-2.268501043,1,-7.930754185,1,0.006562587,1,0.009332498,1,-0.003982722,1,0.3007813096046448,1,-0.558872819,1,0.7331339716911316,1
1.159901381,-5.309838772,1,-2.260383129,1,-7.919453621,1,0.007382697,1,0.00923661,1,0.000166535,1,0.3008157014846802,1,-0.558838665,1,0.7331310510635376,1
1.163900614,-5.274353981,1,-2.290701628,1,-7.958581448,1,0.010177209,1,0.007836317,1,-0.005289484,1,0.3008474409580231,1,-0.55880636,1,0.7331298589706421,1
1.167902231,-5.276817799,1,-2.29398036,1,-7.94997406,1,0.010736625,1,0.00654973,1,-0.007602761,1,0.3009030818939209,1,-0.558767498,1,0.7331074476242065,1
1.171899676,-5.317690849,1,-2.279407263,1,-7.932144642,1,0.013334828,1,0.008792471,1,-0.005425925,1,0.3009541034698486,1,-0.558727801,1,0.7330911755561829,1
1.17589891,-5.256988525,1,-2.313634157,1,-7.928467751,1,0.010381433,1,0.011177374,1,-0.005419095,1,0.3010117411613464,1,-0.558687687,1,0.7330818772315979,1
1.179900408,-5.277459621,1,-2.317766666,1,-7.928978443,1,0.010527601,1,0.007793372,1,-0.00045384,1,0.301063061,1,-0.558655322,1,0.7330752611160278,1
1.183903694,-5.28924942,1,-2.349644661,1,-7.928307533,1,0.010016418,1,0.009042684,1,-0.002952486,1,0.3011025488376617,1,-0.558617055,1,0.7330782413482666,1
1.187902927,-5.322085381,1,-2.365880966,1,-7.946568012,1,0.013053648,1,0.006316833,1,-0.00140886,1,0.3011507987976074,1,-0.5585832,1,0.7330730557441711,1
1.191904545,-5.29571104,1,-2.362299681,1,-7.9542346,1,0.01058072,1,0.007847683,1,0.001853116,1,0.3011921048164368,1,-0.558552265,1,0.7330694198608398,1
1.19590199,-5.286765575,1,-2.359513044,1,-7.903967381,1,0.009535145,1,0.012368563,1,0.000817986,1,0.3012155592441559,1,-0.558510542,1,0.7330936789512634,1
1.199901462,-5.286636353,1,-2.377900124,1,-7.934666634,1,0.003174063,1,0.009936293,1,0.002485147,1,0.3012319803237915,1,-0.558470368,1,0.7331095933914185,1
1.20390296,-5.263598919,1,-2.39619565,1,-7.921156883,1,0.000847722,1,0.008402371,1,0.001688863,1,0.301229715,1,-0.558438361,1,0.7331361770629883,1
1.207900405,-5.281863213,1,-2.377680302,1,-7.903999329,1,-0.001675365,1,0.013189692,1,0.006970884,1,0.3012155592441559,1,-0.558402002,1,0.7331684827804565,1
1.211899877,-5.270390987,1,-2.372539997,1,-7.948501587,1,-0.000187599,1,0.007394553,1,0.00686716,1,0.301192582,1,-0.558371067,1,0.7332106828689575,1
1.215901494,-5.293567181,1,-2.386265755,1,-7.939436913,1,-0.002338705,1,0.01063446,1,0.004266224,1,0.3011597990989685,1,-0.558339,1,0.7332580089569092,1
1.219898939,-5.298707008,1,-2.383744955,1,-7.902655602,1,-0.0066911,1,0.011206754,1,0.008779546,1,0.3011217713356018,1,-0.558304667,1,0.7333016991615295,1
1.223898053,-5.271084785,1,-2.374480009,1,-7.941275597,1,-0.006247196,1,0.008673522,1,0.01007037,1,0.3010713458061218,1,-0.558274567,1,0.7333553433418274,1
1.227899432,-5.282182217,1,-2.34346509,1,-7.947500229,1,-0.003869436,1,0.00871144,1,0.007439509,1,0.3008449077606201,1,-0.55842346,1,0.7333118915557861,1
1.231897116,-5.27182436,1,-2.297879457,1,-7.936639309,1,-0.009125414,1,0.009697978,1,0.010199312,1,0.3007968068122864,1,-0.558393121,1,0.733355701,1
1.235896587,-5.282042503,1,-2.318755865,1,-7.95984602,1,-0.004585095,1,0.007224969,1,0.011816252,1,0.300737202,1,-0.558368325,1,0.7334119081497192,1
1.239897847,-5.279847145,1,-2.262171984,1,-7.96675539,1,-0.004681263,1,0.003390584,1,0.005467707,1,0.3006907105445862,1,-0.558352232,1,0.7334571480751038,1
1.243895531,-5.271644592,1,-2.262229443,1,-7.960198879,1,-0.001755229,1,0.006402547,1,0.006698062,1,0.3006590604782104,1,-0.558336377,1,0.7334908843040466,1
1.247894764,-5.286595345,1,-2.254968405,1,-7.950302601,1,-0.00069985,1,0.006980136,1,0.002869201,1,0.300628126,1,-0.558313847,1,0.733522356,1
1.251896024,-5.299470901,1,-2.28153801,1,-7.938949108,1,0.000404202,1,0.00614544,1,0.001292586,1,0.3006073832511902,1,-0.558287919,1,0.7335506081581116,1
1.255893469,-5.275150776,1,-2.280471325,1,-7.939007759,1,0.002044771,1,0.005797806,1,0.001850085,1,0.3005994558334351,1,-0.558265448,1,0.7335681915283203,1
1.259892941,-5.29176712,1,-2.280483961,1,-7.964404106,1,0.002383211,1,0.006937401,1,-0.00168797,1,0.3005997538566589,1,-0.558242977,1,0.733578622,1
1.263894558,-5.292946815,1,-2.284368277,1,-7.951153278,1,0.006335704,1,0.003156425,1,0.001025972,1,0.3006061613559723,1,-0.558225632,1,0.7335907220840454,1
1.267892003,-5.313416481,1,-2.250999451,1,-7.921663761,1,0.002111825,1,0.006769229,1,-0.004285046,1,0.3006141483783722,1,-0.558196425,1,0.7336002588272095,1
1.271891236,-5.329209805,1,-2.263777733,1,-7.915714264,1,0.006752426,1,0.005795082,1,4.884833469986916e-05,1,0.3006336092948914,1,-0.558177114,1,0.7335973978042603,1
1.275892735,-5.305736065,1,-2.293558121,1,-7.89743042,1,0.002286596,1,0.010102278,1,-0.003151183,1,0.3006539940834045,1,-0.55814445,1,0.7336093783378601,1
1.27989018,-5.326284885,1,-2.31297183,1,-7.939695835,1,0.008953055,1,0.005287481,1,-0.004182265,1,0.3006886839866638,1,-0.558107555,1,0.7335995435714722,1
1.283889413,-5.306518555,1,-2.294575453,1,-7.924021721,1,0.00683051,1,0.010085898,1,-0.003290263,1,0.3007180988788605,1,-0.558067143,1,0.7335988283157349,1
1.287890911,-5.311096191,1,-2.281577826,1,-7.922000885,1,0.007617974,1,0.00863059,1,-0.006380538,1,0.3007519841194153,1,-0.558019161,1,0.7335922718048096,1
1.291888595,-5.307496548,1,-2.294957876,1,-7.923232079,1,0.01030508,1,0.013486483,1,-0.00198853,1,0.3007831573486328,1,-0.557963431,1,0.7335938215255737,1
1.295888424,-5.293535709,1,-2.356444597,1,-7.901427746,1,0.007676347,1,0.011684349,1,-0.003541075,1,0.3008164167404175,1,-0.557911813,1,0.7336021065711975,1
1.299889684,-5.315148354,1,-2.339083433,1,-7.920557976,1,0.003512214,1,0.018124808,1,-0.001712918,1,0.3008326292037964,1,-0.557843804,1,0.7336191534996033,1
1.30389297,-5.295313835,1,-2.382703304,1,-7.923540115,1,0.003443724,1,0.02201695,1,-0.005765024,1,0.3008401095867157,1,-0.557769716,1,0.7336277365684509,1
1.307892442,-5.302446842,1,-2.372951269,1,-7.919762135,1,0.000407012,1,0.020374816,1,-0.001996125,1,0.3008424043655396,1,-0.557690501,1,0.7336505055427551,1
1.311894059,-5.316016674,1,-2.391933441,1,-7.937164783,1,0.003195306,1,0.018178852,1,-0.000582579,1,0.3008407950401306,1,-0.557622433,1,0.7336736917495728,1
1.315891504,-5.25361681,1,-2.328555107,1,-7.927898884,1,0.001961675,1,0.024056179,1,0.001429829,1,0.3008340895175934,1,-0.557547927,1,0.7337135076522827,1
1.319890976,-5.283857822,1,-2.335241556,1,-7.907619476,1,0.005529799,1,0.018326018,1,-0.002302953,1,0.3008262515068054,1,-0.557467282,1,0.733742356,1
1.323892236,-5.283015728,1,-2.3247931,1,-7.934930325,1,-0.001702142,1,0.022597611,1,0.002071186,1,0.300816149,1,-0.557384849,1,0.733771801,1
1.327889681,-5.308540821,1,-2.327267885,1,-7.959252834,1,3.574212314561009e-05,1,0.020800047,1,9.006191976368427e-05,1,0.3007916808128357,1,-0.557299256,1,0.7338093519210815,1
1.331888914,-5.296569824,1,-2.249700785,1,-7.965711594,1,0.002049035,1,0.023427639,1,-0.000947379,1,0.3007764220237732,1,-0.557213902,1,0.7338430881500244,1
1.335890174,-5.274483681,1,-2.279490709,1,-7.985293388,1,0.004087564,1,0.020386521,1,-0.002337218,1,0.3007671236991882,1,-0.55712527,1,0.7338730096817017,1
1.339887619,-5.276894093,1,-2.310786009,1,-7.952080727,1,-0.000510899,1,0.022371298,1,-0.000632259,1,0.3007537126541138,1,-0.557037711,1,0.7338990569114685,1
1.343887091,-5.291697979,1,-2.307667971,1,-7.913820267,1,0.004126948,1,0.023263182,1,0.000234215,1,0.3007450699806213,1,-0.556951702,1,0.7339273691177368,1
1.347888589,-5.245932579,1,-2.298971415,1,-7.966483593,1,0.00361377,1,0.021200057,1,0.001348291,1,0.3007441163063049,1,-0.556865752,1,0.7339515089988708,1
1.351886392,-5.25145483,1,-2.317872047,1,-7.966462135,1,0.004827442,1,0.020028647,1,-0.003135583,1,0.3007419109344482,1,-0.556788445,1,0.7339803576469421,1
1.355885863,-5.270390987,1,-2.324552774,1,-7.954079151,1,-0.002190636,1,0.019413779,1,0.001048001,1,0.3007370829582214,1,-0.55671376,1,0.7339984178543091,1
1.359887362,-5.261728287,1,-2.34905982,1,-7.950065136,1,0.005807775,1,0.019695187,1,-0.003422972,1,0.3007423579692841,1,-0.556637406,1,0.7340161204338074,1
1.363884807,-5.258983612,1,-2.271002293,1,-7.972551346,1,0.003003198,1,0.018093191,1,-0.005684212,1,0.300754726,1,-0.556556344,1,0.7340277433395386,1
1.36788404,-5.252024651,1,-2.25665617,1,-7.980430126,1,0.003704061,1,0.016433798,1,-0.00467401,1,0.3007690906524658,1,-0.556482017,1,0.7340295314788818,1
1.371886134,-5.269697189,1,-2.275256872,1,-7.994264126,1,0.009055033,1,0.020542499,1,-0.007530135,1,0.3008052706718445,1,-0.556400299,1,0.7340259552001953,1
1.375884295,-5.274057388,1,-2.254753113,1,-8.004076958,1,0.008762797,1,0.013554198,1,-0.007715093,1,0.3008482754230499,1,-0.556326568,1,0.7340078353881836,1
1.379883528,-5.264007092,1,-2.287320137,1,-7.952376842,1,0.010722465,1,0.013426845,1,-0.009283414,1,0.3009031116962433,1,-0.556252301,1,0.7339823246002197,1
1.383885026,-5.235492229,1,-2.300458431,1,-7.941785812,1,0.007134695,1,0.014905208,1,-0.0086649,1,0.3009600937366486,1,-0.556185126,1,0.7339577674865723,1
1.387882471,-5.278935432,1,-2.308398962,1,-7.970213413,1,0.014601143,1,0.012609556,1,-0.011736637,1,0.3010153770446777,1,-0.556118906,1,0.7339308261871338,1
1.391881943,-5.262705803,1,-2.313723564,1,-7.946867943,1,0.011650539,1,0.015672557,1,-0.009751644,1,0.3010827600955963,1,-0.556056976,1,0.7339078187942505,1
1.395883799,-5.266304016,1,-2.307967901,1,-7.949100494,1,0.010441367,1,0.012798454,1,-0.013169896,1,0.3011466264724731,1,-0.555989087,1,0.7338722348213196,1
1.399881482,-5.269220352,1,-2.320359468,1,-7.953033447,1,0.014840767,1,0.019702001,1,-0.014389748,1,0.301221102,1,-0.555918634,1,0.7338365316390991,1
1.403880954,-5.247293949,1,-2.324012995,1,-7.963217258,1,0.017218817,1,0.014760706,1,-0.009028116,1,0.3013024926185608,1,-0.5558514,1,0.7337993383407593,1
1.407882214,-5.294064999,1,-2.337738752,1,-7.937165737,1,0.012073967,1,0.018182591,1,-0.011572292,1,0.3013727068901062,1,-0.555773199,1,0.7337766885757446,1
1.411879659,-5.256046295,1,-2.330935478,1,-7.948075771,1,0.010588322,1,0.01409748,1,-0.010431894,1,0.3014377653598785,1,-0.555702984,1,0.7337504029273987,1
1.41587913,-5.256691456,1,-2.375067234,1,-7.949532509,1,0.01433287,1,0.017529532,1,-0.005980507,1,0.3014914393424988,1,-0.55562973,1,0.7337331771850586,1
1.41988039,-5.253781319,1,-2.366998672,1,-7.960521221,1,0.012141538,1,0.015797082,1,-0.006577632,1,0.301537812,1,-0.555562198,1,0.7337216138839722,1
1.423884034,-5.314231873,1,-2.370691299,1,-7.985336304,1,0.007414871,1,0.014677536,1,-0.006802591,1,0.3015868961811066,1,-0.555486977,1,0.7337059378623962,1
1.427883744,-5.268016815,1,-2.381997824,1,-7.970262051,1,0.005315924,1,0.015291442,1,-0.005142307,1,0.3016188740730286,1,-0.555428326,1,0.7337056398391724,1
1.431885004,-5.307168484,1,-2.416503429,1,-7.959721088,1,0.007655192,1,0.013192255,1,-0.002887594,1,0.3016408085823059,1,-0.555372715,1,0.7337151169776917,1
1.435882807,-5.30191803,1,-2.420381784,1,-7.910547256,1,-0.000219301,1,0.014412721,1,-4.62E-05,1,0.3016533851623535,1,-0.555303335,1,0.7337257862091064,1
1.43988204,-5.26499176,1,-2.443871975,1,-7.939353943,1,0.000724938,1,0.017709112,1,0.00242092,1,0.301640511,1,-0.555241287,1,0.7337523698806763,1
1.4438833,-5.289484024,1,-2.394402742,1,-7.958750725,1,-0.002656873,1,0.018480312,1,-0.000712799,1,0.3016188740730286,1,-0.55517447,1,0.7337911128997803,1
1.447880745,-5.293702126,1,-2.414467096,1,-7.915436745,1,-0.001740912,1,0.0161638,1,0.006991266,1,0.3015842735767365,1,-0.555115342,1,0.7338272333145142,1
1.451879978,-5.269021034,1,-2.385760784,1,-7.942112923,1,-0.009412696,1,0.018946167,1,0.002060608,1,0.3015333414077759,1,-0.555049658,1,0.7338791489601135,1
1.455881715,-5.292210102,1,-2.323022366,1,-7.979336739,1,-0.007649587,1,0.016835153,1,0.004291321,1,0.3014778792858124,1,-0.554980338,1,0.7339332103729248,1
1.459879398,-5.261885166,1,-2.294959545,1,-7.995875359,1,-0.009124092,1,0.020753102,1,0.005978387,1,0.3014252781867981,1,-0.55492276,1,0.7339815497398376,1
1.463878632,-5.256811142,1,-2.283452988,1,-8.008421898,1,-0.005351579,1,0.015864439,1,0.003472257,1,0.3013738095760345,1,-0.554857969,1,0.7340253591537476,1
1.467880249,-5.25190258,1,-2.315410614,1,-8.001683235,1,-0.002555197,1,0.014554888,1,0.005402014,1,0.3013295233249664,1,-0.554801106,1,0.7340729832649231,1
1.471877575,-5.261838913,1,-2.322336912,1,-7.984546661,1,-0.003254022,1,0.015946986,1,0.000641821,1,0.3012983202934265,1,-0.554741144,1,0.7341128587722778,1
1.475876808,-5.263106346,1,-2.347281694,1,-8.001409531,1,-0.005973064,1,0.017812252,1,0.00229185,1,0.3009765148162842,1,-0.554876089,1,0.734728217,1
1.479878426,-5.246576786,1,-2.361213923,1,-7.976091862,1,-0.005833534,1,0.012194725,1,0.004950329,1,0.3010283708572388,1,-0.554784298,1,0.7341192364692688,1
1.483875871,-5.232374668,1,-2.416392565,1,-7.995318413,1,-0.007909165,1,0.011167339,1,0.006044258,1,0.3009858727455139,1,-0.554743648,1,0.7341551780700684,1
1.487875342,-5.218435287,1,-2.392971992,1,-7.98815155,1,-0.007529999,1,0.01108737,1,0.005734202,1,0.3009375631809235,1,-0.554707348,1,0.7341936230659485,1
1.491876841,-5.257658482,1,-2.391207457,1,-8.010629654,1,-0.006751586,1,0.008811123,1,0.006075324,1,0.3008931577205658,1,-0.554672003,1,0.7342327833175659,1
1.495874286,-5.253237247,1,-2.336308718,1,-7.985107422,1,-0.009683018,1,0.010475388,1,0.007717948,1,0.3008404076099396,1,-0.554639041,1,0.7342653274536133,1
1.499873757,-5.269678116,1,-2.358455658,1,-7.937946796,1,-0.012038727,1,0.00994617,1,0.006152873,1,0.3007680177688599,1,-0.554613709,1,0.7343149185180664,1
1.503875017,-5.275230885,1,-2.390262127,1,-7.955307484,1,-0.013550638,1,0.009188379,1,0.008781656,1,0.3006985783576965,1,-0.554577053,1,0.7343644499778748,1
1.507872224,-5.269071102,1,-2.420987606,1,-7.927207947,1,-0.015537029,1,0.009695081,1,0.006360314,1,0.3006207346916199,1,-0.554552376,1,0.7344157695770264,1
1.511871696,-5.281103611,1,-2.409722567,1,-7.957712173,1,-0.01756593,1,0.013194466,1,0.009106855,1,0.3005285859107971,1,-0.554521084,1,0.7344638705253601,1
1.515873075,-5.263367176,1,-2.410671949,1,-7.970757484,1,-0.020857356,1,0.01430666,1,0.008858803,1,0.300428033,1,-0.554484129,1,0.7345107793807983,1
1.519870758,-5.276330948,1,-2.367421389,1,-7.975935459,1,-0.025755208,1,0.014988139,1,0.011751768,1,0.3003060817718506,1,-0.554439664,1,0.734577477,1
1.523869991,-5.302440643,1,-2.405556917,1,-7.975096226,1,-0.027792698,1,0.012041984,1,0.013962047,1,0.3001595735549927,1,-0.554406524,1,0.7346515655517578,1
1.527871251,-5.257221222,1,-2.402692556,1,-8.005856514,1,-0.031126631,1,0.012727642,1,0.010385008,1,0.3000110983848572,1,-0.554363847,1,0.7347181439399719,1
1.531868696,-5.280230999,1,-2.361383438,1,-7.957032681,1,-0.030335186,1,0.016294098,1,0.011767128,1,0.2998558282852173,1,-0.554317355,1,0.7347922921180725,1
1.535868168,-5.334629059,1,-2.34620142,1,-7.978041172,1,-0.031153895,1,0.01690734,1,0.014252277,1,0.2996914386749268,1,-0.554267049,1,0.7348707914352417,1
1.539869666,-5.336275578,1,-2.340316772,1,-7.968369484,1,-0.033782028,1,0.022196144,1,0.013283599,1,0.2995129525661469,1,-0.554207623,1,0.7349604964256287,1
1.543873072,-5.349080086,1,-2.354789495,1,-7.929370403,1,-0.037188467,1,0.021861391,1,0.008966391,1,0.299329937,1,-0.554144144,1,0.735034704,1
1.547872305,-5.333573341,1,-2.333525181,1,-7.951789379,1,-0.036727723,1,0.024522193,1,0.008056639,1,0.2991437017917633,1,-0.554074824,1,0.7351124286651611,1
1.551873803,-5.343008995,1,-2.36527133,1,-7.980678082,1,-0.041332126,1,0.024970297,1,0.006357265,1,0.2989362776279449,1,-0.553993821,1,0.7351970076560974,1
1.555871248,-5.305318356,1,-2.346684694,1,-7.977032661,1,-0.041940853,1,0.030167449,1,0.012979927,1,0.2987328469753265,1,-0.553905547,1,0.7352796792984009,1
1.559870481,-5.246510983,1,-2.383440971,1,-7.963528633,1,-0.043783985,1,0.024969097,1,0.013090482,1,0.2985107898712158,1,-0.553822637,1,0.7353749871253967,1
1.56387198,-5.246135235,1,-2.419990063,1,-7.992709637,1,-0.044412922,1,0.026860556,1,0.014454642,1,0.2982903718948364,1,-0.553725541,1,0.7354676723480225,1
1.567869425,-5.243794918,1,-2.420754194,1,-7.994695187,1,-0.049963292,1,0.023332916,1,0.016182696,1,0.2980533838272095,1,-0.553652942,1,0.7355643510818481,1
1.571868896,-5.244309902,1,-2.437128782,1,-8.006467819,1,-0.0485989,1,0.016013233,1,0.017753044,1,0.2978066205978394,1,-0.553596199,1,0.7356672286987305,1
1.575870514,-5.220693111,1,-2.383284807,1,-8.014904976,1,-0.054620735,1,0.018841323,1,0.014780296,1,0.2975389063358307,1,-0.553548515,1,0.7357728481292725,1
1.579867959,-5.284227371,1,-2.293917418,1,-8.079319954,1,-0.051143244,1,0.015693069,1,0.017829837,1,0.2972726225852966,1,-0.553502858,1,0.7358716726303101,1
1.583867431,-5.257327557,1,-2.148620605,1,-8.074331284,1,-0.053124238,1,0.012627021,1,0.01409653,1,0.2970163226127625,1,-0.553470433,1,0.7359645366668701,1
1.587868929,-5.263325691,1,-2.137482882,1,-8.081602097,1,-0.04615692,1,0.008305585,1,0.013468852,1,0.2967773377895355,1,-0.55345124,1,0.7360432147979736,1
1.591866374,-5.314660549,1,-2.063205957,1,-8.075065613,1,-0.042766515,1,0.007140724,1,0.007928892,1,0.2965583801269531,1,-0.553430021,1,0.7361146211624146,1
1.595866323,-5.304388046,1,-2.106002569,1,-8.043148994,1,-0.033146866,1,0.006403156,1,0.004742548,1,0.2963828146457672,1,-0.55341965,1,0.736153245,1
1.59986794,-5.342432499,1,-2.167984486,1,-8.041398048,1,-0.031744849,1,0.001735447,1,0.001630125,1,0.2962337732315063,1,-0.553408206,1,0.7361844778060913,1
1.603865623,-5.297237396,1,-2.140722752,1,-8.019080162,1,-0.030140692,1,-0.000562922,1,0.000976057,1,0.2961054444313049,1,-0.553405344,1,0.736201286,1
1.607864857,-5.257356167,1,-2.169792175,1,-8.04142952,1,-0.020131361,1,-0.002989602,1,-0.004793519,1,0.2960204482078552,1,-0.553398728,1,0.7361775040626526,1
1.611866117,-5.221349239,1,-2.162563562,1,-8.060013771,1,-0.024014492,1,-0.008095609,1,-0.008725951,1,0.295949787,1,-0.553408086,1,0.7361453771591187,1
1.6158638,-5.229526043,1,-2.243027925,1,-8.090760231,1,-0.017688192,1,-0.00891987,1,-0.005050193,1,0.2958855628967285,1,-0.5534271,1,0.7361101508140564,1
1.619863272,-5.240260601,1,-2.282120466,1,-8.099378586,1,-0.022378441,1,-0.009505511,1,-0.008996007,1,0.2958310842514038,1,-0.553452432,1,0.7360686063766479,1
1.623864889,-5.247537613,1,-2.413900614,1,-8.10784626,1,-0.018843001,1,-0.014663286,1,-0.008134831,1,0.2957843542098999,1,-0.553483725,1,0.7360100150108337,1
1.627862573,-5.201918602,1,-2.488133669,1,-8.079229355,1,-0.027920065,1,-0.021218119,1,-0.003203934,1,0.2957104444503784,1,-0.553537071,1,0.7359535694122314,1
1.631861806,-5.23446846,1,-2.494425535,1,-8.099445343,1,-0.034573536,1,-0.025327919,1,-0.001040759,1,0.2956121563911438,1,-0.553620219,1,0.7359108328819275,1
1.635863304,-5.231706619,1,-2.495306015,1,-8.117530823,1,-0.040353902,1,-0.032649893,1,-0.001625423,1,0.2954986989498138,1,-0.553727388,1,0.7358543872833252,1
1.639860749,-5.181669235,1,-2.476194859,1,-8.154172897,1,-0.041307542,1,-0.041878812,1,0.002561562,1,0.2953544557094574,1,-0.553874731,1,0.7358075976371765,1
1.643859982,-5.173618793,1,-2.536614656,1,-8.19082737,1,-0.052501187,1,-0.049638979,1,0.008297198,1,0.2951894402503967,1,-0.554052293,1,0.735764742,1
1.647861481,-5.145263672,1,-2.491141796,1,-8.170053482,1,-0.055263754,1,-0.057614978,1,0.012331406,1,0.2949848175048828,1,-0.554269433,1,0.7357383370399475,1
1.651859164,-5.119566441,1,-2.577847719,1,-8.197544098,1,-0.066419721,1,-0.071008094,1,0.015474105,1,0.294752836,1,-0.554531217,1,0.7357193231582642,1
1.655858397,-5.097702503,1,-2.599638462,1,-8.21145153,1,-0.072811529,1,-0.085134931,1,0.024085052,1,0.2944821715354919,1,-0.554858685,1,0.735705554,1
1.659860015,-5.101662636,1,-2.581732035,1,-8.317902565,1,-0.07910651,1,-0.105192453,1,0.028017148,1,0.2941800951957703,1,-0.555253029,1,0.7356909513473511,1
1.66385746,-5.031271935,1,-2.700323582,1,-8.422247887,1,-0.090795323,1,-0.125961289,1,0.039398238,1,0.2938411235809326,1,-0.55573535,1,0.7356905937194824,1
1.667863011,-4.860703945,1,-2.796353102,1,-8.559900284,1,-0.104950525,1,-0.17634654,1,0.060110964,1,0.2934330105781555,1,-0.556370139,1,0.7357208728790283,1
1.671864867,-4.88438797,1,-2.874367952,1,-8.651852608,1,-0.136017814,1,-0.227926448,1,0.076740071,1,0.2929395437240601,1,-0.557229221,1,0.7357470989227295,1
1.675862551,-5.216970921,1,-3.003485918,1,-8.470367432,1,-0.142809853,1,-0.265340775,1,0.092074864,1,0.2923483848571777,1,-0.558274746,1,0.7357907295227051,1
1.679862261,-5.31146574,1,-3.212082863,1,-8.255804062,1,-0.114846751,1,-0.276282251,1,0.115270771,1,0.2917770743370056,1,-0.559430003,1,0.7358817458152771,1
1.683863759,-5.235443592,1,-3.161617994,1,-8.435649872,1,-0.075175345,1,-0.28858465,1,0.1237735450267792,1,0.2913092970848083,1,-0.560649514,1,0.7360426187515259,1
1.687861204,-5.251786232,1,-2.786802769,1,-8.772841454,1,-0.01217723,1,-0.3200486,1,0.1301129758358002,1,0.2910326719284058,1,-0.561956108,1,0.7362171411514282,1
1.691860795,-5.139511585,1,-2.739750624,1,-8.777468681,1,0.017667124,1,-0.352621824,1,0.1284950375556946,1,0.2910024523735046,1,-0.563390791,1,0.7363389730453491,1
1.695862055,-5.069591999,1,-2.485915899,1,-8.80491066,1,0.045099922,1,-0.388322711,1,0.1169782355427742,1,0.2910990715026855,1,-0.56494832,1,0.7363806366920471,1
1.6998595,-5.699255943,1,-2.355145931,1,-8.659578323,1,0.046702482,1,-0.393970221,1,0.095808297,1,0.2913089990615845,1,-0.566584945,1,0.7363302707672119,1
1.703858972,-5.766819954,1,-2.512056589,1,-8.767057419,1,0.058961522,1,-0.385345399,1,0.071722083,1,0.2915911376476288,1,-0.568182409,1,0.736177921,1
1.70786047,-5.35340023,1,-2.765839577,1,-9.09201622,1,0.099680439,1,-0.389987737,1,0.07839904,1,0.2920060753822327,1,-0.569738567,1,0.735991359,1
1.711858153,-5.078250408,1,-3.002167702,1,-9.292189598,1,0.1112511157989502,1,-0.419996589,1,0.094387263,1,0.2925129532814026,1,-0.571384907,1,0.735815704,1
1.715857387,-5.2649436,1,-2.765468597,1,-9.596881866,1,0.1580756157636642,1,-0.456123948,1,0.1028741747140884,1,0.293129563,1,-0.57318753,1,0.7356617450714111,1
1.719858646,-5.331271648,1,-2.557006598,1,-10.0749836,1,0.2109914720058441,1,-0.503063202,1,0.1071116104722023,1,0.2939579486846924,1,-0.575133085,1,0.7354852557182312,1
1.723856091,-5.383908749,1,-2.089796543,1,-10.57161617,1,0.3184677064418793,1,-0.542312086,1,0.1081007719039917,1,0.2951154708862305,1,-0.577256739,1,0.7352548241615295,1
1.727855325,-4.850193024,1,-2.665537596,1,-11.2209692,1,0.3894630074501038,1,-0.616138101,1,0.1382563263177872,1,0.2967759370803833,1,-0.579555333,1,0.7343469858169556,1
1.731856942,-5.909589291,1,-1.017554402,1,-12.04631805,1,0.5417358875274658,1,-0.683419347,1,0.1444140523672104,1,0.2987426817417145,1,-0.582208037,1,0.7340772151947021,1
1.735854626,-6.583826065,1,-0.934559286,1,-11.90912056,1,0.7357937097549438,1,-0.72423631,1,0.1693224608898163,1,0.3014491200447083,1,-0.585068345,1,0.7337774038314819,1
1.739854097,-8.389294624,1,-0.004671171,1,-11.50639725,1,0.948619545,1,-0.799933434,1,0.2739881575107574,1,0.3048435747623444,1,-0.588225603,1,0.7337114810943604,1
1.743855596,-9.618017197,1,1.174759149551392,1,-10.83047485,1,1.239011287689209,1,-0.85917449,1,0.4072010219097137,1,0.3089783191680908,1,-0.591802835,1,0.7340704798698425,1
1.747853041,-9.026885033,1,-0.662592769,1,-9.64513588,1,1.536163210868835,1,-0.851485729,1,0.4670127630233765,1,0.314096987,1,-0.595563591,1,0.7348097562789917,1
1.751852274,-8.951836586,1,-4.915112019,1,-9.141311646,1,1.646390557289124,1,-0.86880374,1,0.5521730184555054,1,0.3199720978736877,1,-0.599477768,1,0.7358231544494629,1
1.755853772,-10.55067253,1,-9.096150398,1,-9.368840218,1,1.458094239234924,1,-0.82579124,1,0.586575985,1,0.3254915773868561,1,-0.603433371,1,0.7371491193771362,1
1.759851217,-13.08597565,1,-13.67530727,1,-10.52741241,1,1.014049887657166,1,-0.695967257,1,0.6299405694007874,1,0.3295964896678925,1,-0.607119679,1,0.7387440204620361,1
1.763850808,-13.56505585,1,-14.36024857,1,-11.49342442,1,0.3601581752300262,1,-0.484698147,1,0.634999692,1,0.3312296867370605,1,-0.610202014,1,0.7407512664794922,1
1.767852306,-12.57139492,1,-13.15534496,1,-12.59085941,1,-0.2668311,1,-0.238192096,1,0.5744426250457764,1,0.3301061689853668,1,-0.612351537,1,0.7429779767990112,1
1.771849751,-9.972421646,1,-10.35871315,1,-12.7684803,1,-0.751370132,1,-0.080229446,1,0.5197167992591858,1,0.3267025947570801,1,-0.613633871,1,0.7452762126922607,1
1.775849223,-7.493862152,1,-6.978325844,1,-12.62994766,1,-1.029386044,1,-0.038158815,1,0.461761087,1,0.3218278884887695,1,-0.61446017,1,0.7474657297134399,1
1.779850721,-5.997306824,1,-4.78556633,1,-11.9037571,1,-1.061435938,1,-0.064010903,1,0.3998735249042511,1,0.3164397478103638,1,-0.615151525,1,0.7493926286697388,1
1.783848166,-3.510366678,1,-2.606560946,1,-11.46732807,1,-0.979347229,1,-0.211978406,1,0.4239447116851807,1,0.3113406300544739,1,-0.6161744,1,0.7511036396026611,1
1.787853837,-2.89136076,1,-2.634668112,1,-11.21102428,1,-0.847105324,1,-0.345460534,1,0.4457964599132538,1,0.3067488670349121,1,-0.617775261,1,0.7527163028717041,1
1.791855335,-2.325243235,1,-3.233938217,1,-10.91126919,1,-0.728863001,1,-0.481337458,1,0.4925513863563538,1,0.3026871085166931,1,-0.619910359,1,0.7543107867240906,1
1.795853019,-1.977397442,1,-4.18525362,1,-10.72337437,1,-0.658107042,1,-0.610097885,1,0.5571702718734741,1,0.2989659607410431,1,-0.62261796,1,0.7559700012207031,1
1.799852252,-2.000007153,1,-4.848997116,1,-10.67860699,1,-0.675319433,1,-0.712768018,1,0.6392701268196106,1,0.2952339351177216,1,-0.625851274,1,0.7578282356262207,1
1.803853512,-2.264709473,1,-5.044199467,1,-10.91467094,1,-0.71575141,1,-0.784456849,1,0.7184320688247681,1,0.2911929190158844,1,-0.629507482,1,0.7599636316299438,1
1.807850957,-2.746216297,1,-4.774682522,1,-11.24604034,1,-0.729332864,1,-0.820979953,1,0.7779026627540588,1,0.2868539690971375,1,-0.63343966,1,0.7623948454856873,1
1.811850548,-3.0362885,1,-4.865149498,1,-11.54909897,1,-0.686306596,1,-0.827758133,1,0.7966814041137695,1,0.2824748158454895,1,-0.637501478,1,0.7650073170661926,1
1.815852284,-2.509797335,1,-5.47642231,1,-11.34377098,1,-0.680951953,1,-0.783059478,1,0.7890886068344116,1,0.2781387567520142,1,-0.641493082,1,0.7677108645439148,1
1.819850206,-1.752705812,1,-5.589683056,1,-11.3654604,1,-0.672412872,1,-0.744711399,1,0.7724141478538513,1,0.2738212943077087,1,-0.645270228,1,0.7704153656959534,1
1.823849678,-1.552382112,1,-5.479480267,1,-11.61694145,1,-0.705501914,1,-0.71200949,1,0.7594060897827148,1,0.2694253921508789,1,-0.648901224,1,0.7731356620788574,1
1.827851295,-1.120164275,1,-5.206965923,1,-11.76644611,1,-0.700200379,1,-0.668283522,1,0.7356180548667908,1,0.264959455,1,-0.652355194,1,0.7758676409721375,1
1.831848741,-0.407983482,1,-5.166549683,1,-11.35871315,1,-0.67615056,1,-0.627434969,1,0.6849340796470642,1,0.2606075704097748,1,-0.655600011,1,0.778485894,1
1.835847974,0.3429465889930725,1,-4.699738026,1,-11.00208187,1,-0.630614102,1,-0.596652508,1,0.6368695497512817,1,0.2565067112445831,1,-0.658633113,1,0.7809237241744995,1
1.839849472,0.667154074,1,-4.418792725,1,-10.92135048,1,-0.567799091,1,-0.573657513,1,0.5861716270446777,1,0.2527303695678711,1,-0.661516666,1,0.783180833,1
1.843847156,1.016734123,1,-4.418120861,1,-10.74314213,1,-0.502004445,1,-0.548519731,1,0.5408669114112854,1,0.249303013,1,-0.664252758,1,0.7852569222450256,1
1.847846627,1.530231237411499,1,-4.289062977,1,-10.47479534,1,-0.440868735,1,-0.528142333,1,0.4869273602962494,1,0.2462670356035233,1,-0.666845322,1,0.7871168851852417,1
1.851848245,1.800932884216309,1,-4.214151859,1,-10.38806152,1,-0.376839995,1,-0.512804568,1,0.433721125,1,0.243621826,1,-0.669311523,1,0.7887493968009949,1
1.85584569,1.883748054504395,1,-4.174118042,1,-10.34562206,1,-0.311321259,1,-0.489547193,1,0.3781337738037109,1,0.2413808852434158,1,-0.671655357,1,0.7901407480239868,1
1.859845161,1.917740941047668,1,-4.120893955,1,-10.31124401,1,-0.258732587,1,-0.466530532,1,0.3216322362422943,1,0.2395222038030624,1,-0.673856199,1,0.7912873029708862,1
1.86384666,1.927370309829712,1,-4.113999367,1,-10.2800703,1,-0.213597566,1,-0.438187689,1,0.2671833038330078,1,0.2380070388317108,1,-0.675889969,1,0.7922000885009766,1
1.867844105,1.809646725654602,1,-4.24537611,1,-10.29551315,1,-0.18754524,1,-0.397353083,1,0.2068581730127335,1,0.2367880940437317,1,-0.677743495,1,0.7928738594055176,1
1.871843815,1.756407380104065,1,-4.348605156,1,-10.32862186,1,-0.163451955,1,-0.345833361,1,0.1492666155099869,1,0.235811636,1,-0.679359078,1,0.7933191061019897,1
1.875845432,1.765173316001892,1,-4.343074799,1,-10.33209419,1,-0.156287581,1,-0.281323284,1,0.091907151,1,0.2350245863199234,1,-0.680692077,1,0.7935466170310974,1
1.879842758,1.802166223526001,1,-4.262363911,1,-10.37341881,1,-0.159544438,1,-0.216836736,1,0.0319383,1,0.2343796342611313,1,-0.681715786,1,0.793565035,1
1.883842349,1.919482111930847,1,-4.085422993,1,-10.41631413,1,-0.159943327,1,-0.145946443,1,-0.017705929,1,0.2338562309741974,1,-0.682436705,1,0.7933837175369263,1
1.887843609,1.978801727294922,1,-3.854804993,1,-10.41463852,1,-0.155989215,1,-0.080240473,1,-0.074180767,1,0.2334696054458618,1,-0.682836533,1,0.7930052280426025,1
1.891841054,1.991488933563232,1,-3.663807154,1,-10.44784641,1,-0.143247828,1,-0.011612998,1,-0.131355584,1,0.233221024,1,-0.682919741,1,0.7924355268478394,1
1.895840526,1.969268679618835,1,-3.493977547,1,-10.42407894,1,-0.129091397,1,0.062419098,1,-0.179704517,1,0.2331564426422119,1,-0.682675302,1,0.7916728854179382,1
1.899842024,1.934953689575195,1,-3.350847006,1,-10.40324306,1,-0.106997408,1,0.1326180845499039,1,-0.232819989,1,0.2332651317119598,1,-0.682102561,1,0.7907490730285645,1
1.903839707,1.856125593185425,1,-3.230300665,1,-10.38254833,1,-0.084742792,1,0.2179743945598602,1,-0.283761472,1,0.2335648685693741,1,-0.681180835,1,0.7896665334701538,1
1.90784514,1.817534446716309,1,-3.147353411,1,-10.3592844,1,-0.067177385,1,0.3038457930088043,1,-0.329083443,1,0.2340275347232819,1,-0.679881036,1,0.7884470820426941,1
1.911846638,1.800120234489441,1,-3.02089262,1,-10.33991718,1,-0.048382394,1,0.3897283673286438,1,-0.36448732,1,0.2346274703741074,1,-0.678218007,1,0.7871319651603699,1
1.915844321,1.819142937660217,1,-2.893164396,1,-10.29144859,1,-0.026976584,1,0.4743777215480804,1,-0.396343082,1,0.2353572100400925,1,-0.676180184,1,0.7857328057289124,1
1.919843554,1.851547002792358,1,-2.752426147,1,-10.21453857,1,-0.009827808,1,0.5539380311965942,1,-0.428872198,1,0.2361919283866882,1,-0.673796654,1,0.7842857241630554,1
1.923845172,1.783870100975037,1,-2.629074097,1,-10.14998627,1,0.015639627,1,0.6266579627990723,1,-0.45618853,1,0.2371263951063156,1,-0.671076417,1,0.7827997207641602,1
1.927842855,1.713409900665283,1,-2.537577629,1,-10.09330082,1,0.035635136,1,0.7023219466209412,1,-0.47398898,1,0.2381705939769745,1,-0.668048501,1,0.7812867164611816,1
1.931842089,1.689044952392578,1,-2.471282482,1,-9.992825508,1,0.050076697,1,0.7695491909980774,1,-0.491005719,1,0.2392676621675491,1,-0.664723098,1,0.7797983288764954,1
1.935843587,1.588286876678467,1,-2.415347099,1,-9.951647758,1,0.06887842,1,0.8407068848609924,1,-0.495537937,1,0.2404060661792755,1,-0.66112119,1,0.7783421874046326,1
1.939841032,1.433316469192505,1,-2.402516127,1,-9.970644951,1,0.08982835,1,0.9061208367347717,1,-0.49125573,1,0.2415577620267868,1,-0.657252789,1,0.7769699096679688,1
1.943840265,1.144626259803772,1,-2.37760973,1,-9.90205574,1,0.1130266264081001,1,0.9722728133201599,1,-0.498780578,1,0.2427560836076736,1,-0.653128862,1,0.7756806015968323,1
1.947841763,1.123683214187622,1,-2.390114307,1,-9.871202469,1,0.1301759332418442,1,1.034630775,1,-0.514094949,1,0.2439853101968765,1,-0.64873457,1,0.7744317054748535,1
1.951839209,0.032128181,1,-2.265266418,1,-10.32680035,1,0.1672550588846207,1,1.132144212722778,1,-0.51109159,1,0.245327428,1,-0.644058943,1,0.7732384204864502,1
1.95583868,0.2897538840770721,1,-2.370429993,1,-10.13356304,1,0.2056958973407745,1,1.205323457717896,1,-0.513963997,1,0.2466911524534225,1,-0.639014184,1,0.7721952199935913,1
1.959840298,-0.226448879,1,-2.418618202,1,-10.36606598,1,0.2257018089294434,1,1.292391538619995,1,-0.542324305,1,0.2481650859117508,1,-0.633666575,1,0.7711663842201233,1
1.963837743,-0.307217598,1,-2.450747967,1,-10.46622562,1,0.2446975409984589,1,1.404428243637085,1,-0.554361284,1,0.2496851533651352,1,-0.627887905,1,0.7701842188835144,1
1.967837214,-0.403546691,1,-2.435505629,1,-10.34790134,1,0.2613803744316101,1,1.489938139915466,1,-0.571524501,1,0.251231313,1,-0.621729672,1,0.7692709565162659,1
1.971838474,-0.448956817,1,-2.471865177,1,-10.26479244,1,0.2733811438083649,1,1.573087930679321,1,-0.582069397,1,0.252799928,1,-0.615234017,1,0.7684089541435242,1
1.975836158,-0.436667025,1,-2.424571037,1,-10.21302986,1,0.2876777946949005,1,1.648309230804443,1,-0.590069056,1,0.2543857097625732,1,-0.608397067,1,0.7676040530204773,1
1.979835629,-0.454601854,1,-2.457434177,1,-10.07958221,1,0.3017202913761139,1,1.721285820007324,1,-0.595431387,1,0.2560476958751678,1,-0.601243079,1,0.7662699818611145,1
1.983837128,-0.439544201,1,-2.447052002,1,-9.981681824,1,0.306647003,1,1.777963638305664,1,-0.595507205,1,0.2576287686824799,1,-0.593865275,1,0.7656302452087402,1
1.987835169,-0.4684048,1,-2.457099199,1,-9.897586823,1,0.3197582364082336,1,1.829126119613647,1,-0.58934027,1,0.2591937780380249,1,-0.586279809,1,0.7650819420814514,1
1.991834402,-0.548077404,1,-2.388824224,1,-9.773714066,1,0.3382952213287354,1,1.872698903083801,1,-0.574183583,1,0.2607392966747284,1,-0.578532815,1,0.764667273,1
1.995835662,-0.580432892,1,-2.412215948,1,-9.734427452,1,0.3523900806903839,1,1.903112769126892,1,-0.560714483,1,0.2622711658477783,1,-0.570652008,1,0.7643815279006958,1
1.999833345,-0.759751618,1,-2.444244862,1,-9.743941307,1,0.3745055496692657,1,1.937227487564087,1,-0.543152392,1,0.2638162076473236,1,-0.562664747,1,0.7642182111740112,1
2.003832817,-1.005879283,1,-2.516687155,1,-9.76768589,1,0.4028848707675934,1,1.965795516967773,1,-0.524588704,1,0.265381396,1,-0.554577053,1,0.764202356,1
2.007834673,-1.380630851,1,-2.545964479,1,-9.858415604,1,0.4208366572856903,1,2.000859975814819,1,-0.509319305,1,0.2669662237167358,1,-0.546374977,1,0.7643111348152161,1
2.011832237,-1.704433322,1,-2.59237957,1,-9.95699501,1,0.4516340494155884,1,2.041033267974854,1,-0.504454494,1,0.2686055302619934,1,-0.538046122,1,0.7645285129547119,1
2.015831709,-2.117104292,1,-2.622717381,1,-10.04061031,1,0.4879234135150909,1,2.084515333175659,1,-0.498238415,1,0.2703309059143066,1,-0.529558063,1,0.7648367285728455,1
2.019833326,-2.489824772,1,-2.650193453,1,-10.1103735,1,0.5329310297966003,1,2.141659021377563,1,-0.507812321,1,0.2721782028675079,1,-0.520874798,1,0.7652138471603394,1
2.023830891,-2.801426411,1,-2.695815563,1,-10.14395905,1,0.5668071508407593,1,2.202949285507202,1,-0.520633817,1,0.2741528451442719,1,-0.511958361,1,0.7656375169754028,1
2.027836084,-3.084487677,1,-2.803238153,1,-10.1778698,1,0.5971256494522095,1,2.262377262115479,1,-0.543261349,1,0.2762706279754639,1,-0.502777338,1,0.7660794854164124,1
2.03183794,-3.259565353,1,-2.933369875,1,-10.13533401,1,0.6292014122009277,1,2.322297096252441,1,-0.560069025,1,0.2785064578056335,1,-0.493361384,1,0.7665354013442993,1
2.035835743,-3.386079073,1,-2.983453751,1,-10.08099842,1,0.651224673,1,2.375777483,1,-0.583923459,1,0.2808579206466675,1,-0.483698815,1,0.7669848203659058,1
2.039835215,-3.47550416,1,-2.995395184,1,-9.958303452,1,0.67037195,1,2.419908046722412,1,-0.608611882,1,0.2833009958267212,1,-0.473816693,1,0.7674182653427124,1
2.043836594,-3.464197159,1,-2.991324663,1,-9.816602707,1,0.6856505274772644,1,2.459459543228149,1,-0.62862432,1,0.2858237028121948,1,-0.463755041,1,0.7678289413452148,1
2.047834158,-3.461813211,1,-2.982158661,1,-9.65547657,1,0.6944141387939453,1,2.480011940002441,1,-0.651371777,1,0.2884110808372498,1,-0.453557462,1,0.7682148218154907,1
2.05183363,-3.506254435,1,-2.941037416,1,-9.47025013,1,0.7113019824028015,1,2.494781970977783,1,-0.660360813,1,0.2910650968551636,1,-0.443275362,1,0.7685834169387817,1
2.055835247,-3.445938826,1,-2.893788338,1,-9.323208809,1,0.7288473844528198,1,2.497066020965576,1,-0.673077762,1,0.2937861084938049,1,-0.432943344,1,0.7689450979232788,1
2.059832573,-3.49494338,1,-2.81473875,1,-9.194218636,1,0.7408754229545593,1,2.487370729446411,1,-0.683616042,1,0.2965862154960632,1,-0.422621727,1,0.7692772150039673,1
2.063832045,-3.482652664,1,-2.713482618,1,-9.078144073,1,0.7549741268157959,1,2.461361408233643,1,-0.684798717,1,0.2994487583637238,1,-0.412352145,1,0.7695932388305664,1
2.067833662,-3.456057549,1,-2.688983917,1,-8.984641075,1,0.7678288221359253,1,2.427201033,1,-0.695848465,1,0.302377462,1,-0.402192235,1,0.7698793411254883,1
2.071831226,-3.574657202,1,-2.722952366,1,-8.909766197,1,0.780518651,1,2.386491298675537,1,-0.686610281,1,0.3053640723228455,1,-0.39217189,1,0.7701519131660461,1
2.075830698,-3.781694651,1,-2.732180834,1,-8.913099289,1,0.7866302728652954,1,2.351523160934448,1,-0.686245561,1,0.3084011673927307,1,-0.382308364,1,0.7704080939292908,1
2.079832315,-4.111628056,1,-2.760953188,1,-8.899319649,1,0.7959014773368835,1,2.311413049697876,1,-0.685220301,1,0.3114795088768005,1,-0.372592866,1,0.7706479430198669,1
2.083830118,-4.392507553,1,-2.801448345,1,-8.8664217,1,0.7940850853919983,1,2.283172369003296,1,-0.688249886,1,0.3145743310451508,1,-0.363009304,1,0.7708762288093567,1
2.08782959,-4.725117683,1,-2.843993902,1,-8.887593269,1,0.7863457798957825,1,2.261981010437012,1,-0.693178594,1,0.3176702260971069,1,-0.353514552,1,0.7710906267166138,1
2.09183073,-4.966981411,1,-2.843859196,1,-8.866602898,1,0.7788203954696655,1,2.247603655,1,-0.695262492,1,0.3207415640354156,1,-0.344084322,1,0.7712807655334473,1
2.095828533,-5.157339573,1,-2.891448021,1,-8.812148094,1,0.7669548988342285,1,2.240725994110107,1,-0.698305845,1,0.3237639665603638,1,-0.334682375,1,0.7714855074882507,1
2.099828005,-5.292110443,1,-2.842980623,1,-8.743302345,1,0.7444946765899658,1,2.231166362762451,1,-0.698611736,1,0.326720268,1,-0.325318038,1,0.7717062830924988,1
2.103829622,-5.391385555,1,-2.814210653,1,-8.656155586,1,0.727311373,1,2.226354598999023,1,-0.689817429,1,0.3295781016349792,1,-0.315985918,1,0.7719696760177612,1
2.107826948,-5.458722115,1,-2.703718662,1,-8.539125443,1,0.708271325,1,2.221329927444458,1,-0.685443759,1,0.3323464095592499,1,-0.306688786,1,0.7722748517990112,1
2.111826181,-5.444977283,1,-2.566707611,1,-8.38740921,1,0.6929053664207458,1,2.209686994552612,1,-0.665736556,1,0.3350399136543274,1,-0.297436297,1,0.7726367115974426,1
2.115828037,-5.412100792,1,-2.541820049,1,-8.219526291,1,0.6797522902488708,1,2.198608875274658,1,-0.651096821,1,0.3376520276069641,1,-0.288244724,1,0.7730783820152283,1
2.119825602,-5.343158245,1,-2.48571229,1,-8.010310173,1,0.6645449995994568,1,2.181592702865601,1,-0.628457367,1,0.3401934206485748,1,-0.279136121,1,0.7735913991928101,1
2.123824835,-5.288038731,1,-2.374121904,1,-7.807423592,1,0.6537758708000183,1,2.164293289,1,-0.598662555,1,0.3426643908023834,1,-0.270116597,1,0.7742136716842651,1
2.127826452,-5.229613304,1,-2.292016268,1,-7.633641243,1,0.6440927386283875,1,2.139314651489258,1,-0.563976228,1,0.3450614809989929,1,-0.261235029,1,0.7749385237693787,1
2.131823778,-5.087303638,1,-2.081629992,1,-7.453157425,1,0.6333149671554565,1,2.102195501327515,1,-0.525744617,1,0.3473989367485046,1,-0.252518028,1,0.7757944464683533,1
2.13582325,-4.989639282,1,-1.930663824,1,-7.241001606,1,0.636022687,1,2.065238237380981,1,-0.486377448,1,0.3497027158737183,1,-0.2439899,1,0.7767636775970459,1
2.139824867,-4.891952991,1,-1.781737208,1,-7.043563843,1,0.6351692676544189,1,2.011237144470215,1,-0.439119875,1,0.3519848585128784,1,-0.235702947,1,0.7778544425964355,1
2.143822432,-4.810087204,1,-1.678957462,1,-6.934961319,1,0.6490715742111206,1,1.952502846717834,1,-0.389560193,1,0.3542723655700684,1,-0.227688819,1,0.7790709733963013,1
2.147827864,-4.861550808,1,-1.566841483,1,-6.84810257,1,0.6637495756149292,1,1.893248558044434,1,-0.347097516,1,0.3566111624240875,1,-0.219967231,1,0.7803986072540283,1
2.151829481,-5.064892769,1,-1.412471771,1,-6.781037807,1,0.6824500560760498,1,1.832358241081238,1,-0.303367406,1,0.3590045273303986,1,-0.212536231,1,0.7818301916122437,1
2.155827045,-5.261537075,1,-1.322522163,1,-6.834219933,1,0.7041272521018982,1,1.787158608436584,1,-0.262795329,1,0.3614507913589478,1,-0.205345467,1,0.7833574414253235,1
2.159826517,-5.51865387,1,-1.251733184,1,-6.875062943,1,0.7265138626098633,1,1.749071359634399,1,-0.234052971,1,0.3639908730983734,1,-0.198381305,1,0.7849645614624023,1
2.163827658,-5.798912048,1,-1.188419342,1,-6.975054741,1,0.7433758974075317,1,1.715857267379761,1,-0.206359789,1,0.3666037321090698,1,-0.191598892,1,0.7866536378860474,1
2.16782546,-6.031068325,1,-1.141450644,1,-7.005204201,1,0.7611042857170105,1,1.689732432365417,1,-0.186284393,1,0.3692920207977295,1,-0.184962317,1,0.788404107,1
2.171825171,-6.169973373,1,-1.107871652,1,-7.018237591,1,0.7694246768951416,1,1.668033480644226,1,-0.165434495,1,0.3720287978649139,1,-0.178451762,1,0.7902081608772278,1
2.17582655,-6.174162388,1,-1.221164227,1,-6.978054523,1,0.7647860050201416,1,1.648427963256836,1,-0.145391896,1,0.3747745752334595,1,-0.172042355,1,0.7920827269554138,1
2.179824114,-6.124376297,1,-1.206518173,1,-6.958560467,1,0.7739385962486267,1,1.624215722084045,1,-0.125334248,1,0.3775259256362915,1,-0.165758446,1,0.7940016388893127,1
2.183823347,-6.204394341,1,-1.153859258,1,-7.046951771,1,0.7766688466072083,1,1.591900587081909,1,-0.100080922,1,0.3803093731403351,1,-0.159619749,1,0.7959845066070557,1
2.187824726,-6.381767273,1,-0.991976321,1,-7.173745632,1,0.795600414,1,1.565248966217041,1,-0.084375039,1,0.3831213116645813,1,-0.153613523,1,0.7980169057846069,1
2.191822052,-6.681657314,1,-0.667797327,1,-7.431016445,1,0.8264254927635193,1,1.541231870651245,1,-0.077675819,1,0.3860531449317932,1,-0.147738963,1,0.8000680208206177,1
2.195821285,-7.096636772,1,-0.41490522,1,-7.564464569,1,0.8802158832550049,1,1.527549982070923,1,-0.083525464,1,0.3891771137714386,1,-0.14194347,1,0.8021072149276733,1
2.199822903,-7.594723225,1,-0.347313106,1,-7.608685017,1,0.9367381930351257,1,1.533546686172485,1,-0.113325655,1,0.3925337493419647,1,-0.136131853,1,0.8040996193885803,1
2.203820467,-7.77450943,1,-0.422598541,1,-7.523038387,1,0.9862574338912964,1,1.546797752380371,1,-0.138462588,1,0.3961331248283386,1,-0.130254418,1,0.8060183525085449,1
2.2078197,-7.738363743,1,-0.666133523,1,-7.324966908,1,1.019325971603394,1,1.559220194816589,1,-0.171648979,1,0.3999073803424835,1,-0.1242854,1,0.8078572750091553,1
2.211821318,-7.601737022,1,-0.867871106,1,-7.065477848,1,1.027031421661377,1,1.554346561431885,1,-0.204477951,1,0.4037905335426331,1,-0.118256643,1,0.8096178770065308,1
2.215818644,-7.345771313,1,-0.909869194,1,-6.728158951,1,1.025125861167908,1,1.534502744674683,1,-0.221529841,1,0.4077098667621613,1,-0.112237364,1,0.8112787008285522,1
2.219817877,-7.050131321,1,-0.758613706,1,-6.354014397,1,1.023004889,1,1.490262031555176,1,-0.239049792,1,0.4116325676441193,1,-0.106318735,1,0.8128466010093689,1
2.223819494,-6.772014141,1,-0.649994969,1,-6.001274109,1,1.014852881,1,1.427877784,1,-0.2482526,1,0.4155563712120056,1,-0.100570075,1,0.8143044710159302,1
2.227817297,-6.553851128,1,-0.525211036,1,-5.631567955,1,1.011822581291199,1,1.342304110527039,1,-0.243703723,1,0.4195074439048767,1,-0.095062971,1,0.8157029151916504,1
2.231816769,-6.540110111,1,-0.500579894,1,-5.232440948,1,1.005703568458557,1,1.243775367736816,1,-0.225533903,1,0.4234212636947632,1,-0.089953452,1,0.8169710636138916,1
2.235818148,-6.554205418,1,-0.531803966,1,-4.962448597,1,1.000744700431824,1,1.140436649,1,-0.198390305,1,0.427328885,1,-0.085260004,1,0.8181675672531128,1
2.239815712,-6.604197979,1,-0.724858522,1,-4.790670395,1,0.9817280769348145,1,1.027021050453186,1,-0.167402685,1,0.431201309,1,-0.081017897,1,0.8192965984344482,1
2.243815184,-6.698873043,1,-0.907255948,1,-4.700775146,1,0.9556507468223572,1,0.9044143557548523,1,-0.1299216,1,0.435003251,1,-0.077261254,1,0.8203864097595215,1
2.247816801,-6.854235172,1,-1.021285295,1,-4.681211472,1,0.910728931,1,0.784346879,1,-0.091625266,1,0.4386564195156097,1,-0.074011497,1,0.8214229941368103,1
2.251814127,-7.098052025,1,-1.123483539,1,-4.717772007,1,0.8530055284500122,1,0.661744237,1,-0.060600653,1,0.4421166777610779,1,-0.071270794,1,0.8223845958709717,1
2.255813599,-7.597103119,1,-1.307510972,1,-4.806453705,1,0.7950080037117004,1,0.5553129911422729,1,-0.035224635,1,0.4453530609607697,1,-0.06900201,1,0.8232554197311401,1
2.259815216,-8.08764267,1,-1.489974499,1,-4.949768066,1,0.7170925736427307,1,0.4680063426494598,1,-0.023285277,1,0.4483206272125244,1,-0.067113362,1,0.824029803,1
2.263813019,-8.546016693,1,-1.852500439,1,-4.980471134,1,0.6340667009353638,1,0.392801821,1,-0.014979576,1,0.4509876370429993,1,-0.065533623,1,0.8247150778770447,1
2.267818451,-8.935944557,1,-2.078362703,1,-5.068259716,1,0.548856258,1,0.3384732902050018,1,-0.013380968,1,0.4533105492591858,1,-0.06419351,1,0.8253083229064941,1
2.271820068,-9.188603401,1,-2.243317366,1,-5.121595383,1,0.4551191627979279,1,0.2895975410938263,1,-0.016275218,1,0.4552825093269348,1,-0.063043669,1,0.8258097767829895,1
2.275817633,-9.260676384,1,-2.212863207,1,-5.168133736,1,0.3712990283966064,1,0.2476990520954132,1,-0.024603685,1,0.4569065570831299,1,-0.062049799,1,0.8262134194374084,1
2.279817104,-9.252429962,1,-2.139304638,1,-5.131986618,1,0.3035798668861389,1,0.2048968225717545,1,-0.042018104,1,0.4582428634166718,1,-0.061175529,1,0.8264960050582886,1
2.283818722,-9.003629684,1,-2.078267097,1,-5.003370285,1,0.2508492469787598,1,0.1618862450122833,1,-0.073062301,1,0.4593297839164734,1,-0.060400695,1,0.8266271352767944,1
2.287816525,-8.557776451,1,-2.036922693,1,-4.927886963,1,0.1992012560367584,1,0.1021226271986961,1,-0.09533307,1,0.4602253437042236,1,-0.059774715,1,0.8265674114227295,1
2.291815758,-7.994729519,1,-1.932004333,1,-4.762045383,1,0.1655667126178741,1,0.029259566,1,-0.129454732,1,0.4609700441360474,1,-0.059337217,1,0.8262840509414673,1
2.295817137,-7.36806488,1,-1.957165241,1,-4.528789997,1,0.1205132156610489,1,-0.06843783,1,-0.152091116,1,0.4615743160247803,1,-0.059156038,1,0.8257367014884949,1
2.299814701,-6.85682106,1,-2.095220804,1,-4.342847347,1,0.080951974,1,-0.184480533,1,-0.170628399,1,0.4620314836502075,1,-0.059322312,1,0.8249340057373047,1
2.303813934,-6.549694538,1,-2.240279913,1,-4.228837967,1,0.04394884,1,-0.313382924,1,-0.179183245,1,0.4623376429080963,1,-0.059907191,1,0.8238556385040283,1
2.307815313,-6.480221272,1,-2.39298296,1,-4.149184704,1,-0.006988069,1,-0.442217767,1,-0.180225596,1,0.4624879062175751,1,-0.06094332,1,0.8225406408309937,1
2.311812878,-6.432022095,1,-2.489190817,1,-4.162123203,1,-0.05138132,1,-0.567468464,1,-0.16633749,1,0.4624763429164886,1,-0.062435608,1,0.8210153579711914,1
2.315812349,-6.420388222,1,-2.525060177,1,-4.222549438,1,-0.086775266,1,-0.677758038,1,-0.157562673,1,0.4623033106327057,1,-0.064381123,1,0.8193157911300659,1
2.319813967,-6.530452728,1,-2.492754221,1,-4.350533009,1,-0.118076891,1,-0.781376302,1,-0.141893446,1,0.4620043039321899,1,-0.066735424,1,0.8174729347229004,1
2.323811293,-6.624598026,1,-2.606527805,1,-4.55015564,1,-0.141208589,1,-0.86370939,1,-0.139433339,1,0.4616113901138306,1,-0.069432542,1,0.8155006170272827,1
2.327810764,-6.79910183,1,-2.760676384,1,-4.720918179,1,-0.155679315,1,-0.932740927,1,-0.129503325,1,0.4611650407314301,1,-0.072411649,1,0.8134116530418396,1
2.331812382,-6.898191929,1,-2.92341423,1,-4.826054573,1,-0.180579931,1,-0.98665303,1,-0.137219653,1,0.4606563448905945,1,-0.07561513,1,0.8112137913703918,1
2.335809708,-7.089831352,1,-3.086396217,1,-4.975965023,1,-0.199412897,1,-1.026751399,1,-0.150400683,1,0.4600822925567627,1,-0.078970887,1,0.8089044094085693,1
2.339809179,-7.245032787,1,-3.209529161,1,-5.093142033,1,-0.225256741,1,-1.05397284,1,-0.169632554,1,0.4594230651855469,1,-0.082416475,1,0.8064793944358826,1
2.343811035,-7.33310318,1,-3.290748835,1,-5.109505653,1,-0.249717355,1,-1.068662047,1,-0.189854845,1,0.4586736559867859,1,-0.08590772,1,0.8039450645446777,1
2.347808838,-7.387279034,1,-3.386269808,1,-5.074145794,1,-0.281430244,1,-1.074890375,1,-0.207069352,1,0.4578398764133453,1,-0.089406647,1,0.8013243079185486,1
2.35180831,-7.457921028,1,-3.551489592,1,-4.916787148,1,-0.299953431,1,-1.09109962,1,-0.223887309,1,0.4569181203842163,1,-0.092911944,1,0.7986266613006592,1
2.355809689,-7.451843262,1,-3.698493481,1,-4.705518246,1,-0.335305691,1,-1.105313659,1,-0.238535151,1,0.4559100270271301,1,-0.096442543,1,0.7958519458770752,1
2.359807491,-7.474080086,1,-3.782077074,1,-4.510006905,1,-0.361186445,1,-1.13746202,1,-0.240639135,1,0.454803079,1,-0.100054733,1,0.793004036,1
2.363806963,-7.61171627,1,-3.747767687,1,-4.314652443,1,-0.375249803,1,-1.179325581,1,-0.246963218,1,0.4536338150501251,1,-0.103781767,1,0.7900835275650024,1
2.36780858,-7.780314922,1,-3.525823116,1,-4.097167492,1,-0.378549069,1,-1.227627516,1,-0.25879401,1,0.4524446129798889,1,-0.107658654,1,0.7870535850524902,1
2.371806145,-5.155225277,1,-6.130166054,1,-6.955172062,1,-0.431382239,1,-1.297240496,1,-0.277863592,1,0.4512295722961426,1,-0.111722529,1,0.7838711738586426,1
2.375805616,23.01447486877441,1,-13.82660866,1,-15.41964149,1,-0.853848815,1,-1.876940966,1,-0.0919265,1,0.4489474892616272,1,-0.116866231,1,0.7804423570632935,1
2.379807234,-6.59389782,1,-8.576328278,1,-11.06499863,1,-1.345527649,1,-2.4182899,1,0.1105347946286201,1,0.4451537132263184,1,-0.124976225,1,0.7766600847244263,1
2.38380456,17.3002758,1,-14.48842907,1,-13.51803207,1,-1.478407025,1,-2.181910753,1,0.086371057,1,0.439754993,1,-0.133350343,1,0.7731394171714783,1
2.387809992,23.40509605407715,1,-14.15385342,1,-14.995224,1,-1.560568094,1,-2.464017153,1,0.06613908,1,0.4343209564685822,1,-0.141851008,1,0.7694645524024963,1
2.391811848,13.18709659576416,1,-13.51276493,1,-16.94866562,1,-1.931875229,1,-2.678771734,1,0.086112611,1,0.4279387,1,-0.151367009,1,0.7653487920761108,1
2.39580965,9.117632865905762,1,-10.07827759,1,-18.1722393,1,-2.018358469,1,-2.724500656,1,0.1951104402542114,1,0.420496404,1,-0.161444634,1,0.761356533,1
2.399809122,8.697506904602051,1,-7.226580143,1,-16.51078033,1,-1.898173809,1,-2.929344416,1,0.2296301424503326,1,0.4134056270122528,1,-0.172071949,1,0.7575661540031433,1
2.403810501,2.453656435012817,1,-2.994986057,1,-13.32337475,1,-1.861067772,1,-3.206084967,1,0.3168911337852478,1,0.4065233767032623,1,-0.183755055,1,0.7535940408706665,1
2.407808304,0.4485418200492859,1,0.6793171763420105,1,-10.79130554,1,-1.714036822,1,-3.434837818,1,0.3755522966384888,1,0.4001473188400269,1,-0.196497306,1,0.7495877742767334,1
2.411807537,-2.913568497,1,3.682318925857544,1,-9.57256031,1,-1.576301575,1,-3.718562603,1,0.4508310854434967,1,0.3943977952003479,1,-0.210334972,1,0.7454781532287598,1
2.415808916,-6.874610424,1,4.917552471160889,1,-8.907655716,1,-1.474470854,1,-3.895456314,1,0.4783456027507782,1,0.3892106413841248,1,-0.22514464,1,0.741296649,1
2.41980648,-9.123709679,1,5.109808921813965,1,-9.480113029,1,-1.310763001,1,-4.02686882,1,0.4864519238471985,1,0.3846222758293152,1,-0.240545675,1,0.7369759678840637,1
2.423805952,-9.918615341,1,5.217941761016846,1,-12.64413929,1,-1.07596612,1,-4.070362091,1,0.4978954493999481,1,0.3809075355529785,1,-0.256328613,1,0.7325989603996277,1
2.42780757,-14.41777134,1,6.638433933258057,1,-15.42722511,1,-0.856572211,1,-3.959080458,1,0.5391061305999756,1,0.3781540393829346,1,-0.272087634,1,0.7283985018730164,1
2.431804895,-15.56817627,1,8.351435661315918,1,-16.90715408,1,-0.596888304,1,-3.554824829,1,0.5524924397468567,1,0.3762171268463135,1,-0.286896706,1,0.7247343063354492,1
2.435804367,-13.72602749,1,9.092440605163574,1,-16.57719612,1,-0.287730873,1,-3.166181087,1,0.6195815801620483,1,0.3752928972244263,1,-0.300219357,1,0.7218629121780396,1
2.439805984,-12.48564148,1,8.384091377258301,1,-15.25704288,1,-0.021922696,1,-2.872009993,1,0.7458723783493042,1,0.375277042,1,-0.312443703,1,0.7198807001113892,1
2.443803549,-10.54407215,1,6.464783191680908,1,-14.20605755,1,0.153135672,1,-2.654656649,1,0.934802771,1,0.3758592903614044,1,-0.323925972,1,0.7188845276832581,1
2.44780302,-8.90588665,1,5.839103221893311,1,-13.04320717,1,0.3439816236495972,1,-2.489975452,1,1.121124863624573,1,0.3768125474452972,1,-0.335006952,1,0.7189647555351257,1
2.451804638,-8.390170097,1,3.638635873794556,1,-12.03519917,1,0.532223105,1,-2.362165213,1,1.176591038703918,1,0.3782986104488373,1,-0.345737249,1,0.7197262048721313,1
2.455802441,-8.044718742,1,0.2044907063245773,1,-11.53583241,1,0.6762662529945374,1,-2.273864269,1,1.164271354675293,1,0.3804284930229187,1,-0.356070578,1,0.7207130193710327,1
2.459801912,-9.123770714,1,-3.046454191,1,-10.30549622,1,0.7144607305526733,1,-2.187404871,1,1.125634789466858,1,0.3828761577606201,1,-0.366095245,1,0.7217206954956055,1
2.463803053,-8.75031662,1,-6.001019478,1,-9.08911705,1,0.7267571091651917,1,-2.078339815,1,1.001383304595947,1,0.3854552507400513,1,-0.375594795,1,0.7225309610366821,1
2.467800856,-8.919757843,1,-8.732439041,1,-8.486574173,1,0.6325534582138062,1,-2.005100012,1,0.8817297220230103,1,0.3880586922168732,1,-0.384573251,1,0.7229666709899902,1
2.471800089,-9.129087448,1,-10.30243683,1,-7.302941799,1,0.4427286684513092,1,-1.9328897,1,0.8159292340278625,1,0.3901432156562805,1,-0.393169999,1,0.7231357097625732,1
2.475801706,-7.537545204,1,-10.73684597,1,-6.627233982,1,0.3020058572292328,1,-1.855574846,1,0.6984755992889404,1,0.3916611075401306,1,-0.401303172,1,0.7230395078659058,1
2.479799271,-8.233386993,1,-11.48132038,1,-6.780658245,1,0.083232038,1,-1.8271842,1,0.6418495178222656,1,0.3926226794719696,1,-0.409054697,1,0.722872794,1
2.483798742,-8.320506096,1,-11.23655224,1,-6.713797569,1,-0.147252679,1,-1.731311917,1,0.610518217,1,0.3926554918289185,1,-0.416616738,1,0.7224501371383667,1
2.487800598,-8.537956238,1,-11.29231548,1,-6.850068092,1,-0.367603034,1,-1.633185983,1,0.5835182070732117,1,0.3918152451515198,1,-0.423731029,1,0.7220070362091064,1
2.491798162,-8.98830986,1,-9.372415543,1,-7.046576023,1,-0.583298922,1,-1.505451441,1,0.6131925582885742,1,0.389984667,1,-0.430452466,1,0.7218154668807983,1
2.495797873,-8.522386551,1,-7.290939808,1,-7.630462646,1,-0.718962491,1,-1.367719054,1,0.6360247135162354,1,0.3873103260993958,1,-0.436716616,1,0.7219442129135132,1
2.499799252,-9.175363541,1,-5.736133099,1,-8.26022625,1,-0.850143909,1,-1.205302954,1,0.7243179678916931,1,0.3838949203491211,1,-0.442516625,1,0.7225655317306519,1
2.503796816,-8.794884682,1,-3.692887306,1,-8.781874657,1,-0.904410422,1,-1.031012654,1,0.7930652499198914,1,0.3798088431358337,1,-0.44779101,1,0.7238471508026123,1
2.507802486,-8.318389893,1,-2.795782804,1,-9.077745438,1,-0.91265434,1,-0.8747859,1,0.8396679162979126,1,0.3753865659236908,1,-0.452538848,1,0.7256601452827454,1
2.511804104,-7.968647003,1,-2.476231575,1,-9.092865944,1,-0.91801405,1,-0.713749766,1,0.9070944786071777,1,0.3707025051116943,1,-0.456771016,1,0.7279953956604004,1
2.515801907,-7.149178982,1,-2.762741566,1,-8.803360939,1,-0.92337656,1,-0.589739382,1,0.9474400281906128,1,0.3657614886760712,1,-0.460531235,1,0.7308210730552673,1
2.519801378,-6.580753803,1,-3.351344824,1,-8.417355537,1,-0.942155838,1,-0.496026158,1,0.9834098815917969,1,0.3606142699718475,1,-0.463929057,1,0.7340009212493896,1
2.523802996,-6.485916138,1,-4.175182343,1,-8.223636627,1,-0.981424749,1,-0.433300287,1,0.9975004196166992,1,0.3552424013614655,1,-0.467058688,1,0.7374377250671387,1
2.527800322,-6.037629604,1,-4.756554127,1,-7.907524109,1,-1.031053305,1,-0.370818317,1,0.9862702488899231,1,0.349606454,1,-0.469934165,1,0.7409967184066772,1
2.531799793,-5.72307682,1,-4.889735699,1,-7.68725729,1,-1.084645748,1,-0.347355247,1,0.9630525708198547,1,0.3437545299530029,1,-0.47260648,1,0.7445722222328186,1
2.535801411,-5.819779396,1,-4.592994213,1,-7.823495865,1,-1.129745364,1,-0.322981477,1,0.9284285306930542,1,0.337728739,1,-0.475136757,1,0.7480666637420654,1
2.539798975,-5.879627228,1,-3.712824583,1,-8.078435898,1,-1.163101673,1,-0.294938028,1,0.8937630653381348,1,0.3315621316432953,1,-0.477500021,1,0.7514824867248535,1
2.543798447,-5.941961288,1,-2.599121332,1,-8.379038811,1,-1.17141068,1,-0.261764616,1,0.8578287959098816,1,0.3253569006919861,1,-0.479684651,1,0.7548190951347351,1
2.547800064,-5.807470798,1,-1.647049785,1,-8.617983818,1,-1.146883965,1,-0.226682827,1,0.8176591396331787,1,0.3192258477210999,1,-0.481668025,1,0.7580591440200806,1
2.551798105,-5.373351574,1,-0.740686178,1,-8.862874031,1,-1.111198068,1,-0.210377753,1,0.795488715,1,0.3132404685020447,1,-0.483490705,1,0.7612158060073853,1
2.555797577,-5.65081501,1,-0.257731527,1,-9.294705391,1,-1.075361967,1,-0.196036726,1,0.7825502157211304,1,0.307415783,1,-0.485225558,1,0.7643281817436218,1
2.559798717,-5.484884262,1,0.077005059,1,-9.483221054,1,-1.01759696,1,-0.174186081,1,0.7460849285125732,1,0.3018165826797485,1,-0.486844629,1,0.767378032,1
2.56379652,-6.368543148,1,0.1894783675670624,1,-9.947464943,1,-0.957505882,1,-0.150797307,1,0.6981738805770874,1,0.2965008616447449,1,-0.488332093,1,0.7702938318252563,1
2.567795992,-5.846237183,1,0.3792342841625214,1,-9.782948494,1,-0.852136672,1,-0.102216572,1,0.6332030296325684,1,0.2915884852409363,1,-0.489592165,1,0.7730169296264648,1
2.571797848,-5.516715527,1,0.096609302,1,-9.406447411,1,-0.776782513,1,-0.094268411,1,0.5911779999732971,1,0.2871505618095398,1,-0.490674227,1,0.7755452394485474,1
2.575795412,-4.931547165,1,-0.12937586,1,-9.141042709,1,-0.707038164,1,-0.094634786,1,0.540134072,1,0.2830634117126465,1,-0.491669804,1,0.7779208421707153,1
2.579794884,-4.972448826,1,-0.60887152,1,-9.177834511,1,-0.640172541,1,-0.110297352,1,0.4937348067760468,1,0.2793674468994141,1,-0.492657155,1,0.7800322771072388,1
2.583796501,-4.887253761,1,-0.714115381,1,-9.286547661,1,-0.602183402,1,-0.099710494,1,0.4801112115383148,1,0.2759461998939514,1,-0.493601292,1,0.7820258140563965,1
2.587794065,-5.002952099,1,-0.709836185,1,-9.545603752,1,-0.529201984,1,-0.112745866,1,0.431890994,1,0.2728187143802643,1,-0.494515538,1,0.7838766574859619,1
2.591793776,-5.197962761,1,-0.959333599,1,-9.133975983,1,-0.497931689,1,-0.091444403,1,0.4522304832935333,1,0.269925058,1,-0.495381802,1,0.7856825590133667,1
2.595795393,-4.963318348,1,-0.984902442,1,-9.147343636,1,-0.440969437,1,-0.09989208,1,0.4143866896629333,1,0.2672027051448822,1,-0.496185094,1,0.78746736,1
2.599793196,-5.227693558,1,-1.559058785,1,-8.966928482,1,-0.415338784,1,-0.096227616,1,0.4150159657001495,1,0.2646969854831696,1,-0.497004151,1,0.7891581058502197,1
2.603792667,-4.356167793,1,-1.597238779,1,-8.862597466,1,-0.397293121,1,-0.117574245,1,0.3912182450294495,1,0.2622744739055634,1,-0.497814924,1,0.790816605,1
2.607794285,-4.872804642,1,-1.886650801,1,-8.671467781,1,-0.388623685,1,-0.113763601,1,0.4016560316085815,1,0.2599489986896515,1,-0.498684675,1,0.7924157381057739,1
2.611791611,-3.981179953,1,-2.150961637,1,-8.642560959,1,-0.383770883,1,-0.089646533,1,0.4095464050769806,1,0.2575672566890717,1,-0.499486327,1,0.794106662,1
2.615791082,-4.905278683,1,-2.712202072,1,-8.386924744,1,-0.392782032,1,-0.123392537,1,0.413368434,1,0.2552148401737213,1,-0.500333071,1,0.7957797050476074,1
2.6197927,-5.319337845,1,-2.868775368,1,-8.44287014,1,-0.40626657,1,-0.113543749,1,0.4306674003601074,1,0.2528144717216492,1,-0.501207113,1,0.7974928617477417,1
2.623790026,-5.206961155,1,-2.203177214,1,-8.828434944,1,-0.384097755,1,-0.114295691,1,0.4059043228626251,1,0.2503957450389862,1,-0.502048671,1,0.7992262244224548,1
2.627789497,-5.757359505,1,-1.89364934,1,-8.506673813,1,-0.351845354,1,-0.073284894,1,0.4021755754947662,1,0.248116672,1,-0.502812386,1,0.8008983135223389,1
2.631797314,-4.001811028,1,-1.635398269,1,-7.983370304,1,-0.339062363,1,-0.077584758,1,0.3956927359104156,1,0.2458836138248444,1,-0.503495574,1,0.8026120662689209,1
2.635801077,-4.93323946,1,-1.722742438,1,-8.461051941,1,-0.324963987,1,-0.117525533,1,0.3925670683383942,1,0.2437767535448074,1,-0.504292786,1,0.8042382001876831,1
2.639800787,-5.10419178,1,-1.764439106,1,-8.533917427,1,-0.315677315,1,-0.115098417,1,0.3907557725906372,1,0.2417022585868835,1,-0.505115628,1,0.8058500289916992,1
2.643802404,-5.457463264,1,-1.765345335,1,-8.291838646,1,-0.306761354,1,-0.097500935,1,0.3908727765083313,1,0.2396817356348038,1,-0.505925119,1,0.8074713349342346,1
2.647799969,-5.024864674,1,-1.716444492,1,-8.555498123,1,-0.281053513,1,-0.145814657,1,0.3661728799343109,1,0.2377977222204208,1,-0.50674814,1,0.8089959621429443,1
2.65179944,-4.867299557,1,-1.625090361,1,-8.59025383,1,-0.270344615,1,-0.151161656,1,0.3602735102176666,1,0.2359902709722519,1,-0.507667243,1,0.8104541301727295,1
2.655801296,-5.053200722,1,-1.354877949,1,-8.868375778,1,-0.252532244,1,-0.156168848,1,0.3632505536079407,1,0.2342590391635895,1,-0.508609116,1,0.8119008541107178,1
2.659799337,-3.645480394,1,-1.39305985,1,-8.654894829,1,-0.231872991,1,-0.149802923,1,0.3596913516521454,1,0.2325256019830704,1,-0.509521008,1,0.813391387,1
2.663798809,-4.802814007,1,-1.428829789,1,-8.640424728,1,-0.226828858,1,-0.182701871,1,0.3560300171375275,1,0.2309175133705139,1,-0.510530889,1,0.814801812,1
2.667800426,-4.791405201,1,-1.53079915,1,-8.66115284,1,-0.222170576,1,-0.19288294,1,0.3490748703479767,1,0.2293594777584076,1,-0.511584103,1,0.8161778450012207,1
2.671797752,-5.024223328,1,-1.603041649,1,-8.698002815,1,-0.206009209,1,-0.208128735,1,0.3401734530925751,1,0.2278476059436798,1,-0.51267004,1,0.8175191879272461,1
2.675797224,-5.170270443,1,-1.236555457,1,-8.185297966,1,-0.194174975,1,-0.190428764,1,0.3291912972927094,1,0.2263884097337723,1,-0.513789713,1,0.8188199400901794,1
2.679799318,-5.145264149,1,-1.030305147,1,-8.547811508,1,-0.168312341,1,-0.246254295,1,0.2967187762260437,1,0.2251157313585281,1,-0.514923751,1,0.8199919462203979,1
2.683797359,-4.823039532,1,-0.820226192,1,-8.751133919,1,-0.138096973,1,-0.248007387,1,0.2892538011074066,1,0.2239850163459778,1,-0.516143441,1,0.8210530281066895,1
2.687796831,-4.752878666,1,-0.815845668,1,-8.676653862,1,-0.123350538,1,-0.265731275,1,0.273253858,1,0.2229613363742828,1,-0.517391443,1,0.8220637440681458,1
2.69179821,-5.001018524,1,-0.742764473,1,-8.683542252,1,-0.088855408,1,-0.276258498,1,0.2601727843284607,1,0.2220870405435562,1,-0.518687308,1,0.8229934573173523,1
2.695796013,-4.916806221,1,-1.046509266,1,-8.554977417,1,-0.07057628,1,-0.290322125,1,0.2544142603874207,1,0.221336842,1,-0.520009875,1,0.8238546848297119,1
2.699795485,-5.091998577,1,-1.312426686,1,-8.565107346,1,-0.063707098,1,-0.287294716,1,0.2517114579677582,1,0.2206550091505051,1,-0.521347106,1,0.82469058,1
2.703797102,-3.908418894,1,-1.620405078,1,-8.029875755,1,-0.053187251,1,-0.258669078,1,0.2464824914932251,1,0.2199390828609467,1,-0.522660017,1,0.825585663,1
2.707794428,-5.279144287,1,-2.05652976,1,-8.140554428,1,-0.065190889,1,-0.293582022,1,0.2490873038768768,1,0.2192935198545456,1,-0.523977757,1,0.8264133930206299,1
2.711794138,-5.254195213,1,-2.266659975,1,-8.251667976,1,-0.072933398,1,-0.282455027,1,0.2468788623809814,1,0.2186012119054794,1,-0.525303483,1,0.8272480964660645,1
2.715795755,-5.331961155,1,-2.408140659,1,-8.057443619,1,-0.085431784,1,-0.271242023,1,0.2511294782161713,1,0.2178710848093033,1,-0.526600897,1,0.8280978202819824,1
2.719793081,-5.281193256,1,-2.375249624,1,-8.098433495,1,-0.095291823,1,-0.269199133,1,0.2547680735588074,1,0.2170790880918503,1,-0.527870953,1,0.8289664387702942,1
2.723792553,-5.264694214,1,-2.222982645,1,-8.145688057,1,-0.103520371,1,-0.256304175,1,0.2564959228038788,1,0.2162357419729233,1,-0.529114783,1,0.8298523426055908,1
2.72779417,-5.274891853,1,-2.087242842,1,-8.114290237,1,-0.11008209,1,-0.248859704,1,0.2535578906536102,1,0.2155551910400391,1,-0.532343268,1,0.8298426270484924,1
2.731791973,-5.361760616,1,-1.981202602,1,-8.091371536,1,-0.122445539,1,-0.238316402,1,0.2548770308494568,1,0.2146259993314743,1,-0.53351438,1,0.830752969,1
2.735791445,-5.845018864,1,-1.910798669,1,-7.686650276,1,-0.143456191,1,-0.199084073,1,0.267219603,1,0.2136047035455704,1,-0.534633934,1,0.8317131400108337,1
2.739792824,-5.562058926,1,-1.687922955,1,-8.230065346,1,-0.12271402,1,-0.221752211,1,0.2394079864025116,1,0.2126219421625137,1,-0.535650015,1,0.8326388001441956,1
2.743790865,-5.407681942,1,-1.689378858,1,-8.150214195,1,-0.131345376,1,-0.197182059,1,0.2283797562122345,1,0.211666152,1,-0.536670685,1,0.8334941267967224,1
2.747790337,-5.276730061,1,-1.515169263,1,-8.190720558,1,-0.131997824,1,-0.19945769,1,0.2272743880748749,1,0.2107106000185013,1,-0.537631452,1,0.8343383073806763,1
2.751797676,-5.539016247,1,-1.342018247,1,-8.216587067,1,-0.130585238,1,-0.188444659,1,0.2162943333387375,1,0.2097616791725159,1,-0.538566053,1,0.8351660370826721,1
2.755801678,-5.330226898,1,-1.420307517,1,-8.131361961,1,-0.128721297,1,-0.181080848,1,0.1996783465147018,1,0.2088455557823181,1,-0.539455175,1,0.8359413146972656,1
2.759801388,-5.337172985,1,-1.460387588,1,-8.216630936,1,-0.122702643,1,-0.181904137,1,0.1868762224912643,1,0.2079890072345734,1,-0.54032886,1,0.8366481065750122,1
2.763802767,-5.242338657,1,-1.568153143,1,-8.203615189,1,-0.132537231,1,-0.177377686,1,0.1765173077583313,1,0.2071388512849808,1,-0.54118073,1,0.837306023,1
2.76780057,-5.661620617,1,-1.680398822,1,-7.847913265,1,-0.147324905,1,-0.163901567,1,0.1811305433511734,1,0.2062470018863678,1,-0.542024791,1,0.8379545211791992,1
2.771800041,-5.341574669,1,-1.504344583,1,-8.374159813,1,-0.136922643,1,-0.190606371,1,0.1527864784002304,1,0.2054004520177841,1,-0.542827666,1,0.8385380506515503,1
2.775801659,-5.391973495,1,-1.479593873,1,-8.157305717,1,-0.133427069,1,-0.175360456,1,0.1365222334861755,1,0.2045967578887939,1,-0.543678522,1,0.8390371799468994,1
2.779798985,-5.327754974,1,-1.219350576,1,-8.161035538,1,-0.127951473,1,-0.18339096,1,0.1373262107372284,1,0.2038290798664093,1,-0.544502974,1,0.8395078182220459,1
2.783798218,-5.401727676,1,-1.22910881,1,-8.268006325,1,-0.119916029,1,-0.179466859,1,0.1261179596185684,1,0.2031133472919464,1,-0.545318484,1,0.8399385213851929,1
2.787799835,-5.335232258,1,-1.156071544,1,-8.244139671,1,-0.114406757,1,-0.180840537,1,0.1182772740721703,1,0.2024408876895905,1,-0.546129107,1,0.8403262495994568,1
2.791797161,-5.324878216,1,-1.191461205,1,-8.241772652,1,-0.106952943,1,-0.172297865,1,0.1100287660956383,1,0.2018190026283264,1,-0.546911597,1,0.8406791090965271,1
2.79579711,-5.818395138,1,-1.283933759,1,-8.420670509,1,-0.107705154,1,-0.180601388,1,0.123980924,1,0.2012250125408173,1,-0.547691941,1,0.8410360217094421,1
2.799798727,-4.666832447,1,-1.245424271,1,-8.327104568,1,-0.079172865,1,-0.156091154,1,0.095457196,1,0.2006381154060364,1,-0.548393548,1,0.8414114117622375,1
2.80379653,-5.476088524,1,-1.441430926,1,-8.087006569,1,-0.084504157,1,-0.16546984,1,0.098295778,1,0.200155959,1,-0.549121797,1,0.8417065143585205,1
2.807796001,-5.335364342,1,-1.427068233,1,-8.071882248,1,-0.079691686,1,-0.152510554,1,0.097344443,1,0.1996590495109558,1,-0.54981792,1,0.8420137763023376,1
2.811797619,-5.376384258,1,-1.516395807,1,-8.10353756,1,-0.075227663,1,-0.149277464,1,0.1004002317786217,1,0.1991811394691467,1,-0.550492525,1,0.8423401117324829,1
2.815795183,-5.343587875,1,-1.497179627,1,-8.108213425,1,-0.080228604,1,-0.146743327,1,0.1018420830368996,1,0.1987127959728241,1,-0.551154375,1,0.8426558971405029,1
2.819794655,-5.295676708,1,-1.455499768,1,-8.10751915,1,-0.078216612,1,-0.138712913,1,0.097162642,1,0.1982368677854538,1,-0.551784217,1,0.8429813981056213,1
2.823796272,-5.547304153,1,-1.447233677,1,-8.22351265,1,-0.07935188,1,-0.137370542,1,0.099341661,1,0.1977543979883194,1,-0.552394569,1,0.8433125615119934,1
2.827794075,-4.677643299,1,-1.409567595,1,-7.913245678,1,-0.063590586,1,-0.103219844,1,0.095813133,1,0.1972345560789108,1,-0.552952111,1,0.8436958789825439,1
2.831793547,-5.416109085,1,-1.449830413,1,-8.129698753,1,-0.073668242,1,-0.12915647,1,0.095364496,1,0.1967990547418594,1,-0.55349344,1,0.8440214395523071,1
2.835795164,-5.218791962,1,-1.273563623,1,-8.127602577,1,-0.065204807,1,-0.117139466,1,0.097368322,1,0.1963472664356232,1,-0.554051518,1,0.8443517088890076,1
2.839792967,-5.21999836,1,-1.24237144,1,-8.137114525,1,-0.058083802,1,-0.118959449,1,0.0916816,1,0.1959270536899567,1,-0.554596841,1,0.8446781635284424,1
2.843792439,-5.264006138,1,-1.213499665,1,-8.190714836,1,-0.052179348,1,-0.114076056,1,0.095131621,1,0.195532426,1,-0.555127382,1,0.8450015187263489,1
2.847793818,-5.2439785,1,-1.350803494,1,-8.181520462,1,-0.052195948,1,-0.116905458,1,0.092227429,1,0.1951459050178528,1,-0.555659413,1,0.8453237414360046,1
2.85179162,-5.476573944,1,-1.43588233,1,-8.401264191,1,-0.065070845,1,-0.132108882,1,0.1058012396097183,1,0.1947389543056488,1,-0.556223333,1,0.8456559777259827,1
2.855791092,-4.636656284,1,-1.375753403,1,-8.173624039,1,-0.047505386,1,-0.111550666,1,0.098009534,1,0.1942997425794601,1,-0.556761146,1,0.8460400104522705,1
2.859792709,-5.361834526,1,-1.514150381,1,-8.134560585,1,-0.054850645,1,-0.132518068,1,0.1055467799305916,1,0.1939122378826141,1,-0.557341993,1,0.8463960289955139,1
2.863790274,-5.357460976,1,-1.56090641,1,-8.029465675,1,-0.053665038,1,-0.126674578,1,0.1068805754184723,1,0.1934957504272461,1,-0.557934463,1,0.8467667102813721,1
2.867789507,-5.386089325,1,-1.63322556,1,-8.070116997,1,-0.061677925,1,-0.127108201,1,0.1144988015294075,1,0.1930561661720276,1,-0.558509946,1,0.8471617102622986,1
2.871797323,-5.322644711,1,-1.606756091,1,-8.096266747,1,-0.06154887,1,-0.119344838,1,0.1183930039405823,1,0.1925790160894394,1,-0.559082568,1,0.8475884199142456,1
2.875800848,-5.374058723,1,-1.59091413,1,-8.09629631,1,-0.069305427,1,-0.112737082,1,0.1245782822370529,1,0.1920788139104843,1,-0.559637249,1,0.8480457067489624,1
2.879800558,-5.93400383,1,-1.569665551,1,-8.356024742,1,-0.08877027,1,-0.116831735,1,0.1396018415689468,1,0.1915147602558136,1,-0.560184479,1,0.8485395908355713,1
2.883802414,-4.645910263,1,-1.303323507,1,-8.250062943,1,-0.062935926,1,-0.08976613,1,0.1208893656730652,1,0.190939799,1,-0.560646713,1,0.8490666151046753,1
2.887799978,-5.548811913,1,-1.231776834,1,-8.116104126,1,-0.065859355,1,-0.102071978,1,0.1232500821352005,1,0.1904254108667374,1,-0.561143458,1,0.8495377898216248,1
2.891799927,-5.36354351,1,-1.236893773,1,-8.053758621,1,-0.056104757,1,-0.08947777,1,0.1148396879434586,1,0.1899272501468658,1,-0.561603963,1,0.8500072360038757,1
2.895801306,-5.455852985,1,-1.299150825,1,-8.07591629,1,-0.056419626,1,-0.087351032,1,0.1151426285505295,1,0.1894625723361969,1,-0.562042058,1,0.8504571318626404,1
2.89979887,-5.292192459,1,-1.238223672,1,-8.06525135,1,-0.054910779,1,-0.081664473,1,0.1064078286290169,1,0.1890047043561935,1,-0.562450886,1,0.8509042859077454,1
2.903798342,-5.733516693,1,-1.151532054,1,-8.468319893,1,-0.061494075,1,-0.086310983,1,0.116972491,1,0.1885506212711334,1,-0.562862456,1,0.8513364195823669,1
2.907799721,-4.395833969,1,-1.026968122,1,-8.155489922,1,-0.028767763,1,-0.061887432,1,0.091612056,1,0.1881145089864731,1,-0.56320101,1,0.8517886400222778,1
2.911797523,-5.337176323,1,-1.058589458,1,-8.15891552,1,-0.032755677,1,-0.086394057,1,0.092615128,1,0.1877939254045486,1,-0.563584328,1,0.8521491885185242,1
2.915796995,-5.13756752,1,-1.172988772,1,-8.18997097,1,-0.026214007,1,-0.082177289,1,0.094399728,1,0.1874847561120987,1,-0.563981652,1,0.8525127172470093,1
2.919798613,-5.209329605,1,-1.340732932,1,-8.265364647,1,-0.019468807,1,-0.094787702,1,0.091980934,1,0.187215582,1,-0.564409614,1,0.8528635501861572,1
2.923796177,-5.139926434,1,-1.367359877,1,-8.340837479,1,-0.014435504,1,-0.101881407,1,0.094585575,1,0.186963826,1,-0.564859033,1,0.853215218,1
2.927795649,-5.033530712,1,-1.419614792,1,-8.356347084,1,-0.008228649,1,-0.117303327,1,0.099396504,1,0.186718225,1,-0.565360487,1,0.8535842299461365,1
2.931797028,-5.556486607,1,-1.389732838,1,-8.689195633,1,-0.016371988,1,-0.142074794,1,0.1233126223087311,1,0.186470702,1,-0.565938711,1,0.8539760112762451,1
2.935794592,-4.264188766,1,-1.297696829,1,-8.576674461,1,0.014267261,1,-0.130084157,1,0.1097401008009911,1,0.186231792,1,-0.56652081,1,0.8544166088104248,1
2.93979454,-5.12844038,1,-1.277108312,1,-8.483119965,1,0.011269045,1,-0.170921624,1,0.1155499368906021,1,0.1860741525888443,1,-0.567229033,1,0.8547984957695007,1
2.943795681,-4.936292648,1,-1.339976668,1,-8.496079445,1,0.011201645,1,-0.188910767,1,0.1186771839857101,1,0.1859180927276611,1,-0.568005443,1,0.8551763296127319,1
2.947793484,-5.027872086,1,-1.243107677,1,-8.51172924,1,0.015876586,1,-0.204162195,1,0.1155667081475258,1,0.1857712119817734,1,-0.568865418,1,0.8555513024330139,1
2.951792955,-5.013357162,1,-1.330852985,1,-8.472948074,1,0.026572362,1,-0.227804601,1,0.1197778508067131,1,0.1856601685285568,1,-0.569802642,1,0.8559134602546692,1
2.955794334,-5.0497365,1,-1.354536891,1,-8.530150414,1,0.034038097,1,-0.252184391,1,0.1206902787089348,1,0.1855913251638412,1,-0.570833981,1,0.8562642931938171,1
2.959791899,-4.966887951,1,-1.274957061,1,-8.567417145,1,0.044782802,1,-0.279240131,1,0.1193109750747681,1,0.1855563670396805,1,-0.571962595,1,0.856596828,1
2.963791132,-5.157599449,1,-1.270542741,1,-8.195405006,1,0.033796865,1,-0.281788975,1,0.1283226907253265,1,0.1855074912309647,1,-0.573190451,1,0.8569514751434326,1
2.967793226,-5.063780308,1,-1.267584205,1,-8.643217087,1,0.050810397,1,-0.331649274,1,0.1165522783994675,1,0.1855431944131851,1,-0.574470997,1,0.8572429418563843,1
2.971791029,-5.233984947,1,-1.152498603,1,-8.535848618,1,0.061123084,1,-0.347089171,1,0.1200469434261322,1,0.1856219321489334,1,-0.575893223,1,0.8575003147125244,1
2.975790501,-5.103255272,1,-1.312114,1,-8.614010811,1,0.064143412,1,-0.374271274,1,0.1240564733743668,1,0.1852811723947525,1,-0.577542067,1,0.8586853742599487,1
2.979792118,-5.128916264,1,-1.459291697,1,-8.62563324,1,0.056365795,1,-0.399648815,1,0.1276139318943024,1,0.1854159533977509,1,-0.579102874,1,0.8592244386672974,1
2.983789682,-4.985267162,1,-1.307707667,1,-8.578323364,1,0.070433594,1,-0.429922432,1,0.1293275356292725,1,0.1855466812849045,1,-0.58083719,1,0.8594504594802856,1
2.987789154,-5.15453577,1,-1.231208205,1,-8.716349602,1,0.069169946,1,-0.458831877,1,0.136118472,1,0.185692623,1,-0.58267951,1,0.8596831560134888,1
2.991796732,-5.060203552,1,-1.640023947,1,-8.6401577,1,0.066030815,1,-0.492050946,1,0.1468177288770676,1,0.1858331561088562,1,-0.584653974,1,0.8599250316619873,1
2.995800257,-5.175881386,1,-1.687215209,1,-8.599952698,1,0.060865544,1,-0.5206182,1,0.1572564989328384,1,0.1859447658061981,1,-0.58675611,1,0.8601964712142944,1
2.999800205,-5.190273285,1,-1.707231641,1,-8.681588173,1,0.06172822,1,-0.548337221,1,0.1694972217082977,1,0.1860155612230301,1,-0.588971555,1,0.8605057001113892,1
