Time,inertial-6253.76535:estCompensatedAccelX,inertial-6253.76535:estCompensatedAccelX:valid,inertial-6253.76535:estCompensatedAccelY,inertial-6253.76535:estCompensatedAccelY:valid,inertial-6253.76535:estCompensatedAccelZ,inertial-6253.76535:estCompensatedAccelZ:valid,inertial-6253.76535:estAngularRateX,inertial-6253.76535:estAngularRateX:valid,inertial-6253.76535:estAngularRateY,inertial-6253.76535:estAngularRateY:valid,inertial-6253.76535:estAngularRateZ,inertial-6253.76535:estAngularRateZ:valid,inertial-6253.76535:estRoll,inertial-6253.76535:estRoll:valid,inertial-6253.76535:estPitch,inertial-6253.76535:estPitch:valid,inertial-6253.76535:estYaw,inertial-6253.76535:estYaw:valid
14.2020483,-4.474081993,1,0.074215353,1,-8.688038826,1,-0.117405891,1,-0.403510928,1,0.090280123,1,-0.127934277,0,-0.656505525,0,-0.248103589,0
14.20604992,-4.56198597,1,0.299073279,1,-8.741985321,1,-0.093066469,1,-0.422499835,1,0.08005321,1,-0.127928272,0,-0.657983541,0,-0.290585726,0
14.21004772,-4.74633503,1,0.321448714,1,-8.697731972,1,-0.067747064,1,-0.42286697,1,0.057786856,1,-0.128626972,0,-0.659623802,0,-0.289977074,0
14.21404743,-4.700723171,1,0.447796255,1,-8.741696358,1,-0.037120625,1,-0.430359036,1,0.036729716,1,-0.129163519,0,-0.661292315,0,-0.289458156,0
14.21805,-4.812731743,1,0.372628808,1,-8.767220497,1,-0.010254483,1,-0.43621552,1,0.023122173,1,-0.129536912,0,-0.663000762,0,-0.289011121,0
14.2220459,-4.942834854,1,0.312850028,1,-8.640532494,1,0.012244614,1,-0.435817301,1,0.004377435,1,-0.129769847,0,-0.664733112,0,-0.288640797,0
14.22604561,-4.937402248,1,0.325937182,1,-8.623277664,1,0.027857583,1,-0.443551898,1,-0.005625307,1,-0.129878551,0,-0.666484118,0,-0.28835243,0
14.23004818,-5.044373035,1,0.089398548,1,-8.506083488,1,0.040617656,1,-0.436507702,1,-0.012491131,1,-0.129896909,0,-0.668234408,0,-0.288107336,0
14.23404408,-4.894788742,1,-0.073839217,1,-8.515755653,1,0.046819005,1,-0.431583703,1,-0.018664815,1,-0.129855454,0,-0.669965327,0,-0.28789407,0
14.23804379,-5.034389496,1,-0.102456167,1,-8.466526985,1,0.049849611,1,-0.429114252,1,-0.023138089,1,-0.129775301,0,-0.67167747,0,-0.287707508,0
14.24204636,-5.180957794,1,-0.121209808,1,-8.397820473,1,0.054981261,1,-0.415934563,1,-0.026194086,1,-0.129661873,0,-0.673363149,0,-0.287547469,0
14.24604321,-5.247694492,1,-0.05622137,1,-8.315870285,1,0.058680598,1,-0.399354875,1,-0.029961791,1,-0.129512951,0,-0.675004005,0,-0.287417382,0
14.25004292,-5.329511642,1,-0.172702536,1,-8.272151947,1,0.068775222,1,-0.390843749,1,-0.034786563,1,-0.12931335,0,-0.676597476,0,-0.287328303,0
14.25404453,-5.183770657,1,-0.294929504,1,-8.264743805,1,0.066689812,1,-0.377855778,1,-0.034432575,1,-0.12909463,0,-0.678135812,0,-0.28724575,0
14.25804138,-5.204915047,1,-0.395755827,1,-8.341875076,1,0.067393608,1,-0.3659603,1,-0.035163522,1,-0.12885806,0,-0.67962575,0,-0.287173569,0
14.26204205,-5.124370098,1,-0.566761971,1,-8.276265144,1,0.060439382,1,-0.351204038,1,-0.023680793,1,-0.128658354,0,-0.681055546,0,-0.28708303,0
14.26604271,-5.299387455,1,-0.620151043,1,-8.297513962,1,0.051946487,1,-0.337750733,1,-0.015384221,1,-0.128514513,0,-0.682437181,0,-0.286948085,0
14.27004051,-5.424267769,1,-0.628771722,1,-8.284002304,1,0.04153432,1,-0.324373603,1,-0.004633994,1,-0.128421128,0,-0.683760881,0,-0.28678447,0
14.27404022,-5.374851227,1,-0.588710308,1,-8.187077522,1,0.033937313,1,-0.297923565,1,0.001698413,1,-0.128419653,0,-0.684987664,0,-0.286578089,0
14.27804184,-5.187822819,1,-0.577093363,1,-8.147170067,1,0.027676728,1,-0.285620302,1,0.005358695,1,-0.128416255,0,-0.686147273,0,-0.286364257,0
14.28204536,-5.160720348,1,-0.55611825,1,-8.157752037,1,0.021783976,1,-0.274354786,1,0.012872268,1,-0.128458038,0,-0.687255263,0,-0.286134481,0
14.28604507,-5.102502346,1,-0.551371634,1,-8.15228653,1,0.00780766,1,-0.264584601,1,0.023006294,1,-0.128579706,0,-0.688321233,0,-0.28585875,0
14.29004669,-4.995711327,1,-0.653756559,1,-8.151152611,1,0.001789182,1,-0.253495008,1,0.033489637,1,-0.128755301,0,-0.689330876,0,-0.285540849,0
14.2940445,-4.975510597,1,-0.738056481,1,-8.117111206,1,-0.010613847,1,-0.250218809,1,0.041541919,1,-0.12901251,0,-0.690315723,0,-0.285174549,0
14.29804325,-5.016813278,1,-0.79054755,1,-8.17996788,1,-0.017938221,1,-0.252684534,1,0.049214754,1,-0.129345432,0,-0.691290379,0,-0.284761876,0
14.30204487,-4.849637032,1,-0.71194315,1,-8.152050972,1,-0.029309528,1,-0.249306083,1,0.054854129,1,-0.129717246,0,-0.692251027,0,-0.284324437,0
14.30604267,-4.98786974,1,-0.562798321,1,-8.160009384,1,-0.034993112,1,-0.249777824,1,0.06201569,1,-0.130143031,0,-0.693210185,0,-0.283843488,0
14.31004238,-4.84136343,1,-0.303896248,1,-8.22560215,1,-0.035214283,1,-0.24728097,1,0.056466404,1,-0.13058196,0,-0.694167912,0,-0.283373803,0
14.314044,-4.893929005,1,-0.204859316,1,-8.36448288,1,-0.031596582,1,-0.259646446,1,0.054060325,1,-0.131009877,0,-0.695146799,0,-0.282911539,0
14.31804085,-4.926667213,1,-0.130758077,1,-8.295093536,1,-0.026312688,1,-0.258757681,1,0.050205011,1,-0.131414399,0,-0.69615376,0,-0.282466382,0
14.32204056,-5.104602337,1,-0.109079339,1,-8.38944149,1,-0.020359285,1,-0.268048674,1,0.047563117,1,-0.131770924,0,-0.697173953,0,-0.282034218,0
14.32604218,-4.939539433,1,-0.179569378,1,-8.307008743,1,-0.012466703,1,-0.261910558,1,0.0413386,1,-0.132112384,0,-0.698196054,0,-0.281616807,0
14.33003998,-5.016193867,1,-0.148571283,1,-8.343135834,1,-0.014904917,1,-0.270920396,1,0.036960896,1,-0.132413581,0,-0.699228406,0,-0.281235933,0
14.33403969,-5.126229286,1,0.079672404,1,-8.331149101,1,-0.000445348,1,-0.270647585,1,0.033999223,1,-0.132680491,0,-0.700284481,0,-0.280855775,0
14.33804131,-5.060749054,1,0.054187298,1,-8.361774445,1,0.003745086,1,-0.273503125,1,0.027628653,1,-0.132894307,0,-0.701344311,0,-0.280516803,0
14.34203816,-4.980554581,1,-0.066090629,1,-8.235303879,1,0.02114315,1,-0.279295623,1,0.01119265,1,-0.133035064,0,-0.702432454,0,-0.280221701,0
14.34603787,-5.095387936,1,-0.06508553,1,-8.326272011,1,0.026806749,1,-0.29212901,1,0.008523822,1,-0.13310717,0,-0.703567743,0,-0.279966801,0
14.35003948,-5.054816723,1,-0.129326135,1,-8.385836601,1,0.022627866,1,-0.299161792,1,0.002114172,1,-0.133161753,0,-0.704736352,0,-0.279731572,0
14.35403633,-5.110966682,1,-0.399565786,1,-8.370376587,1,0.030124051,1,-0.306313962,1,0.004261987,1,-0.133193329,0,-0.705935001,0,-0.279506296,0
14.35803604,-5.079230785,1,-0.367481291,1,-8.268509865,1,0.034795597,1,-0.310721278,1,0.002516516,1,-0.133209109,0,-0.707156241,0,-0.279277265,0
14.36203861,-5.123186111,1,-0.403994203,1,-8.273347855,1,0.025307026,1,-0.320406139,1,0.008465957,1,-0.133250117,0,-0.708402991,0,-0.279032707,0
14.36603642,-5.217453003,1,-0.371053964,1,-8.263612747,1,0.027365053,1,-0.316448331,1,0.008369361,1,-0.133297086,0,-0.709665537,0,-0.278766513,0
14.37003613,-5.113820553,1,-0.217717141,1,-8.31930542,1,0.038120128,1,-0.321924925,1,-0.009530191,1,-0.133305952,0,-0.710918784,0,-0.278552234,0
14.37403774,-5.208352566,1,-0.208631754,1,-8.274884224,1,0.04057084,1,-0.324673086,1,-0.010050952,1,-0.133269593,0,-0.712209523,0,-0.278368592,0
14.37803555,-5.152637005,1,-0.353671819,1,-8.349975586,1,0.052468512,1,-0.329149157,1,-0.016272981,1,-0.133194476,0,-0.713511527,0,-0.278202355,0
14.3820343,-5.136991978,1,-0.351621836,1,-8.350351334,1,0.06200983,1,-0.335348278,1,-0.021495659,1,-0.133054465,0,-0.714839697,0,-0.278083533,0
14.38603592,-5.040850163,1,-0.418648094,1,-8.465519905,1,0.063845798,1,-0.343686253,1,-0.026806079,1,-0.132875487,0,-0.716204524,0,-0.2779634,0
14.39003372,-5.079015255,1,-0.512312472,1,-8.4691782,1,0.070943534,1,-0.362172127,1,-0.016138388,1,-0.132689074,0,-0.717617631,0,-0.277837753,0
14.39403343,-4.970894814,1,-0.728347242,1,-8.597870827,1,0.06374222,1,-0.370275497,1,-0.002495786,1,-0.132562339,0,-0.719064713,0,-0.277624011,0
14.3980341,-5.05009222,1,-0.741717398,1,-8.58374691,1,0.058536705,1,-0.386366516,1,-0.003918924,1,-0.132483169,0,-0.720557809,0,-0.277367949,0
14.40203762,-4.837141037,1,-0.410365403,1,-8.663116455,1,0.060500886,1,-0.408170968,1,0.000740503,1,-0.13241832,0,-0.722132087,0,-0.277090043,0
14.40603733,-5.069003105,1,-0.064682603,1,-8.714388847,1,0.072520629,1,-0.434490919,1,-0.00839117,1,-0.132350907,0,-0.723797441,0,-0.276809156,0
14.41003895,-5.220977783,1,0.061806332,1,-8.648385048,1,0.089996308,1,-0.452290684,1,-0.02484853,1,-0.132164359,0,-0.725572228,0,-0.276604176,0
14.41403675,-5.158697128,1,0.171788186,1,-8.759037971,1,0.116761759,1,-0.475135952,1,-0.039556351,1,-0.131860867,0,-0.727426767,0,-0.276445657,0
14.41803551,-5.042897701,1,0.126488805,1,-8.87663269,1,0.147400334,1,-0.507558465,1,-0.060796861,1,-0.131380811,0,-0.729406357,0,-0.276367188,0
14.42203713,-4.439531803,1,-0.189190701,1,-8.968969345,1,0.153072402,1,-0.547121823,1,-0.079275258,1,-0.130784437,0,-0.73153019,0,-0.276369214,0
14.42603493,-4.810204506,1,-0.121243052,1,-8.813351631,1,0.171230823,1,-0.607482255,1,-0.094889455,1,-0.130088642,0,-0.73387289,0,-0.276430726,0
14.43003464,-5.216553688,1,0.188827962,1,-9.049602509,1,0.199239999,1,-0.644028842,1,-0.112465717,1,-0.12928386,0,-0.736400664,0,-0.276538968,0
14.4340353,-4.864760399,1,0.682964146,1,-9.065962791,1,0.284662932,1,-0.680018008,1,-0.124307491,1,-0.12819016,0,-0.739094436,0,-0.276715815,0
14.4380331,-4.69639492,1,0.136024252,1,-9.116326332,1,0.290450275,1,-0.74281013,1,-0.129339546,1,-0.126913875,0,-0.741972148,0,-0.276902705,0
14.44203281,-4.960335732,1,-0.293056607,1,-9.103009224,1,0.331650376,1,-0.80388397,1,-0.135182813,1,-0.125537559,0,-0.745118141,0,-0.277105153,0
14.44603539,-4.875025749,1,-0.295873672,1,-9.578473091,1,0.401854336,1,-0.869057357,1,-0.124273412,1,-0.123982094,0,-0.748511255,0,-0.277258098,0
14.45003223,-3.905712605,1,-1.48935318,1,-9.506052017,1,0.347236633,1,-0.948775232,1,-0.119272247,1,-0.122417882,0,-0.752173245,0,-0.277296782,0
14.45403194,-4.112176895,1,-1.091545939,1,-9.407530785,1,0.310464323,1,-1.065809369,1,-0.12469285,1,-0.119601361,0,-0.755706728,0,-0.316163659,0
14.45803452,-5.045176506,1,-0.08423695,1,-9.810791969,1,0.402090222,1,-1.154361606,1,-0.090367824,1,-0.118273564,0,-0.760181308,0,-0.316041827,0
14.46203232,-4.806967258,1,-1.212037921,1,-9.618560791,1,0.431309015,1,-1.222335577,1,-0.057962988,1,-0.11683853,0,-0.764929175,0,-0.315672219,0
14.46603012,-4.447650433,1,-2.56766367,1,-9.863049507,1,0.402716994,1,-1.31912744,1,-0.026576553,1,-0.115566783,0,-0.769993782,0,-0.315094143,0
14.47003269,-4.242106915,1,-2.528154373,1,-9.797192574,1,0.361597538,1,-1.444198966,1,0.011677529,1,-0.11463286,0,-0.775494337,0,-0.314256489,0
14.4740305,-4.429434776,1,-2.42386961,1,-10.46589947,1,0.354135901,1,-1.554640651,1,0.094117589,1,-0.114086471,0,-0.781423092,0,-0.313005507,0
14.47802925,-3.898029804,1,-3.18392992,1,-10.43302536,1,0.289779484,1,-1.681800485,1,0.148393989,1,-0.114028707,0,-0.787788212,0,-0.311269879,0
14.48203087,-4.145789146,1,-2.870643616,1,-10.73411465,1,0.281122059,1,-1.843694091,1,0.197785243,1,-0.114419043,0,-0.794711232,0,-0.309150398,0
14.48602867,-4.03034687,1,-2.057872772,1,-11.25502682,1,0.277268529,1,-1.989468217,1,0.257421345,1,-0.115126185,0,-0.802205145,0,-0.306584179,0
14.49002838,-4.134252071,1,-2.932168245,1,-12.2717104,1,0.207047567,1,-2.164146662,1,0.289013684,1,-0.116268873,0,-0.810316265,0,-0.303625852,0
14.49403,-3.157726765,1,-2.428857327,1,-12.32681274,1,0.118432529,1,-2.401152372,1,0.272138983,1,-0.117963515,0,-0.819217801,0,-0.300446689,0
14.4980278,-3.6060009,1,-1.362321138,1,-13.51872063,1,0.154226899,1,-2.669089794,1,0.281528145,1,-0.119923055,0,-0.829151452,0,-0.297067285,0
14.50202751,-3.377115965,1,-1.255885482,1,-13.92293549,1,0.202103347,1,-2.940647364,1,0.306074351,1,-0.121993512,0,-0.84013778,0,-0.293318927,0
14.50602818,-3.036544323,1,-2.985234976,1,-14.3500824,1,0.175748453,1,-3.249097824,1,0.343825579,1,-0.124394827,0,-0.852253079,0,-0.289074987,0
14.51002598,-2.163526773,1,-2.668287039,1,-14.35713196,1,0.134936601,1,-3.616683483,1,0.379216254,1,-0.127447218,0,-0.865660667,0,-0.284267247,0
14.51402569,-2.233647108,1,-1.555175662,1,-15.76173019,1,0.194675192,1,-4.009649277,1,0.452797621,1,-0.131111324,0,-0.880577803,0,-0.278645694,0
14.51802635,-3.069498539,1,-2.790197372,1,-16.62041092,1,0.161933795,1,-4.362775803,1,0.572804391,1,-0.135650858,0,-0.896903992,0,-0.271841705,0
14.52202988,0.27862981,1,-2.089770555,1,-15.33989239,1,0.147309795,1,-4.82602644,1,0.584636092,1,-0.141184479,0,-0.914703012,0,-0.264057249,0
14.52602959,-0.358549625,1,-1.142966509,1,-16.46443176,1,0.251932591,1,-5.446248531,1,0.63868767,1,-0.147543192,0,-0.934730232,0,-0.255118817,0
14.5300312,-2.367425919,1,-2.158631086,1,-17.15699005,1,0.367551267,1,-6.005903721,1,0.810220182,1,-0.154979646,0,-0.956912756,0,-0.244422659,0
14.53402901,-3.013473034,1,-3.385989428,1,-17.426651,1,0.469473511,1,-6.573245049,1,0.988358021,1,-0.164285481,0,-0.981179655,0,-0.231058225,0
14.53802776,-5.0390625,1,-5.487151623,1,-20.10586166,1,0.463648736,1,-7.116173267,1,1.146483183,1,-0.175999731,0,-1.007485747,0,-0.214847535,0
14.54202938,-3.059430838,1,-6.609144211,1,-17.53629303,1,0.473729044,1,-7.439491749,1,1.425742388,1,-0.191088125,0,-1.035192609,0,-0.194975704,0
14.54602718,1.456869364,1,-6.71721077,1,-15.14321995,1,0.487260044,1,-8.009694099,1,1.56682384,1,-0.210109219,0,-1.064181685,0,-0.170860663,0
14.55002689,-3.933720589,1,-5.797959328,1,-18.07108879,1,0.482889414,1,-8.582928658,1,1.823282957,1,-0.234164804,0,-1.095182776,0,-0.141356945,0
14.55402947,-10.44162464,1,-6.085750103,1,-22.35111809,1,0.355403215,1,-8.536920547,1,1.99118638,1,-0.264671981,0,-1.126600623,0,-0.105429426,0
14.55802631,-15.7027626,1,-10.04642677,1,-24.8215847,1,0.118589357,1,-8.185038567,1,2.099201202,1,-0.301243782,0,-1.156472921,0,-0.064169109,0
14.56202507,-14.53839302,1,-12.75333214,1,-20.3152771,1,-0.122961096,1,-7.912665367,1,2.349306822,1,-0.345180869,0,-1.184102774,0,-0.016440652,0
14.56602764,-13.25579357,1,-12.03878975,1,-19.3972683,1,-0.4200809,1,-7.910498142,1,2.548153877,1,-0.399003208,0,-1.209964275,0,0.040137939,0
14.57002449,-20.65584564,1,-8.451415062,1,-19.9489994,1,-0.491931051,1,-7.714501858,1,2.692697287,1,-0.463046134,0,-1.23414278,0,0.106275186,0
14.57402515,-19.75190926,1,-8.919187546,1,-18.12006187,1,-0.546970606,1,-7.301688194,1,3.055938482,1,-0.537410796,0,-1.254932284,0,0.182563275,0
14.57802677,-16.56515312,1,-8.384304047,1,-18.06638908,1,-0.617258847,1,-7.098963261,1,3.223795891,1,-0.622706532,0,-1.272097826,0,0.269583642,0
14.58202457,-20.45990372,1,-6.955052376,1,-19.54117584,1,-0.676413953,1,-6.873476982,1,3.430396318,1,-0.717836916,0,-1.285817385,0,0.366223693,0
14.58602428,-21.13093185,1,-7.467777729,1,-16.75179291,1,-0.821022511,1,-6.444861412,1,3.549675941,1,-0.820245683,0,-1.29524219,0,0.469642252,0
14.5900259,-12.82743359,1,-8.370672226,1,-13.27282715,1,-0.797562063,1,-6.434120178,1,3.429115295,1,-0.925912201,0,-1.300947666,0,0.575961292,0
14.59402371,-21.29011345,1,-6.802457809,1,-17.17679214,1,-0.613374293,1,-6.315281868,1,3.244259357,1,-1.033558846,0,-1.304234147,0,0.684649408,0
14.59802246,-20.20977402,1,-7.08187294,1,-15.55868435,1,-0.304043889,1,-5.438367844,1,3.181196451,1,-1.133839965,0,-1.303941011,0,0.786671877,0
14.60202408,-9.192626953,1,-7.24783802,1,-12.62249184,1,0.003530327,1,-4.796214104,1,3.02654314,1,-1.219792128,0,-1.300201535,0,0.875222206,0
14.60602093,-12.70020008,1,-6.849628925,1,-15.13760853,1,0.191104129,1,-4.104292393,1,2.778561831,1,-1.293166518,0,-1.294712901,0,0.951844752,0
14.61002064,-15.58231163,1,-7.879997253,1,-18.03821373,1,0.418621838,1,-2.812261343,1,2.604856014,1,-1.348124862,0,-1.28777802,0,1.010260701,0
14.61402226,-11.27542114,1,-9.04169178,1,-19.1063633,1,0.679449737,1,-1.646136284,1,2.556059361,1,-1.38226521,0,-1.279484868,0,1.048140049,0
14.61802006,-5.17304039,1,-10.51058483,1,-18.54523849,1,0.797980905,1,-0.851091921,1,2.43213439,1,-1.400958419,0,-1.270488381,0,1.070834398,0
14.62201977,-0.723437369,1,-11.68481827,1,-17.34608269,1,0.880268395,1,-0.37582764,1,2.200924158,1,-1.409971356,0,-1.261729479,0,1.083781958,0
14.62602139,4.184578896,1,-11.70912266,1,-14.97088337,1,0.978145182,1,-0.07676132,1,2.039866686,1,-1.413023233,0,-1.253511429,0,1.090906978,0
14.63001919,10.73239899,1,-11.58811855,1,-10.51011181,1,0.906416893,1,-0.071923167,1,2.001466751,1,-1.413545609,0,-1.245590329,0,1.095511317,0
14.6340189,11.46596718,1,-10.891325,1,-7.696668625,1,0.808719873,1,-0.441953987,1,1.764678478,1,-1.416339517,0,-1.238266706,0,1.102011085,0
14.63801956,-4.756221771,1,-9.470259666,1,-9.857384682,1,0.897467494,1,-0.392748475,1,1.717542291,1,-1.421508789,0,-1.231724024,0,1.111051798,0
14.64201737,-5.023806572,1,-9.861523628,1,-12.0430851,1,1.134824276,1,0.26139611,1,1.657521725,1,-1.421071172,0,-1.225028038,0,1.114913464,0
14.6460228,-0.189010412,1,-10.06215477,1,-13.3214283,1,1.295981288,1,0.844464064,1,1.404967904,1,-1.412647843,0,-1.218621254,0,1.11113441,0
14.65002537,2.728538036,1,-10.04885006,1,-12.01561737,1,1.344979167,1,1.286929965,1,1.193425417,1,-1.398143768,0,-1.212807894,0,1.101347804,0
14.65402222,5.101644039,1,-9.518772125,1,-9.941838264,1,1.260820031,1,1.533827782,1,1.012274742,1,-1.380200267,0,-1.207440853,0,1.087751865,0
14.65802193,7.257392883,1,-9.044939041,1,-8.627819061,1,1.216720104,1,1.646306396,1,0.809608877,1,-1.360811591,0,-1.202603579,0,1.072274208,0
14.66202354,8.931126595,1,-7.820205212,1,-7.99916172,1,1.257684827,1,1.632261395,1,0.664293587,1,-1.340989113,0,-1.198299646,0,1.056286931,0
14.66602039,9.292488098,1,-6.589191914,1,-7.494016647,1,1.439979553,1,1.564872861,1,0.543385208,1,-1.32125175,0,-1.194437027,0,1.040836692,0
14.67002106,8.264129639,1,-6.152851582,1,-7.282728672,1,1.64176333,1,1.510262847,1,0.436332554,1,-1.301425219,0,-1.190964103,0,1.026146412,0
14.67402268,7.185761929,1,-5.944881916,1,-7.466708183,1,1.789504409,1,1.519557953,1,0.311081141,1,-1.281101465,0,-1.187844038,0,1.011670709,0
14.67802143,6.510320187,1,-5.187666416,1,-7.80491209,1,1.902915835,1,1.585919499,1,0.155893281,1,-1.259754062,0,-1.185116291,0,0.996606886,0
14.68202114,5.713677883,1,-4.67634964,1,-8.140728951,1,2.021973133,1,1.680896759,1,-0.004409575,1,-1.236948609,0,-1.182765007,0,0.98046118,0
14.68602276,5.006203651,1,-4.262577534,1,-8.198066711,1,2.164991379,1,1.798024654,1,-0.170430407,1,-1.21232295,0,-1.180731058,0,0.962891877,0
14.69002056,4.567361832,1,-4.098326683,1,-8.197457314,1,2.306755304,1,1.916734099,1,-0.341476232,1,-1.185678005,0,-1.178975224,0,0.943753719,0
14.69401932,3.895141602,1,-3.941791773,1,-8.339818954,1,2.434089899,1,2.038327217,1,-0.505567551,1,-1.15699625,0,-1.17745924,0,0.922989309,0
14.69802094,3.233146667,1,-3.675841808,1,-8.676703453,1,2.535125732,1,2.176997185,1,-0.670891225,1,-1.126268148,0,-1.176090956,0,0.900480509,0
14.70201874,2.662013531,1,-3.343373775,1,-8.928434372,1,2.617377758,1,2.328423023,1,-0.836657941,1,-0.166633546,0,-1.103912473,0,0.488106519,0
14.70601845,2.514258623,1,-3.035341263,1,-9.076581955,1,2.680759907,1,2.477100849,1,-1.002811909,1,-0.149037123,0,-1.091490269,0,0.450162441,0
14.71002007,2.503958941,1,-2.702178955,1,-9.139322281,1,2.725431919,1,2.600132704,1,-1.154863119,1,-0.127450019,0,-1.082022309,0,0.437997013,0
14.71401787,2.34047389,1,-2.249022722,1,-9.175954819,1,2.753124475,1,2.699607134,1,-1.298300982,1,-0.105159946,0,-1.072058678,0,0.425115734,0
14.71801758,2.166640282,1,-1.689783931,1,-9.332532883,1,2.764683485,1,2.784146786,1,-1.428574681,1,-0.082420446,0,-1.061662078,0,0.41174078,0
14.7220192,1.790908098,1,-1.092039227,1,-9.613703728,1,2.772212267,1,2.863352537,1,-1.539720535,1,-0.059461411,0,-1.050821304,0,0.39808017,0
14.726017,1.413207769,1,-0.355875462,1,-9.992361069,1,2.792558432,1,2.943464756,1,-1.634934902,1,-0.036445212,0,-1.039526105,0,0.384333014,0
14.73001576,0.778430879,1,0.541005611,1,-10.48101044,1,2.830067635,1,3.024756908,1,-1.722646832,1,-0.013431114,0,-1.027769923,0,0.37062633,0
14.73401737,-0.062898405,1,1.276661038,1,-10.95250511,1,2.881142139,1,3.127089262,1,-1.788819313,1,0.009498487,0,-1.015482664,0,0.357124746,0
14.73801518,-0.857513428,1,1.787816882,1,-11.3360033,1,2.9314363,1,3.249841452,1,-1.854310751,1,0.032279626,0,-1.002591252,0,0.343947411,0
14.74201489,-1.623144984,1,2.238058329,1,-11.6685133,1,2.966618776,1,3.382127762,1,-1.89621222,1,0.054759141,0,-0.989015222,0,0.331231534,0
14.74601555,-2.234244108,1,2.595710516,1,-12.00218105,1,2.982975483,1,3.526507854,1,-1.91318965,1,0.076695465,0,-0.974717319,0,0.319164395,0
14.75001335,-2.848904133,1,2.895833731,1,-12.36903477,1,2.989361286,1,3.688483953,1,-1.916320562,1,0.09788648,0,-0.959679127,0,0.307934821,0
14.75401306,-3.419543982,1,3.179417849,1,-12.66306496,1,2.979874372,1,3.850088358,1,-1.896978855,1,0.118189871,0,-0.943876028,0,0.297675669,0
14.75801468,-3.855545282,1,3.562378168,1,-12.85769272,1,2.964734316,1,4.02906847,1,-1.846017361,1,0.137444898,0,-0.92729646,0,0.288529575,0
14.76201248,-4.214951038,1,3.860484362,1,-12.98208046,1,2.939709425,1,4.213511467,1,-1.782765388,1,0.155521229,0,-0.909930408,0,0.280651093,0
14.76601887,-4.368926525,1,4.121039867,1,-12.94536304,1,2.915387392,1,4.37156105,1,-1.717799067,1,0.172412813,0,-0.89184618,0,0.274049699,0
14.77002049,-4.484446049,1,4.680653572,1,-13.02322483,1,2.88394022,1,4.522253513,1,-1.633772373,1,0.188152105,0,-0.873144686,0,0.268687189,0
14.77401829,-4.380101681,1,5.101402283,1,-13.06521034,1,2.877477169,1,4.656852722,1,-1.546073318,1,0.202787116,0,-0.853893757,0,0.264591396,0
14.778018,-4.195054054,1,5.367070198,1,-13.05676556,1,2.87921381,1,4.753564358,1,-1.46895647,1,0.216516033,0,-0.834232628,0,0.261624366,0
14.78201866,-4.288852215,1,5.790807724,1,-13.26027203,1,2.891557693,1,4.82750845,1,-1.401259303,1,0.229534388,0,-0.814275026,0,0.259631574,0
14.78601646,-4.279239178,1,6.018885136,1,-13.37482643,1,2.908774853,1,4.877020836,1,-1.34457159,1,0.241966262,0,-0.794123888,0,0.258472294,0
14.79001617,-4.441533089,1,6.09530735,1,-13.54132938,1,2.9332335,1,4.907279968,1,-1.297641754,1,0.253976911,0,-0.773849428,0,0.258021027,0
14.79401779,-4.656752586,1,6.10708952,1,-13.70267391,1,2.942141771,1,4.944757462,1,-1.258789778,1,0.265612394,0,-0.753484726,0,0.258187711,0
14.79801464,-5.077798367,1,6.06874752,1,-13.86229706,1,2.952451468,1,4.967666149,1,-1.229706883,1,0.27693063,0,-0.733051062,0,0.258891642,0
14.80201435,-5.415323734,1,6.006120205,1,-14.11491108,1,2.953758955,1,4.999741077,1,-1.202877164,1,0.287948936,0,-0.712539017,0,0.260076553,0
14.80601597,-5.807048321,1,5.875246525,1,-14.36829758,1,2.932986259,1,5.038972855,1,-1.177534938,1,0.298669875,0,-0.691937983,0,0.261711717,0
14.81001377,-6.061112881,1,5.716318607,1,-14.60199547,1,2.918939114,1,5.074392796,1,-1.145852804,1,0.309064627,0,-0.671242714,0,0.263794512,0
14.81401348,-6.301661491,1,5.610369682,1,-14.85387993,1,2.901441336,1,5.103915215,1,-1.11449492,1,0.319153488,0,-0.650480986,0,0.26630944,0
14.8180151,-6.674976349,1,5.720088959,1,-15.12817955,1,2.887253046,1,5.13356638,1,-1.089424253,1,0.328986168,0,-0.629681468,0,0.269227594,0
14.8220129,-6.990266323,1,5.6650033,1,-15.41972446,1,2.890420914,1,5.157682419,1,-1.049161792,1,0.338604927,0,-0.608831227,0,0.27255708,0
14.82601166,-7.439096928,1,5.796060562,1,-15.66684151,1,2.90171051,1,5.187320232,1,-1.019007683,1,0.348098546,0,-0.587961316,0,0.276263773,0
14.83001328,-7.931837559,1,5.62406826,1,-15.95861721,1,2.928930759,1,5.208830357,1,-0.983688831,1,0.357536912,0,-0.56706351,0,0.280355632,0
14.83401108,-8.526197433,1,5.403824329,1,-16.27707672,1,2.952043295,1,5.254194736,1,-0.946103275,1,0.366923869,0,-0.546105802,0,0.284843832,0
14.83801079,-9.220667839,1,5.276105404,1,-16.49861145,1,2.970899343,1,5.303722858,1,-0.909141243,1,0.376278669,0,-0.525088549,0,0.289735287,0
14.84201145,-9.63626194,1,5.023386955,1,-16.66259766,1,2.980381966,1,5.360751629,1,-0.872314453,1,0.385575116,0,-0.503963888,0,0.295048505,0
14.84600925,-9.942612648,1,4.644857407,1,-16.72290611,1,2.975566864,1,5.410872936,1,-0.826938868,1,0.394779056,0,-0.482755244,0,0.300780952,0
14.85000897,-10.40931797,1,4.264265537,1,-16.9182148,1,2.958994627,1,5.456676483,1,-0.765829027,1,0.403834462,0,-0.461500049,0,0.306979418,0
14.85401058,-10.76342678,1,4.115935802,1,-17.05963135,1,2.932318926,1,5.502901554,1,-0.713647485,1,0.412714243,0,-0.440201581,0,0.313627958,0
14.85800839,-11.15242004,1,4.084353924,1,-17.17773628,1,2.913923979,1,5.535803795,1,-0.651418805,1,0.421459258,0,-0.418907642,0,0.320712864,0
14.8620081,-11.70850754,1,4.233429432,1,-17.32230759,1,2.910503149,1,5.558931828,1,-0.583421648,1,0.43011561,0,-0.397671521,0,0.328253269,0
14.86600971,-12.11270046,1,4.231972218,1,-17.45779991,1,2.908677101,1,5.576889992,1,-0.508027017,1,0.438730419,0,-0.376544237,0,0.336233497,0
14.87000752,-12.43134499,1,4.177392006,1,-17.56842041,1,2.905104399,1,5.57767725,1,-0.41595152,1,0.447325319,0,-0.355592608,0,0.344689071,0
14.87400723,-13.01882172,1,4.425601482,1,-17.68613815,1,2.92936635,1,5.559875488,1,-0.324824482,1,0.455976307,0,-0.334905267,0,0.353596449,0
14.87800789,-13.69748402,1,4.977850914,1,-17.75474167,1,2.972985268,1,5.528453827,1,-0.235391662,1,0.464790046,0,-0.314539224,0,0.362936169,0
14.88200569,-14.41293335,1,5.428641796,1,-17.91480255,1,3.044641972,1,5.480564594,1,-0.147686705,1,0.473892927,0,-0.294549704,0,0.372667372,0
14.88601208,-15.29194641,1,6.166919708,1,-17.90792465,1,3.141787767,1,5.422130108,1,-0.075133756,1,0.48343429,0,-0.274998844,0,0.382724881,0
14.8900137,-16.16100311,1,6.708319664,1,-17.84765625,1,3.253292322,1,5.353007317,1,-0.006931605,1,0.493518442,0,-0.255883336,0,0.393049598,0
14.8940115,-17.03672218,1,7.136202335,1,-17.69751167,1,3.373343945,1,5.276031971,1,0.05024308,1,0.504199147,0,-0.237246498,0,0.403613418,0
14.89801121,-17.68909454,1,7.64261198,1,-17.34356308,1,3.495456934,1,5.173465729,1,0.094710499,1,0.515518546,0,-0.219142646,0,0.414347768,0
14.90201187,-18.28838539,1,8.063126564,1,-16.7598114,1,3.594678164,1,5.058370113,1,0.131151497,1,0.527446389,0,-0.201629281,0,0.425168902,0
14.90600967,-18.9036274,1,8.475213051,1,-16.07894135,1,3.690691471,1,4.917442322,1,0.150507748,1,0.539934814,0,-0.18473354,0,0.436014056,0
14.91000938,-19.82291412,1,8.703037262,1,-15.16754723,1,3.772680283,1,4.764920235,1,0.166743055,1,0.552979767,0,-0.168525323,0,0.446799278,0
14.914011,-20.81194305,1,9.053610802,1,-13.9505291,1,3.839082718,1,4.62404871,1,0.15528214,1,0.566493332,0,-0.152966559,0,0.457455397,0
14.9180088,-22.19198227,1,9.082021713,1,-11.9728241,1,3.883316278,1,4.481485367,1,0.129868135,1,0.580417097,0,-0.137995869,0,0.467918038,0
14.92200851,-24.6685257,1,8.995570183,1,-6.073791027,1,3.905760288,1,4.444348812,1,0.090393774,1,0.594649017,0,-0.123424448,0,0.478225291,0
14.92600918,-28.58623314,1,-0.35388115,1,-1.31633544,1,3.812310934,1,4.519008636,1,0.190410286,1,0.608940244,0,-0.108946443,0,0.488891602,0
14.93000698,-32.04132843,1,-6.72741127,1,3.79131794,1,3.138387442,1,4.625047684,1,0.344714612,1,0.621800661,0,-0.094620228,0,0.500360906,0
14.93400669,-34.12681961,1,-0.745470285,1,7.040075779,1,2.516433001,1,4.568613052,1,0.687882543,1,0.631906092,0,-0.080871865,0,0.512860537,0
14.93800736,-36.17729568,1,11.62319756,1,10.09348869,1,2.491914272,1,4.31740427,1,1.017787576,1,0.64073962,0,-0.068602771,0,0.526271403,0
14.94200516,-38.3393364,1,23.02205467,1,12.40709114,1,3.109592915,1,3.858720064,1,1.117128015,1,0.650978327,0,-0.058101356,0,0.539614737,0
14.94600487,-39.55698776,1,32.37709808,1,14.60127831,1,4.143110752,1,3.297589302,1,1.102395654,1,0.664784551,0,-0.049480904,0,0.551916838,0
14.95000649,-38.04121399,1,36.09786606,1,17.41464806,1,5.113009453,1,2.637233019,1,1.028497696,1,0.682886124,0,-0.042856596,0,0.562690318,0
14.95400429,-34.74878311,1,33.08992004,1,19.22060776,1,5.643373966,1,1.859058499,1,0.907090604,1,0.691102266,0,-0.025972454,0,0.547470748,0
14.958004,-30.89627838,1,24.20726013,1,19.0261364,1,5.524364471,1,0.94958812,1,0.832764864,1,0.713453591,0,-0.023896795,0,0.55375427,0
14.96200562,-28.37885475,1,12.94052696,1,16.99934578,1,4.61438179,1,0.037973519,1,0.916113615,1,0.733822346,0,-0.024728805,0,0.557616532,0
14.96600342,-25.5747776,1,2.398512363,1,13.86099529,1,3.054350138,1,-0.719754755,1,1.097361684,1,0.749249101,0,-0.028452033,0,0.559630573,0
14.97000313,-23.21173477,1,-5.031048298,1,11.10079193,1,1.115455151,1,-1.408376217,1,1.326440334,1,0.757622659,0,-0.034907486,0,0.560223997,0
14.9740057,-23.22911453,1,-6.337870598,1,7.97193718,1,-0.843293607,1,-1.897980094,1,1.512670755,1,0.758140326,0,-0.043668572,0,0.559773386,0
14.9780016,-22.86776543,1,-7.09025383,1,1.660035849,1,-2.659373283,1,-2.185832024,1,1.601948023,1,0.751208782,0,-0.05392706,0,0.558699489,0
14.98200131,0.145005196,1,-15.36279488,1,-8.073847771,1,-5.098479748,1,-2.472312212,1,1.625141501,1,0.735183835,0,-0.064937845,0,0.557158291,0
14.98600483,-11.61518478,1,2.26610899,1,-14.45925903,1,-4.226192951,1,-3.376680851,1,2.021884441,1,0.716566443,0,-0.078861549,0,0.55482167,0
14.99000263,-20.28322601,1,-2.238230228,1,-14.70964909,1,-4.596552372,1,-2.369829893,1,1.411060095,1,0.699386597,0,-0.092455663,0,0.552303791,0
14.99400234,-6.039818764,1,-13.0816021,1,-16.50090981,1,-4.627937317,1,-0.727010012,1,1.226014018,1,0.680819929,0,-0.100259043,0,0.552388847,0
14.99800396,-2.288413286,1,-29.17835999,1,-17.78313828,1,-5.504116535,1,-0.475001633,1,1.406426668,1,0.660541415,0,-0.10527131,0,0.555198371,0
15.00200081,0.307199895,1,-37.2650795,1,-15.97849178,1,-6.08398819,1,-0.263910055,1,1.580285907,1,0.636891365,0,-0.109988615,0,0.559089303,0
15.00600624,9.919500351,1,-35.51293564,1,-12.51683235,1,-6.945495605,1,-0.202478066,1,1.747335315,1,0.610379338,0,-0.114592433,0,0.563976586,0
15.01000786,9.60441494,1,-27.39242554,1,-12.03499508,1,-7.801869869,1,-0.576998174,1,1.91369009,1,0.580288529,0,-0.119968116,0,0.569304347,0
15.01400566,1.694868088,1,-16.20058441,1,-5.837671757,1,-8.373668671,1,-0.686630368,1,1.987642646,1,0.54723084,0,-0.126395434,0,0.574512243,0
15.01800442,0.012745732,1,-1.842567682,1,-4.36846447,1,-8.590969086,1,-0.828349471,1,2.067631721,1,0.512387812,0,-0.133053035,0,0.580085218,0
15.02200604,3.41553688,1,13.05169868,1,-8.52581501,1,-7.701396942,1,-1.465524316,1,2.033123255,1,0.479293525,0,-0.140838683,0,0.58542347,0
15.02600384,-10.31692696,1,18.4348526,1,-7.676904678,1,-7.239370823,1,-2.128743649,1,1.903917193,1,0.448601812,0,-0.151099771,0,0.589025021,0
15.03000355,-9.722111702,1,26.39162445,1,-13.41838932,1,-6.055943489,1,-2.064331055,1,1.953001857,1,0.421369165,0,-0.161878631,0,0.592537761,0
15.03400517,-13.17153454,1,30.4464817,1,-17.62984467,1,-4.852120876,1,-2.271642208,1,2.11445117,1,0.398760378,0,-0.173156932,0,0.59644413,0
15.03800297,-14.22703075,1,28.44659615,1,-18.66290474,1,-4.046772003,1,-2.110437632,1,2.468474627,1,0.380388439,0,-0.184770688,0,0.601620197,0
15.04200172,-14.54637527,1,26.12046051,1,-18.66231918,1,-3.635668039,1,-1.780841708,1,2.991295338,1,0.363568366,0,-0.196027011,0,0.609135449,0
15.04600334,-13.65952969,1,20.47597694,1,-17.51876259,1,-3.319339752,1,-1.479731321,1,3.252030373,1,0.347749799,0,-0.206486896,0,0.618814111,0
15.05000114,-9.967177391,1,14.57595062,1,-16.06914139,1,-2.848491192,1,-1.415717602,1,3.256344557,1,0.333123863,0,-0.216233283,0,0.62953037,0
15.05400085,-10.9112978,1,7.773849487,1,-12.62321377,1,-2.46431303,1,-1.595018625,1,2.832036734,1,0.320500612,0,-0.225871041,0,0.639478266,0
15.05800247,-9.200201988,1,-0.428445846,1,-9.580187798,1,-2.30185008,1,-1.597898602,1,2.247700691,1,0.309155077,0,-0.2350972,0,0.647378743,0
15.06199932,-8.084118843,1,-5.114164352,1,-9.646647453,1,-2.155020475,1,-1.711087346,1,1.614272237,1,0.298911095,0,-0.243714035,0,0.65293479,0
15.06599903,-10.24862671,1,-4.145994663,1,-10.9743433,1,-1.946062326,1,-1.729022384,1,1.028397322,1,0.289955556,0,-0.251876861,0,0.656064749,0
15.0700016,-8.959634781,1,-0.691007733,1,-11.68614864,1,-1.783661962,1,-1.578376174,1,0.643615127,1,0.282166123,0,-0.259171754,0,0.657387555,0
15.07399845,-6.504010201,1,5.314097404,1,-12.07571125,1,-1.598444223,1,-1.495975852,1,0.493309289,1,0.275274098,0,-0.26568374,0,0.657838345,0
15.07799816,-5.832693577,1,11.42347908,1,-12.37732983,1,-1.405832171,1,-1.415537834,1,0.513627887,1,0.269184589,0,-0.271829396,0,0.658176541,0
15.08200073,-4.185704231,1,14.55453014,1,-12.42578983,1,-1.172545552,1,-1.318264961,1,0.643890321,1,0.263780206,0,-0.277677476,0,0.659002423,0
15.08599854,-3.627337694,1,14.890728,1,-12.27440262,1,-1.006249309,1,-1.24987638,1,0.834899426,1,0.259028673,0,-0.283437848,0,0.660608172,0
15.08999825,-3.723668814,1,11.0526762,1,-11.12834358,1,-0.763645589,1,-1.254995704,1,0.913345098,1,0.2548801,0,-0.289166451,0,0.662827194,0
15.09399891,-5.223555088,1,5.444689751,1,-10.65818119,1,-0.628999472,1,-1.233499885,1,0.883139014,1,0.25142163,0,-0.29490158,0,0.665196061,0
15.09799671,-6.805754185,1,-0.502348423,1,-9.858919144,1,-0.493107051,1,-1.201372743,1,0.747670174,1,0.248612106,0,-0.300457895,0,0.667215824,0
15.10199642,-7.545897007,1,-4.415474415,1,-9.825689316,1,-0.462914646,1,-1.090633392,1,0.584564805,1,0.246249393,0,-0.305532068,0,0.668757975,0
15.10599804,-8.097664833,1,-5.272622108,1,-9.587253571,1,-0.456170321,1,-0.976612389,1,0.435237229,1,0.244114026,0,-0.310065925,0,0.669784665,0
15.10999584,-7.098399162,1,-4.236338615,1,-9.59465313,1,-0.42999658,1,-0.881160617,1,0.278528094,1,0.242161721,0,-0.313995361,0,0.670299113,0
15.11399555,-5.457133293,1,-1.799859643,1,-9.62273407,1,-0.434743464,1,-0.795629799,1,0.217683509,1,0.240389556,0,-0.317463398,0,0.670460939,0
15.11799622,-3.406056404,1,0.898852766,1,-9.562989235,1,-0.414222151,1,-0.788403392,1,0.245312363,1,0.238643289,0,-0.32074815,0,0.670611143,0
15.12199402,-2.564147949,1,2.373175144,1,-9.890879631,1,-0.40557307,1,-0.844245553,1,0.316989541,1,0.236901879,0,-0.324172497,0,0.670931399,0
15.12599945,-2.840922832,1,2.167880297,1,-9.879133224,1,-0.391414315,1,-0.855045259,1,0.380767375,1,0.235108271,0,-0.327785432,0,0.671539128,0
15.13000107,-3.35734272,1,0.623066604,1,-9.743968964,1,-0.360555917,1,-0.882861495,1,0.390122175,1,0.233375072,0,-0.331538856,0,0.672271609,0
15.13399887,-3.751216888,1,-1.734727859,1,-9.610497475,1,-0.333533347,1,-0.928079009,1,0.345554531,1,0.231781557,0,-0.335390031,0,0.6729092,0
15.13799858,-4.310431957,1,-2.909481764,1,-9.638587952,1,-0.335432291,1,-0.945228994,1,0.305057049,1,0.230318785,0,-0.339354515,0,0.673320413,0
15.1420002,-4.217135906,1,-3.235327244,1,-9.320203781,1,-0.347937733,1,-0.974914312,1,0.278690249,1,0.228871703,0,-0.343346357,0,0.673573792,0
15.145998,-4.454023361,1,-2.085865259,1,-9.526213646,1,-0.378614604,1,-0.987932265,1,0.281166852,1,0.227334887,0,-0.347416937,0,0.673802376,0
15.14999771,-4.696776867,1,0.009558169,1,-9.644805908,1,-0.386912227,1,-0.965657949,1,0.306893826,1,0.225707874,0,-0.351512671,0,0.674083412,0
15.15399838,-5.135535717,1,0.981704175,1,-9.667373657,1,-0.368262142,1,-0.945220292,1,0.323967367,1,0.22405377,0,-0.355522275,0,0.674499989,0
15.15799618,-5.630164146,1,1.160610557,1,-9.496746063,1,-0.327630192,1,-0.903481722,1,0.302177697,1,0.222487226,0,-0.35941124,0,0.674949884,0
15.16199589,-6.223276138,1,0.803470433,1,-9.475362778,1,-0.265783787,1,-0.864109576,1,0.243298143,1,0.221199095,0,-0.363106012,0,0.675245762,0
15.16599751,-6.157409191,1,0.705350161,1,-9.093708038,1,-0.201597974,1,-0.805858791,1,0.193393648,1,0.220210657,0,-0.366545975,0,0.675381184,0
15.16999435,-5.046328545,1,0.342778772,1,-9.120448112,1,-0.146349654,1,-0.797960639,1,0.145769477,1,0.219542578,0,-0.369817883,0,0.675337851,0
15.17399406,-4.642957211,1,0.192841649,1,-9.130558014,1,-0.119446978,1,-0.802830756,1,0.123320252,1,0.219091371,0,-0.373059034,0,0.675156832,0
15.17799664,-4.850126266,1,0.623417139,1,-9.373058319,1,-0.099297024,1,-0.789245605,1,0.108101599,1,0.218743265,0,-0.376278549,0,0.674893379,0
15.18199444,-4.593961716,1,0.811503947,1,-9.246884346,1,-0.0714496,1,-0.792487562,1,0.099662259,1,0.218508184,0,-0.379449874,0,0.67459023,0
15.18599415,-4.962080479,1,0.269137502,1,-9.162576675,1,-0.046498947,1,-0.790466666,1,0.074773431,1,0.218401372,0,-0.382615983,0,0.674212575,0
15.18999577,-5.232300282,1,0.052767716,1,-9.195903778,1,-0.019556023,1,-0.771143556,1,0.064699821,1,0.218435496,0,-0.385721028,0,0.673769414,0
15.19399262,-5.115111351,1,-0.096245036,1,-9.119585037,1,-0.007927476,1,-0.751760125,1,0.039357521,1,0.218564615,0,-0.388734967,0,0.673276424,0
15.19799233,-5.161066532,1,-0.245080411,1,-8.967252731,1,0.012071524,1,-0.742138088,1,0.028079223,1,0.218783468,0,-0.391683519,0,0.672723114,0
15.20199394,-5.054594517,1,-0.084454469,1,-8.988448143,1,0.030060787,1,-0.717602134,1,0.01526186,1,0.219107449,0,-0.394545853,0,0.672122717,0
15.20599175,-5.29212904,1,-0.012757721,1,-8.912872314,1,0.042863898,1,-0.693445504,1,0.006396939,1,0.216007948,0,-0.385398179,0,0.620606542,0
15.20999146,-5.62801218,1,-0.027788401,1,-8.771499634,1,0.065636925,1,-0.664556444,1,-0.007457904,1,0.216456294,0,-0.388056338,0,0.619987726,0
15.21399212,-5.859097481,1,-0.105751604,1,-8.647315979,1,0.094049588,1,-0.633016586,1,-0.017258815,1,0.217014074,0,-0.390572011,0,0.619329572,0
15.21798992,-5.878095627,1,0.030793786,1,-8.418374062,1,0.116995044,1,-0.596043885,1,-0.039791025,1,0.217689276,0,-0.392946094,0,0.618647575,0
15.22198963,-5.672524452,1,-0.357146561,1,-8.300868988,1,0.129068762,1,-0.561524153,1,-0.054287061,1,0.218482897,0,-0.39516139,0,0.617903233,0
15.22599125,-5.625805855,1,-0.207499772,1,-8.4656744,1,0.152337283,1,-0.525886536,1,-0.064209178,1,0.219337657,0,-0.397232294,0,0.617129922,0
15.22998905,-5.510498524,1,-0.027597092,1,-8.408338547,1,0.174432859,1,-0.497995287,1,-0.069601625,1,0.220296159,0,-0.399183214,0,0.616372466,0
15.23398876,-5.375958443,1,-0.475563765,1,-8.437082291,1,0.179517642,1,-0.468769282,1,-0.070832476,1,0.221303105,0,-0.400992185,0,0.615610361,0
15.23799038,-5.039401054,1,-0.607709527,1,-8.367477417,1,0.20207721,1,-0.449874073,1,-0.076510727,1,0.222345397,0,-0.402702451,0,0.614860356,0
15.24198818,-5.386090279,1,-0.846654713,1,-8.298340797,1,0.195577607,1,-0.441487432,1,-0.073235616,1,0.223449782,0,-0.40438652,0,0.614114046,0
15.24599361,-5.343025684,1,-1.260332465,1,-8.363188744,1,0.178350255,1,-0.422750413,1,-0.067638174,1,0.224481583,0,-0.406005979,0,0.613404989,0
15.24999619,-5.157968521,1,-1.25216198,1,-8.322324753,1,0.163197905,1,-0.410284966,1,-0.051011976,1,0.225425318,0,-0.40757224,0,0.612750232,0
15.25399303,-5.246660233,1,-1.335677981,1,-8.295431137,1,0.133711457,1,-0.394019127,1,-0.042926725,1,0.226253167,0,-0.40910688,0,0.612153471,0
15.25799179,-5.469288349,1,-1.195950031,1,-8.233763695,1,0.121885985,1,-0.375561208,1,-0.023849232,1,0.226956248,0,-0.410586506,0,0.611632824,0
15.26199436,-5.429922581,1,-1.162521124,1,-8.139025688,1,0.101272307,1,-0.359277695,1,-0.017661473,1,0.227565289,0,-0.411991149,0,0.611186266,0
15.26599121,-5.312311172,1,-1.186251283,1,-8.211995125,1,0.08297468,1,-0.34025842,1,-0.003350156,1,0.228100061,0,-0.413335234,0,0.610810399,0
15.26999188,-5.160162926,1,-1.1268574,1,-8.031799316,1,0.051800195,1,-0.283088535,1,0.02106568,1,0.228466824,0,-0.41457209,0,0.610546172,0
15.27399254,-4.962852001,1,-1.004797816,1,-8.243988991,1,0.058248244,1,-0.320683718,1,0.026312377,1,0.228797123,0,-0.415797472,0,0.610333145,0
15.27799034,-5.257629871,1,-0.926346064,1,-8.102133751,1,0.034369215,1,-0.314655423,1,0.036383674,1,0.229046807,0,-0.417071909,0,0.610152423,0
15.28199005,-5.377325058,1,-0.801407099,1,-8.135527611,1,0.029107979,1,-0.293325245,1,0.044061486,1,0.229237646,0,-0.418288648,0,0.610019088,0
15.28599167,-5.187649727,1,-0.705109119,1,-8.189125061,1,0.013818459,1,-0.286645651,1,0.041837588,1,0.229365319,0,-0.419455469,0,0.609910369,0
15.28998947,-4.921341419,1,-0.422585964,1,-8.284722328,1,0.030976867,1,-0.284677804,1,0.043954775,1,0.229493245,0,-0.420604825,0,0.609806716,0
15.29398823,-5.484378338,1,-0.216035441,1,-8.17370224,1,0.047227953,1,-0.275505036,1,0.054349296,1,0.229679778,0,-0.421763688,0,0.609731197,0
15.29798985,-4.832633972,1,-0.286378056,1,-8.262012482,1,0.051932938,1,-0.285095155,1,0.037573732,1,0.229905069,0,-0.422875613,0,0.609655976,0
15.30198765,-4.822261333,1,-0.310448647,1,-8.188530922,1,0.051459152,1,-0.296345502,1,0.031412467,1,0.230173677,0,-0.424042553,0,0.609502852,0
15.30598736,-5.412181854,1,-0.416265488,1,-8.103729248,1,0.061007503,1,-0.294387311,1,0.023321962,1,0.230473384,0,-0.425229847,0,0.609318793,0
15.30998802,-5.407346725,1,-0.347257912,1,-8.074091911,1,0.061953273,1,-0.277555138,1,0.016086711,1,0.230784014,0,-0.426351994,0,0.609117806,0
15.31398583,-5.376019001,1,-0.319945693,1,-8.013124466,1,0.072055377,1,-0.265275747,1,0.009736879,1,0.231140092,0,-0.427419871,0,0.608901024,0
15.31798554,-5.484576702,1,-0.414132863,1,-7.978110313,1,0.077838279,1,-0.254457772,1,-0.001739528,1,0.231551036,0,-0.428437471,0,0.608657897,0
15.32198715,-5.314877033,1,-0.512593508,1,-8.043712616,1,0.072119556,1,-0.243617401,1,-0.000771406,1,0.23195529,0,-0.429392815,0,0.608401597,0
15.32598496,-5.233179092,1,-0.616427541,1,-8.001673698,1,0.072430067,1,-0.230055273,1,-0.010207532,1,0.232359156,0,-0.430301696,0,0.60813868,0
15.32998467,-5.248598099,1,-0.658380389,1,-8.007754326,1,0.063124798,1,-0.214922532,1,0.000936756,1,0.232728511,0,-0.431171149,0,0.607897162,0
15.33398628,-5.215183735,1,-0.790542066,1,-7.961108685,1,0.053875726,1,-0.211259812,1,0.014880357,1,0.233049795,0,-0.432009995,0,0.607715845,0
15.33798409,-4.81185627,1,-0.97120136,1,-7.819787979,1,0.048939165,1,-0.184414715,1,0.020072568,1,0.233291417,0,-0.432780355,0,0.607608795,0
15.3419838,-4.639384747,1,-1.052611113,1,-7.936596394,1,0.031380363,1,-0.213812619,1,0.021633556,1,0.233503595,0,-0.433585763,0,0.60749501,0
15.34598541,-4.753594398,1,-1.12423861,1,-8.10363102,1,0.02455865,1,-0.225282758,1,0.038157795,1,0.233653739,0,-0.434460312,0,0.607400477,0
15.34998322,-4.799212933,1,-1.118779898,1,-8.09498024,1,0.006772251,1,-0.241120622,1,0.051439214,1,0.233722478,0,-0.435420543,0,0.607346952,0
15.35398293,-4.915380478,1,-1.000506163,1,-8.215924263,1,0.003727875,1,-0.252520382,1,0.061679192,1,0.233754396,0,-0.436440319,0,0.607331038,0
15.35798359,-5.034850597,1,-1.01747179,1,-8.341872215,1,-0.01111848,1,-0.265513778,1,0.07814125,1,0.233720079,0,-0.437503934,0,0.607365131,0
15.36198139,-5.230507374,1,-0.826617301,1,-8.160183907,1,-0.017372936,1,-0.246792197,1,0.094934054,1,0.233610883,0,-0.438599378,0,0.607474804,0
15.36598778,-4.746956348,1,-0.790891767,1,-8.419965744,1,-0.004886865,1,-0.289538175,1,0.0972379,1,0.233519614,0,-0.439741284,0,0.607606709,0
15.3699894,-4.776160717,1,-0.800285518,1,-8.432299614,1,-0.013771328,1,-0.312151372,1,0.110279106,1,0.233430505,0,-0.441014647,0,0.607746482,0
15.3739872,-4.901436329,1,-0.751465857,1,-8.365743637,1,-0.02406003,1,-0.337409884,1,0.114270136,1,0.233285815,0,-0.442387968,0,0.607896328,0
15.37798595,-4.973396778,1,-0.74283427,1,-8.442783356,1,-0.023147434,1,-0.350265294,1,0.121386923,1,0.233136743,0,-0.443830609,0,0.608050644,0
15.38198757,-5.205845356,1,-1.224293709,1,-8.56418705,1,-0.059511185,1,-0.36884734,1,0.138661191,1,0.232912838,0,-0.445345819,0,0.608242154,0
15.38598537,-3.976117134,1,-0.852399886,1,-8.441149712,1,-0.064725481,1,-0.388728917,1,0.135015175,1,0.232530653,0,-0.446901023,0,0.608473361,0
15.38998509,-4.88886261,1,-0.553966999,1,-8.482855797,1,-0.065326303,1,-0.434467018,1,0.13849102,1,0.232215494,0,-0.44864887,0,0.608631194,0
15.3939867,-5.327489853,1,-0.202559471,1,-8.507990837,1,-0.058985438,1,-0.4410384,1,0.139929786,1,0.231896237,0,-0.450493425,0,0.608786345,0
15.39798451,-5.724350452,1,-0.172070801,1,-8.453374863,1,-0.057717223,1,-0.445533335,1,0.144802123,1,0.231605679,0,-0.452351332,0,0.608945787,0
15.40198422,-4.518712044,1,-0.384647995,1,-8.3487463,1,-0.043176964,1,-0.46705237,1,0.126267403,1,0.2313364,0,-0.454216421,0,0.609072626,0
15.40598583,-5.020376682,1,0.092131585,1,-8.578001976,1,-0.032041237,1,-0.51132971,1,0.115647383,1,0.231175661,0,-0.456237495,0,0.609090269,0
15.40998364,-5.410745621,1,0.137190938,1,-8.579555511,1,-0.005028929,1,-0.52570343,1,0.106125757,1,0.231120765,0,-0.458349735,0,0.609051287,0
15.41398335,-5.231925011,1,0.241452411,1,-8.612327576,1,0.028488753,1,-0.546136677,1,0.087245934,1,0.231223449,0,-0.460523069,0,0.608917832,0
15.41798496,-5.19715786,1,0.137569919,1,-8.890792847,1,0.056891318,1,-0.585135341,1,0.071914606,1,0.231505558,0,-0.462800741,0,0.608684242,0
15.42198277,-4.934710503,1,0.165761575,1,-8.937296867,1,0.096213706,1,-0.631609082,1,0.061557852,1,0.231946871,0,-0.465226531,0,0.608348846,0
15.42598152,-4.829197407,1,-0.027672226,1,-9.116435051,1,0.128143877,1,-0.685274959,1,0.049126539,1,0.232578516,0,-0.467835277,0,0.607915938,0
15.42998314,-4.852160931,1,-0.381204337,1,-9.327214241,1,0.16042535,1,-0.747088969,1,0.047014024,1,0.233404934,0,-0.47066164,0,0.607383788,0
15.43398094,-4.641179085,1,-0.672115207,1,-9.531767845,1,0.165463462,1,-0.820253789,1,0.055787209,1,0.234319538,0,-0.47375074,0,0.606791019,0
15.43798065,-4.635822296,1,-1.118490815,1,-9.241254807,1,0.177699402,1,-0.891853034,1,0.065950319,1,0.235300004,0,-0.477143824,0,0.606169939,0
15.44198227,-4.736480713,1,-0.785118401,1,-9.285524368,1,0.192667276,1,-0.95886445,1,0.08478564,1,0.236337319,0,-0.480820775,0,0.605522394,0
15.44597912,-4.633738041,1,-0.321295172,1,-9.464743614,1,0.225816384,1,-1.028222561,1,0.086459287,1,0.237484425,0,-0.484769344,0,0.604854524,0
15.44997883,-4.700736046,1,0.020137737,1,-9.70093441,1,0.265093654,1,-1.110266566,1,0.077082932,1,0.238835305,0,-0.489006221,0,0.60406816,0
15.45398045,-4.578610897,1,0.479803056,1,-10.1031332,1,0.303230882,1,-1.21356678,1,0.05457877,1,0.237132996,0,-0.482975632,0,0.558252394,0
15.4579792,-4.354708195,1,0.620826066,1,-10.26609612,1,0.344486028,1,-1.320477128,1,0.025864953,1,0.23897551,0,-0.487950891,0,0.557087839,0
15.46197891,-4.073760986,1,0.990170479,1,-10.22518253,1,0.383750945,1,-1.465510249,1,-0.021143941,1,0.241124809,0,-0.493368268,0,0.555596054,0
15.46597958,-4.430623055,1,1.497890234,1,-10.39525795,1,0.469600558,1,-1.584950924,1,-0.053534023,1,0.243692547,0,-0.499251246,0,0.553764701,0
15.46997738,-4.383339405,1,1.33975029,1,-10.52267361,1,0.552904963,1,-1.720131397,1,-0.092461273,1,0.246786088,0,-0.505599678,0,0.551599085,0
15.47397709,-4.134895325,1,1.420002937,1,-10.8194952,1,0.630930543,1,-1.859706759,1,-0.128887415,1,0.250362992,0,-0.512406468,0,0.549081683,0
15.47797871,-3.958802462,1,1.168692708,1,-11.13001442,1,0.713168502,1,-2.013237238,1,-0.167355701,1,0.254484475,0,-0.519762635,0,0.546205759,0
15.48197651,-4.122182369,1,0.400388062,1,-11.72690105,1,0.76414144,1,-2.190235615,1,-0.190917447,1,0.259079993,0,-0.527717412,0,0.542943716,0
15.4859829,-3.846824408,1,-0.366410553,1,-11.3474865,1,0.735223591,1,-2.36384058,1,-0.22259441,1,0.26392132,0,-0.536297381,0,0.53930223,0
15.48998356,-3.771036863,1,0.244127378,1,-11.6245718,1,0.819216728,1,-2.572401524,1,-0.23528178,1,0.269102484,0,-0.545580745,0,0.535221517,0
15.49398136,-3.790182352,1,0.135195896,1,-12.13027763,1,0.910636127,1,-2.748552561,1,-0.218239248,1,0.27486825,0,-0.555594504,0,0.530840278,0
15.49798107,-2.949032784,1,-0.25763911,1,-12.15507698,1,0.952014148,1,-2.962430239,1,-0.23707056,1,0.28108871,0,-0.566330314,0,0.52612102,0
15.50198269,-3.100507021,1,-0.331414789,1,-12.60208797,1,1.00479424,1,-3.230262041,1,-0.242710009,1,0.287851512,0,-0.577940583,0,0.520876229,0
15.50598049,-2.82419467,1,-0.663316011,1,-13.52427578,1,1.036069036,1,-3.497396708,1,-0.242118761,1,0.29507941,0,-0.590551138,0,0.515145183,0
15.50997925,-1.743411422,1,-0.789360344,1,-14.33076191,1,1.070138574,1,-3.883773088,1,-0.253374934,1,0.302880585,0,-0.604329407,0,0.508739352,0
15.51398087,-1.599944711,1,-1.356102705,1,-15.55718422,1,1.130070567,1,-4.3463521,1,-0.247842848,1,0.311449289,0,-0.619713306,0,0.501496375,0
15.51797867,-1.011888623,1,-3.375747204,1,-16.66721535,1,1.148184061,1,-4.846808434,1,-0.212337881,1,0.320830345,0,-0.636875749,0,0.493316531,0
15.52197838,-0.371143848,1,-5.51644659,1,-17.91389465,1,0.997446656,1,-5.321356297,1,-0.079682708,1,0.330471694,0,-0.655973494,0,0.484485507,0
15.52598,2.836089134,1,-5.488245487,1,-16.45827675,1,0.947844565,1,-5.904887676,1,-0.009591809,1,0.34023422,0,-0.677023053,0,0.474893242,0
15.5299778,3.190073729,1,-4.870271683,1,-17.20321846,1,0.97737968,1,-6.711247921,1,0.135202423,1,0.35093987,0,-0.700858772,0,0.464107245,0
15.53397751,0.495257348,1,-4.626916885,1,-18.33192635,1,1.080731034,1,-7.461346149,1,0.303952575,1,0.362920314,0,-0.727708817,0,0.452065498,0
15.53797913,-3.243040085,1,-4.993240356,1,-20.17803192,1,1.208474755,1,-8.139231682,1,0.552105486,1,0.376448184,0,-0.757469177,0,0.438871264,0
15.54197693,-6.238759518,1,-6.619269371,1,-22.27578354,1,1.251139998,1,-8.642281532,1,0.832645476,1,0.391189575,0,-0.789677978,0,0.424890518,0
15.54597664,-5.36685133,1,-4.302161694,1,-20.05727005,1,1.296904922,1,-8.691370964,1,0.788425207,1,0.40714407,0,-0.822944283,0,0.409758002,0
15.54997826,-3.123199701,1,-0.988171756,1,-20.44799995,1,1.477107167,1,-8.687865257,1,0.854548156,1,0.425056607,0,-0.856051862,0,0.393166721,0
15.55397606,-8.682439804,1,-7.642239571,1,-22.29662132,1,1.358751178,1,-8.69239521,1,1.03194809,1,0.444167286,0,-0.88917172,0,0.375739574,0
15.55797577,-19.12443924,1,-16.87366486,1,-27.40796471,1,0.889901459,1,-8.703295708,1,1.309026361,1,0.462873995,0,-0.922466636,0,0.357755899,0
15.56197643,-22.87412643,1,-15.78374481,1,-26.7368412,1,0.455560744,1,-8.715352058,1,1.649983525,1,0.47994113,0,-0.956187189,0,0.339863658,0
15.56597424,-16.8380661,1,-15.8884182,1,-20.5629921,1,0.1439327,1,-8.641810417,1,1.963442326,1,0.495617807,0,-0.990305781,0,0.322330058,0
15.56997395,-18.0238018,1,-15.98691082,1,-17.44424438,1,-0.345219761,1,-8.612402916,1,2.326420784,1,0.509805679,0,-1.024655223,0,0.305134624,0
15.57397652,-21.6707058,1,-12.25007343,1,-19.76895332,1,-0.84360075,1,-8.392672539,1,2.651928902,1,0.521162868,0,-1.059288025,0,0.289099097,0
15.57797337,-26.95162392,1,-11.60865498,1,-22.03956032,1,-0.957169116,1,-7.783779144,1,2.832280159,1,0.530049443,0,-1.092821479,0,0.274841428,0
15.58197212,-25.73317337,1,-10.63379097,1,-19.8924675,1,-0.970783591,1,-7.178569794,1,3.063384295,1,0.536260486,0,-1.124504089,0,0.263602614,0
15.58597469,-20.7250843,1,-14.70132637,1,-18.20408249,1,-1.099687934,1,-6.803527832,1,3.114914179,1,0.540300667,0,-1.154913187,0,0.254612982,0
15.58997154,-11.56300926,1,-13.98618317,1,-14.65332699,1,-1.099579692,1,-6.644461632,1,3.124459982,1,0.54305166,0,-1.184320092,0,0.246784806,0
15.59397125,-18.9729023,1,-15.68553162,1,-13.7115345,1,-1.340555668,1,-6.591011524,1,3.042068005,1,0.546551287,0,-1.213446379,0,0.237951502,0
15.59797382,-15.73868942,1,-13.59005833,1,-14.77395058,1,-1.538545966,1,-5.725018024,1,2.991511345,1,0.547799885,0,-1.240769029,0,0.230381846,0
15.60197163,-16.71080208,1,-11.02731228,1,-15.27002811,1,-1.428931236,1,-5.082987785,1,2.859977245,1,0.545623302,0,-1.265436888,0,0.226429403,0
15.60597706,-16.08745575,1,-11.35435867,1,-17.37832069,1,-1.289976001,1,-3.965543032,1,2.748979568,1,0.539475381,0,-1.286715746,0,0.227112874,0
15.60997868,-11.01997948,1,-11.91124535,1,-17.80555916,1,-1.035277009,1,-3.005778551,1,2.657430172,1,0.526831746,0,-1.304159284,0,0.235408425,0
15.61397648,-6.213039398,1,-11.76506329,1,-18.29787827,1,-0.814335167,1,-2.22922349,1,2.522817373,1,0.508631229,0,-1.318368554,0,0.250428349,0
15.61797524,-2.759221077,1,-12.99151993,1,-19.76066399,1,-0.599683225,1,-1.598223209,1,2.330184698,1,0.486294568,0,-1.329696059,0,0.270548195,0
15.62197685,0.455989867,1,-14.95979786,1,-18.98826981,1,-0.454697132,1,-1.09602046,1,2.156021833,1,0.461330682,0,-1.338555098,0,0.294081151,0
15.62597466,4.754338741,1,-15.37056732,1,-16.55410957,1,-0.547086716,1,-0.716408491,1,2.110634089,1,0.433059961,0,-1.345455408,0,0.321129322,0
15.62997437,10.54758739,1,-16.83355331,1,-11.82747173,1,-0.911945164,1,-0.704638958,1,1.972385406,1,0.401914358,0,-1.351331472,0,0.350115508,0
15.63397503,-1.092798114,1,-16.11232948,1,-10.68213272,1,-1.282257318,1,-0.634012938,1,1.725627661,1,0.371171325,0,-1.356655717,0,0.377059966,0
15.63797283,-11.17207146,1,-13.68344688,1,-13.43194675,1,-1.371952772,1,0.21545279,1,1.65920496,1,0.338121653,0,-1.359861493,0,0.405303001,0
15.64197254,-4.172667503,1,-11.73276424,1,-14.70277405,1,-1.192882061,1,1.028766513,1,1.64760375,1,0.299717993,0,-1.359545946,0,0.439317048,0
15.64597416,1.900127888,1,-11.75677681,1,-14.43166637,1,-1.052831531,1,1.659083605,1,1.507883549,1,0.260391176,0,-1.356093884,0,0.474996448,0
15.64997196,6.468046188,1,-11.59584522,1,-12.26815224,1,-1.157561064,1,2.093781471,1,1.439323068,1,0.22191672,0,-1.350149632,0,0.509932041,0
15.65397167,8.969267845,1,-10.59849644,1,-10.57346058,1,-1.313286781,1,2.284778833,1,1.291549444,1,0.18564634,0,-1.342625737,0,0.542024434,0
15.65797329,9.804382324,1,-8.101799011,1,-9.427613258,1,-1.270946026,1,2.30036974,1,1.218911767,1,0.153037041,0,-1.334414601,0,0.570175529,0
15.66197109,10.22987843,1,-5.985161304,1,-8.371074677,1,-1.040236115,1,2.292538643,1,1.221678019,1,0.123471916,0,-1.325975418,0,0.595807552,0
15.6659708,10.51387119,1,-5.392917633,1,-7.514012814,1,-0.680826187,1,2.223470449,1,1.22586298,1,0.096952178,0,-1.317538023,0,0.619610488,0
15.66997242,10.13753319,1,-5.285462856,1,-7.187099934,1,-0.340423197,1,2.174278736,1,1.189788222,1,0.073739082,0,-1.309189796,0,0.641516805,0
15.67396927,9.18765831,1,-5.283089161,1,-7.179370403,1,-0.087505221,1,2.175120354,1,1.106970787,1,0.053970702,0,-1.300812602,0,0.661141038,0
15.67796898,7.692562103,1,-5.271613598,1,-7.341609955,1,0.109146141,1,2.234951019,1,0.998544931,1,0.037629593,0,-1.292208552,0,0.678188503,0
15.68197155,6.633662224,1,-5.033612251,1,-7.187012672,1,0.317996591,1,2.32295537,1,0.862508416,1,0.024686715,0,-1.283210993,0,0.692544281,0
15.68596935,5.6979599,1,-5.519565582,1,-7.036431789,1,0.536771059,1,2.405565262,1,0.698883891,1,0.015449305,0,-1.27381742,0,0.703989685,0
15.68996716,4.624431133,1,-6.013829708,1,-6.927050114,1,0.696825743,1,2.526493549,1,0.532802582,1,0.009634894,0,-1.263990641,0,0.712689102,0
15.69396973,3.557696104,1,-6.453201771,1,-7.07856369,1,0.801975846,1,2.672297239,1,0.344858557,1,0.006931046,0,-1.253618836,0,0.718688309,0
15.69796753,2.687090635,1,-6.93277359,1,-7.189135075,1,0.875142753,1,2.835726738,1,0.136702403,1,0.007194694,0,-1.242620468,0,0.721962631,0
15.70196724,1.893976688,1,-7.203801155,1,-7.336523533,1,0.889928579,1,3.010357618,1,-0.071895674,1,0.01005234,0,-1.230936766,0,0.722676396,0
15.70596886,1.399303675,1,-7.207441807,1,-7.309832096,1,0.886471093,1,3.188359737,1,-0.283075333,1,0.020985585,0,-1.213824987,0,0.678805947,0
15.70996666,0.971418381,1,-6.896565914,1,-7.29537487,1,0.889060676,1,3.356980801,1,-0.492629349,1,0.027774522,0,-1.200710654,0,0.675328553,0
15.71396637,0.782874644,1,-6.300766945,1,-7.338242531,1,0.897423804,1,3.504866838,1,-0.699497223,1,0.036275607,0,-1.186918974,0,0.670020998,0
15.71796799,0.613049209,1,-5.540368557,1,-7.375325203,1,0.950653076,1,3.630351782,1,-0.902089357,1,0.046283346,0,-1.1725173,0,0.66318351,0
15.72196579,0.355066776,1,-4.828668118,1,-7.556602478,1,1.021926761,1,3.742415667,1,-1.088769317,1,0.057671957,0,-1.157582998,0,0.655069113,0
15.72596455,-0.123129413,1,-4.148988247,1,-7.759025097,1,1.13407886,1,3.844446182,1,-1.27781105,1,0.070379324,0,-1.142136097,0,0.645871997,0
15.72997189,-0.792974293,1,-3.70150423,1,-7.897149563,1,1.250256419,1,3.94542861,1,-1.467424154,1,0.084300518,0,-1.126178384,0,0.635766625,0
15.73397636,-1.475027919,1,-3.492572784,1,-7.963495731,1,1.368491173,1,4.053672791,1,-1.647815943,1,0.099269494,0,-1.109672666,0,0.624943316,0
15.73797607,-2.272657156,1,-3.286556721,1,-8.095435143,1,1.474044919,1,4.165884495,1,-1.794707179,1,0.115013421,0,-1.092609286,0,0.613687336,0
15.74197769,-2.858219385,1,-3.494035959,1,-8.17360878,1,1.55682528,1,4.284506798,1,-1.924650788,1,0.131107733,0,-1.074924111,0,0.602346063,0
15.74597549,-3.458594799,1,-3.666922569,1,-8.360866547,1,1.601761818,1,4.415874004,1,-2.02935338,1,0.147243738,0,-1.056591272,0,0.591132164,0
15.7499752,-3.924658298,1,-3.679848909,1,-8.530880928,1,1.607144356,1,4.553267479,1,-2.110666037,1,0.163045585,0,-1.037593842,0,0.580309868,0
15.75397587,-4.212361336,1,-3.519717932,1,-8.657416344,1,1.590973973,1,4.678228378,1,-2.173810482,1,0.178250208,0,-1.017943263,0,0.570027292,0
15.75797367,-4.548155308,1,-3.220487356,1,-8.869595528,1,1.579650879,1,4.808412075,1,-2.215322971,1,0.192718491,0,-0.99766767,0,0.560412765,0
15.76197338,-4.813360691,1,-2.778643131,1,-9.150068283,1,1.558472633,1,4.921615601,1,-2.236902475,1,0.206353933,0,-0.97682184,0,0.551578999,0
15.765975,-5.102701187,1,-2.293129921,1,-9.396633148,1,1.553732753,1,5.033336163,1,-2.246877432,1,0.219185665,0,-0.955461025,0,0.543542027,0
15.7699728,-5.363491058,1,-1.803717375,1,-9.55964756,1,1.566452146,1,5.134273052,1,-2.237308741,1,0.231235117,0,-0.9336375,0,0.536369324,0
15.77397251,-5.685346603,1,-1.212036729,1,-9.766189575,1,1.602252841,1,5.226387978,1,-2.223509789,1,0.242605597,0,-0.911402225,0,0.530050337,0
15.77797318,-5.997370243,1,-0.647000492,1,-9.887454033,1,1.649784684,1,5.315975666,1,-2.210814953,1,0.253406346,0,-0.888786435,0,0.524558425,0
15.78197098,-6.34824276,1,0.021454429,1,-10.06927204,1,1.720467925,1,5.396714687,1,-2.181514502,1,0.263771325,0,-0.865828037,0,0.519835174,0
15.78597069,-6.577687263,1,0.552426815,1,-10.19418144,1,1.808942437,1,5.464432716,1,-2.144439459,1,0.273773909,0,-0.842588007,0,0.515915573,0
15.78997231,-6.85780859,1,0.970639765,1,-10.31738853,1,1.912850499,1,5.524129868,1,-2.091774464,1,0.283515036,0,-0.819132686,0,0.512793839,0
15.79397011,-7.040876865,1,1.452373266,1,-10.44290161,1,2.037543535,1,5.568591118,1,-2.022356987,1,0.293069452,0,-0.795522094,0,0.510498703,0
15.79796886,-7.089635372,1,1.552517414,1,-10.6183815,1,2.165363789,1,5.600896835,1,-1.939644217,1,0.302493691,0,-0.771836758,0,0.509055018,0
15.80197048,-7.55252552,1,1.592600822,1,-10.88386536,1,2.289258003,1,5.629258156,1,-1.842844009,1,0.311808884,0,-0.748146653,0,0.508470893,0
15.80596829,-8.083335876,1,1.045824289,1,-11.0822382,1,2.394906044,1,5.662216663,1,-1.730017781,1,0.32098335,0,-0.724465728,0,0.508777738,0
15.809968,-8.744925499,1,0.707574069,1,-11.32310486,1,2.462406397,1,5.703952789,1,-1.621476054,1,0.32992667,0,-0.700797081,0,0.509969294,0
15.81396961,-9.064720154,1,0.101874389,1,-11.58231258,1,2.489601851,1,5.753632069,1,-1.523137689,1,0.338529766,0,-0.677080572,0,0.512019157,0
15.81796742,-9.408819199,1,-0.337243944,1,-12.25124454,1,2.495904207,1,5.802126884,1,-1.441563845,1,0.346786112,0,-0.653331041,0,0.514800966,0
15.82196713,-10.11671638,1,-0.275442362,1,-12.61227322,1,2.525895119,1,5.821938038,1,-1.383223534,1,0.354848564,0,-0.629583001,0,0.518162966,0
15.82596874,-10.42219925,1,-0.082171254,1,-13.12074661,1,2.527045965,1,5.859600544,1,-1.365158558,1,0.36277777,0,-0.605771661,0,0.521926343,0
15.82996655,-10.57720184,1,-0.048074368,1,-13.60103416,1,2.553995371,1,5.88943243,1,-1.392081618,1,0.370707989,0,-0.581852555,0,0.525897861,0
15.83396626,-10.65104485,1,-0.140523612,1,-14.11865425,1,2.572930574,1,5.895488739,1,-1.432286978,1,0.378799468,0,-0.557853281,0,0.529910684,0
15.83796883,-10.82867622,1,-0.226092696,1,-14.76852798,1,2.600172281,1,5.892910004,1,-1.514024138,1,0.387111247,0,-0.533789396,0,0.533818066,0
15.84196568,-11.09216213,1,-0.225256711,1,-15.48672104,1,2.621588469,1,5.859082699,1,-1.616590142,1,0.39571923,0,-0.509685874,0,0.537497401,0
15.84596539,-11.32400513,1,-0.117236853,1,-16.30800247,1,2.634227514,1,5.812401772,1,-1.742770076,1,0.404643744,0,-0.485565603,0,0.540814281,0
15.84997368,-11.78706455,1,0.056783568,1,-17.18526077,1,2.653259516,1,5.755757809,1,-1.880907536,1,0.413913727,0,-0.461461037,0,0.543690503,0
15.8539772,-12.41984463,1,0.403113276,1,-17.93673134,1,2.671514988,1,5.706612587,1,-2.022853613,1,0.423506796,0,-0.437333703,0,0.546115458,0
15.85797691,-13.33445072,1,0.947544873,1,-18.44948387,1,2.693439245,1,5.660494804,1,-2.174455881,1,0.433404922,0,-0.413173556,0,0.548102498,0
15.86197853,-14.37729645,1,1.855597496,1,-18.67181015,1,2.729187965,1,5.626114368,1,-2.314342737,1,0.443640709,0,-0.388933927,0,0.549677014,0
15.86597538,-15.66349602,1,2.911457062,1,-18.70530128,1,2.788062334,1,5.590920448,1,-2.438987255,1,0.454210281,0,-0.364590943,0,0.550928831,0
15.86997509,-16.90825653,1,3.465845346,1,-18.66210175,1,2.866276503,1,5.570298672,1,-2.5182302,1,0.465151757,0,-0.340186805,0,0.552009463,0
15.87397766,-18.25522423,1,3.607691288,1,-18.45302582,1,2.952960253,1,5.562718391,1,-2.557870388,1,0.476432353,0,-0.31572938,0,0.553100884,0
15.87797546,-19.29286194,1,3.470998049,1,-18.30764389,1,2.996227503,1,5.559881687,1,-2.550276995,1,0.487955719,0,-0.291275501,0,0.554418862,0
15.88197422,-20.2805481,1,3.314963579,1,-17.95114899,1,3.006490707,1,5.55825758,1,-2.502519608,1,0.499502361,0,-0.266907066,0,0.556121111,0
15.88597584,-21.38916016,1,2.972384214,1,-17.47947502,1,2.961724758,1,5.548835278,1,-2.423170328,1,0.510897398,0,-0.24270004,0,0.558319449,0
15.88997364,-22.25065231,1,2.480973959,1,-17.03116989,1,2.849799633,1,5.535391808,1,-2.331629276,1,0.521905541,0,-0.218724057,0,0.561079621,0
15.89397335,-23.08599663,1,2.187015533,1,-16.58248138,1,2.68127346,1,5.519793987,1,-2.236516714,1,0.532310009,0,-0.195022762,0,0.564375818,0
15.89797497,-23.96861839,1,2.082720995,1,-15.92621136,1,2.46079421,1,5.490352631,1,-2.149149895,1,0.541908801,0,-0.171620801,0,0.568179488,0
15.90197277,-24.95631599,1,2.003814936,1,-15.14507961,1,2.199465513,1,5.448014736,1,-2.070629835,1,0.550571322,0,-0.148538783,0,0.572383583,0
15.90597248,-25.9895649,1,1.955759883,1,-14.07537842,1,1.907608032,1,5.38897562,1,-2.012990236,1,0.558183432,0,-0.125807539,0,0.576892257,0
15.9099741,-26.98633003,1,1.9984833,1,-12.20055771,1,1.585760593,1,5.352592945,1,-1.95822227,1,0.564630032,0,-0.103401788,0,0.581640601,0
15.9139719,-29.34653473,1,0.329317123,1,-4.74800539,1,1.295090199,1,5.460236549,1,-1.850433707,1,0.569899619,0,-0.081075668,0,0.586791337,0
15.91797161,-32.21257019,1,-11.9691,1,-2.746210814,1,0.792806447,1,5.571015358,1,-1.577223659,1,0.57379061,0,-0.058812257,0,0.593006015,0
15.92197323,-31.5661602,1,-12.9048624,1,2.310419083,1,-0.123850018,1,5.629918575,1,-1.22470057,1,0.574752569,0,-0.036874786,0,0.600458741,0
15.92597103,-30.54818535,1,-3.236522675,1,4.453364849,1,-0.544874251,1,5.414920807,1,-0.666631281,1,0.572996557,0,-0.016227065,0,0.609311759,0
15.92997074,-29.88069344,1,9.42877388,1,6.187428951,1,-0.164716631,1,5.004509449,1,-0.3424941,1,0.571324825,0,0.00239146,0,0.619005024,0
15.93397141,-29.37184525,1,20.79383659,1,7.262732983,1,0.903217971,1,4.347805977,1,-0.24881497,1,0.572749734,0,0.018790502,0,0.628186047,0
15.93796921,-30.40231133,1,30.20088577,1,9.300749779,1,2.466854811,1,3.581033945,1,-0.250726968,1,0.579592526,0,0.032627486,0,0.636011004,0
15.94196892,-32.57246017,1,34.69245911,1,12.43460178,1,4.090864658,1,2.793787003,1,-0.327398121,1,0.593000233,0,0.043879032,0,0.642127514,0
15.94596958,-34.57833862,1,33.41433334,1,15.2308569,1,5.36692524,1,1.969233155,1,-0.511650205,1,0.612244368,0,0.052675955,0,0.646166801,0
15.94996738,-35.63837814,1,27.56334114,1,16.58744812,1,6.001522541,1,1.147075295,1,-0.670437336,1,0.635240436,0,0.05914491,0,0.647857964,0
15.95396709,-35.8144722,1,18.53454399,1,16.47572517,1,5.797780037,1,0.325367093,1,-0.669631124,1,0.652639866,0,0.0687581,0,0.636844277,0
15.95796871,-34.94252777,1,7.626222134,1,15.40259266,1,4.557522774,1,-0.460629255,1,-0.536598027,1,0.673449516,0,0.070017315,0,0.634718955,0
15.96196652,-33.84085464,1,-1.103226662,1,13.50467968,1,2.521561384,1,-1.069967628,1,-0.374818206,1,0.68752259,0,0.068772681,0,0.631350577,0
15.96596623,-32.50225067,1,-5.572453022,1,11.51397991,1,0.129713178,1,-1.552152753,1,-0.219227165,1,0.692565203,0,0.065444723,0,0.627062261,0
15.96997452,-30.34824753,1,-5.318376064,1,9.711686134,1,-2.097038507,1,-1.911510348,1,-0.027370043,1,0.688215256,0,0.0604425,0,0.622228563,0
15.97397804,-19.56244278,1,-5.998033047,1,-0.359077305,1,-3.984045982,1,-2.209889889,1,0.289666772,1,0.675805509,0,0.053760748,0,0.617404878,0
15.97797775,-16.24680328,1,5.914822578,1,-0.468075156,1,-4.644627094,1,-3.929335594,1,1.228808045,1,0.657472253,0,0.042800922,0,0.61237371,0
15.98197937,-28.13752937,1,18.21621132,1,1.025106788,1,-3.314584017,1,-4.467238903,1,1.6895293,1,0.641658723,0,0.024838857,0,0.606809616,0
15.98597717,-5.661830425,1,8.450263023,1,-4.199952602,1,-3.400247335,1,-2.879069328,1,0.999399841,1,0.628168285,0,0.009988101,0,0.602229476,0
15.98997688,-1.774704337,1,-6.248374462,1,-11.46839333,1,-3.93377471,1,-2.723093987,1,1.291387796,1,0.613758922,0,-0.001460627,0,0.599594593,0
15.9939785,-14.61427975,1,-24.2369194,1,-13.56784248,1,-5.329386234,1,-2.690977573,1,1.625138879,1,0.595237851,0,-0.013878806,0,0.598097026,0
15.9979763,-3.012440443,1,-26.45381927,1,-16.95805359,1,-5.581973553,1,-1.942091465,1,2.050674915,1,0.573216379,0,-0.025685677,0,0.599197745,0
16.00197601,8.677759171,1,-21.43786049,1,-21.31763458,1,-5.736420631,1,-1.768267274,1,2.031864405,1,0.550639808,0,-0.03611977,0,0.602417469,0
16.00597763,5.042403698,1,-16.74123192,1,-17.56853485,1,-5.766726971,1,-1.863974571,1,1.767004013,1,0.527397513,0,-0.046410643,0,0.605147719,0
16.00997543,5.302865982,1,-12.16630554,1,-13.86837959,1,-6.063506603,1,-2.240324497,1,1.628507614,1,0.50384903,0,-0.056806918,0,0.606990576,0
16.01397514,4.889013767,1,-2.147079945,1,-8.972529411,1,-5.939842224,1,-2.717436314,1,1.520847917,1,0.479431331,0,-0.068459652,0,0.607905269,0
16.01797676,0.003450168,1,7.525063515,1,-6.62821722,1,-5.652457237,1,-3.70456934,1,1.206886053,1,0.456285238,0,-0.08236485,0,0.606964886,0
16.02197456,-6.970961571,1,12.96201706,1,-7.570904255,1,-5.052334309,1,-4.499245167,1,1.150812864,1,0.435166448,0,-0.099191129,0,0.604182005,0
16.02597427,-11.57351589,1,16.24230003,1,-15.62682629,1,-4.05826664,1,-4.965194225,1,1.13665688,1,0.417244852,0,-0.118428431,0,0.600397468,0
16.02997589,-22.90307236,1,13.56488037,1,-18.91703606,1,-3.810211897,1,-4.806460857,1,1.298771381,1,0.402165145,0,-0.138424829,0,0.596880376,0
16.03397369,-25.81883049,1,19.73000908,1,-21.98020935,1,-3.483444214,1,-3.979239464,1,1.724285007,1,0.387694895,0,-0.157009363,0,0.595709205,0
16.0379715,-27.69458199,1,21.633461,1,-20.77543068,1,-3.186847925,1,-3.346309423,1,2.145661354,1,0.373976648,0,-0.173509508,0,0.597520709,0
16.04197311,-26.68006897,1,19.55539131,1,-20.52470398,1,-2.680507421,1,-2.686045885,1,2.310351133,1,0.361552,0,-0.187907338,0,0.601626515,0
16.04597092,-21.51374054,1,13.68801308,1,-16.12363625,1,-2.31765151,1,-2.145591021,1,2.196299791,1,0.350521892,0,-0.200096279,0,0.606885552,0
16.04997063,-12.54108047,1,4.793091774,1,-12.8948164,1,-2.062618971,1,-2.04635191,1,1.906329036,1,0.340762764,0,-0.210668594,0,0.611920953,0
16.05397224,-7.699881077,1,-2.053529739,1,-10.97373581,1,-1.78394413,1,-2.188864946,1,1.513171434,1,0.332337081,0,-0.22086297,0,0.615733981,0
16.05797005,-7.727336407,1,-5.717952728,1,-9.452939987,1,-1.685903549,1,-2.22580719,1,1.120716095,1,0.3249183,0,-0.230973199,0,0.617867112,0
16.06196976,-6.712482929,1,-4.926367283,1,-9.030883789,1,-1.687373042,1,-2.163918495,1,0.901110113,1,0.317953348,0,-0.24056153,0,0.618902266,0
16.06597138,-7.274580956,1,0.209835067,1,-9.339718819,1,-1.666229367,1,-2.084696293,1,0.878727615,1,0.311049461,0,-0.249744624,0,0.619634986,0
16.06996918,-8.635998726,1,7.265571594,1,-10.33466434,1,-1.543472052,1,-1.910901189,1,0.96077913,1,0.30432862,0,-0.258481979,0,0.620743871,0
16.07396889,-9.408967018,1,12.78090382,1,-11.18183708,1,-1.345207572,1,-1.699301958,1,1.022270203,1,0.298075974,0,-0.266547114,0,0.622457087,0
16.07797051,-9.47689724,1,14.20499229,1,-11.51453686,1,-1.088561058,1,-1.48086226,1,1.04904747,1,0.29261446,0,-0.273830146,0,0.624679983,0
16.08196831,-10.16725636,1,12.16749096,1,-11.26927471,1,-0.858131707,1,-1.334943533,1,0.981537402,1,0.288068682,0,-0.280378163,0,0.627078593,0
16.08596802,-8.803408623,1,7.070922375,1,-11.20942307,1,-0.683837056,1,-1.161744118,1,0.875963509,1,0.284408212,0,-0.28622359,0,0.629313529,0
16.08997726,-7.370899677,1,0.752251983,1,-9.865094185,1,-0.565028429,1,-1.075373054,1,0.764101982,1,0.281333685,0,-0.291389853,0,0.63129735,0
16.09398079,-6.554638386,1,-4.281527042,1,-9.779126167,1,-0.593982399,1,-0.931268096,1,0.686517537,1,0.278587937,0,-0.296055436,0,0.633028388,0
16.0979805,-5.438104153,1,-6.175282001,1,-9.413398743,1,-0.588985085,1,-0.916790247,1,0.624834716,1,0.275763482,0,-0.300327122,0,0.634602606,0
16.10198402,-5.405264378,1,-4.974513531,1,-9.587431908,1,-0.66561532,1,-0.87650305,1,0.579498768,1,0.272830158,0,-0.304420352,0,0.636010885,0
16.10598183,-5.705746174,1,-2.12351656,1,-9.974061012,1,-0.684131026,1,-0.829208016,1,0.523492396,1,0.269739628,0,-0.308323652,0,0.637272,0
16.10998154,-5.20279932,1,0.450664967,1,-10.28756428,1,-0.62982583,1,-0.760831714,1,0.479526758,1,0.26674965,0,-0.311893374,0,0.638426721,0
16.11398315,-4.539874554,1,2.245020628,1,-10.45012379,1,-0.561638117,1,-0.736411393,1,0.440300167,1,0.264038414,0,-0.315267682,0,0.639478803,0
16.11798096,-4.294929981,1,2.336095333,1,-10.08005333,1,-0.492736667,1,-0.742595196,1,0.422583699,1,0.261658847,0,-0.318575561,0,0.640422761,0
16.12198067,-4.755387783,1,1.29462719,1,-9.883602142,1,-0.422754973,1,-0.71987772,1,0.403331876,1,0.259558737,0,-0.32184124,0,0.641305327,0
16.12598229,-5.14145565,1,-0.610409796,1,-9.582510948,1,-0.375620037,1,-0.727798343,1,0.34686929,1,0.257720739,0,-0.325020194,0,0.642052412,0
16.12998009,-5.635541916,1,-1.329208493,1,-9.591310501,1,-0.322564006,1,-0.702092528,1,0.30036518,1,0.256166995,0,-0.328135014,0,0.64258033,0
16.1339798,-5.47949791,1,-1.206948161,1,-9.414125443,1,-0.296844959,1,-0.660367787,1,0.250821054,1,0.254779994,0,-0.331033498,0,0.642996848,0
16.13798142,-5.148138046,1,-0.720746815,1,-9.636752129,1,-0.248243958,1,-0.671300054,1,0.224059597,1,0.25360918,0,-0.333867371,0,0.643260598,0
16.14197922,-5.00466156,1,-0.220934048,1,-9.653970718,1,-0.211567536,1,-0.669388831,1,0.198635116,1,0.252634108,0,-0.336664796,0,0.643410802,0
16.14597893,-4.971056461,1,0.36830163,1,-9.758997917,1,-0.166553512,1,-0.661574781,1,0.167030931,1,0.251859248,0,-0.339426249,0,0.643457651,0
16.14998055,-4.977890491,1,0.35367626,1,-9.490045547,1,-0.111151494,1,-0.653073907,1,0.138573512,1,0.25131762,0,-0.34212923,0,0.64339602,0
16.15398026,-5.179230213,1,0.032848887,1,-9.42152977,1,-0.076005481,1,-0.638253033,1,0.121310741,1,0.250985056,0,-0.344764769,0,0.643251717,0
16.15797997,-5.495846748,1,-0.355186284,1,-9.241461754,1,-0.044107214,1,-0.61486578,1,0.087954149,1,0.250827551,0,-0.34730643,0,0.643017173,0
16.16198158,-5.15653944,1,-0.612960517,1,-9.149962425,1,-0.013059639,1,-0.597319901,1,0.080721967,1,0.250819325,0,-0.34973675,0,0.642725289,0
16.16597939,-5.28990221,1,-1.079338908,1,-9.056533813,1,-0.010050915,1,-0.581836104,1,0.067938775,1,0.250878155,0,-0.352097094,0,0.642415643,0
16.1699791,-5.228439331,1,-1.191299677,1,-8.939129829,1,0.011186114,1,-0.574890375,1,0.050967518,1,0.251006722,0,-0.354386806,0,0.64205569,0
16.17398071,-5.193856239,1,-0.82240051,1,-8.953957558,1,0.009040571,1,-0.557033539,1,0.047586743,1,0.251179665,0,-0.356626153,0,0.641655028,0
16.17797852,-5.344662189,1,-0.501054525,1,-9.004434586,1,0.016885845,1,-0.541196108,1,0.040967237,1,0.251372606,0,-0.358807892,0,0.641258895,0
16.18197823,-5.085833549,1,-0.289733678,1,-8.82434845,1,0.03187811,1,-0.525756836,1,0.028871095,1,0.251625806,0,-0.360901475,0,0.640842855,0
16.18598175,-5.089262009,1,-0.55167985,1,-8.862462997,1,0.042339042,1,-0.522764802,1,0.029795511,1,0.251934081,0,-0.362968504,0,0.640405059,0
16.18997955,-4.982386112,1,-0.617370665,1,-8.783427238,1,0.04449385,1,-0.512018561,1,0.021610035,1,0.252272278,0,-0.36499393,0,0.639959872,0
16.19397926,-5.06512785,1,-0.758879483,1,-8.739863396,1,0.051922891,1,-0.506880581,1,0.021253256,1,0.252632082,0,-0.366985768,0,0.63950628,0
16.19798088,-5.20761776,1,-0.775536656,1,-8.550914764,1,0.053921625,1,-0.490443826,1,0.016812837,1,0.253009409,0,-0.368943751,0,0.639045358,0
16.20197868,-5.100552559,1,-0.724989474,1,-8.527606964,1,0.050653685,1,-0.481989741,1,0.012449623,1,-0.026918406,0,-0.671858132,0,1.534014702,0
16.20597839,-5.109427929,1,-0.833762527,1,-8.427679062,1,0.045164734,1,-0.473140478,1,0.011995494,1,-0.019981945,0,-0.674025178,0,1.495520949,0
16.20998573,-4.937667847,1,-0.950239301,1,-8.442825317,1,0.037146606,1,-0.464617372,1,0.013182627,1,-0.019892517,0,-0.675890565,0,1.495633245,0
16.21398926,-4.888329506,1,-1.035323262,1,-8.342159271,1,0.023283625,1,-0.466748565,1,0.016465191,1,-0.019843355,0,-0.677752376,0,1.49576354,0
16.21798897,-4.874621868,1,-1.231685758,1,-8.281645775,1,0.008255601,1,-0.465810031,1,0.019411556,1,-0.01985977,0,-0.679610252,0,1.495885372,0
16.22199059,-5.108472824,1,-1.391200185,1,-8.323415756,1,-0.02171821,1,-0.44937706,1,0.035147998,1,-0.02000428,0,-0.681447446,0,1.496078491,0
16.22598839,-4.947360039,1,-1.3016119,1,-8.312223434,1,-0.03699382,1,-0.444803476,1,0.043110579,1,-0.020274518,0,-0.683228374,0,1.496322513,0
16.22999001,-5.145475864,1,-1.346957564,1,-8.239346504,1,-0.053441308,1,-0.447275341,1,0.053744491,1,-0.020626036,0,-0.685010731,0,1.496604562,0
16.23399162,-4.924278736,1,-1.086011291,1,-8.265437126,1,-0.067608029,1,-0.422710508,1,0.066271417,1,-0.021104809,0,-0.686743677,0,1.496962905,0
16.23798943,-5.020335197,1,-0.909828186,1,-8.283132553,1,-0.079492316,1,-0.424389333,1,0.071516074,1,-0.021643845,0,-0.688435256,0,1.497372389,0
16.24198914,-5.085018635,1,-0.845504642,1,-8.183443069,1,-0.086200945,1,-0.411292911,1,0.086292244,1,-0.02225434,0,-0.690103889,0,1.497807622,0
16.24599075,-5.126191616,1,-0.806436002,1,-8.17414093,1,-0.092638507,1,-0.398970455,1,0.089863583,1,-0.022939868,0,-0.691716135,0,1.498315692,0
16.24998856,-5.256803513,1,-0.768503368,1,-8.143548012,1,-0.09707281,1,-0.381485611,1,0.092570305,1,-0.023645621,0,-0.693273783,0,1.498836279,0
16.25398827,-5.236718178,1,-0.760686994,1,-8.074181557,1,-0.102333583,1,-0.366344631,1,0.09760844,1,-0.024395131,0,-0.694757044,0,1.499380827,0
16.25798988,-5.154647827,1,-0.681044698,1,-8.124940872,1,-0.102236927,1,-0.350756168,1,0.09836679,1,-0.025151214,0,-0.696179569,0,1.499929786,0
16.26198769,-5.098112583,1,-0.74859637,1,-8.101577759,1,-0.113237575,1,-0.341160268,1,0.095580406,1,-0.025933158,0,-0.697559118,0,1.500475407,0
16.2659874,-5.087323666,1,-0.799863696,1,-8.136927605,1,-0.117738739,1,-0.331062913,1,0.102403,1,-0.026753528,0,-0.698893726,0,1.501046896,0
16.26998901,-5.023702621,1,-0.777530432,1,-8.096866608,1,-0.129422486,1,-0.3145006,1,0.107871644,1,-0.027643781,0,-0.700168133,0,1.501638889,0
16.27398682,-4.895920277,1,-0.858453572,1,-8.204827309,1,-0.137846082,1,-0.30968529,1,0.110227056,1,-0.028575869,0,-0.701400697,0,1.502262473,0
16.27798653,-4.963867664,1,-0.886077642,1,-8.174123764,1,-0.15515843,1,-0.314989328,1,0.115204215,1,-0.02957038,0,-0.702640593,0,1.502897024,0
16.28199005,-4.761817932,1,-0.948373199,1,-8.273093224,1,-0.176353619,1,-0.307076603,1,0.124478064,1,-0.030670485,0,-0.703856707,0,1.503577232,0
16.28598595,-5.096790791,1,-0.959864497,1,-8.112770081,1,-0.185061842,1,-0.310324669,1,0.131741419,1,-0.031863518,0,-0.705066383,0,1.504304409,0
16.28998566,-5.134374142,1,-0.895030975,1,-8.180976868,1,-0.197588116,1,-0.29742676,1,0.133165777,1,-0.03312365,0,-0.706254661,0,1.505056739,0
16.29398918,-5.171150208,1,-0.739873052,1,-8.11703968,1,-0.213818118,1,-0.282004297,1,0.149964601,1,-0.034471191,0,-0.707394898,0,1.505853176,0
16.29798698,-5.166799068,1,-0.7076298,1,-8.11015892,1,-0.220268786,1,-0.271450609,1,0.151704028,1,-0.035873748,0,-0.708483577,0,1.506691217,0
16.30198669,-5.119999409,1,-0.703558743,1,-8.116328239,1,-0.215135962,1,-0.265835106,1,0.152940005,1,-0.037310626,0,-0.709530711,0,1.507550001,0
16.30598831,-5.124423027,1,-0.649331152,1,-8.106632233,1,-0.215910822,1,-0.263102651,1,0.146835685,1,-0.038736399,0,-0.710561812,0,1.508400321,0
16.30998612,-5.396610737,1,-0.541261852,1,-8.141644478,1,-0.22330457,1,-0.244229347,1,0.148810521,1,-0.040155772,0,-0.71155411,0,1.509230971,0
16.31398583,-5.522447109,1,-0.569015265,1,-8.042500496,1,-0.227352291,1,-0.215694249,1,0.14978154,1,-0.041606806,0,-0.712464571,0,1.510074973,0
16.31798744,-5.33964777,1,-0.466253281,1,-8.044626236,1,-0.215671718,1,-0.224222466,1,0.139581576,1,-0.043025259,0,-0.713316321,0,1.510881186,0
16.32198525,-5.437525272,1,-0.488378018,1,-8.103879929,1,-0.221643075,1,-0.2073154,1,0.132942244,1,-0.044394802,0,-0.714152634,0,1.511650205,0
16.32598496,-5.530705929,1,-0.139159426,1,-8.070270538,1,-0.209399894,1,-0.186357796,1,0.137332559,1,-0.045761421,0,-0.714918494,0,1.512420177,0
16.32999229,-5.809781075,1,-0.145124778,1,-7.984621048,1,-0.204975545,1,-0.159776047,1,0.141003162,1,-0.047081959,0,-0.71559763,0,1.513186336,0
16.33399773,-5.047999382,1,-0.192560747,1,-8.108114243,1,-0.185365349,1,-0.15836449,1,0.117620721,1,-0.048349384,0,-0.716186464,0,1.51391995,0
16.33799744,-5.267693996,1,-0.095588692,1,-8.014233589,1,-0.174457669,1,-0.162290573,1,0.108870953,1,-0.049479302,0,-0.716819882,0,1.514554024,0
16.34199905,-5.369024277,1,-0.125773415,1,-8.024465561,1,-0.161555439,1,-0.15768902,1,0.105580322,1,-0.0505451,0,-0.717446089,0,1.515164137,0
16.34599686,-5.409142017,1,-0.164154351,1,-8.082999229,1,-0.146986127,1,-0.147729382,1,0.089693971,1,-0.051544249,0,-0.718031228,0,1.515729666,0
16.34999657,-5.406783104,1,-0.246634111,1,-8.095694542,1,-0.134860992,1,-0.14377898,1,0.096132234,1,-0.052444365,0,-0.718595922,0,1.516251087,0
16.35399818,-4.932828903,1,-0.083821423,1,-7.991581917,1,-0.127663851,1,-0.11990232,1,0.089237012,1,-0.053348724,0,-0.719094217,0,1.516812563,0
16.35799599,-4.953701973,1,0.018499894,1,-8.200060844,1,-0.105141245,1,-0.153269216,1,0.071220174,1,-0.054097641,0,-0.71964246,0,1.517264128,0
16.3619957,-5.068890572,1,0.085920744,1,-8.277381897,1,-0.081562594,1,-0.171021521,1,0.056825824,1,-0.054740403,0,-0.720276415,0,1.517645836,0
16.36599731,-5.201398849,1,0.272973388,1,-8.223461151,1,-0.060815386,1,-0.176895455,1,0.03589949,1,-0.055206344,0,-0.720965981,0,1.517935514,0
16.36999512,-5.192219734,1,0.152476519,1,-8.365897179,1,-0.037824359,1,-0.187084511,1,0.019141791,1,-0.055548869,0,-0.721681654,0,1.518141985,0
16.37399483,-5.040940285,1,0.037144799,1,-8.405278206,1,-0.015696753,1,-0.198712632,1,0.009511155,1,-0.055745393,0,-0.722443342,0,1.518282771,0
16.37799645,-4.939126015,1,-0.146117389,1,-8.550390244,1,0.009226032,1,-0.215886638,1,0.007413021,1,-0.055818465,0,-0.723271787,0,1.518393993,0
16.38199425,-4.942481041,1,-0.319128454,1,-8.527825356,1,0.022109997,1,-0.239466578,1,0.004469295,1,-0.055831905,0,-0.724180877,0,1.518494606,0
16.38599396,-4.92339325,1,-0.782311082,1,-8.44956398,1,0.026712341,1,-0.280458003,1,-0.001737067,1,-0.055785306,0,-0.725224376,0,1.518582821,0
16.38999748,-4.876095772,1,-0.75373131,1,-8.5465765,1,0.035139244,1,-0.306097776,1,0.008374474,1,-0.055728514,0,-0.726399183,0,1.518679142,0
16.39399338,-5.01162529,1,-0.220543534,1,-8.721090317,1,0.05006681,1,-0.325222462,1,0.022991827,1,-0.055696759,0,-0.727664471,0,1.518861651,0
16.39799309,-4.877044678,1,-0.005879805,1,-8.795944214,1,0.072148286,1,-0.353087395,1,0.020937111,1,-0.055597637,0,-0.729009748,0,1.51909411,0
16.40199661,-4.953203678,1,0.120670952,1,-8.837781906,1,0.090196334,1,-0.389498055,1,0.009357936,1,-0.055397712,0,-0.730484366,0,1.519284606,0
16.40599442,-5.273620605,1,0.229216307,1,-9.020810127,1,0.127353296,1,-0.424145818,1,-0.003780667,1,-0.055039451,0,-0.732114792,0,1.519417048,0
16.40999413,-4.72319603,1,0.011422869,1,-9.010061264,1,0.156713054,1,-0.429557085,1,-0.012429953,1,-0.054551762,0,-0.733814061,0,1.519524336,0
16.41399574,-4.536749363,1,-0.452662945,1,-9.343556404,1,0.198852196,1,-0.522970259,1,-0.02995199,1,-0.05384782,0,-0.735733569,0,1.51954031,0
16.41799355,-4.738149643,1,-0.523100376,1,-9.132975578,1,0.214891344,1,-0.586075187,1,-0.025012927,1,-0.053022433,0,-0.737959802,0,1.519548059,0
16.42199326,-5.011071205,1,-0.405232549,1,-9.180019379,1,0.258713514,1,-0.627935767,1,-0.009659443,1,-0.052113149,0,-0.740397513,0,1.519611359,0
16.42599487,-4.809802055,1,-0.563124776,1,-9.347748756,1,0.295212656,1,-0.671941876,1,0.004300125,1,-0.051128354,0,-0.742985189,0,1.519775867,0
16.42999268,-4.52355051,1,-0.633298516,1,-9.45647049,1,0.341245621,1,-0.745591581,1,0.017254626,1,-0.050025683,0,-0.745807171,0,1.520019174,0
16.43399239,-4.42652607,1,-0.996955276,1,-9.46816349,1,0.334764808,1,-0.812624574,1,0.024454864,1,-0.048881888,0,-0.748915672,0,1.520355821,0
16.437994,-4.094277382,1,-0.7260409,1,-9.377119064,1,0.319145858,1,-0.896200538,1,0.02504833,1,-0.047831785,0,-0.752319217,0,1.520713568,0
16.44199181,-4.317480087,1,-0.60021472,1,-9.565742493,1,0.280324966,1,-0.987200916,1,0.0225094,1,-0.046899308,0,-0.756079197,0,1.52110815,0
16.44599152,-4.346682549,1,0.380230606,1,-9.407832146,1,0.301022619,1,-1.074188948,1,-0.006020506,1,-0.045967054,0,-0.760188818,0,1.521413207,0
16.45000076,-4.763130665,1,1.068214297,1,-9.715254784,1,0.389593661,1,-1.157744765,1,-0.019242009,1,-0.044737265,0,-0.764656425,0,1.521624565,0
16.45400429,-4.712302208,1,0.804966152,1,-9.555141449,1,0.443507552,1,-1.239258528,1,-0.052325964,1,-0.033603068,0,-0.769243002,0,1.475988269,0
16.458004,-4.731315136,1,0.350458086,1,-9.790355682,1,0.462656349,1,-1.326701522,1,-0.092265852,1,-0.031664014,0,-0.774384737,0,1.475826859,0
16.46200562,-4.058856487,1,0.570954561,1,-10.02375507,1,0.523876727,1,-1.44116199,1,-0.109295525,1,-0.029458031,0,-0.779921651,0,1.475486636,0
16.46600342,-4.190167427,1,-0.081911787,1,-10.37235546,1,0.574029624,1,-1.554254055,1,-0.106774412,1,-0.026985675,0,-0.785924077,0,1.475119352,0
16.47000313,-4.066807747,1,-1.991446972,1,-10.36410236,1,0.52020973,1,-1.673173428,1,-0.092988111,1,-0.024550758,0,-0.792388797,0,1.474817872,0
16.47400475,-3.83258152,1,-2.126149178,1,-10.40987015,1,0.47724393,1,-1.82025528,1,-0.074082874,1,-0.02242326,0,-0.79937917,0,1.474574089,0
16.47800255,-4.199105263,1,-1.575808167,1,-10.6537447,1,0.501939952,1,-1.962421179,1,-0.016754393,1,-0.020437066,0,-0.806964695,0,1.474536896,0
16.48200226,-4.121673584,1,-1.64112258,1,-10.75626469,1,0.536511481,1,-2.110034227,1,0.029814133,1,-0.018560603,0,-0.815087974,0,1.474813581,0
16.48600388,-4.507151127,1,-3.130295038,1,-11.40166283,1,0.497570395,1,-2.259257317,1,0.079181246,1,-0.016862776,0,-0.823821545,0,1.475360632,0
16.49000168,-3.842768192,1,-3.374149084,1,-11.08985138,1,0.37180078,1,-2.420982838,1,0.087139808,1,-0.015675835,0,-0.833164573,0,1.476101398,0
16.49400139,-3.540402174,1,-2.086919785,1,-12.04348183,1,0.383188307,1,-2.644792557,1,0.12355601,1,-0.014832152,0,-0.843278527,0,1.4769665,0
16.49800491,-3.536938906,1,-1.626536369,1,-12.51577282,1,0.407036662,1,-2.860882521,1,0.15430063,1,-0.014078629,0,-0.854272306,0,1.478062987,0
16.50200081,-3.268203974,1,-2.425402164,1,-13.3380146,1,0.384225279,1,-3.11662364,1,0.185911521,1,-0.013465192,0,-0.866211474,0,1.479363799,0
16.50600052,-3.096583605,1,-4.063111305,1,-13.23255634,1,0.298689932,1,-3.41898036,1,0.234119013,1,-0.013288206,0,-0.879270911,0,1.480942845,0
16.51000404,-2.365082741,1,-4.698040009,1,-13.46321583,1,0.248946667,1,-3.782037735,1,0.300206065,1,-0.013753965,0,-0.89363277,0,1.482915878,0
16.51400185,-2.149026871,1,-4.8543396,1,-14.38297558,1,0.221702576,1,-4.141432762,1,0.424348801,1,-0.014942095,0,-0.909463048,0,1.485595465,0
16.51800156,-2.245837688,1,-5.804934025,1,-16.03042221,1,0.174695894,1,-4.535124779,1,0.630189836,1,-0.017182359,0,-0.926767051,0,1.489465356,0
16.52200317,-0.246484175,1,-5.924145699,1,-15.01699924,1,0.124508299,1,-4.943061829,1,0.800629079,1,-0.021024803,0,-0.945639968,0,1.494953394,0
16.52600098,1.153566599,1,-5.072280407,1,-14.78827,1,0.147616401,1,-5.554594517,1,0.969081819,1,-0.026204308,0,-0.966501474,0,1.501929402,0
16.53000069,-0.181004256,1,-3.357563257,1,-15.57670498,1,0.173190832,1,-6.208998203,1,1.114288449,1,-0.03281391,0,-0.989888966,0,1.510650516,0
16.5340023,-2.758120775,1,-2.745928526,1,-17.2278347,1,0.343281806,1,-6.927118301,1,1.357668638,1,-0.040964898,0,-1.015951395,0,1.521494508,0
16.53800011,-3.352174997,1,-2.771416187,1,-17.17793465,1,0.60223335,1,-7.577590942,1,1.639919877,1,-0.051321339,0,-1.044641376,0,1.5357939,0
16.54199982,-6.612353802,1,-4.639303207,1,-19.38412666,1,0.760240734,1,-8.086301804,1,1.887200236,1,-0.064412743,0,-1.075613022,0,1.553941727,0
16.54600143,-6.20367384,1,-6.287621975,1,-18.04108429,1,0.913520753,1,-8.367414474,1,2.093955278,1,-0.080928259,0,-1.107843161,0,1.576371908,0
16.54999924,-3.271586418,1,-6.224269867,1,-15.74659824,1,0.924117148,1,-8.707872391,1,2.224224329,1,-0.101769947,0,-1.141140461,0,1.603605747,0
16.55399895,-7.986203194,1,-6.36457777,1,-18.66176796,1,0.915614069,1,-8.709424019,1,2.402146578,1,-0.128118724,0,-1.174692988,0,1.636382699,0
16.55800057,-17.60774994,1,-10.59191704,1,-23.46731758,1,0.864188433,1,-8.712529182,1,2.675823927,1,-0.162247479,0,-1.207707763,0,1.67703104,0
16.56199837,-22.41705894,1,-17.05784035,1,-24.50167274,1,0.398841828,1,-8.407292366,1,2.985983849,1,-0.207945824,0,-1.239575863,0,1.728348017,0
16.56599808,-17.22825432,1,-15.05998993,1,-20.30438995,1,-0.106811099,1,-7.957230091,1,3.248847008,1,-0.267955065,0,-1.268277645,0,1.792085886,0
16.57000732,-18.67746353,1,-14.60617733,1,-19.43369675,1,-0.52127862,1,-7.725475311,1,3.405822992,1,-0.343583435,0,-1.294281602,0,1.869623542,0
16.57401085,-23.14150429,1,-13.99888802,1,-18.85972977,1,-0.90796268,1,-7.21154213,1,3.742252827,1,-0.436663717,0,-1.316574931,0,1.963111043,0
16.57801056,-22.71049881,1,-12.08035564,1,-19.64068222,1,-1.30633235,1,-6.621715069,1,4.068503857,1,-0.548595548,0,-1.33350718,0,2.073910236,0
16.58201218,-24.51368332,1,-10.10646915,1,-19.39540863,1,-1.434527278,1,-6.185255051,1,4.226759911,1,-0.673958123,0,-1.345019341,0,2.196992874,0
16.58600998,-26.68267059,1,-8.337472916,1,-18.07766151,1,-1.496470571,1,-5.68999052,1,4.392844677,1,-0.807111919,0,-1.350923657,0,2.327505827,0
16.59000969,-16.30994034,1,-11.87541389,1,-13.23301125,1,-1.485977173,1,-5.62091589,1,4.404779434,1,-0.940973163,0,-1.351787448,0,2.458516359,0
16.59401131,-14.84067535,1,-12.08741951,1,-14.29608536,1,-1.365785122,1,-5.78088665,1,4.165921688,1,-1.074319482,0,-1.349524975,0,2.589262724,0
16.59800911,-16.58364677,1,-11.50064182,1,-15.18991566,1,-1.282935262,1,-5.349040985,1,3.943820953,1,-1.199006557,0,-1.344218254,0,2.711710215,0
16.60200882,-12.53631973,1,-10.25461578,1,-15.67073441,1,-1.060204148,1,-4.678565502,1,3.684570551,1,-1.305326343,0,-1.336003542,0,2.816051483,0
16.60601234,-14.22144699,1,-10.92621803,1,-16.66750717,1,-0.830955207,1,-3.775845528,1,3.504388332,1,-1.389881492,0,-1.325762033,0,2.89925313,0
16.61000824,-12.67256927,1,-13.71719456,1,-17.60439873,1,-0.811000168,1,-2.623457432,1,3.247425079,1,-1.450501561,0,-1.314284682,0,2.958450079,0
16.61400795,-7.731039524,1,-15.3355875,1,-18.20084953,1,-0.701171994,1,-1.718405247,1,2.935856342,1,-1.489950418,0,-1.302843094,0,2.996131897,0
16.61801148,-5.242113113,1,-17.11074829,1,-18.63426208,1,-0.648915768,1,-1.044510365,1,2.623162746,1,-1.51487565,0,-1.292100191,0,3.019254208,0
16.62200737,-2.896125555,1,-19.90970039,1,-18.09954643,1,-0.786454558,1,-0.448994756,1,2.287294626,1,-1.529518843,0,-1.282429099,0,3.031562567,0
16.62600899,2.027033806,1,-20.12283707,1,-16.74009705,1,-1.035452366,1,-0.014103685,1,1.990411758,1,-1.537034512,0,-1.273933172,0,3.035632372,0
16.63001061,6.19591856,1,-21.73151398,1,-13.74680996,1,-1.378939629,1,0.158885598,1,1.702886939,1,-1.54141748,0,-1.266595602,0,3.035201788,0
16.63400841,8.057396889,1,-17.49031258,1,-10.98753738,1,-1.776153922,1,0.092030771,1,1.421256304,1,-1.546550989,0,-1.260215402,0,3.033896446,0
16.63800812,-4.603898525,1,-14.81895638,1,-11.39943981,1,-1.626248479,1,0.133083865,1,1.069588184,1,-1.552889824,0,-1.255357146,0,3.033261776,0
16.64200974,-7.678799629,1,-12.35358429,1,-13.03878212,1,-1.353361487,1,0.818926394,1,1.126921296,1,-1.553486943,0,-1.250944495,0,3.027621984,0
16.64600754,-1.579902411,1,-11.37435532,1,-14.41289711,1,-1.10956037,1,1.51796186,1,1.067585945,1,-1.544553876,0,-1.246411204,0,3.013009787,0
16.65000725,3.647493362,1,-10.73396778,1,-13.87299728,1,-0.85794127,1,1.991654158,1,0.941112936,1,-1.527940273,0,-1.242148638,0,2.991336107,0
16.65400887,6.719688416,1,-10.49943066,1,-12.01824856,1,-0.729872823,1,2.213521242,1,0.800101936,1,-1.506991506,0,-1.238206625,0,2.965852022,0
16.65800667,7.728774071,1,-9.985321999,1,-10.66682053,1,-0.623157501,1,2.278308153,1,0.666211545,1,-1.484502792,0,-1.23461163,0,2.9391644,0
16.66200638,8.428830147,1,-8.288651466,1,-9.804614067,1,-0.410530895,1,2.287394762,1,0.617164969,1,-1.461407304,0,-1.231189847,0,2.912456751,0
16.666008,8.959681511,1,-6.848302364,1,-9.078198433,1,-0.075526066,1,2.250762701,1,0.605329335,1,-1.437834978,0,-1.22766614,0,2.886367083,0
16.6700058,8.695828438,1,-6.445248604,1,-8.513005257,1,0.321975261,1,2.170251131,1,0.605645001,1,-1.413947701,0,-1.224000692,0,2.861511469,0
16.67400551,7.539680481,1,-6.41379261,1,-8.247119904,1,0.673209667,1,2.139238834,1,0.599108219,1,-1.389749527,0,-1.220174789,0,2.837899208,0
16.67800713,6.615576744,1,-6.559029579,1,-8.191151619,1,0.949710071,1,2.145097733,1,0.556310952,1,-1.364888549,0,-1.216245651,0,2.814880133,0
16.68200684,5.518494606,1,-6.745371819,1,-8.25334549,1,1.156150818,1,2.194963217,1,0.486614972,1,-1.339145422,0,-1.212320805,0,2.791912794,0
16.68600655,4.451449394,1,-6.874328136,1,-8.271524429,1,1.327872992,1,2.286258698,1,0.378550291,1,-1.31221056,0,-1.208464742,0,2.768444061,0
16.69000816,3.395997047,1,-6.994726658,1,-8.248027802,1,1.486194491,1,2.389885664,1,0.259150028,1,-1.2838732,0,-1.204719782,0,2.744141102,0
16.69401169,2.374627113,1,-7.186892033,1,-8.223846436,1,1.613009691,1,2.516089678,1,0.114897698,1,-1.2539711,0,-1.201095581,0,2.718744516,0
16.69801712,1.482859015,1,-7.359157085,1,-8.255939484,1,1.707286358,1,2.660626888,1,-0.043178171,1,-1.222328901,0,-1.197582483,0,2.691920996,0
16.70201874,0.598095357,1,-7.609221935,1,-8.326007843,1,1.752811432,1,2.821519852,1,-0.22745578,1,-1.188908339,0,-1.194176674,0,2.663452864,0
16.70601654,-0.152282536,1,-7.748538017,1,-8.43625927,1,1.767979383,1,2.99341321,1,-0.419405788,1,-1.154117107,0,-1.202551961,0,2.595574141,0
16.71001625,-0.60447669,1,-7.694037437,1,-8.494005203,1,1.764048576,1,3.168193102,1,-0.617293775,1,-1.115988851,0,-1.199220896,0,2.562254906,0
16.71401787,-0.899423003,1,-7.44498539,1,-8.467373848,1,1.7490412,1,3.328832626,1,-0.828741431,1,-1.07606566,0,-1.195857048,0,2.526930571,0
16.71801567,-1.072309732,1,-7.019756317,1,-8.370845795,1,1.739800453,1,3.473552465,1,-1.047184706,1,-1.034477353,0,-1.192410231,0,2.489712715,0
16.72201538,-1.309693217,1,-6.437984943,1,-8.282619476,1,1.745209932,1,3.599561453,1,-1.262033582,1,-0.991350174,0,-1.188828707,0,2.450768709,0
16.72601891,-1.477820396,1,-5.88204813,1,-8.27307415,1,1.762345552,1,3.711189032,1,-1.47854054,1,-0.946827888,0,-1.185061336,0,2.410305977,0
16.7300148,-1.74401474,1,-5.347369194,1,-8.267230034,1,1.790336967,1,3.808520317,1,-1.691652656,1,-0.900981843,0,-1.181050897,0,2.368455648,0
16.73401642,-2.079986572,1,-4.991570473,1,-8.239170074,1,1.83619225,1,3.893150806,1,-1.894324899,1,-0.853960991,0,-1.176722527,0,2.325429916,0
16.73801804,-2.280619144,1,-4.764770031,1,-8.180969238,1,1.867938519,1,3.960441828,1,-2.083978653,1,-0.805979371,0,-1.171992898,0,2.281454563,0
16.74201584,-2.570560932,1,-4.669600964,1,-8.14121151,1,1.889776707,1,4.029567719,1,-2.257176399,1,-0.757406414,0,-1.166759014,0,2.236858845,0
16.74601555,-2.939567089,1,-4.560555935,1,-8.151379585,1,1.904355049,1,4.081522465,1,-2.418219328,1,-0.708506048,0,-1.160957217,0,2.191875935,0
16.75001717,-3.368362188,1,-4.438857555,1,-8.13011837,1,1.908779383,1,4.135518551,1,-2.550074816,1,-0.659600973,0,-1.154505014,0,2.146805525,0
16.75401497,-3.798193932,1,-4.236448765,1,-8.163380623,1,1.902459621,1,4.189401627,1,-2.662231684,1,-0.611014366,0,-1.147284746,0,2.101946115,0
16.75801468,-4.214679718,1,-4.04628849,1,-8.244848251,1,1.892226219,1,4.237682343,1,-2.747431755,1,-0.563135803,0,-1.139242172,0,2.057675123,0
16.7620163,-4.606414318,1,-3.709391356,1,-8.38411808,1,1.882687688,1,4.286793709,1,-2.819983006,1,-0.516271651,0,-1.13033092,0,2.014294386,0
16.7660141,-5.017597198,1,-3.345900059,1,-8.557768822,1,1.873495936,1,4.338711739,1,-2.880713463,1,-0.470611215,0,-1.120542526,0,1.972007751,0
16.77001381,-5.367032051,1,-3.033220291,1,-8.698217392,1,1.873346567,1,4.388257027,1,-2.925348997,1,-0.426337868,0,-1.109846115,0,1.931044936,0
16.77401543,-5.698987961,1,-2.726332664,1,-8.837047577,1,1.887877345,1,4.440615177,1,-2.961859703,1,-0.383539587,0,-1.098254204,0,1.891545296,0
16.77801323,-6.035820961,1,-2.394342184,1,-8.988080025,1,1.905777454,1,4.482755184,1,-2.98481822,1,-0.342340767,0,-1.085789442,0,1.853671432,0
16.78201294,-6.309700012,1,-2.201918364,1,-9.205435753,1,1.934664488,1,4.526855946,1,-3.007277727,1,-0.302770436,0,-1.07249558,0,1.817500591,0
16.78601456,-6.61882782,1,-2.11007452,1,-9.41899395,1,1.961090326,1,4.56056881,1,-3.022968769,1,-0.26485008,0,-1.058424234,0,1.783070922,0
16.79001236,-6.974088669,1,-2.063911676,1,-9.717161179,1,1.996121049,1,4.603271961,1,-3.035702944,1,-0.228581712,0,-1.043614149,0,1.750402093,0
16.79401207,-7.291618824,1,-2.029366016,1,-9.972616196,1,2.016394615,1,4.630221367,1,-3.050000668,1,-0.193936691,0,-1.028120399,0,1.719461322,0
16.79801369,-7.691271782,1,-2.072029591,1,-10.36326313,1,2.04524827,1,4.661931038,1,-3.067981958,1,-0.160860553,0,-1.011988759,0,1.690192103,0
16.80201149,-8.138751984,1,-2.042728186,1,-10.79002571,1,2.070065022,1,4.692066669,1,-3.089960337,1,-0.12925294,0,-0.99526,0,1.662479281,0
16.8060112,-8.565144539,1,-2.023842335,1,-11.25280094,1,2.091234207,1,4.729224205,1,-3.120172262,1,-0.09902668,0,-0.97794795,0,1.636219382,0
16.81001282,-8.892941475,1,-1.853245735,1,-11.70126915,1,2.116015196,1,4.770761013,1,-3.155770302,1,-0.070063464,0,-0.960088372,0,1.611297607,0
16.81401825,-9.420645714,1,-1.920679212,1,-12.18523502,1,2.13777709,1,4.798864841,1,-3.202348471,1,-0.04227047,0,-0.941692054,0,1.587601304,0
16.81801796,-9.711250305,1,-1.815747142,1,-12.71691608,1,2.164799452,1,4.840978622,1,-3.256453753,1,-0.01553166,0,-0.922785521,0,1.565020204,0
16.82201958,-10.05086231,1,-1.513411403,1,-12.94742012,1,2.199174404,1,4.864966393,1,-3.326882839,1,0.01028772,0,-0.903391063,0,1.543401003,0
16.82601738,-10.36003876,1,-1.480638504,1,-13.59595585,1,2.222108841,1,4.894225121,1,-3.394997835,1,0.035285305,0,-0.883563101,0,1.52267909,0
16.83001709,-10.68159962,1,-1.393879652,1,-14.05886936,1,2.254125118,1,4.923086166,1,-3.474157572,1,0.059490498,0,-0.863300383,0,1.502776623,0
16.83401871,-10.91204739,1,-1.288847685,1,-14.53314018,1,2.294177771,1,4.942567348,1,-3.555751085,1,0.083033554,0,-0.842616379,0,1.483599901,0
16.83801651,-11.22679615,1,-1.316006541,1,-15.06745052,1,2.309755802,1,4.953528404,1,-3.636362076,1,0.105908014,0,-0.821552753,0,1.46510911,0
16.84201622,-11.56131458,1,-1.446627021,1,-15.65354443,1,2.329337597,1,4.960056782,1,-3.709740877,1,0.12809898,0,-0.800134897,0,1.447286963,0
16.84601784,-12.02551174,1,-1.494395971,1,-16.33496666,1,2.344429016,1,4.958292961,1,-3.791603565,1,0.149639502,0,-0.778411388,0,1.430104733,0
16.85001564,-12.69103813,1,-1.320427299,1,-16.97610855,1,2.359954119,1,4.954138279,1,-3.873924017,1,0.170578942,0,-0.756390333,0,1.413482547,0
16.85401535,-13.49494648,1,-0.546666443,1,-17.45165253,1,2.375226974,1,4.95422554,1,-3.967859268,1,0.190991879,0,-0.734074295,0,1.397337556,0
16.85801697,-14.34140873,1,0.496732235,1,-17.83074379,1,2.418171167,1,4.942540646,1,-4.072606564,1,0.210982904,0,-0.711466312,0,1.381598234,0
16.86201477,-15.34367847,1,1.449567914,1,-18.09576035,1,2.500575304,1,4.914972782,1,-4.177924156,1,0.230744734,0,-0.688619256,0,1.366179109,0
16.86601448,-16.47730446,1,2.080209017,1,-18.37381363,1,2.611899137,1,4.88624382,1,-4.274364471,1,0.250414163,0,-0.665542603,0,1.351102948,0
16.8700161,-17.83830452,1,2.498253107,1,-18.58452988,1,2.730730295,1,4.860627174,1,-4.355514526,1,0.270048708,0,-0.642260373,0,1.336399913,0
16.8740139,-18.98526764,1,2.416530609,1,-18.47458076,1,2.837017059,1,4.836319447,1,-4.419198513,1,0.289593071,0,-0.618762016,0,1.32214272,0
16.87801361,-20.40021515,1,2.187055826,1,-18.44159889,1,2.913767099,1,4.816180229,1,-4.463664532,1,0.308959007,0,-0.595071435,0,1.308402061,0
16.88201714,-21.89459229,1,1.60753715,1,-18.18840408,1,2.936433554,1,4.804169178,1,-4.488948345,1,0.327919394,0,-0.571199298,0,1.295243859,0
16.88601494,-23.52295494,1,0.897913218,1,-17.67467308,1,2.899725914,1,4.804498672,1,-4.469665527,1,0.346222579,0,-0.547138333,0,1.28278935,0
16.89001465,-25.05505371,1,-0.076488934,1,-16.95579529,1,2.766275644,1,4.836898327,1,-4.405359745,1,0.363492191,0,-0.522891343,0,1.271211863,0
16.89401627,-26.43715286,1,-0.799516678,1,-15.6099844,1,2.542900324,1,4.894248486,1,-4.313835144,1,0.379281074,0,-0.498422772,0,1.260670185,0
16.89801407,-28.258564,1,-1.69346261,1,-12.35445404,1,2.263405323,1,5.029116631,1,-4.150662422,1,0.393251002,0,-0.473683149,0,1.251346707,0
16.90201378,-30.17079163,1,-6.290235996,1,-9.359752655,1,1.925371885,1,5.208309174,1,-3.84011054,1,0.405041814,0,-0.448594362,0,1.243766308,0
16.9060154,-31.25697899,1,-9.558330536,1,-6.144737244,1,1.369030356,1,5.413703442,1,-3.421741486,1,0.41396144,0,-0.423298985,0,1.238373756,0
16.9100132,-30.71016693,1,-7.432328701,1,-3.35003233,1,0.803790748,1,5.503056049,1,-2.900330067,1,0.419441849,0,-0.398179591,0,1.235415936,0
16.91401291,-30.38640404,1,-2.231155872,1,-0.877778947,1,0.555595696,1,5.456022263,1,-2.357490063,1,0.422302067,0,-0.373847961,0,1.234745502,0
16.91801453,-30.22294235,1,4.701934338,1,0.929970086,1,0.722328782,1,5.288093567,1,-1.915626526,1,0.424365491,0,-0.35072571,0,1.235889912,0
16.92201233,-29.5866375,1,11.95786095,1,2.707565784,1,1.294702053,1,4.970050812,1,-1.559981585,1,0.427529871,0,-0.329153091,0,1.238201022,0
16.92601204,-29.84043884,1,18.87057877,1,4.855914116,1,2.225545406,1,4.530164242,1,-1.263869882,1,0.433557749,0,-0.309511125,0,1.241181731,0
16.93001366,-31.96253014,1,25.15615463,1,7.720683098,1,3.413989544,1,4.02718401,1,-1.056736588,1,0.443842649,0,-0.292054296,0,1.244407654,0
16.93401718,-35.07069397,1,29.06516075,1,11.02160454,1,4.656330109,1,3.466812134,1,-0.947906911,1,0.459150672,0,-0.276807278,0,1.247479439,0
16.93801689,-38.11893463,1,30.09962845,1,13.74786568,1,5.644407749,1,2.885092497,1,-0.934498727,1,0.479191959,0,-0.263752788,0,1.249967694,0
16.94202042,-39.62237549,1,27.27983284,1,15.6186285,1,6.110699177,1,2.209507704,1,-0.957903802,1,0.502478778,0,-0.252976209,0,1.251479745,0
16.94601822,-39.42713928,1,20.31335068,1,16.25844574,1,5.877639771,1,1.460418105,1,-0.949728966,1,0.526569426,0,-0.244679958,0,1.251758099,0
16.95001793,-37.27064133,1,10.4742794,1,15.93518734,1,4.896347523,1,0.664735913,1,-0.863778591,1,0.548532546,0,-0.239156857,0,1.25078702,0
16.95401955,-35.66861725,1,1.802155375,1,15.02934742,1,3.234581232,1,-0.129082203,1,-0.7212345,1,0.571133018,0,-0.238015071,0,1.252093077,0
16.95801735,-33.57345963,1,-3.75780201,1,13.10287476,1,1.188139796,1,-0.701327562,1,-0.543778598,1,0.580753982,0,-0.238049179,0,1.248954892,0
16.96201706,-28.70039177,1,-6.539626122,1,11.81987667,1,-0.863434494,1,-1.232840538,1,-0.284100831,1,0.582248688,0,-0.240364164,0,1.245310426,0
16.96601868,-20.4670372,1,-10.1860342,1,3.794387817,1,-2.829974413,1,-1.75801909,1,0.054742802,1,0.575887442,0,-0.245090678,0,1.241520047,0
16.97001648,-5.697600842,1,-16.45399666,1,-0.41700989,1,-5.21704483,1,-3.274187565,1,0.493192494,1,0.560603082,0,-0.253704578,0,1.237224817,0
16.97401619,-28.5427494,1,3.110328436,1,4.64948082,1,-5.63701725,1,-5.079651356,1,0.858576179,1,0.540169179,0,-0.26982066,0,1.230308175,0
16.97801781,-13.86964417,1,12.28159332,1,3.969896793,1,-5.286663532,1,-4.021368504,1,0.779247224,1,0.52048713,0,-0.287803173,0,1.2233634,0
16.98201561,1.20426023,1,-2.000225544,1,-4.68337822,1,-6.128721237,1,-2.978368521,1,1.056104898,1,0.498953849,0,-0.301064402,0,1.219848871,0
16.98601532,-13.92495728,1,-14.39412212,1,-8.257601738,1,-7.415699959,1,-3.458789587,1,1.208325744,1,0.472413301,0,-0.314717948,0,1.217680812,0
16.99001694,-10.52942753,1,-18.59700203,1,-10.35153008,1,-7.690596581,1,-2.636565447,1,1.492803574,1,0.442249179,0,-0.328200579,0,1.217051983,0
16.99401474,3.575437784,1,-14.63292313,1,-19.86387444,1,-7.730097771,1,-2.503531218,1,1.621587634,1,0.410660118,0,-0.33990863,0,1.21871376,0
16.99801445,-1.484343886,1,-8.530301094,1,-20.65800285,1,-7.803901196,1,-2.785733938,1,1.392071605,1,0.379052818,0,-0.352096498,0,1.220286846,0
17.00201798,-0.371149868,1,-0.677122355,1,-15.76620483,1,-7.277715206,1,-2.580909729,1,1.605167627,1,0.348423034,0,-0.364188135,0,1.222211838,0
17.00601578,1.485712171,1,8.947054863,1,-15.12312317,1,-6.989818096,1,-3.102189541,1,1.653640389,1,0.31853044,0,-0.37705034,0,1.224777222,0
17.01001549,1.414985538,1,19.76834488,1,-15.00571918,1,-6.197281361,1,-3.917356968,1,1.609340906,1,0.291312337,0,-0.392233968,0,1.22693789,0
17.01401711,-7.856363773,1,26.01847458,1,-15.87721634,1,-5.342611313,1,-4.544532776,1,1.667414427,1,0.267460287,0,-0.410461247,0,1.228684783,0
17.01801491,-11.00089455,1,24.51859856,1,-23.72621346,1,-4.40237999,1,-4.783349991,1,1.803642988,1,0.247408181,0,-0.430306911,0,1.23083353,0
17.02201462,-21.90989494,1,23.10534859,1,-21.73821259,1,-4.001879215,1,-4.5365839,1,2.230165005,1,0.228931025,0,-0.450499862,0,1.234548688,0
17.02601814,-26.62417221,1,24.04299545,1,-23.53604126,1,-3.687570095,1,-3.878828526,1,2.613904715,1,0.210878134,0,-0.469051272,0,1.241010666,0
17.03001404,-28.96800613,1,22.79566956,1,-22.04515076,1,-3.176934481,1,-3.218356133,1,2.884399652,1,0.192805961,0,-0.485182881,0,1.250075459,0
17.03401566,-30.06551933,1,16.15026665,1,-19.78791428,1,-2.837277651,1,-2.55628705,1,2.793628931,1,0.176068977,0,-0.498634636,0,1.260348916,0
17.03801727,-19.86963844,1,8.426803589,1,-15.52793121,1,-2.470644236,1,-2.075265408,1,2.587456942,1,0.160332546,0,-0.509474933,0,1.270795822,0
17.04201508,-14.44722748,1,-2.475799561,1,-11.02446747,1,-2.31738162,1,-2.029639959,1,2.276351213,1,0.145989329,0,-0.519120276,0,1.280445814,0
17.04601479,-7.450560093,1,-7.848324776,1,-9.636386871,1,-2.104376554,1,-2.059823751,1,1.875215054,1,0.133144304,0,-0.528320074,0,1.288671732,0
17.0500164,-3.35206461,1,-6.709605217,1,-7.910657406,1,-2.062616587,1,-2.208263874,1,1.455008984,1,0.121517435,0,-0.537608802,0,1.295075893,0
17.05401993,-3.570725918,1,-5.462686062,1,-8.050890923,1,-2.08114481,1,-2.315860271,1,1.176760554,1,0.110793315,0,-0.547231555,0,1.299874306,0
17.05801964,-5.365894794,1,0.108681686,1,-8.419757843,1,-2.049734354,1,-2.325449228,1,1.096768856,1,0.10031642,0,-0.556958616,0,1.303999305,0
17.06202126,-8.414964676,1,8.220417023,1,-9.139915466,1,-1.89375031,1,-2.22211504,1,1.095717549,1,0.090229556,0,-0.566459239,0,1.308100462,0
17.06601906,-10.08634663,1,13.72319794,1,-10.50576115,1,-1.659006,1,-1.990959167,1,1.168463707,1,0.080657177,0,-0.575211942,0,1.312601805,0
17.07001877,-12.36566734,1,15.83721447,1,-11.34654999,1,-1.360589027,1,-1.746685386,1,1.253903508,1,0.071810946,0,-0.583079159,0,1.317709804,0
17.07402039,-11.31563663,1,13.07192802,1,-11.52827454,1,-1.074803948,1,-1.434678316,1,1.273909926,1,0.063844532,0,-0.589757502,0,1.323288202,0
17.07801819,-9.24051857,1,6.397352219,1,-10.81937313,1,-0.840536952,1,-1.26404357,1,1.184242845,1,0.056960013,0,-0.5954144,0,1.328829169,0
17.0820179,-7.169920444,1,-1.747226357,1,-10.12703419,1,-0.783604622,1,-1.090797186,1,1.09869349,1,0.050793659,0,-0.600328147,0,1.334034801,0
17.08602142,-5.851980686,1,-7.540102005,1,-9.552124977,1,-0.837113142,1,-1.041115999,1,1.027094126,1,0.044817895,0,-0.604789376,0,1.33893621,0
17.09001923,-6.64069128,1,-8.0053339,1,-9.856209755,1,-0.940906227,1,-0.951788843,1,0.927284837,1,0.038654879,0,-0.608952701,0,1.34352541,0
17.09401894,-6.300168037,1,-5.763733864,1,-10.06472206,1,-1.021285772,1,-0.859609485,1,0.754064083,1,0.032452472,0,-0.612683594,0,1.347470045,0
17.09802055,-5.571829796,1,-2.424827814,1,-9.990320206,1,-1.029508352,1,-0.808291495,1,0.594644785,1,0.026524762,0,-0.6160748,0,1.350628734,0
17.10201836,-4.361905098,1,1.807832599,1,-10.00403404,1,-0.983159184,1,-0.787701845,1,0.589705229,1,0.020978209,0,-0.619395494,0,1.353356004,0
17.10601807,-3.372944117,1,4.333861828,1,-10.22040939,1,-0.911083937,1,-0.826465726,1,0.602241576,1,0.015441905,0,-0.622598708,0,1.356231213,0
17.11001968,-4.26845026,1,4.463460445,1,-10.36358738,1,-0.853564858,1,-0.761955559,1,0.686372697,1,0.010108367,0,-0.625847101,0,1.359356165,0
17.11401749,-4.589122772,1,1.709560752,1,-9.670442581,1,-0.742125809,1,-0.752639234,1,0.660257041,1,0.004965669,0,-0.628859997,0,1.36264956,0
17.1180172,-4.966524124,1,-1.282924056,1,-9.471357346,1,-0.725767016,1,-0.728638053,1,0.614826798,1,0.000171879,0,-0.631806791,0,1.365813136,0
17.12201881,-5.384131908,1,-2.656318903,1,-9.615708351,1,-0.690171957,1,-0.72764802,1,0.530132353,1,-0.004355084,0,-0.634719193,0,1.368664742,0
17.12601662,-5.062561512,1,-2.305603981,1,-9.580358505,1,-0.6721977,1,-0.741289616,1,0.466202974,1,-0.008520897,0,-0.637639225,0,1.371118903,0
17.13001633,-4.750636578,1,-0.704131961,1,-9.798395157,1,-0.670796454,1,-0.738429487,1,0.434892625,1,-0.012580529,0,-0.640562594,0,1.373393655,0
17.13401794,-5.350797176,1,1.307071924,1,-9.878562927,1,-0.644076169,1,-0.720398843,1,0.435874879,1,-0.016550109,0,-0.643469274,0,1.375630975,0
17.13801575,-5.276603699,1,2.278721333,1,-9.467417717,1,-0.562624097,1,-0.688013673,1,0.409063309,1,-0.020302126,0,-0.64625001,0,1.377838373,0
17.14201546,-5.304106712,1,1.248433113,1,-9.350188255,1,-0.521512151,1,-0.664948821,1,0.360901028,1,-0.023692125,0,-0.648902476,0,1.379861116,0
17.14601708,-5.42589426,1,-0.008604139,1,-9.216223717,1,-0.473941386,1,-0.656274319,1,0.301610589,1,-0.026728107,0,-0.651516676,0,1.381617665,0
17.15001488,-5.658318043,1,-0.242633611,1,-9.216316223,1,-0.445749342,1,-0.630380452,1,0.271585792,1,-0.029479293,0,-0.654071212,0,1.383132339,0
17.15401459,-5.815802097,1,-0.159065351,1,-9.121643066,1,-0.425918072,1,-0.598531067,1,0.254459769,1,-0.032092489,0,-0.656500041,0,1.384555578,0
17.15801621,-5.616729736,1,-0.205932707,1,-9.167626381,1,-0.405662,1,-0.562730789,1,0.244084403,1,-0.034587175,0,-0.65877676,0,1.385916233,0
17.16201401,-5.475352287,1,0.052879617,1,-9.211959839,1,-0.390060276,1,-0.530631363,1,0.23393102,1,-0.036987867,0,-0.660913885,0,1.387218118,0
17.16601372,-5.334257126,1,0.02408552,1,-9.161632538,1,-0.368723005,1,-0.508611977,1,0.222105667,1,-0.039284091,0,-0.662950754,0,1.388480783,0
17.17001534,-4.962229252,1,-0.081853919,1,-9.119178772,1,-0.361377239,1,-0.487213075,1,0.209603339,1,-0.041475084,0,-0.664899945,0,1.389681339,0
17.17402077,-5.179387093,1,0.033794798,1,-9.100247383,1,-0.328365386,1,-0.480438858,1,0.199149862,1,-0.043545552,0,-0.666803062,0,1.390815973,0
17.17802048,-5.229867458,1,0.133885816,1,-9.019694328,1,-0.29850325,1,-0.471436352,1,0.184464842,1,-0.045465603,0,-0.668674648,0,1.391884089,0
17.1820221,-5.190919399,1,0.423172116,1,-8.930215836,1,-0.268169582,1,-0.455284566,1,0.177197516,1,-0.04725245,0,-0.670491457,0,1.392920852,0
17.1860199,-5.110197544,1,0.465135813,1,-8.849752426,1,-0.242515609,1,-0.449027151,1,0.164228559,1,-0.048875246,0,-0.672255158,0,1.393909454,0
17.19001961,-5.150749207,1,0.236902356,1,-8.800031662,1,-0.213445917,1,-0.433440059,1,0.146462768,1,-0.050345883,0,-0.673984528,0,1.394817829,0
17.19402123,-5.263100624,1,0.221555054,1,-8.70747757,1,-0.187681824,1,-0.427000761,1,0.137155458,1,-0.051666625,0,-0.675673664,0,1.395649672,0
17.19801903,-5.342536449,1,0.302674085,1,-8.594014168,1,-0.162765339,1,-0.410161197,1,0.122377299,1,-0.05285757,0,-0.677320063,0,1.396434784,0
17.20201874,-5.494438648,1,0.294009238,1,-8.512036324,1,-0.13781476,1,-0.383607239,1,0.1124385,1,-0.266800374,0,-0.773765326,0,1.74428761,0
17.20602036,-5.255837917,1,0.191317812,1,-8.419290543,1,-0.110276982,1,-0.36967355,1,0.09079513,1,-0.263833761,0,-0.775706589,0,1.741792083,0
17.21001816,-5.030796051,1,0.113765933,1,-8.460057259,1,-0.094282895,1,-0.363348991,1,0.081540324,1,-0.264938712,0,-0.777031243,0,1.74279654,0
17.21401787,-4.958747387,1,0.35220468,1,-8.50848484,1,-0.077841513,1,-0.353861153,1,0.076746166,1,-0.265936732,0,-0.778342485,0,1.743736506,0
17.21801949,-5.032303333,1,0.425007015,1,-8.418735504,1,-0.059866201,1,-0.345345378,1,0.061149456,1,-0.266845286,0,-0.779630303,0,1.744622946,0
17.22201729,-5.13701725,1,0.254089475,1,-8.443868637,1,-0.041395791,1,-0.340502709,1,0.04408652,1,-0.267615408,0,-0.780903339,0,1.745419502,0
17.226017,-5.012760639,1,0.411932468,1,-8.415110588,1,-0.02609786,1,-0.334043741,1,0.032213416,1,-0.268260926,0,-0.782168269,0,1.746119022,0
17.23001862,-5.016590595,1,0.407442659,1,-8.473157883,1,-0.014472394,1,-0.329434425,1,0.01933719,1,-0.268802285,0,-0.783426404,0,1.746754646,0
17.23401642,-4.987926483,1,0.505892456,1,-8.423713684,1,-0.002953596,1,-0.321042597,1,0.009660436,1,-0.269233197,0,-0.784673214,0,1.74731493,0
17.23801613,-5.037379742,1,0.396215498,1,-8.427412987,1,0.019356327,1,-0.324193537,1,-0.011262986,1,-0.269527972,0,-0.78592068,0,1.747781157,0
17.24201775,-5.028568268,1,0.357777178,1,-8.386037827,1,0.026183477,1,-0.317853063,1,-0.021548878,1,-0.269720376,0,-0.787175894,0,1.748178959,0
17.24601555,-4.758471012,1,0.105145656,1,-8.323057175,1,0.037282884,1,-0.310890049,1,-0.020437159,1,-0.269839406,0,-0.788410783,0,1.748531103,0
17.25001526,-4.999885559,1,-0.210759714,1,-8.337399483,1,0.03623537,1,-0.314993709,1,-0.018386725,1,-0.269943625,0,-0.789635658,0,1.748892665,0
17.25401688,-4.907721519,1,-0.493011057,1,-8.310476303,1,0.031947557,1,-0.303482205,1,-0.009180011,1,-0.270082504,0,-0.790835023,0,1.749284506,0
17.25801468,-5.055413246,1,-0.668538988,1,-8.178829193,1,0.017771175,1,-0.297297239,1,0.004808369,1,-0.270306796,0,-0.792002559,0,1.749735355,0
17.26201439,-5.021281242,1,-0.670625746,1,-8.245994568,1,0.002536959,1,-0.289712042,1,0.022706537,1,-0.270636559,0,-0.793122649,0,1.75025034,0
17.26601601,-5.12365818,1,-0.43956399,1,-8.188596725,1,-0.008346114,1,-0.277722031,1,0.025549846,1,-0.271051615,0,-0.794192076,0,1.750813961,0
17.27001381,-5.073255539,1,-0.303646594,1,-8.199030876,1,-0.015749199,1,-0.266808867,1,0.038466036,1,-0.271531552,0,-0.795211196,0,1.751411438,0
17.27401352,-5.079253674,1,-0.245034099,1,-8.144852638,1,-0.022036199,1,-0.252305061,1,0.046112847,1,-0.272056282,0,-0.796168327,0,1.752045631,0
17.27801514,-5.155817509,1,-0.180708304,1,-8.199111938,1,-0.030348765,1,-0.243728369,1,0.052333407,1,-0.272624552,0,-0.797083259,0,1.752689004,0
17.28201294,-5.117372513,1,-0.086695038,1,-8.228458405,1,-0.033873361,1,-0.235992283,1,0.05180094,1,-0.273218185,0,-0.797957897,0,1.753350258,0
17.28601265,-5.11325407,1,-0.041311104,1,-8.050819397,1,-0.048717372,1,-0.205623269,1,0.062038973,1,-0.273863196,0,-0.798768342,0,1.75402379,0
17.29001427,-4.933093548,1,-0.013569839,1,-8.26615715,1,-0.034444328,1,-0.249394566,1,0.051965989,1,-0.274474382,0,-0.799589872,0,1.75467515,0
17.29401779,-5.170374393,1,0.016581627,1,-8.092160225,1,-0.033211321,1,-0.240889266,1,0.050990764,1,-0.275087118,0,-0.800467849,0,1.755339384,0
17.2980175,-5.129818439,1,0.017542463,1,-8.080920219,1,-0.037778582,1,-0.23045148,1,0.048855603,1,-0.275672406,0,-0.801319599,0,1.755971074,0
17.30202103,-4.974580288,1,0.122566149,1,-8.097108841,1,-0.032312907,1,-0.234282479,1,0.046407755,1,-0.276259959,0,-0.802165031,0,1.756594539,0
17.30601692,-5.136785984,1,0.174282148,1,-8.050575256,1,-0.031082027,1,-0.239893466,1,0.044285912,1,-0.276839077,0,-0.803022146,0,1.757221937,0
17.31001663,-5.106544971,1,0.27673921,1,-8.122866631,1,-0.016122965,1,-0.237906992,1,0.035417244,1,-0.27736032,0,-0.803898454,0,1.757810712,0
17.31402016,-4.976431847,1,0.294447094,1,-7.999377728,1,-0.007924502,1,-0.242303759,1,0.032797743,1,-0.277814597,0,-0.804778576,0,1.758374572,0
17.31801987,-5.114289761,1,0.10249915,1,-8.238862038,1,-0.006314138,1,-0.250134259,1,0.03500827,1,-0.278240085,0,-0.805683136,0,1.758933663,0
17.32201767,-3.793207407,1,0.005540018,1,-8.38481617,1,0.003090932,1,-0.238350019,1,0.019582473,1,-0.278674603,0,-0.806515217,0,1.759483457,0
17.32601929,-4.624505043,1,-0.01062593,1,-8.177498817,1,-0.002593637,1,-0.289788693,1,0.025171768,1,-0.279088765,0,-0.807535648,0,1.760045528,0
17.330019,-4.960137844,1,0.072620347,1,-8.333293915,1,-0.00320473,1,-0.29791829,1,0.024998622,1,-0.27954042,0,-0.808644414,0,1.76064837,0
17.33401871,-5.127327442,1,0.216003999,1,-8.194133759,1,-0.00356927,1,-0.282155752,1,0.024758084,1,-0.280010164,0,-0.809725523,0,1.761262894,0
17.33802033,-4.846405983,1,0.323758632,1,-8.26954937,1,0.010297812,1,-0.313694298,1,0.009495709,1,-0.280394107,0,-0.810851872,0,1.761810064,0
17.34201813,-5.103975296,1,0.560268342,1,-8.284536362,1,0.0160562,1,-0.314585954,1,-0.000137723,1,-0.280724764,0,-0.812054515,0,1.762347579,0
17.34601784,-4.967505932,1,0.596698344,1,-8.327521324,1,0.043955278,1,-0.32389614,1,-0.01274631,1,-0.280948013,0,-0.813283682,0,1.762826085,0
17.35001946,-4.948954582,1,0.442272544,1,-8.330719948,1,0.060960978,1,-0.337184817,1,-0.034183908,1,-0.281031847,0,-0.814580679,0,1.763221979,0
17.35401726,-4.950190067,1,0.34418571,1,-8.355224609,1,0.071348429,1,-0.347907186,1,-0.046312306,1,-0.281019509,0,-0.815941393,0,1.763572216,0
17.35801697,-4.694364071,1,0.316392869,1,-8.516465187,1,0.082653604,1,-0.365559727,1,-0.049173284,1,-0.280951262,0,-0.81736052,0,1.76388979,0
17.36201859,-4.657200336,1,0.088850923,1,-8.504706383,1,0.098400019,1,-0.384819567,1,-0.054247689,1,-0.28083241,0,-0.818857133,0,1.764217496,0
17.36601639,-4.928282738,1,-0.121694967,1,-8.556328773,1,0.100387499,1,-0.414278269,1,-0.045186933,1,-0.280706048,0,-0.820455194,0,1.764603257,0
17.3700161,-4.867758751,1,-0.494279355,1,-8.515442848,1,0.111068867,1,-0.425019562,1,-0.030367531,1,-0.280619383,0,-0.822106481,0,1.765063643,0
17.37401772,-4.812744141,1,-0.60090524,1,-8.591942787,1,0.111854531,1,-0.450050294,1,-0.025913302,1,-0.280579895,0,-0.823820293,0,1.765617371,0
17.37801552,-4.721544743,1,-0.13689892,1,-8.88122654,1,0.103775725,1,-0.479792893,1,-0.023034206,1,-0.280620039,0,-0.825634062,0,1.766236067,0
17.38201523,-4.828809738,1,0.202767178,1,-8.798742294,1,0.132793546,1,-0.513161719,1,-0.021532835,1,-0.280665785,0,-0.827554107,0,1.766927361,0
17.38601685,-5.411108494,1,0.12042284,1,-8.831267357,1,0.146004394,1,-0.532938004,1,-0.015686879,1,-0.280649126,0,-0.829589784,0,1.767673016,0
17.39001465,-4.831917286,1,-0.110355772,1,-8.962722778,1,0.180662289,1,-0.556086779,1,-0.026532462,1,-0.280566514,0,-0.831691623,0,1.768444657,0
17.39401436,-4.711935997,1,-0.053813215,1,-9.004230499,1,0.20492515,1,-0.611496031,1,-0.022792852,1,-0.280391484,0,-0.833971381,0,1.769253254,0
17.39801598,-4.677806377,1,-0.175699145,1,-9.272934914,1,0.246003985,1,-0.669054329,1,-0.010336606,1,-0.2801916,0,-0.836443782,0,1.770189404,0
17.40201378,-4.762388229,1,-0.509806037,1,-9.145899773,1,0.281433046,1,-0.718762755,1,0.001291662,1,-0.279963255,0,-0.839107394,0,1.771306276,0
17.40601349,-4.856011868,1,-1.179809451,1,-9.291147232,1,0.288048148,1,-0.772331536,1,0.023055417,1,-0.27978,0,-0.841959894,0,1.77260983,0
17.41001511,-4.311597347,1,-1.142852664,1,-9.812322617,1,0.260494679,1,-0.843927562,1,0.028328456,1,-0.279797107,0,-0.845044672,0,1.774100184,0
17.41401863,-3.690041542,1,-0.143074751,1,-9.513829231,1,0.243420064,1,-0.958296895,1,0.014408398,1,-0.280023336,0,-0.848468244,0,1.775722623,0
17.41801834,-4.82492733,1,1.061380148,1,-9.687558174,1,0.314446926,1,-1.041590929,1,0.015874464,1,-0.280248344,0,-0.852302432,0,1.777492881,0
17.42201996,-5.059792519,1,1.431255937,1,-9.922498703,1,0.394746244,1,-1.110148311,1,-0.02040026,1,-0.280197918,0,-0.856436014,0,1.779299021,0
17.42601776,-4.390161514,1,1.577872038,1,-10.04539394,1,0.488371283,1,-1.200363398,1,-0.055787534,1,-0.279740423,0,-0.860901296,0,1.781022429,0
17.43001747,-4.007795334,1,1.360402942,1,-10.3838768,1,0.528678775,1,-1.321447492,1,-0.090686604,1,-0.278994262,0,-0.865834296,0,1.782730937,0
17.43401909,-4.156340122,1,0.599085093,1,-10.57428169,1,0.549619734,1,-1.456736565,1,-0.130794585,1,-0.278117716,0,-0.871295512,0,1.784431815,0
17.43801689,-4.115281105,1,0.619705915,1,-10.40145588,1,0.565425158,1,-1.590101004,1,-0.179797783,1,-0.277191043,0,-0.87732023,0,1.78611505,0
17.4420166,-4.139390469,1,1.468295217,1,-10.80641174,1,0.638766527,1,-1.731363773,1,-0.203033879,1,-0.276097596,0,-0.883934855,0,1.787780762,0
17.44601822,-3.919830799,1,1.409799695,1,-10.9968996,1,0.737399995,1,-1.879491091,1,-0.225012109,1,-0.274740696,0,-0.89111352,0,1.789603949,0
17.45001602,-3.876235485,1,1.157029271,1,-10.90549374,1,0.807395518,1,-2.027009726,1,-0.266472459,1,-0.273097754,0,-0.898895919,0,1.791462064,0
17.45401764,-3.986826897,1,1.157898784,1,-11.17072582,1,0.872354686,1,-2.167079687,1,-0.294767618,1,-0.266646206,0,-0.90786624,0,1.791515112,0
17.45802116,-4.018593311,1,0.557130933,1,-11.13615704,1,0.876916647,1,-2.330660343,1,-0.32441166,1,-0.264647484,0,-0.916853666,0,1.793427229,0
17.46201897,-3.69738555,1,0.877124488,1,-11.31176472,1,0.960965574,1,-2.519705296,1,-0.361374557,1,-0.262553394,0,-0.926567137,0,1.795397997,0
17.46601486,-4.106958866,1,0.742864847,1,-11.88720036,1,1.058418632,1,-2.691910982,1,-0.36627996,1,-0.260223866,0,-0.937036157,0,1.797548175,0
17.47002029,-3.372902155,1,-0.544627368,1,-12.29718781,1,1.064251542,1,-2.887228727,1,-0.368697435,1,-0.257943153,0,-0.948173404,0,1.799980998,0
17.4740181,-2.387747526,1,-1.452241659,1,-13.0130558,1,1.081189632,1,-3.16574502,1,-0.348106146,1,-0.256004244,0,-0.960241139,0,1.802876234,0
17.47801781,-2.465594769,1,-2.707680225,1,-14.00858402,1,1.034520388,1,-3.483074903,1,-0.332072079,1,-0.254695743,0,-0.973437548,0,1.806451559,0
17.48201942,-1.984613657,1,-2.893839121,1,-14.09934807,1,0.951663136,1,-3.817028046,1,-0.290958524,1,-0.254412144,0,-0.987859964,0,1.810878515,0
17.48601723,-1.482839346,1,-3.006547213,1,-15.54035473,1,0.929672062,1,-4.262573242,1,-0.252704024,1,-0.255286068,0,-1.003749371,0,1.81639874,0
17.49001694,-2.038623571,1,-4.417517185,1,-17.44738007,1,0.862024903,1,-4.711994648,1,-0.143929988,1,-0.257721841,0,-1.021304965,0,1.82353425,0
17.49401856,-1.42869103,1,-6.25247097,1,-17.40715027,1,0.67770642,1,-5.142217159,1,-0.038847238,1,-0.262595206,0,-1.040455461,0,1.832808971,0
17.49801636,2.098437309,1,-5.386004448,1,-16.74551773,1,0.617197573,1,-5.753497601,1,-0.012735767,1,-0.269812107,0,-1.061421156,0,1.844058633,0
17.50201607,0.122252278,1,-4.052817822,1,-18.34126472,1,0.656731665,1,-6.477519989,1,0.079972759,1,-0.279753,0,-1.084993124,0,1.858233213,0
17.50601769,0.244888693,1,-3.396656752,1,-18.40805435,1,0.870196223,1,-7.053402901,1,0.258632809,1,-0.292839468,0,-1.110763788,0,1.876339793,0
17.51001549,-1.132518888,1,-5.232392311,1,-20.02929878,1,0.830092192,1,-7.772030354,1,0.608985364,1,-0.311151922,0,-1.138526082,0,1.900532603,0
17.5140152,-4.107806683,1,-7.34478426,1,-21.46001816,1,0.683668792,1,-8.40320015,1,0.878773868,1,-0.337940425,0,-1.16833508,0,1.933126688,0
17.51801682,-0.908189535,1,-5.058202267,1,-19.25790405,1,0.727905631,1,-8.705486298,1,1.072057247,1,-0.373401821,0,-1.199204803,0,1.974406481,0
17.52201462,-3.533772707,1,-8.368408203,1,-20.05484962,1,0.687168837,1,-8.708360672,1,1.409731507,1,-0.418933243,0,-1.229424953,0,2.026061296,0
17.52601433,-9.141579628,1,-15.41478252,1,-20.24125099,1,0.403824687,1,-8.714607239,1,1.599648237,1,-0.477186024,0,-1.258237958,0,2.089944601,0
17.53001595,-15.4683876,1,-17.40576553,1,-23.03041267,1,-0.130146369,1,-8.727919579,1,1.871744514,1,-0.551913619,0,-1.285210848,0,2.168747902,0
17.53401947,-21.32593346,1,-15.64754486,1,-24.68013573,1,-0.554440916,1,-8.738601685,1,2.243144751,1,-0.647803545,0,-1.309456944,0,2.266810656,0
17.53801918,-18.38012123,1,-12.73773766,1,-23.12747002,1,-0.790147722,1,-8.714678764,1,2.586122513,1,-0.767819941,0,-1.329733253,0,2.387910604,0
17.5420208,-21.13691521,1,-16.79308891,1,-19.01382828,1,-1.041059256,1,-8.457381248,1,2.864169598,1,-0.909309268,0,-1.344652772,0,2.529551268,0
17.5460186,-19.33336067,1,-14.61533546,1,-17.6806488,1,-1.357025623,1,-8.216293335,1,3.270256996,1,-1.06761992,0,-1.352787256,0,2.686932087,0
