Time,inertial-6253.76535:estCompensatedAccelX,inertial-6253.76535:estCompensatedAccelX:valid,inertial-6253.76535:estCompensatedAccelY,inertial-6253.76535:estCompensatedAccelY:valid,inertial-6253.76535:estCompensatedAccelZ,inertial-6253.76535:estCompensatedAccelZ:valid,inertial-6253.76535:estAngularRateX,inertial-6253.76535:estAngularRateX:valid,inertial-6253.76535:estAngularRateY,inertial-6253.76535:estAngularRateY:valid,inertial-6253.76535:estAngularRateZ,inertial-6253.76535:estAngularRateZ:valid,inertial-6253.76535:estRoll,inertial-6253.76535:estRoll:valid,inertial-6253.76535:estPitch,inertial-6253.76535:estPitch:valid,inertial-6253.76535:estYaw,inertial-6253.76535:estYaw:valid
0,-4.681658745,1,-2.71807766,1,-7.13780117,1,-0.030669384,1,-0.210737914,1,-0.143100902,1,0.341552109,1,-0.488430262,1,-0.295882165,1
0.003999488,-4.641668797,1,-2.798594952,1,-7.109697819,1,-0.03794859,1,-0.262724161,1,-0.132376507,1,0.341860771,1,-0.489127666,1,-0.296833813,1
0.008007168,-4.800765514,1,-2.814440727,1,-7.08180666,1,-0.046275225,1,-0.307534367,1,-0.127990082,1,0.342157662,1,-0.490027726,1,-0.297813654,1
0.012011008,-5.064960003,1,-2.901736021,1,-7.062413216,1,-0.061160389,1,-0.347755611,1,-0.12153168,1,0.34242779,1,-0.491101801,1,-0.298844546,1
0.016010752,-5.297205448,1,-2.904632092,1,-7.013526917,1,-0.083288819,1,-0.372729897,1,-0.116428427,1,0.342642426,1,-0.492306083,1,-0.299903274,1
0.020012287,-5.543930531,1,-2.872270823,1,-7.056645393,1,-0.106297299,1,-0.393168837,1,-0.114244297,1,0.342775226,1,-0.493587375,1,-0.300980091,1
0.024009984,-5.603991508,1,-2.800650597,1,-7.088294983,1,-0.133112371,1,-0.402832836,1,-0.116098166,1,0.342821151,1,-0.494928628,1,-0.302085638,1
0.028009985,-5.7036376,1,-2.694463491,1,-7.129366875,1,-0.152789116,1,-0.416055173,1,-0.123052634,1,0.342785299,1,-0.496311426,1,-0.303213745,1
0.03201203,-5.671394348,1,-2.648800373,1,-7.110751152,1,-0.161368817,1,-0.427000552,1,-0.122432142,1,0.342715442,1,-0.497728854,1,-0.304383874,1
0.036009982,-5.700719357,1,-2.660459042,1,-7.129542828,1,-0.176715851,1,-0.430984676,1,-0.1230717,1,0.342606723,1,-0.499177635,1,-0.305576086,1
0.040009473,-5.711549282,1,-2.667361259,1,-7.197975636,1,-0.187249824,1,-0.437584311,1,-0.130986825,1,0.342464089,1,-0.500647724,1,-0.306788981,1
0.044011008,-5.799465179,1,-2.68172574,1,-7.249606133,1,-0.209529385,1,-0.440358669,1,-0.138739109,1,0.342282593,1,-0.502132833,1,-0.308035344,1
0.048008449,-5.826908588,1,-2.785760641,1,-7.333287716,1,-0.231660813,1,-0.447233289,1,-0.152219236,1,0.342033178,1,-0.503605366,1,-0.309339792,1
0.052007936,-5.956681728,1,-2.885981798,1,-7.504339218,1,-0.258438557,1,-0.440734476,1,-0.175909534,1,0.341725975,1,-0.505059063,1,-0.310719132,1
0.056009471,-6.091059208,1,-3.044204235,1,-7.770386219,1,-0.299529821,1,-0.424292415,1,-0.205122411,1,0.34133172,1,-0.506437242,1,-0.312216341,1
0.06000717,-6.345460415,1,-3.234259367,1,-8.049946785,1,-0.358757287,1,-0.390255034,1,-0.250061214,1,0.340788782,1,-0.507671237,1,-0.313820541,1
0.064006656,-6.538688183,1,-3.341759443,1,-8.414774895,1,-0.423044741,1,-0.340390652,1,-0.307897925,1,0.340085119,1,-0.508680224,1,-0.315584213,1
0.068008192,-6.68602562,1,-3.348247766,1,-8.718827248,1,-0.480691761,1,-0.270690799,1,-0.387519956,1,0.339233398,1,-0.509383261,1,-0.317549765,1
0.07200589,-6.633978367,1,-3.283736706,1,-8.943212509,1,-0.522080421,1,-0.191421226,1,-0.47528404,1,0.338302642,1,-0.509682775,1,-0.31975776,1
0.076005377,-6.360074997,1,-3.142748833,1,-9.13168335,1,-0.533596933,1,-0.114261746,1,-0.567590654,1,0.337396562,1,-0.509566426,1,-0.322236955,1
0.080006659,-5.945433617,1,-3.055519104,1,-9.121199608,1,-0.54051578,1,-0.055477142,1,-0.650257051,1,0.336587489,1,-0.509080648,1,-0.324997902,1
0.08400435,-5.419466972,1,-2.990144491,1,-9.092979431,1,-0.538632512,1,-0.011719117,1,-0.725572765,1,0.33590585,1,-0.508287728,1,-0.328023553,1
0.088003837,-4.947607994,1,-3.032032013,1,-9.01174736,1,-0.538957894,1,0.009572498,1,-0.785184383,1,0.335345566,1,-0.507291079,1,-0.331307799,1
0.092005379,-4.551478863,1,-2.999590397,1,-8.917879105,1,-0.520639777,1,0.013594388,1,-0.837446868,1,0.334917128,1,-0.506174445,1,-0.33478874,1
0.09600307,-4.319700241,1,-2.979171038,1,-8.872066498,1,-0.533552289,1,0.002334659,1,-0.878071547,1,0.334601223,1,-0.505017519,1,-0.338481545,1
0.100002557,-4.182482243,1,-2.969188452,1,-8.856814384,1,-0.541658521,1,-0.01578334,1,-0.915646017,1,0.334325254,1,-0.503863633,1,-0.342366815,1
0.104004353,-4.212716103,1,-2.95832324,1,-8.869456291,1,-0.548272431,1,-0.029023562,1,-0.949098825,1,0.334109902,1,-0.502723932,1,-0.346426398,1
0.108007938,-4.156142235,1,-2.889033318,1,-8.895866394,1,-0.548751473,1,-0.047585197,1,-0.982634902,1,0.333936393,1,-0.501597285,1,-0.350645244,1
0.112007424,-4.177451134,1,-2.83305788,1,-8.959272385,1,-0.550243855,1,-0.048155263,1,-1.012139559,1,0.333834946,1,-0.500464916,1,-0.355004042,1
0.11600896,-4.229913235,1,-2.770586491,1,-8.95986557,1,-0.546074629,1,-0.055079769,1,-1.033908606,1,0.333793938,1,-0.499318957,1,-0.359488726,1
0.120006658,-4.254776955,1,-2.723017931,1,-8.980690002,1,-0.545265317,1,-0.051667888,1,-1.051533341,1,0.333792388,1,-0.498157918,1,-0.364046961,1
0.124006145,-4.237942219,1,-2.683337688,1,-8.979838371,1,-0.541044056,1,-0.045508791,1,-1.062960625,1,0.333829463,1,-0.496956736,1,-0.368676215,1
0.12800768,-4.22330761,1,-2.666358709,1,-8.903244019,1,-0.540326238,1,-0.038279425,1,-1.068315387,1,0.333875656,1,-0.495716959,1,-0.373320818,1
0.132005379,-4.096418381,1,-2.569759369,1,-9.098834991,1,-0.543853223,1,-0.025008397,1,-1.068297505,1,0.333916306,1,-0.494416386,1,-0.377948642,1
0.136004865,-4.104795933,1,-2.595363855,1,-8.969248772,1,-0.534405351,1,-0.022575701,1,-1.059241652,1,0.333940744,1,-0.493117243,1,-0.382555753,1
0.140006393,-3.973798752,1,-2.538343191,1,-8.9159832,1,-0.532954216,1,-0.017902441,1,-1.043168664,1,0.333955735,1,-0.491816729,1,-0.387106001,1
0.144003838,-3.916762114,1,-2.493049145,1,-8.917960167,1,-0.51363194,1,-0.004151058,1,-1.025322556,1,0.333962321,1,-0.490499318,1,-0.391557336,1
0.148003325,-3.923121214,1,-2.48533392,1,-8.92847538,1,-0.498348266,1,0.003113945,1,-1.000198483,1,0.333980292,1,-0.4891707,1,-0.395886898,1
0.152004868,-3.960183144,1,-2.520172596,1,-8.888920784,1,-0.475316018,1,0.020437028,1,-0.967720866,1,0.334004521,1,-0.487830102,1,-0.400077522,1
0.156002566,-3.924084187,1,-2.539617062,1,-8.885100365,1,-0.450326383,1,0.045214046,1,-0.936644733,1,0.33403331,1,-0.486467421,1,-0.404095232,1
0.160002053,-3.896356583,1,-2.522560596,1,-8.914413452,1,-0.432894379,1,0.060983308,1,-0.897856355,1,0.334067345,1,-0.485060513,1,-0.407936275,1
0.164003327,-3.795193672,1,-2.547922134,1,-8.956627846,1,-0.40169549,1,0.088395141,1,-0.865496337,1,0.334109515,1,-0.483628035,1,-0.411592752,1
0.168001026,-3.821097136,1,-2.550961494,1,-8.941099167,1,-0.37817654,1,0.10739091,1,-0.824533284,1,0.334166229,1,-0.482162386,1,-0.415052682,1
0.172000512,-3.876346827,1,-2.537009954,1,-8.983868599,1,-0.347741038,1,0.133894742,1,-0.776414871,1,0.334215283,1,-0.48065421,1,-0.418282002,1
0.176002309,-4.078359604,1,-2.61482501,1,-9.964040756,1,-0.316251844,1,0.121948071,1,-0.679254293,1,0.334217906,1,-0.479179531,1,-0.421219826,1
0.180000514,-3.449001789,1,-1.525980949,1,-8.493298531,1,-0.137384862,1,0.081254341,1,-0.55496031,1,0.334427893,1,-0.477995515,1,-0.423695266,1
0.184000254,-3.53145647,1,-1.794810891,1,-7.988411427,1,0.025928108,1,0.035457119,1,-0.407451481,1,0.335123122,1,-0.477135718,1,-0.425667882,1
0.18800205,-4.241936207,1,-2.140007496,1,-8.352874756,1,0.172488317,1,-0.014040583,1,-0.223150745,1,0.336117864,1,-0.476681948,1,-0.426990032,1
0.191999748,-4.448400497,1,-2.675762892,1,-7.887615681,1,0.314409196,1,-0.03082107,1,-0.04822921,1,0.337389439,1,-0.476597786,1,-0.427604079,1
0.195998982,-4.893710136,1,-3.817103624,1,-7.962446213,1,0.329650939,1,-0.013021573,1,0.114512675,1,0.3386693,1,-0.476740241,1,-0.427503407,1
0.20000051,-5.022857666,1,-4.70124197,1,-8.187876701,1,0.265203536,1,0.037463438,1,0.265496373,1,0.339489043,1,-0.476970524,1,-0.426674813,1
0.204003841,-5.073311329,1,-4.960235596,1,-8.33673954,1,0.186179817,1,0.106807493,1,0.391018182,1,0.339700639,1,-0.477143526,1,-0.425169259,1
0.208003327,-4.877660275,1,-4.502494335,1,-8.417881012,1,0.118956208,1,0.173902184,1,0.486937553,1,0.339355856,1,-0.477188468,1,-0.423093855,1
0.21200487,-4.520662785,1,-3.930624485,1,-8.343160629,1,0.079667993,1,0.214080662,1,0.561626434,1,0.33858794,1,-0.477140218,1,-0.420569897,1
0.2160023,-4.215048313,1,-3.405892611,1,-8.244451523,1,0.052756049,1,0.226897746,1,0.616799057,1,0.337552071,1,-0.477082133,1,-0.417735726,1
0.220002055,-4.043228626,1,-3.207498312,1,-8.298348427,1,0.038959168,1,0.226644531,1,0.660634458,1,0.336328566,1,-0.477067888,1,-0.41468057,1
0.224003583,-4.134438038,1,-3.193454504,1,-8.295314789,1,0.026026536,1,0.222680375,1,0.684043825,1,0.334986389,1,-0.477109998,1,-0.411494672,1
0.228001028,-4.158740997,1,-3.379025221,1,-8.189166069,1,0.015970491,1,0.216542274,1,0.709088326,1,0.333567053,1,-0.477199823,1,-0.40821597,1
0.232000515,-4.214011669,1,-3.504017591,1,-8.103652,1,-0.002273275,1,0.215512589,1,0.729062557,1,0.332049012,1,-0.477319986,1,-0.404842943,1
0.236002043,-4.209063053,1,-3.591194868,1,-8.05674839,1,-0.019478552,1,0.21331057,1,0.744175017,1,0.330427408,1,-0.477461994,1,-0.40139401,1
0.239999488,-4.248016357,1,-3.6242342,1,-7.992048264,1,-0.047098067,1,0.21468243,1,0.768459082,1,0.328764886,1,-0.477666497,1,-0.397428215,1
0.243999228,-4.329244137,1,-3.779367924,1,-7.979929924,1,-0.078612708,1,0.211260185,1,0.781559169,1,0.326848865,1,-0.477857232,1,-0.393822283,1
0.248001024,-4.469668388,1,-3.740116119,1,-7.938192844,1,-0.111315265,1,0.216173947,1,0.791057527,1,0.324782372,1,-0.478059053,1,-0.390142798,1
0.251999229,-4.510370255,1,-3.670763016,1,-7.908186436,1,-0.138322771,1,0.220556557,1,0.797622502,1,0.322581381,1,-0.478244334,1,-0.386437237,1
0.255998731,-4.558135509,1,-3.599901438,1,-7.990398884,1,-0.163722619,1,0.22258234,1,0.790759325,1,0.320269853,1,-0.478405178,1,-0.382726014,1
0.260000259,-4.450600147,1,-3.478011608,1,-7.981393814,1,-0.175549954,1,0.225355878,1,0.78403908,1,0.317898124,1,-0.47854811,1,-0.379044294,1
0.263997942,-4.434835911,1,-3.271204472,1,-7.925696373,1,-0.186148897,1,0.2222974,1,0.760027885,1,0.315508485,1,-0.478670388,1,-0.37542972,1
0.267997444,-4.280786037,1,-3.053561211,1,-8.118834496,1,-0.177320048,1,0.201279566,1,0.719454706,1,0.31319052,1,-0.478767067,1,-0.371962965,1
0.271998972,-4.292178154,1,-3.008335114,1,-8.138476372,1,-0.169295684,1,0.174454823,1,0.676463962,1,0.311001509,1,-0.478913218,1,-0.368701428,1
0.275996685,-4.330544949,1,-2.952523708,1,-8.155819893,1,-0.160530612,1,0.149930239,1,0.630764723,1,0.30893752,1,-0.479098141,1,-0.365662754,1
0.279996157,-4.455405235,1,-2.960000992,1,-8.143908501,1,-0.156036139,1,0.124940291,1,0.577239692,1,0.307018936,1,-0.479311824,1,-0.362872839,1
0.283997685,-4.539328575,1,-2.985648155,1,-8.196551323,1,-0.152670771,1,0.100668244,1,0.533873379,1,0.305221528,1,-0.479545504,1,-0.360327482,1
0.287995398,-4.455367088,1,-2.934052944,1,-8.175575256,1,-0.142645255,1,0.09280324,1,0.484531045,1,0.303560644,1,-0.479786754,1,-0.35800761,1
0.29199487,-4.456993103,1,-2.851639986,1,-8.268155098,1,-0.13660346,1,0.071848579,1,0.434789628,1,0.302039444,1,-0.480020612,1,-0.355916381,1
0.295996428,-4.416700363,1,-2.894113302,1,-8.24447155,1,-0.13395831,1,0.049369179,1,0.397776634,1,0.300632507,1,-0.48027882,1,-0.354048818,1
0.299994111,-4.499166012,1,-2.873397589,1,-8.242891312,1,-0.130972564,1,0.038094237,1,0.362842619,1,0.299322546,1,-0.480564862,1,-0.352351308,1
0.303999752,-4.467554569,1,-2.816632271,1,-8.309983253,1,-0.122268662,1,0.028919015,1,0.335152417,1,0.298095673,1,-0.480857402,1,-0.350802124,1
0.308001548,-4.501025677,1,-2.696738005,1,-8.425750732,1,-0.112526916,1,0.01989544,1,0.311813265,1,0.296965241,1,-0.481144398,1,-0.34937045,1
0.3119995,-4.513367653,1,-2.547335386,1,-8.413636208,1,-0.090589032,1,0.012761192,1,0.286315143,1,0.295948535,1,-0.481443286,1,-0.34806174,1
0.315998971,-4.527299404,1,-2.515519381,1,-8.505047798,1,-0.084022619,1,-0.001919844,1,0.264520347,1,0.295041144,1,-0.48173964,1,-0.346863389,1
0.320000499,-4.555655003,1,-2.569127321,1,-8.421188354,1,-0.072181091,1,-0.004065217,1,0.251241416,1,0.29422009,1,-0.482052982,1,-0.345754802,1
0.323998213,-4.555560112,1,-2.535669088,1,-8.426638603,1,-0.050120924,1,-0.007453363,1,0.23974216,1,0.293489814,1,-0.482356012,1,-0.344703227,1
0.327997684,-4.468379021,1,-2.586620569,1,-8.420267105,1,-0.040371299,1,-0.006863085,1,0.234215215,1,0.292844921,1,-0.482655823,1,-0.343696535,1
0.331999242,-4.454413414,1,-2.664753675,1,-8.432980537,1,-0.034731131,1,-0.011684321,1,0.234443992,1,0.292238653,1,-0.482966363,1,-0.342692852,1
0.335996926,-4.463852406,1,-2.677681923,1,-8.440024376,1,-0.033000324,1,-0.017883213,1,0.243342295,1,0.291636884,1,-0.483289063,1,-0.341686606,1
0.339996427,-4.514341831,1,-2.684740782,1,-8.447211266,1,-0.03002275,1,-0.013829648,1,0.249060184,1,0.291024983,1,-0.483632892,1,-0.340643734,1
0.343997955,-4.444828033,1,-2.679935694,1,-8.38139534,1,-0.032077815,1,-0.006196236,1,0.263678521,1,0.290383458,1,-0.483969539,1,-0.339538276,1
0.347995639,-4.433819771,1,-2.670111895,1,-8.404742241,1,-0.034157235,1,-0.003404148,1,0.27704221,1,0.289723843,1,-0.484298617,1,-0.338379622,1
0.35199514,-4.509786606,1,-2.716367245,1,-8.388737679,1,-0.036874019,1,-0.000419713,1,0.293243706,1,0.289005995,1,-0.484623104,1,-0.337150693,1
0.35599643,-4.551361084,1,-2.62543726,1,-8.436329842,1,-0.032358669,1,0.007342627,1,0.305314779,1,0.288260818,1,-0.484947354,1,-0.335846961,1
0.359994113,-4.633182049,1,-2.510065079,1,-8.451339722,1,-0.028100094,1,0.017361065,1,0.314761907,1,0.287510127,1,-0.485258758,1,-0.334482431,1
0.363993585,-4.579792976,1,-2.469266653,1,-8.469900131,1,-0.015600997,1,0.026473194,1,0.314519644,1,0.286770642,1,-0.48552835,1,-0.333084464,1
0.367995143,-4.576488495,1,-2.527426243,1,-8.416419983,1,-0.017105795,1,0.027948426,1,0.323062867,1,0.286040008,1,-0.485784084,1,-0.33166188,1
0.371992826,-4.583906651,1,-2.636238813,1,-8.350686073,1,-0.015362768,1,0.038238414,1,0.334188581,1,0.28529495,1,-0.486030191,1,-0.330200016,1
0.375992328,-4.573979378,1,-2.709332466,1,-8.335443497,1,-0.021282731,1,0.037836447,1,0.343899637,1,0.284523964,1,-0.486269802,1,-0.328691602,1
0.379994363,-4.606949329,1,-2.786061764,1,-8.290019989,1,-0.023279367,1,0.046003208,1,0.35872224,1,0.283700228,1,-0.486493737,1,-0.327123284,1
0.383992583,-4.499240875,1,-2.79434514,1,-8.270245552,1,-0.030730119,1,0.064877667,1,0.375200629,1,0.282816738,1,-0.486680835,1,-0.325464875,1
0.387992054,-4.461707115,1,-2.837465525,1,-8.26935482,1,-0.036498956,1,0.071540646,1,0.390330613,1,0.281867474,1,-0.486851692,1,-0.323723555,1
0.39199385,-4.517548084,1,-2.967092752,1,-8.213464737,1,-0.055676498,1,0.079691835,1,0.419151098,1,0.280811787,1,-0.487008005,1,-0.321870327,1
0.395991564,-4.63265276,1,-2.988674641,1,-8.255648613,1,-0.074176192,1,0.095251992,1,0.449691415,1,0.279622316,1,-0.487152964,1,-0.31987524,1
0.399996936,-4.77768755,1,-3.128192425,1,-8.227025032,1,-0.099614292,1,0.113632239,1,0.486702472,1,0.278264642,1,-0.487272382,1,-0.317712247,1
0.403998733,-4.822716713,1,-3.093748093,1,-8.206932068,1,-0.120280296,1,0.151910156,1,0.518954396,1,0.276728332,1,-0.487308294,1,-0.315360785,1
0.407996416,-4.677380085,1,-3.059827328,1,-8.127622604,1,-0.141377673,1,0.170224816,1,0.548418939,1,0.275020361,1,-0.487276316,1,-0.31284076,1
0.411996156,-4.521625996,1,-3.097568035,1,-8.013129234,1,-0.172387525,1,0.182962924,1,0.583616793,1,0.273147821,1,-0.48721379,1,-0.310166538,1
0.415997684,-4.415452957,1,-3.093777657,1,-8.002163887,1,-0.188325226,1,0.195305154,1,0.614586651,1,0.271099627,1,-0.487121314,1,-0.3073228,1
0.419995129,-4.390859127,1,-3.120268345,1,-8.074033737,1,-0.214374334,1,0.204948872,1,0.648803413,1,0.268885702,1,-0.487018377,1,-0.3043226,1
0.423994869,-4.522907734,1,-3.1372118,1,-8.035702705,1,-0.241572842,1,0.220225155,1,0.674254298,1,0.266487539,1,-0.486900926,1,-0.301179886,1
0.427996427,-4.580800056,1,-3.178263426,1,-8.039755821,1,-0.277059674,1,0.228302166,1,0.695762992,1,0.26392433,1,-0.486756027,1,-0.29791075,1
0.431993842,-4.529356956,1,-3.053640127,1,-8.087677956,1,-0.281119943,1,0.244731843,1,0.701169431,1,0.26124087,1,-0.486561775,1,-0.294559062,1
0.435993344,-4.635187149,1,-2.551661253,1,-8.424818993,1,-0.279420584,1,0.231222942,1,0.663375616,1,0.258580565,1,-0.486350149,1,-0.291284293,1
0.439994872,-5.349099159,1,-2.187410831,1,-8.665485382,1,-0.265204996,1,0.208207965,1,0.550045609,1,0.25611797,1,-0.486120373,1,-0.288356721,1
0.443992585,-5.340691566,1,-2.438521624,1,-8.33880806,1,-0.232052535,1,0.208827212,1,0.402384639,1,0.254029602,1,-0.485788792,1,-0.286025673,1
0.447992057,-4.765268326,1,-3.022523165,1,-8.077301979,1,-0.224945441,1,0.180850253,1,0.283293635,1,0.252330095,1,-0.485369265,1,-0.284309268,1
0.451993614,-4.50219202,1,-3.496245623,1,-8.010991096,1,-0.241709992,1,0.129755884,1,0.187875077,1,0.250831425,1,-0.485010386,1,-0.283109367,1
0.455991298,-4.545739651,1,-3.678492069,1,-8.068959236,1,-0.250389069,1,0.108032778,1,0.133550048,1,0.249468744,1,-0.4847157,1,-0.282297969,1
0.45999077,-4.48639822,1,-2.810114622,1,-8.339008331,1,-0.241233721,1,0.118712492,1,0.15770109,1,0.248143792,1,-0.484428525,1,-0.281555533,1
0.463992327,-4.362967968,1,-1.6136657,1,-8.775465012,1,-0.270196497,1,0.119847946,1,0.17625539,1,0.246714681,1,-0.484128326,1,-0.280682027,1
0.467990011,-4.437100887,1,-1.349424481,1,-8.803436279,1,-0.24403505,1,0.113061816,1,0.155586943,1,0.245275125,1,-0.483836055,1,-0.279812157,1
0.471989512,-4.515613556,1,-1.49076283,1,-8.718935966,1,-0.210009143,1,0.102703646,1,0.134899095,1,0.244025066,1,-0.483553648,1,-0.279062569,1
0.475991309,-4.379560471,1,-1.747476339,1,-8.551356316,1,-0.179481953,1,0.108275257,1,0.123474367,1,0.242932156,1,-0.483264089,1,-0.278382301,1
0.479988992,-4.40610981,1,-1.936954379,1,-8.586977005,1,-0.170218006,1,0.096567556,1,0.116170153,1,0.24194254,1,-0.482976258,1,-0.277737439,1
0.483994365,-4.452747345,1,-1.954708815,1,-8.5579319,1,-0.158717528,1,0.093774199,1,0.109937392,1,0.241001397,1,-0.482717186,1,-0.277131796,1
0.487996161,-4.463765621,1,-2.020777225,1,-8.558847427,1,-0.147226498,1,0.094955139,1,0.104709581,1,0.241131723,1,-0.482468426,1,-0.278337598,1
0.491993845,-4.421748161,1,-1.972056627,1,-8.50706768,1,-0.144463643,1,0.08751779,1,0.097904652,1,0.24022007,1,-0.482103735,1,-0.27718997,1
0.495999247,-4.435881138,1,-1.897851706,1,-8.511488914,1,-0.126394331,1,0.090590745,1,0.092980243,1,0.23945199,1,-0.481843174,1,-0.276674092,1
0.500000775,-4.386311531,1,-1.918994904,1,-8.560233116,1,-0.114786036,1,0.087122053,1,0.084680937,1,0.238748208,1,-0.481578112,1,-0.276183456,1
0.503998458,-4.464219093,1,-1.988956094,1,-8.539959908,1,-0.103663594,1,0.082653493,1,0.07832332,1,0.238111213,1,-0.481335074,1,-0.275732756,1
0.507998228,-4.549417496,1,-2.095676422,1,-8.539309502,1,-0.100624785,1,0.08384648,1,0.079075523,1,0.237514287,1,-0.481086165,1,-0.275294721,1
0.511999726,-4.34606123,1,-2.208095074,1,-8.426972389,1,-0.086184196,1,0.093262583,1,0.075559862,1,0.236935616,1,-0.480812013,1,-0.274859786,1
0.515997171,-4.423986435,1,-2.335892916,1,-8.417884827,1,-0.093571104,1,0.093863025,1,0.07598047,1,0.236376926,1,-0.480521202,1,-0.274425566,1
0.519996643,-4.495449543,1,-2.42510891,1,-8.371253014,1,-0.101631217,1,0.098647855,1,0.084769063,1,0.235769764,1,-0.48022446,1,-0.273968428,1
0.523998201,-4.566174984,1,-2.499652863,1,-8.437462807,1,-0.106798373,1,0.097857729,1,0.087427825,1,0.235127404,1,-0.479915291,1,-0.273479581,1
0.527995646,-4.374377251,1,-2.432346582,1,-8.340819359,1,-0.099828273,1,0.113636471,1,0.094976172,1,0.234471366,1,-0.479583323,1,-0.272968441,1
0.531995118,-4.447924137,1,-2.436748981,1,-8.407894135,1,-0.101255588,1,0.112111636,1,0.095891379,1,0.233824059,1,-0.479226202,1,-0.272430807,1
0.535996675,-4.474142075,1,-2.383710623,1,-8.41280365,1,-0.109893329,1,0.108981848,1,0.102223411,1,0.23314485,1,-0.478886217,1,-0.271883726,1
0.539994359,-4.506995201,1,-2.384444952,1,-8.355091095,1,-0.116627797,1,0.118857384,1,0.104666814,1,0.232428163,1,-0.478541315,1,-0.271309942,1
0.543993831,-4.405911446,1,-2.341754675,1,-8.362305641,1,-0.112072811,1,0.127946407,1,0.110627137,1,0.231706783,1,-0.478152335,1,-0.270700663,1
0.547995389,-4.485909939,1,-2.432863235,1,-8.475236893,1,-0.125534654,1,0.130058914,1,0.108508907,1,0.230941579,1,-0.477745831,1,-0.270082027,1
0.551993072,-4.456221581,1,-2.403288841,1,-8.406419754,1,-0.133055627,1,0.126758292,1,0.11752753,1,0.230131462,1,-0.477348566,1,-0.26945588,1
0.555992603,-4.391147137,1,-2.429805517,1,-8.259510994,1,-0.141155377,1,0.134318188,1,0.119438939,1,0.229282081,1,-0.476957798,1,-0.26881215,1
0.559994102,-4.404994965,1,-2.28450942,1,-8.428009987,1,-0.141600907,1,0.137570769,1,0.116888866,1,0.228420928,1,-0.476525545,1,-0.268148273,1
0.563991785,-4.400908947,1,-2.258201838,1,-8.499474525,1,-0.144273296,1,0.138196796,1,0.122028723,1,0.227538288,1,-0.476095229,1,-0.267484516,1
0.567991316,-4.498054504,1,-2.147251606,1,-8.538070679,1,-0.146199062,1,0.133925915,1,0.122966088,1,0.226651445,1,-0.475676209,1,-0.266810924,1
0.571993589,-4.347012997,1,-2.057638645,1,-8.522997856,1,-0.135263994,1,0.146367863,1,0.125802726,1,0.225781247,1,-0.475233525,1,-0.266118705,1
0.575992048,-4.336094856,1,-2.054712534,1,-8.664549828,1,-0.134858936,1,0.135916099,1,0.123376846,1,0.224929988,1,-0.4747971,1,-0.265433103,1
0.579991817,-4.391551495,1,-2.03339529,1,-8.56817627,1,-0.125639305,1,0.13410753,1,0.130759433,1,0.224086925,1,-0.474389255,1,-0.264745176,1
0.583993614,-4.208192348,1,-1.989364505,1,-8.431515694,1,-0.120822497,1,0.155575439,1,0.142754525,1,0.223269552,1,-0.473947167,1,-0.264008254,1
0.587991297,-4.397118568,1,-2.009658575,1,-8.856996536,1,-0.104348406,1,0.132054836,1,0.131375685,1,0.222477257,1,-0.473495603,1,-0.263246655,1
0.591991067,-4.400148392,1,-2.043317556,1,-8.727379799,1,-0.080985509,1,0.107098408,1,0.131409943,1,0.221788898,1,-0.473151714,1,-0.262558103,1
0.595998704,-4.262778282,1,-1.995792985,1,-8.651732445,1,-0.038111862,1,0.107367992,1,0.14252314,1,0.221225113,1,-0.472858846,1,-0.261859626,1
0.600002289,-4.31845808,1,-1.842973709,1,-8.805674553,1,-0.001407904,1,0.100970261,1,0.149860993,1,0.220809639,1,-0.472576678,1,-0.261108041,1
0.604002297,-4.240487576,1,-1.709307194,1,-8.639398575,1,0.018829713,1,0.094337374,1,0.146625355,1,0.220509797,1,-0.47233662,1,-0.260371625,1
0.608003855,-4.254971504,1,-1.712121487,1,-8.680478096,1,0.041166171,1,0.093168855,1,0.144435495,1,0.220303297,1,-0.472092718,1,-0.259636879,1
0.6120013,-4.317766666,1,-1.756620765,1,-8.680588722,1,0.046169419,1,0.087779425,1,0.13680771,1,0.220175073,1,-0.471859485,1,-0.25893262,1
0.616000772,-4.207258224,1,-1.821775436,1,-8.557413101,1,0.052492823,1,0.093100332,1,0.131679937,1,0.220059201,1,-0.471629471,1,-0.258253098,1
0.620002329,-4.354912281,1,-1.831152797,1,-8.693185806,1,0.05475736,1,0.091218747,1,0.12686193,1,0.219968945,1,-0.471370369,1,-0.25757876,1
0.624000013,-4.399141788,1,-1.817543149,1,-8.670378685,1,0.04852777,1,0.073330015,1,0.106172435,1,0.219908267,1,-0.471158266,1,-0.256983995,1
0.627999485,-4.486143589,1,-1.819602489,1,-8.739844322,1,0.046966705,1,0.059021369,1,0.090826601,1,0.219869599,1,-0.470983207,1,-0.256491125,1
0.632001042,-4.379423141,1,-1.722324133,1,-8.617245674,1,0.064604916,1,0.065676324,1,0.084042065,1,0.219893858,1,-0.470817119,1,-0.256047666,1
0.635998726,-4.308436394,1,-1.760572195,1,-8.660147667,1,0.06278269,1,0.053235572,1,0.067733347,1,0.219966248,1,-0.470649511,1,-0.255655259,1
0.639998198,-4.299614906,1,-1.873944998,1,-8.693053246,1,0.06481491,1,0.057100777,1,0.060517296,1,0.220068082,1,-0.470492214,1,-0.255317241,1
0.643999755,-4.425927162,1,-1.907313347,1,-8.658758163,1,0.063700497,1,0.043679461,1,0.054648407,1,0.220188126,1,-0.470348388,1,-0.255012125,1
0.647997439,-4.291926861,1,-2.051819324,1,-8.500056267,1,0.063263014,1,0.050565742,1,0.050727658,1,0.220305666,1,-0.470213741,1,-0.254738182,1
0.651996911,-4.290194511,1,-2.100953102,1,-8.575588226,1,0.059874214,1,0.051397145,1,0.048681274,1,0.220440328,1,-0.4700647,1,-0.254471749,1
0.65599823,-4.363817692,1,-2.095151424,1,-8.578795433,1,0.048639081,1,0.047962647,1,0.04451248,1,0.220547527,1,-0.469908148,1,-0.254227281,1
0.659995914,-4.369772911,1,-2.120042801,1,-8.483593941,1,0.048383746,1,0.048083007,1,0.03836935,1,0.220637575,1,-0.469761014,1,-0.253998786,1
0.663995385,-4.39291811,1,-2.067139626,1,-8.622731209,1,0.045892607,1,0.048359249,1,0.035501871,1,0.22073622,1,-0.469601393,1,-0.25378722,1
0.667997181,-4.328915119,1,-2.140847921,1,-8.43543148,1,0.02747998,1,0.049391214,1,0.029432751,1,0.220795885,1,-0.469449371,1,-0.253600121,1
0.671994865,-4.345395088,1,-2.190963268,1,-8.53356266,1,0.028860444,1,0.046387658,1,0.030768717,1,0.220831618,1,-0.469283104,1,-0.253415763,1
0.675994396,-4.38332653,1,-2.222336531,1,-8.579759598,1,0.016509345,1,0.045914285,1,0.033625714,1,0.220837414,1,-0.469130784,1,-0.253227353,1
0.679995894,-4.388954163,1,-2.24178195,1,-8.545719147,1,0.018478621,1,0.044625316,1,0.032935653,1,0.220816702,1,-0.4689807,1,-0.253032863,1
0.683993578,-4.345189571,1,-2.254901171,1,-8.549209595,1,0.015502033,1,0.042300127,1,0.043352801,1,0.22079277,1,-0.468843907,1,-0.252831608,1
0.687992811,-4.352130413,1,-2.240831137,1,-8.570365906,1,0.018320335,1,0.043399531,1,0.044169508,1,0.220759124,1,-0.468710721,1,-0.252596766,1
0.692000508,-4.287621021,1,-2.156620026,1,-8.483254433,1,0.014915128,1,0.041778844,1,0.050532665,1,0.22071895,1,-0.468605995,1,-0.252353966,1
0.696004093,-4.321645737,1,-2.095318794,1,-8.57317543,1,0.024130631,1,0.046427719,1,0.052728813,1,0.220683038,1,-0.468465805,1,-0.252083093,1
0.700004101,-4.294313431,1,-2.086914778,1,-8.672798157,1,0.025920518,1,0.048013236,1,0.054121837,1,0.220655084,1,-0.468328416,1,-0.251808673,1
0.704005659,-4.285805702,1,-2.044610977,1,-8.614674568,1,0.03534878,1,0.036967963,1,0.055893634,1,0.220645681,1,-0.468218029,1,-0.251517862,1
0.708003342,-4.33819437,1,-2.059024334,1,-8.641048431,1,0.041125629,1,0.036519088,1,0.061876569,1,0.220660686,1,-0.468123585,1,-0.251223266,1
0.712002814,-4.201011181,1,-2.048037052,1,-8.474209785,1,0.039581724,1,0.036516596,1,0.060651507,1,0.220682487,1,-0.468043178,1,-0.250925839,1
0.716004372,-4.293693542,1,-2.077498198,1,-8.60389328,1,0.048600253,1,0.035110917,1,0.055395205,1,0.220730528,1,-0.467955619,1,-0.250634104,1
0.720001817,-4.266812325,1,-2.016487598,1,-8.67585659,1,0.048619844,1,0.025789028,1,0.056103349,1,0.220789835,1,-0.467881918,1,-0.250356883,1
0.724001288,-4.334139824,1,-1.950092673,1,-8.647042274,1,0.048299856,1,0.019854655,1,0.0506474,1,0.220876992,1,-0.467831701,1,-0.25010398,1
0.728002787,-4.384429455,1,-1.934651017,1,-8.644841194,1,0.057776283,1,0.014016796,1,0.04440739,1,0.220986545,1,-0.467807323,1,-0.249876544,1
0.73200053,-4.22013092,1,-1.997137547,1,-8.558342934,1,0.057442568,1,0.015337327,1,0.041776821,1,0.221114397,1,-0.467792869,1,-0.24967505,1
0.736000001,-4.341501713,1,-1.978807092,1,-8.59013176,1,0.05861121,1,0.013152375,1,0.035467021,1,0.221275657,1,-0.467769563,1,-0.24949865,1
0.740001559,-4.290941715,1,-2.011518478,1,-8.618593216,1,0.060196452,1,0.014916715,1,0.030954048,1,0.221666023,1,-0.467303813,1,-0.249386147,1
0.743999243,-4.322240829,1,-2.025536776,1,-8.621923447,1,0.063182034,1,0.006217431,1,0.03083441,1,0.221847653,1,-0.46729365,1,-0.24923943,1
0.747998714,-4.306322098,1,-2.08174181,1,-8.586175919,1,0.056104135,1,0.002189761,1,0.021331681,1,0.222034857,1,-0.467302114,1,-0.249125719,1
0.752000272,-4.22940588,1,-2.101598501,1,-8.482343674,1,0.051383361,1,0.004566221,1,0.01647548,1,0.222208053,1,-0.467305571,1,-0.249047592,1
0.755997956,-4.325167656,1,-2.113251209,1,-8.536888123,1,0.052022155,1,0.007391617,1,0.010976662,1,0.222378001,1,-0.46730721,1,-0.248976529,1
0.759997427,-4.344213009,1,-2.113354921,1,-8.54117775,1,0.045182299,1,0.004306736,1,0.008533396,1,0.222553387,1,-0.46728909,1,-0.248928577,1
0.763998985,-4.349615097,1,-2.104187727,1,-8.536976814,1,0.043192755,1,0.003662463,1,0.005040315,1,0.22271055,1,-0.46728915,1,-0.248883739,1
0.767996669,-4.346263409,1,-2.158453465,1,-8.539237022,1,0.045925748,1,-8.43E-06,1,0.003537105,1,0.22287789,1,-0.467285275,1,-0.248854771,1
0.77199614,-4.371612549,1,-2.130869865,1,-8.57587719,1,0.034437995,1,0.000977157,1,0.003458026,1,0.223030105,1,-0.467279553,1,-0.248831257,1
0.775997937,-4.458521843,1,-2.119041204,1,-8.632181168,1,0.037075717,1,-0.003647255,1,0.001149565,1,0.223176524,1,-0.467280984,1,-0.248822525,1
0.77999562,-4.314661503,1,-2.137851954,1,-8.513523102,1,0.034494437,1,0.004548423,1,0.001466596,1,0.223311171,1,-0.467287987,1,-0.248819217,1
0.783995152,-4.372902393,1,-2.201526165,1,-8.543869019,1,0.030124726,1,0.003349915,1,-0.003059578,1,0.223439038,1,-0.467275828,1,-0.248820856,1
0.788002789,-4.321887016,1,-2.134676933,1,-8.573796272,1,0.027343707,1,8.28E-05,1,-0.001874197,1,0.223564118,1,-0.46726203,1,-0.248831287,1
0.792006373,-4.312907696,1,-2.10982275,1,-8.542937279,1,0.028768927,1,0.001944007,1,-0.003230244,1,0.223680824,1,-0.46725902,1,-0.248846009,1
0.796006143,-4.320223808,1,-2.051635742,1,-8.558626175,1,0.028205276,1,-0.00291664,1,-0.00694927,1,0.223811686,1,-0.467256039,1,-0.248883963,1
0.800007701,-4.308460236,1,-2.072396755,1,-8.581121445,1,0.029088289,1,-0.007942482,1,-0.011507414,1,0.223947451,1,-0.467261374,1,-0.24892804,1
0.804005146,-4.323392391,1,-2.096399307,1,-8.586489677,1,0.032417521,1,-0.007077018,1,-0.014504919,1,0.224093348,1,-0.467270792,1,-0.248982832,1
0.808004618,-4.326872826,1,-2.090545893,1,-8.529136658,1,0.032344691,1,-0.008908022,1,-0.017379122,1,0.224247545,1,-0.467284143,1,-0.24904643,1
0.812006414,-4.30683279,1,-2.137013674,1,-8.53474617,1,0.029408284,1,-0.007451921,1,-0.014385507,1,0.224407062,1,-0.467296362,1,-0.249117941,1
0.816004097,-4.313503742,1,-2.119297981,1,-8.559303284,1,0.033131897,1,-0.005322122,1,-0.019323628,1,0.224566936,1,-0.467307806,1,-0.249195322,1
0.820003569,-4.346796036,1,-2.143371344,1,-8.576203346,1,0.032399382,1,-0.00725294,1,-0.014883132,1,0.224734828,1,-0.467313617,1,-0.249276355,1
0.824005127,-4.318058968,1,-2.120592117,1,-8.605874062,1,0.037277408,1,-0.005953614,1,-0.018293399,1,0.224902406,1,-0.467320114,1,-0.249355733,1
0.82800281,-4.333318233,1,-2.057309151,1,-8.562865257,1,0.035981726,1,-0.005448697,1,-0.025523853,1,0.225078866,1,-0.467331797,1,-0.249453455,1
0.832002282,-4.331173897,1,-2.055464029,1,-8.590605736,1,0.038563482,1,-0.010447933,1,-0.024775166,1,0.225273609,1,-0.467343688,1,-0.249563858,1
0.83600384,-4.334042072,1,-2.067647696,1,-8.557496071,1,0.044352625,1,-0.009148818,1,-0.024833538,1,0.225484133,1,-0.467360556,1,-0.249686286,1
0.840001523,-4.32159996,1,-2.089841366,1,-8.560461044,1,0.044930533,1,-0.01307119,1,-0.032688573,1,0.225712121,1,-0.467374474,1,-0.249820292,1
0.844000995,-4.29324007,1,-2.123047829,1,-8.547968864,1,0.043638855,1,-0.010967146,1,-0.032056607,1,0.225954771,1,-0.467393577,1,-0.249979615,1
0.848002315,-4.299129486,1,-2.19291544,1,-8.517831802,1,0.041118532,1,-0.008963836,1,-0.037440386,1,0.226193383,1,-0.467405647,1,-0.250130773,1
0.851999998,-4.30936861,1,-2.234258652,1,-8.535311699,1,0.035232294,1,-0.012233889,1,-0.031586442,1,0.226424098,1,-0.467420757,1,-0.250294805,1
0.855999768,-4.291152,1,-2.225903034,1,-8.496764183,1,0.033979699,1,-0.014521521,1,-0.036508534,1,0.226633132,1,-0.467439085,1,-0.250456631,1
0.860001266,-4.329126358,1,-2.259831429,1,-8.487410545,1,0.02394053,1,-0.015681356,1,-0.033559859,1,0.226822197,1,-0.467460871,1,-0.250621527,1
0.86399895,-4.328541756,1,-2.259828806,1,-8.487610817,1,0.020265123,1,-0.008645992,1,-0.036951721,1,0.226985008,1,-0.467466861,1,-0.250778794,1
0.867998481,-4.360153198,1,-2.277253389,1,-8.497607231,1,0.005740561,1,-0.009369669,1,-0.03315112,1,0.227108926,1,-0.467466533,1,-0.25094074,1
0.871999979,-4.383169651,1,-2.246115208,1,-8.560767174,1,0.005370418,1,-0.011013436,1,-0.034783214,1,0.227207273,1,-0.467474222,1,-0.251101553,1
0.875997722,-4.370564938,1,-2.133445024,1,-8.596214294,1,0.007218277,1,-0.014275732,1,-0.033270184,1,0.227313295,1,-0.467487216,1,-0.251265049,1
0.879997194,-4.376812935,1,-2.112607956,1,-8.594981194,1,0.01543563,1,-0.014418572,1,-0.040537473,1,0.227432102,1,-0.467516005,1,-0.251432985,1
0.883998692,-4.339118004,1,-2.160246611,1,-8.567337036,1,0.014068587,1,-0.01757128,1,-0.034865912,1,0.227571636,1,-0.467544109,1,-0.251604706,1
0.888002276,-4.334028721,1,-2.224558592,1,-8.547081947,1,0.011973817,1,-0.015420465,1,-0.037408393,1,0.2277098,1,-0.46756956,1,-0.251783758,1
0.892002046,-4.26194191,1,-2.204423904,1,-8.49242115,1,0.015332554,1,-0.019883687,1,-0.038027838,1,0.227847889,1,-0.467598468,1,-0.251960665,1
0.896003604,-4.219069004,1,-2.286224842,1,-8.477573395,1,0.011803182,1,-0.021473769,1,-0.033417694,1,0.22799015,1,-0.467648923,1,-0.252141684,1
0.900001287,-4.218235493,1,-2.253477573,1,-8.534755707,1,0.015932636,1,-0.026825143,1,-0.035415754,1,0.228116319,1,-0.467714399,1,-0.252315044,1
0.904000759,-4.286397457,1,-2.183228016,1,-8.513380051,1,0.014947048,1,-0.032687914,1,-0.032756284,1,0.228245109,1,-0.467796266,1,-0.252480984,1
0.908002317,-4.30731678,1,-2.178482294,1,-8.532567978,1,0.014560322,1,-0.03254731,1,-0.035262637,1,0.228375092,1,-0.467887282,1,-0.25266096,1
0.911999762,-4.305621624,1,-2.18295002,1,-8.518075943,1,0.018184688,1,-0.033810597,1,-0.030823791,1,0.228519782,1,-0.467978835,1,-0.252842665,1
0.915999234,-4.254766941,1,-2.235131979,1,-8.508592606,1,0.016699245,1,-0.034537893,1,-0.037221428,1,0.228681028,1,-0.468083322,1,-0.253029615,1
0.920000792,-4.241425991,1,-2.24883461,1,-8.489559174,1,0.015508881,1,-0.038026407,1,-0.030553628,1,0.228825375,1,-0.468198687,1,-0.253215045,1
0.923998713,-4.246961594,1,-2.247589588,1,-8.466277122,1,0.015657766,1,-0.045996711,1,-0.032319736,1,0.228967965,1,-0.468330681,1,-0.253395855,1
0.927998185,-4.256197453,1,-2.257974386,1,-8.526652336,1,0.014498741,1,-0.043957781,1,-0.031399287,1,0.229112819,1,-0.468472749,1,-0.253581852,1
0.931999743,-4.343848705,1,-2.2655797,1,-8.472154617,1,0.010242015,1,-0.047090467,1,-0.02808914,1,0.229253218,1,-0.468629479,1,-0.253760576,1
0.935997427,-4.27831316,1,-2.251263142,1,-8.474786758,1,0.011558142,1,-0.047953844,1,-0.027846411,1,0.229390174,1,-0.468787223,1,-0.253941357,1
0.939996958,-4.259673595,1,-2.290379286,1,-8.459841728,1,0.010022564,1,-0.051662415,1,-0.026570836,1,0.229497477,1,-0.468952388,1,-0.254113078,1
0.943998456,-4.218344212,1,-2.233106613,1,-8.437214851,1,0.002696176,1,-0.051581994,1,-0.032097422,1,0.229611441,1,-0.469121128,1,-0.254293084,1
0.94799614,-4.18207407,1,-2.244226456,1,-8.495952606,1,0.011275497,1,-0.059569668,1,-0.027622428,1,0.229720265,1,-0.46931234,1,-0.254480571,1
0.951995671,-4.148483276,1,-2.253993034,1,-8.51506424,1,0.003315165,1,-0.067823365,1,-0.028798833,1,0.229831278,1,-0.469535321,1,-0.254664421,1
0.955997169,-4.285856724,1,-2.33610034,1,-8.470721245,1,-0.002941018,1,-0.069426417,1,-0.027813395,1,0.229914188,1,-0.469775379,1,-0.25485605,1
0.959994853,-4.256642818,1,-2.388414383,1,-8.458925247,1,-0.005907667,1,-0.075544074,1,-0.022923671,1,0.22998558,1,-0.47003752,1,-0.255037248,1
0.963994384,-4.286852837,1,-2.315762043,1,-8.486329079,1,-0.021856086,1,-0.069549069,1,-0.024622638,1,0.230019689,1,-0.470302016,1,-0.255208969,1
0.96799618,-4.391988754,1,-2.314460278,1,-8.486979485,1,-0.022527628,1,-0.076593973,1,-0.024077971,1,0.230007797,1,-0.470567167,1,-0.255374372,1
0.971993864,-4.304190159,1,-2.25906539,1,-8.584700584,1,-0.021601949,1,-0.076761954,1,-0.014806138,1,0.229998037,1,-0.470849544,1,-0.25553748,1
0.975993335,-4.298377514,1,-2.180840015,1,-8.565069199,1,-0.019796012,1,-0.086233482,1,-0.016399471,1,0.229982197,1,-0.471156597,1,-0.25568822,1
0.979994893,-4.362578869,1,-2.23215723,1,-8.618179321,1,-0.022758666,1,-0.085796505,1,-0.010374633,1,0.229960158,1,-0.471479744,1,-0.255823165,1
0.983998477,-4.430294991,1,-2.166713238,1,-8.589579582,1,-0.02642367,1,-0.092164017,1,-0.006953071,1,0.229935393,1,-0.471825778,1,-0.255964249,1
0.988004327,-4.392697811,1,-2.271722317,1,-8.593852043,1,-0.022897815,1,-0.095020972,1,-0.010614696,1,0.230442569,1,-0.471864104,1,-0.257232457,1
0.992006123,-4.359336853,1,-2.25207448,1,-8.570332527,1,-0.022297984,1,-0.095587708,1,-0.005756869,1,0.230341703,1,-0.472128361,1,-0.256793588,1
0.996003866,-4.369690895,1,-2.226846695,1,-8.563896179,1,-0.027486037,1,-0.098449059,1,0.001144823,1,0.230294749,1,-0.472502947,1,-0.25690186,1
1.000003576,-4.421006203,1,-2.163818121,1,-8.563262939,1,-0.022163052,1,-0.096283153,1,-0.000549875,1,0.230242997,1,-0.472881734,1,-0.257005185,1
1.004005075,-4.395730972,1,-2.164791822,1,-8.577008247,1,-0.015749285,1,-0.097463988,1,-0.003950488,1,0.230212778,1,-0.473257184,1,-0.257099688,1
1.00800252,-4.356891155,1,-2.171701193,1,-8.597842216,1,-0.015480223,1,-0.101081692,1,0.003342302,1,0.230187729,1,-0.473643243,1,-0.257192016,1
1.012001991,-4.349919796,1,-2.169936419,1,-8.571766853,1,-0.013022337,1,-0.10263098,1,0.006998759,1,0.23016426,1,-0.474042386,1,-0.257282048,1
1.016003609,-4.417672634,1,-2.181734085,1,-8.574989319,1,-0.012778026,1,-0.100441009,1,0.006062398,1,0.230146959,1,-0.474441648,1,-0.257357031,1
1.020001292,-4.423872948,1,-2.134113789,1,-8.57884407,1,-0.011007314,1,-0.103446074,1,0.008951383,1,0.230136111,1,-0.474854469,1,-0.257434905,1
1.024000764,-4.44510603,1,-2.121207237,1,-8.545452118,1,-0.007211546,1,-0.097797744,1,0.007388218,1,0.230133742,1,-0.475254595,1,-0.25750941,1
1.028002262,-4.438646317,1,-2.148212671,1,-8.537053108,1,-0.006316836,1,-0.098085821,1,0.00652466,1,0.230139583,1,-0.475644052,1,-0.257577658,1
1.031999946,-4.452403069,1,-2.214733601,1,-8.481441498,1,-0.008719959,1,-0.093621813,1,0.006659477,1,0.230146065,1,-0.476029634,1,-0.257647216,1
1.035999537,-4.430337906,1,-2.249168634,1,-8.488166809,1,-0.004129186,1,-0.096448265,1,0.008096762,1,0.230149195,1,-0.476402611,1,-0.25770697,1
1.040001035,-4.465997219,1,-2.237023115,1,-8.485375404,1,-0.004974907,1,-0.086475827,1,0.011138968,1,0.230155587,1,-0.476754457,1,-0.257764131,1
1.043998718,-4.472698212,1,-2.230312109,1,-8.526298523,1,-0.007078115,1,-0.083885819,1,0.013235065,1,0.230145618,1,-0.477100253,1,-0.25779748,1
1.04799819,-4.460767746,1,-2.197755575,1,-8.509848595,1,0.000625425,1,-0.081907637,1,0.01420901,1,0.230150178,1,-0.47742492,1,-0.257827461,1
1.051999688,-4.445193768,1,-2.160264015,1,-8.529761314,1,0.004622038,1,-0.077673651,1,0.015518778,1,0.230171829,1,-0.477750272,1,-0.257847488,1
1.055997491,-4.496994019,1,-2.191453934,1,-8.523807526,1,0.007910833,1,-0.077888541,1,0.018301236,1,0.230211109,1,-0.478068709,1,-0.257856131,1
1.059996963,-4.546430111,1,-2.236114502,1,-8.499979973,1,0.011431213,1,-0.072685003,1,0.019527519,1,0.230250031,1,-0.47838071,1,-0.257860124,1
1.063998461,-4.505589962,1,-2.224766254,1,-8.504179955,1,0.011067073,1,-0.070226274,1,0.019854583,1,0.230285972,1,-0.478674531,1,-0.257845134,1
1.067996144,-4.499732971,1,-2.216181278,1,-8.505059242,1,0.008970985,1,-0.066503592,1,0.022335619,1,0.230317384,1,-0.478955865,1,-0.257821202,1
1.071995616,-4.487740993,1,-2.243352413,1,-8.505843163,1,0.009758869,1,-0.065550826,1,0.021946272,1,0.230341494,1,-0.479226202,1,-0.2577914,1
1.075997233,-4.501886845,1,-2.194067478,1,-8.533554077,1,0.005249345,1,-0.065906502,1,0.024943767,1,0.230355278,1,-0.479502857,1,-0.257757872,1
1.079994678,-4.546989918,1,-2.19600296,1,-8.496951103,1,0.004094087,1,-0.059518266,1,0.023589281,1,0.230353266,1,-0.479772508,1,-0.257711977,1
1.084000468,-4.516088009,1,-2.203531265,1,-8.461936951,1,0.004144116,1,-0.055527959,1,0.025903333,1,0.230346471,1,-0.480027586,1,-0.257661313,1
1.088002324,-4.523221493,1,-2.185580969,1,-8.494952202,1,-0.000412398,1,-0.053971007,1,0.021152416,1,0.230329931,1,-0.480259687,1,-0.257611722,1
1.092000246,-4.507943153,1,-2.180217743,1,-8.508601189,1,0.000978693,1,-0.050367948,1,0.022248505,1,0.230313182,1,-0.480481118,1,-0.257571429,1
1.095999718,-4.459415436,1,-2.174943447,1,-8.526817322,1,0.000256668,1,-0.052400477,1,0.024958396,1,0.230288252,1,-0.48069644,1,-0.257523686,1
1.100001335,-4.495415211,1,-2.194246292,1,-8.541111946,1,0.00294008,1,-0.052049734,1,0.027809363,1,0.230269879,1,-0.480926454,1,-0.257466555,1
1.103999019,-4.492615223,1,-2.190474033,1,-8.492136955,1,0.011484307,1,-0.053476762,1,0.028340273,1,0.230274588,1,-0.481165051,1,-0.257396758,1
1.10799849,-4.492389202,1,-2.191986799,1,-8.495161057,1,0.01137918,1,-0.057008244,1,0.030974312,1,0.230281144,1,-0.48140502,1,-0.257317752,1
1.111999989,-4.533890724,1,-2.193316698,1,-8.467561722,1,0.011618523,1,-0.052325517,1,0.029657047,1,0.23029308,1,-0.481631219,1,-0.257244378,1
1.115997672,-4.527535915,1,-2.174403667,1,-8.471798897,1,0.004115107,1,-0.051057115,1,0.029550824,1,0.23029387,1,-0.481848836,1,-0.257170856,1
1.119997144,-4.506057262,1,-2.158499479,1,-8.455512047,1,0.003565382,1,-0.044940542,1,0.027509335,1,0.230288252,1,-0.482049257,1,-0.257102221,1
1.123998761,-4.521889687,1,-2.174659491,1,-8.461660385,1,0.000470812,1,-0.036984116,1,0.024939355,1,0.230265588,1,-0.482240617,1,-0.257030994,1
1.127996445,-4.494668007,1,-2.218471766,1,-8.509428978,1,-3.76E-06,1,-0.037926219,1,0.024620384,1,0.230241522,1,-0.482414454,1,-0.256956339,1
1.131995916,-4.466233253,1,-2.228584766,1,-8.491976738,1,0.001713073,1,-0.036012258,1,0.026636207,1,0.23021847,1,-0.482581764,1,-0.256878644,1
1.135997176,-4.460337162,1,-2.26600647,1,-8.462104797,1,0.004405776,1,-0.035989199,1,0.028509134,1,0.230192155,1,-0.482750356,1,-0.25679338,1
1.13999486,-4.477582932,1,-2.201714993,1,-8.46903801,1,0.007799201,1,-0.035263237,1,0.034248285,1,0.230169207,1,-0.48291561,1,-0.256690651,1
1.143994331,-4.503556728,1,-2.203322172,1,-8.434381485,1,0.007898172,1,-0.032459222,1,0.034313951,1,0.230147779,1,-0.48307848,1,-0.256578714,1
1.147996187,-4.518664837,1,-2.208249807,1,-8.432404518,1,0.007340025,1,-0.026734432,1,0.030694548,1,0.23011969,1,-0.483226627,1,-0.256465048,1
1.151993871,-4.520928383,1,-2.198754311,1,-8.418094635,1,0.001956877,1,-0.021960648,1,0.028159939,1,0.230092019,1,-0.483359426,1,-0.256353199,1
1.155993342,-4.534146786,1,-2.220226288,1,-8.434297562,1,-0.001888052,1,-0.020006206,1,0.030067546,1,0.230050266,1,-0.483471572,1,-0.256244719,1
1.159994841,-4.535769463,1,-2.214209557,1,-8.412746429,1,-0.002409011,1,-0.011766152,1,0.026290026,1,0.229986027,1,-0.483552307,1,-0.256143332,1
1.163992524,-4.540645123,1,-2.151604414,1,-8.435221672,1,-0.009394663,1,-0.009442261,1,0.022422735,1,0.229915261,1,-0.483620912,1,-0.256036639,1
1.167992115,-4.564966202,1,-2.181143761,1,-8.434110641,1,-0.009183308,1,0.00074921,1,0.022210408,1,0.229837701,1,-0.483662069,1,-0.255944967,1
1.171993613,-4.526642799,1,-2.176462889,1,-8.440597534,1,-0.010489999,1,0.003199556,1,0.020759901,1,0.229755744,1,-0.48367852,1,-0.255850434,1
1.175991297,-4.534927368,1,-2.196518421,1,-8.436796188,1,-0.010182227,1,0.005476871,1,0.020267814,1,0.229665101,1,-0.483678013,1,-0.255759507,1
1.179997206,-4.571755886,1,-2.203127146,1,-8.427882195,1,-0.007455952,1,0.012108183,1,0.021700783,1,0.229578748,1,-0.483663738,1,-0.255663157,1
1.183998942,-4.534144402,1,-2.189649105,1,-8.475194931,1,-0.014362753,1,0.014085365,1,0.016434522,1,0.229495525,1,-0.483625948,1,-0.255573779,1
1.187996626,-4.523516178,1,-2.218473673,1,-8.448432922,1,-0.012227228,1,0.021118375,1,0.015628966,1,0.229403928,1,-0.483579993,1,-0.255476058,1
1.191996217,-4.52930975,1,-2.175043821,1,-8.455925941,1,-0.014674212,1,0.023126824,1,0.017098647,1,0.229306623,1,-0.48350811,1,-0.255379528,1
1.195997477,-4.531768799,1,-2.136567593,1,-8.469038963,1,-0.014150903,1,0.026530089,1,0.011226504,1,0.229211643,1,-0.483431399,1,-0.255287021,1
1.199994922,-4.505075932,1,-2.123733759,1,-8.495167732,1,-0.009893959,1,0.027906401,1,0.011606801,1,0.229127645,1,-0.483338714,1,-0.255202502,1
1.203994393,-4.559277534,1,-2.144138098,1,-8.5052948,1,-0.008839928,1,0.0348965,1,0.010286837,1,0.229062945,1,-0.483223617,1,-0.255125374,1
1.207995892,-4.561510086,1,-2.168069601,1,-8.494585037,1,-0.006430933,1,0.037688345,1,0.00922888,1,0.228992611,1,-0.483100981,1,-0.255056232,1
1.211993575,-4.544342041,1,-2.148169518,1,-8.553019524,1,-0.007421782,1,0.036097888,1,0.007595449,1,0.228926361,1,-0.482967377,1,-0.254975379,1
1.215993047,-4.526357651,1,-2.1555233,1,-8.545762062,1,-0.001683806,1,0.038783569,1,0.009853208,1,0.228875339,1,-0.482827395,1,-0.254905373,1
1.219994664,-4.589672089,1,-2.132128,1,-8.56020546,1,0.001983144,1,0.04119337,1,0.002566076,1,0.22883442,1,-0.482683033,1,-0.254828572,1
1.223992586,-4.543668747,1,-2.115785837,1,-8.531697273,1,-0.000435573,1,0.047575291,1,0.005464725,1,0.228816092,1,-0.482514173,1,-0.254772335,1
1.227992058,-4.543286324,1,-2.124053717,1,-8.481207848,1,0.00300998,1,0.043902274,1,-0.000714712,1,0.228785694,1,-0.482344031,1,-0.254714549,1
1.231993318,-4.525804996,1,-2.162335157,1,-8.47936058,1,0.004675995,1,0.055062141,1,-0.001580007,1,0.228772223,1,-0.48214373,1,-0.254667252,1
1.235991001,-4.507398129,1,-2.160206556,1,-8.497611046,1,-0.001186249,1,0.05332616,1,0.000536978,1,0.228756696,1,-0.48192966,1,-0.254611343,1
1.239990473,-4.477613926,1,-2.141978741,1,-8.494280815,1,0.001623774,1,0.058574732,1,-0.003682858,1,0.229188651,1,-0.481445968,1,-0.254996061,1
1.24399209,-4.455376625,1,-2.174835443,1,-8.512066841,1,0.001834919,1,0.061877791,1,-0.004943828,1,0.229170576,1,-0.481219918,1,-0.254949719,1
1.247989774,-4.47993803,1,-2.205786705,1,-8.495062828,1,0.001878236,1,0.056543212,1,-0.005249009,1,0.229161605,1,-0.480985522,1,-0.254919827,1
1.251989245,-4.463979244,1,-2.188698053,1,-8.443012238,1,-0.003003224,1,0.060441416,1,-0.008431735,1,0.229149073,1,-0.480748683,1,-0.254879445,1
1.255990744,-4.440282822,1,-2.196163177,1,-8.457416534,1,0.004225418,1,0.060936455,1,-0.006538946,1,0.229140341,1,-0.480506778,1,-0.254851103,1
1.259988427,-4.423132896,1,-2.206460476,1,-8.473941803,1,-0.000815316,1,0.057961199,1,-0.010016551,1,0.229128852,1,-0.48026967,1,-0.254824042,1
1.263988256,-4.427604675,1,-2.178678036,1,-8.486534119,1,-0.002540877,1,0.053356979,1,-0.008503953,1,0.229108289,1,-0.480028659,1,-0.254795909,1
1.267989755,-4.402605057,1,-2.178216696,1,-8.480147362,1,-0.00081923,1,0.061490752,1,-0.00897023,1,0.229098707,1,-0.479793936,1,-0.254769295,1
1.271987438,-4.350290298,1,-2.204250336,1,-8.507138252,1,0.00104828,1,0.054915715,1,0.000102522,1,0.22908558,1,-0.479560524,1,-0.254730284,1
1.275993347,-4.388500214,1,-2.169045687,1,-8.490970612,1,0.007985845,1,0.051171038,1,-0.004246511,1,0.22907488,1,-0.479348838,1,-0.254695177,1
1.279995084,-4.411392212,1,-2.168881178,1,-8.509205818,1,0.005735934,1,0.049873274,1,-0.003266152,1,0.229080081,1,-0.479145646,1,-0.254656613,1
1.283992887,-4.431025505,1,-2.16180706,1,-8.495952606,1,0.012136349,1,0.049396075,1,-0.001627274,1,0.229100257,1,-0.478947937,1,-0.254621029,1
1.287992597,-4.376938343,1,-2.11951375,1,-8.467794418,1,0.012914856,1,0.045815803,1,-0.006485493,1,0.229125246,1,-0.478763729,1,-0.254588515,1
1.291994095,-4.366499901,1,-2.12684536,1,-8.499695778,1,0.013015158,1,0.042993646,1,-0.006483503,1,0.229175568,1,-0.478583395,1,-0.254574567,1
1.29599154,-4.418287754,1,-2.210342646,1,-8.463630676,1,0.01020751,1,0.041229289,1,-0.003734492,1,0.229215935,1,-0.478410482,1,-0.254547924,1
1.299991012,-4.408973217,1,-2.218809843,1,-8.498171806,1,0.007160586,1,0.040546447,1,-0.004305191,1,0.229241908,1,-0.478247166,1,-0.254520595,1
1.303992629,-4.384791374,1,-2.229230165,1,-8.45320034,1,0.0072593,1,0.044406921,1,-0.00243583,1,0.229263991,1,-0.478084505,1,-0.254499018,1
1.307990313,-4.376181126,1,-2.15905118,1,-8.47081852,1,0.005687398,1,0.042979833,1,-0.003494219,1,0.229277551,1,-0.477922767,1,-0.254461318,1
1.311989784,-4.413650513,1,-2.155318737,1,-8.506950378,1,0.005892209,1,0.04112165,1,-0.004482824,1,0.229285017,1,-0.477765679,1,-0.2544384,1
1.315991282,-4.387945652,1,-2.166380405,1,-8.488132477,1,0.00248875,1,0.03801978,1,-0.003320809,1,0.229299501,1,-0.477608949,1,-0.254413903,1
1.319989204,-4.400075436,1,-2.176754951,1,-8.467622757,1,0.004328182,1,0.033083476,1,-0.000733707,1,0.229307413,1,-0.477463841,1,-0.254393131,1
1.323988795,-4.37763834,1,-2.181010962,1,-8.473370552,1,0.006816188,1,0.03755467,1,-0.003530008,1,0.229304239,1,-0.477318287,1,-0.254367739,1
1.32799077,-4.37150383,1,-2.216250896,1,-8.499649048,1,-0.000852721,1,0.034486711,1,-0.000497854,1,0.229306772,1,-0.477177471,1,-0.254346162,1
1.331988692,-4.346164703,1,-2.153392792,1,-8.476206779,1,-0.00097917,1,0.031767689,1,-0.003778004,1,0.229303434,1,-0.477045119,1,-0.254317045,1
1.335988283,-4.382534981,1,-2.170020103,1,-8.490290642,1,0.001826228,1,0.033415455,1,-0.001760199,1,0.229303285,1,-0.476911485,1,-0.25429821,1
1.33999002,-4.355726719,1,-2.220643997,1,-8.471671104,1,0.002479783,1,0.029860597,1,-9.34E-06,1,0.22929056,1,-0.476786077,1,-0.254270405,1
1.343987703,-4.381042004,1,-2.231249332,1,-8.473490715,1,-0.001664171,1,0.02853737,1,-0.005135451,1,0.229280263,1,-0.476670057,1,-0.254243404,1
1.347987175,-4.371367455,1,-2.209662199,1,-8.479279518,1,-0.002084763,1,0.029584534,1,0.000592764,1,0.229266137,1,-0.476555675,1,-0.254220665,1
1.351988792,-4.438611984,1,-2.208966255,1,-8.458469391,1,-0.001356152,1,0.030947935,1,-0.001856406,1,0.229245305,1,-0.476439059,1,-0.254199505,1
1.355986476,-4.421415329,1,-2.216959238,1,-8.477197647,1,-0.004475223,1,0.027601127,1,0.000392269,1,0.229218662,1,-0.476324737,1,-0.254168302,1
1.359986186,-4.393325806,1,-2.197440863,1,-8.503474236,1,-0.004237899,1,0.028680183,1,-0.000730051,1,0.229179725,1,-0.47621876,1,-0.254138887,1
1.363987684,-4.440412521,1,-2.197665453,1,-8.502923012,1,-0.00977128,1,0.02762315,1,0.00063939,1,0.229141712,1,-0.476109833,1,-0.254114062,1
1.367985368,-4.392856121,1,-2.172051907,1,-8.498095512,1,-0.010780098,1,0.02311117,1,0.000424813,1,0.229094386,1,-0.476010561,1,-0.254083604,1
1.371984839,-4.41218996,1,-2.154143095,1,-8.514369965,1,-0.010528772,1,0.025396734,1,0.002150596,1,0.229032815,1,-0.47591126,1,-0.2540555,1
1.375992537,-4.347126484,1,-2.17207551,1,-8.484776497,1,-0.010168877,1,0.022461595,1,-0.000420358,1,0.228984132,1,-0.475820869,1,-0.254035324,1
1.379996419,-4.363214016,1,-2.170458078,1,-8.532702446,1,-0.012762348,1,0.022722227,1,-0.000893586,1,0.228925273,1,-0.47573781,1,-0.254010051,1
1.383996367,-4.382992268,1,-2.168267488,1,-8.497937202,1,-0.014430078,1,0.018291289,1,-0.002151656,1,0.228855893,1,-0.475659668,1,-0.253988177,1
1.387997985,-4.327066422,1,-2.112083197,1,-8.578986168,1,-0.025594417,1,0.013489653,1,-0.004135072,1,0.228765801,1,-0.475599706,1,-0.253979981,1
1.39199543,-4.405951977,1,-2.119184256,1,-8.476248741,1,-0.016946154,1,0.016987095,1,-0.001105784,1,0.228682876,1,-0.475540042,1,-0.253976852,1
1.395994902,-4.360082626,1,-2.159841537,1,-8.517703056,1,-0.017155388,1,0.019225094,1,-0.004195434,1,0.228615537,1,-0.475466311,1,-0.253969908,1
1.3999964,-4.392963409,1,-2.173929691,1,-8.504751205,1,-0.017874032,1,0.021946331,1,-0.004288239,1,0.228548542,1,-0.475391209,1,-0.253968507,1
1.403994083,-4.380297184,1,-2.149206877,1,-8.529602051,1,-0.0170823,1,0.018918542,1,-0.004729698,1,0.228474036,1,-0.475309819,1,-0.253963172,1
1.407993555,-4.386550903,1,-2.165991783,1,-8.531392097,1,-0.01528611,1,0.018146854,1,-0.003309268,1,0.228408113,1,-0.47524035,1,-0.253955215,1
1.411995173,-4.364820004,1,-2.168757439,1,-8.527680397,1,-0.014380508,1,0.012760324,1,-0.00316779,1,0.228345528,1,-0.475181073,1,-0.25395444,1
1.415992856,-4.388775349,1,-2.171802282,1,-8.5135355,1,-0.012426432,1,0.012784164,1,-0.004047847,1,0.228290215,1,-0.475124419,1,-0.253950417,1
1.419992328,-4.375520706,1,-2.172754526,1,-8.523422241,1,-0.013643336,1,0.008437952,1,-0.002953604,1,0.228238896,1,-0.475079089,1,-0.253948212,1
1.423993826,-4.381122112,1,-2.192824364,1,-8.518375397,1,-0.015109166,1,0.005139329,1,-0.003071519,1,0.22817488,1,-0.47504434,1,-0.253941923,1
1.427991867,-4.409559727,1,-2.171778202,1,-8.503760338,1,-0.015784852,1,0.003716751,1,0.002016455,1,0.228114501,1,-0.475014389,1,-0.253941238,1
1.431991339,-4.386535168,1,-2.181816816,1,-8.499067307,1,-0.012779597,1,0.008523233,1,-0.002971688,1,0.228043914,1,-0.474990606,1,-0.253929228,1
1.435993075,-4.396266937,1,-2.157212734,1,-8.52282238,1,-0.015665974,1,0.007014384,1,0.001353408,1,0.227976874,1,-0.474961817,1,-0.25391382,1
1.439990997,-4.380573273,1,-2.152346849,1,-8.511706352,1,-0.01195688,1,0.006830367,1,0.004182328,1,0.227913365,1,-0.474940598,1,-0.253902495,1
1.443990469,-4.352333069,1,-2.140407085,1,-8.551712036,1,-0.014180495,1,0.002793209,1,-0.001665802,1,0.227860287,1,-0.474925637,1,-0.253892779,1
1.447992086,-4.355796814,1,-2.090370655,1,-8.584499359,1,-0.006950077,1,-0.007537861,1,-0.000673295,1,0.227812752,1,-0.474933624,1,-0.253893167,1
1.45198977,-4.394484043,1,-2.126375437,1,-8.579801559,1,-0.008961368,1,-0.009375289,1,-0.001581399,1,0.227785245,1,-0.474975288,1,-0.253899783,1
1.45598948,-4.413070202,1,-2.185571432,1,-8.534082413,1,-0.001533634,1,-0.014797057,1,0.001177805,1,0.227777109,1,-0.475036591,1,-0.25391233,1
1.459991097,-4.403075695,1,-2.177546978,1,-8.541546822,1,-0.000740908,1,-0.025026623,1,0.000107491,1,0.227775559,1,-0.475111783,1,-0.253924042,1
1.463988781,-4.412509441,1,-2.181195498,1,-8.531028748,1,-0.002548549,1,-0.025462415,1,0.003490527,1,0.227772087,1,-0.475211084,1,-0.253934741,1
1.467988253,-4.375925541,1,-2.146064997,1,-8.550660133,1,-0.001097736,1,-0.027424607,1,0.005810098,1,0.227779344,1,-0.475313604,1,-0.253936201,1
1.471996188,-4.431106091,1,-2.125100136,1,-8.5414505,1,0.004988882,1,-0.031962607,1,0.004756595,1,0.227792844,1,-0.47543177,1,-0.253929645,1
1.475999951,-4.416233063,1,-2.149357796,1,-8.593716621,1,0.011741804,1,-0.031353872,1,0.008334521,1,0.227831066,1,-0.47555998,1,-0.253932178,1
1.480000019,-4.411770821,1,-2.117650509,1,-8.554226875,1,0.016255073,1,-0.035992648,1,0.007606737,1,0.227886572,1,-0.475708574,1,-0.253930658,1
1.484001517,-4.433633804,1,-2.123889446,1,-8.51249218,1,0.026163759,1,-0.040912222,1,0.00933562,1,0.227967784,1,-0.475869119,1,-0.253932416,1
1.487998962,-4.450060368,1,-2.135727644,1,-8.502319336,1,0.029475393,1,-0.031498969,1,0.013595045,1,0.22856459,1,-0.475720137,1,-0.25490275,1
1.491998434,-4.410040855,1,-2.080476522,1,-8.537293434,1,0.03837597,1,-0.035002582,1,0.010144684,1,0.228625864,1,-0.47577101,1,-0.254321039,1
1.496000051,-4.464771748,1,-2.12425518,1,-8.494005203,1,0.03924384,1,-0.034037903,1,0.015477486,1,0.228770286,1,-0.47591272,1,-0.25430572,1
1.499997735,-4.445216656,1,-2.090866089,1,-8.537838936,1,0.046789929,1,-0.037532434,1,0.00858129,1,0.228931025,1,-0.476057589,1,-0.254292279,1
1.503997207,-4.424255371,1,-2.092863321,1,-8.574595451,1,0.059163567,1,-0.036655024,1,0.012824783,1,0.22913678,1,-0.476199567,1,-0.254275948,1
1.507998943,-4.424789906,1,-2.154942513,1,-8.537500381,1,0.063407674,1,-0.031129068,1,0.01461018,1,0.229382068,1,-0.476343006,1,-0.254257858,1
1.511996984,-4.455863476,1,-2.120523214,1,-8.521639824,1,0.072468735,1,-0.032718372,1,0.018158231,1,0.229634672,1,-0.476483315,1,-0.254228711,1
1.515996456,-4.465199947,1,-2.149052143,1,-8.501998901,1,0.069876082,1,-0.033288952,1,0.011424305,1,0.22991012,1,-0.476623118,1,-0.25420776,1
1.519997716,-4.435357094,1,-2.150063753,1,-8.511451721,1,0.072233684,1,-0.029517414,1,0.013700681,1,0.230181709,1,-0.476755738,1,-0.254187703,1
1.523995399,-4.446132183,1,-2.129870892,1,-8.491159439,1,0.069005296,1,-0.026537906,1,0.010007501,1,0.230437577,1,-0.476875484,1,-0.254170954,1
1.527994871,-4.436717033,1,-2.159789085,1,-8.47448349,1,0.061909746,1,-0.023495587,1,0.008406535,1,0.230689436,1,-0.476989418,1,-0.254157305,1
1.531996369,-4.423606396,1,-2.161356926,1,-8.51537323,1,0.059400637,1,-0.028121933,1,0.003440832,1,0.230933145,1,-0.477090478,1,-0.254160196,1
1.535993814,-4.40653801,1,-2.170539856,1,-8.484992027,1,0.059193697,1,-0.023226127,1,0.002167198,1,0.231179267,1,-0.477189422,1,-0.254165947,1
1.539993644,-4.43109417,1,-2.160054207,1,-8.463132858,1,0.054283939,1,-0.021473084,1,-0.003226549,1,0.231410474,1,-0.477280855,1,-0.254185438,1
1.543995142,-4.410433292,1,-2.160749674,1,-8.532097816,1,0.054853249,1,-0.022730194,1,0.000802583,1,0.231651112,1,-0.477368087,1,-0.254214793,1
1.547992826,-4.470964909,1,-2.180488348,1,-8.517547607,1,0.048697002,1,-0.020400852,1,-0.004879946,1,0.231877491,1,-0.477444202,1,-0.254254043,1
1.551992297,-4.441966057,1,-2.173384666,1,-8.545488358,1,0.056093734,1,-0.023467163,1,-0.005674111,1,0.23211287,1,-0.477517754,1,-0.254298717,1
1.555993915,-4.449224949,1,-2.184143782,1,-8.487673759,1,0.051475123,1,-0.017608976,1,-0.008464093,1,0.232345864,1,-0.477593839,1,-0.254354984,1
1.559991598,-4.413122654,1,-2.119994879,1,-8.501515388,1,0.050514232,1,-0.023892533,1,-0.013525769,1,0.232582003,1,-0.477661371,1,-0.254416168,1
1.56399107,-4.401446342,1,-2.162079573,1,-8.499973297,1,0.055504687,1,-0.018943392,1,-0.013139143,1,0.23282586,1,-0.477731586,1,-0.254491776,1
1.567998409,-4.431670189,1,-2.101638317,1,-8.531871796,1,0.055216078,1,-0.020682216,1,-0.01729947,1,0.233088568,1,-0.477800488,1,-0.254579335,1
1.572002053,-4.403294563,1,-2.178123951,1,-8.499481201,1,0.054330505,1,-0.021869645,1,-0.018841736,1,0.233348995,1,-0.47786212,1,-0.254678458,1
1.576001763,-4.408576012,1,-2.177686453,1,-8.507605553,1,0.05365552,1,-0.020791912,1,-0.019323826,1,0.233613342,1,-0.477936,1,-0.25478676,1
1.580003381,-4.446697712,1,-2.181411743,1,-8.460849762,1,0.051263385,1,-0.018971093,1,-0.023444308,1,0.233872414,1,-0.478001028,1,-0.254895747,1
1.584000826,-4.39679575,1,-2.254817009,1,-8.448272705,1,0.054499719,1,-0.022594465,1,-0.019888662,1,0.234145984,1,-0.478059888,1,-0.255017102,1
1.588000298,-4.424017429,1,-2.280220985,1,-8.471939087,1,0.051712032,1,-0.023031177,1,-0.023560895,1,0.234403521,1,-0.478124261,1,-0.255144894,1
1.592001796,-4.414138317,1,-2.182108164,1,-8.498445511,1,0.049674988,1,-0.02203618,1,-0.025956232,1,0.234663397,1,-0.478188336,1,-0.255271047,1
1.595999479,-4.39270401,1,-2.215540171,1,-8.474170685,1,0.047735631,1,-0.021481274,1,-0.025050044,1,0.234918088,1,-0.47824955,1,-0.25540477,1
1.599998951,-4.398736477,1,-2.191256046,1,-8.473118782,1,0.046149593,1,-0.022697067,1,-0.028147174,1,0.235169157,1,-0.478318036,1,-0.255550444,1
1.604000568,-4.414415359,1,-2.187663317,1,-8.495057106,1,0.04428051,1,-0.024230365,1,-0.027344435,1,0.235413879,1,-0.478378981,1,-0.25569278,1
1.607998252,-4.397381783,1,-2.203464985,1,-8.479001999,1,0.045226857,1,-0.023361104,1,-0.028133577,1,0.23565802,1,-0.478438765,1,-0.255837053,1
1.611997724,-4.427248478,1,-2.225532055,1,-8.437666893,1,0.042217635,1,-0.024274778,1,-0.030900981,1,0.235911235,1,-0.478498697,1,-0.255995512,1
1.615999222,-4.450765133,1,-2.265426159,1,-8.470220566,1,0.04451618,1,-0.023310965,1,-0.027913813,1,0.236152366,1,-0.478558958,1,-0.256147563,1
1.619996905,-4.412439823,1,-2.239643097,1,-8.454044342,1,0.038412273,1,-0.024778595,1,-0.026726728,1,0.236385599,1,-0.478618294,1,-0.256296635,1
1.623996377,-4.423362732,1,-2.304857254,1,-8.474681854,1,0.038588535,1,-0.023694424,1,-0.028936144,1,0.236613229,1,-0.478675246,1,-0.256446034,1
1.627998233,-4.438995361,1,-2.288348436,1,-8.439983368,1,0.035727855,1,-0.019525824,1,-0.029469982,1,0.236835629,1,-0.4787229,1,-0.256597608,1
1.631995916,-4.413905621,1,-2.280926704,1,-8.450666428,1,0.035398014,1,-0.019348936,1,-0.030312492,1,0.237048388,1,-0.478769302,1,-0.256742209,1
1.635995388,-4.382060528,1,-2.285926342,1,-8.466759682,1,0.035953283,1,-0.019201385,1,-0.030842178,1,0.237256676,1,-0.47882542,1,-0.256892115,1
1.639996886,-4.393204689,1,-2.234261751,1,-8.433819771,1,0.032700904,1,-0.021785531,1,-0.030141078,1,0.237461358,1,-0.478873432,1,-0.257041186,1
1.64399457,-4.414968014,1,-2.258966684,1,-8.447541237,1,0.031465732,1,-0.018294457,1,-0.030718714,1,0.237663031,1,-0.478923976,1,-0.257197559,1
1.647994161,-4.382828712,1,-2.312043905,1,-8.438324928,1,0.028907347,1,-0.019822497,1,-0.029519221,1,0.237855196,1,-0.478970319,1,-0.257345825,1
1.651995659,-4.354094982,1,-2.305152178,1,-8.420776367,1,0.025945721,1,-0.0189548,1,-0.028680444,1,0.238027945,1,-0.47901994,1,-0.257489264,1
1.655993104,-4.442110538,1,-2.341989994,1,-8.448171616,1,0.023839744,1,-0.016255371,1,-0.026229301,1,0.238185212,1,-0.479067713,1,-0.257620722,1
1.659992576,-4.42630434,1,-2.314589977,1,-8.435118675,1,0.020498054,1,-0.016119665,1,-0.023246318,1,0.238327473,1,-0.479097456,1,-0.257744372,1
1.663994074,-4.38957119,1,-2.305468321,1,-8.449656487,1,0.014800273,1,-0.015635543,1,-0.023573734,1,0.238464475,1,-0.479138374,1,-0.2578668,1
1.667997479,-4.375802994,1,-2.318651915,1,-8.419942856,1,0.016687457,1,-0.01372443,1,-0.020470385,1,0.238576427,1,-0.479174197,1,-0.257980317,1
1.67199719,-4.463043213,1,-2.365149021,1,-8.424836159,1,0.009872337,1,-0.013363928,1,-0.018873746,1,0.238685325,1,-0.479213178,1,-0.25808996,1
1.675998688,-4.429415226,1,-2.326726675,1,-8.411876678,1,0.007757398,1,-0.012473725,1,-0.018874869,1,0.238768786,1,-0.479243129,1,-0.258182466,1
1.679996371,-4.436552525,1,-2.293140888,1,-8.437560081,1,0.007042271,1,-0.013193495,1,-0.016265517,1,0.23884441,1,-0.479272991,1,-0.258275777,1
1.683995962,-4.434499741,1,-2.297051668,1,-8.420845032,1,0.006251139,1,-0.00964656,1,-0.017063094,1,0.238900751,1,-0.479301929,1,-0.258358657,1
1.68799746,-4.433383942,1,-2.294399261,1,-8.457051277,1,0.004247156,1,-0.00672882,1,-0.013522538,1,0.238951996,1,-0.479328573,1,-0.258433282,1
1.691995144,-4.443420887,1,-2.32907176,1,-8.432012558,1,0.005080387,1,-0.015384872,1,-0.017264917,1,0.238996416,1,-0.479345441,1,-0.258503407,1
1.695994616,-4.423316002,1,-2.316602945,1,-8.415561676,1,0.004174171,1,-0.009777325,1,-0.009664838,1,0.239037544,1,-0.479376316,1,-0.258569539,1
1.699996114,-4.434258461,1,-2.346296072,1,-8.432584763,1,0.000288266,1,-0.008515621,1,-0.011022182,1,0.239061028,1,-0.479398131,1,-0.25862661,1
1.703993797,-4.417878151,1,-2.285847187,1,-8.458396912,1,-0.000582824,1,-0.008070217,1,-0.006675432,1,0.23907578,1,-0.479419708,1,-0.258673102,1
1.707993388,-4.427521229,1,-2.315371275,1,-8.471776009,1,0.003961698,1,-0.007679907,1,-0.007897924,1,0.239098668,1,-0.47944209,1,-0.25870347,1
1.711994886,-4.393428326,1,-2.26776576,1,-8.460172653,1,0.001442162,1,-0.009867042,1,-0.000294425,1,0.239123657,1,-0.47946763,1,-0.258721143,1
1.71599257,-4.414347649,1,-2.303955317,1,-8.43006134,1,0.006778243,1,-0.007574824,1,-0.00063511,1,0.239142865,1,-0.479497731,1,-0.258743554,1
1.719992042,-4.441954136,1,-2.340033054,1,-8.458423615,1,0.001606998,1,-0.005126676,1,-0.000325531,1,0.23915939,1,-0.479519933,1,-0.258749515,1
1.723993897,-4.410109043,1,-2.308989763,1,-8.458817482,1,0.007568514,1,-0.008737278,1,0.003239576,1,0.239179328,1,-0.479553372,1,-0.25874868,1
1.727991581,-4.428246975,1,-2.300223827,1,-8.481570244,1,0.016253226,1,-0.00975067,1,0.009562369,1,0.23921825,1,-0.479598522,1,-0.258730263,1
1.731991053,-4.424764633,1,-2.296737671,1,-8.494385719,1,0.021874415,1,-0.009505228,1,0.014197566,1,0.239267319,1,-0.479646027,1,-0.258685559,1
1.735992551,-4.425629139,1,-2.290282488,1,-8.484901428,1,0.033412669,1,-0.011881125,1,0.020298466,1,0.239358068,1,-0.479712993,1,-0.258624345,1
1.739990234,-4.423911095,1,-2.28514576,1,-8.481427193,1,0.039084464,1,-0.016493464,1,0.020828381,1,0.239902541,1,-0.479427546,1,-0.259021133,1
1.743990064,-4.437928677,1,-2.261180162,1,-8.488939285,1,0.042178314,1,-0.018036321,1,0.025551744,1,0.240014791,1,-0.479515046,1,-0.258934081,1
1.747991562,-4.436177254,1,-2.292579174,1,-8.4363451,1,0.0395642,1,-0.018113341,1,0.025696618,1,0.240128562,1,-0.479616731,1,-0.258839101,1
1.751989245,-4.426158905,1,-2.338247538,1,-8.442091942,1,0.040318336,1,-0.015127173,1,0.031154836,1,0.240251184,1,-0.47970885,1,-0.258735418,1
1.755988717,-4.429384708,1,-2.299258232,1,-8.482788086,1,0.047660384,1,-0.019781783,1,0.031679504,1,0.240381047,1,-0.479802817,1,-0.258622527,1
1.759990215,-4.439469814,1,-2.290156364,1,-8.461540222,1,0.051013473,1,-0.019728381,1,0.038190171,1,0.240517214,1,-0.479910523,1,-0.258491278,1
1.763993621,-4.442246437,1,-2.278665543,1,-8.424275398,1,0.048231028,1,-0.018583022,1,0.034085646,1,0.240652367,1,-0.480010539,1,-0.258361071,1
1.767993331,-4.485337734,1,-2.271997213,1,-8.470736504,1,0.047248743,1,-0.01919678,1,0.036694296,1,0.240773946,1,-0.480115086,1,-0.258218676,1
1.771994829,-4.468443871,1,-2.259814501,1,-8.432389259,1,0.041960128,1,-0.017319076,1,0.031454988,1,0.240889862,1,-0.480217278,1,-0.258093417,1
1.775992632,-4.475833416,1,-2.255609035,1,-8.466892242,1,0.036821507,1,-0.014612358,1,0.033385783,1,0.240998268,1,-0.480298549,1,-0.257974148,1
1.779992104,-4.418347836,1,-2.270171642,1,-8.4184618,1,0.032875713,1,-0.012332126,1,0.02870895,1,0.241086319,1,-0.480384022,1,-0.257859409,1
1.783993602,-4.482497215,1,-2.282321453,1,-8.430894852,1,0.029369049,1,-0.010227423,1,0.025208207,1,0.241161212,1,-0.480458379,1,-0.257762551,1
1.787991285,-4.476224899,1,-2.26559329,1,-8.457489967,1,0.021837348,1,-0.012881631,1,0.022699079,1,0.241223142,1,-0.480519921,1,-0.25766331,1
1.791990757,-4.433184147,1,-2.198680162,1,-8.455521584,1,0.021461396,1,-0.006900413,1,0.017685508,1,0.241264597,1,-0.480583429,1,-0.25757876,1
1.795992017,-4.425490379,1,-2.228074789,1,-8.426585197,1,0.015188422,1,-0.012145001,1,0.01762424,1,0.241305143,1,-0.480636269,1,-0.257508665,1
1.79998982,-4.422339916,1,-2.292005301,1,-8.445813179,1,0.011917516,1,-0.008512814,1,0.016175302,1,0.241332993,1,-0.480697185,1,-0.25744465,1
1.803989291,-4.429697514,1,-2.322685957,1,-8.417294502,1,0.004863833,1,-0.007746698,1,0.015933938,1,0.241343379,1,-0.480738729,1,-0.257392973,1
1.807991028,-4.414969444,1,-2.301677227,1,-8.425833702,1,0.00357765,1,-0.010678433,1,0.014599385,1,0.241335362,1,-0.480787963,1,-0.257339209,1
1.811988711,-4.394590855,1,-2.280793667,1,-8.4115448,1,-0.004534364,1,-0.00974755,1,0.013002342,1,0.241310135,1,-0.480838001,1,-0.257294029,1
1.815987945,-4.426559448,1,-2.271894455,1,-8.452404022,1,-0.012066838,1,-0.00601127,1,0.012847085,1,0.241261914,1,-0.480880022,1,-0.257245153,1
1.819989562,-4.439601898,1,-2.288862944,1,-8.411209106,1,-0.011457883,1,-0.00785522,1,0.01086177,1,0.241205901,1,-0.480926067,1,-0.257211298,1
1.823987246,-4.464019299,1,-2.317737341,1,-8.430025101,1,-0.015304159,1,-0.004572466,1,0.010073532,1,0.241131008,1,-0.480966836,1,-0.257167697,1
1.827986717,-4.459054947,1,-2.259929657,1,-8.45480442,1,-0.016470846,1,-0.009970261,1,0.012447012,1,0.241043478,1,-0.481003314,1,-0.257126898,1
1.831988215,-4.476458549,1,-2.237830639,1,-8.469220161,1,-0.015103403,1,-0.004003948,1,0.008592566,1,0.2409641,1,-0.481038839,1,-0.257092893,1
1.835985661,-4.457304955,1,-2.206161737,1,-8.472205162,1,-0.019191854,1,-0.006914495,1,0.005096526,1,0.240873277,1,-0.481070638,1,-0.257065147,1
1.839985371,-4.455499649,1,-2.214599609,1,-8.467391968,1,-0.019996988,1,-0.006758071,1,0.002056488,1,0.240783155,1,-0.481097877,1,-0.257044464,1
1.843986988,-4.455609798,1,-2.226648569,1,-8.465044022,1,-0.020091189,1,-0.008521168,1,0.002819267,1,0.240701258,1,-0.481126547,1,-0.257033259,1
1.847984433,-4.439817905,1,-2.257407904,1,-8.476666451,1,-0.022244031,1,-0.01057468,1,0.004038721,1,0.240613475,1,-0.481163472,1,-0.257029474,1
1.851983905,-4.380021572,1,-2.260156393,1,-8.422703743,1,-0.019057935,1,-0.004297531,1,-0.000871423,1,0.240529731,1,-0.48118937,1,-0.257028133,1
1.855985403,-4.428702831,1,-2.320524216,1,-8.431761742,1,-0.01748058,1,-0.007997641,1,0.002433355,1,0.240450248,1,-0.481221557,1,-0.257023901,1
1.859982848,-4.438391209,1,-2.309950352,1,-8.437678337,1,-0.027980248,1,-0.009566959,1,0.005399706,1,0.240356594,1,-0.481260568,1,-0.257022798,1
1.863988996,-4.393219471,1,-2.293759823,1,-8.419039726,1,-0.025262872,1,-0.010850057,1,0.001815022,1,0.240252063,1,-0.481300294,1,-0.257020473,1
1.867991328,-4.410746098,1,-2.292104959,1,-8.43377018,1,-0.030589951,1,-0.010881824,1,0.003569593,1,0.240128905,1,-0.481345594,1,-0.257009447,1
1.871989727,-4.430188179,1,-2.27092433,1,-8.454458237,1,-0.035171341,1,-0.011265626,1,0.00355069,1,0.239997506,1,-0.481394589,1,-0.257001907,1
1.875989199,-4.434455872,1,-2.269838333,1,-8.438809395,1,-0.037895057,1,-0.009319553,1,0.007125165,1,0.239848092,1,-0.481442392,1,-0.256991565,1
1.879990816,-4.454678059,1,-2.285201073,1,-8.448234558,1,-0.042634651,1,-0.011982307,1,0.00458243,1,0.239687696,1,-0.481495798,1,-0.256988287,1
1.883988738,-4.442424297,1,-2.323472261,1,-8.445250511,1,-0.045518301,1,-0.010876453,1,0.006775791,1,0.239508927,1,-0.481544316,1,-0.256966949,1
1.88798821,-4.41340971,1,-2.342101812,1,-8.445150375,1,-0.05005252,1,-0.01175287,1,0.007374353,1,0.239316866,1,-0.481590569,1,-0.256955951,1
1.891989708,-4.462351322,1,-2.328257799,1,-8.429854393,1,-0.051982302,1,-0.009499185,1,0.006806663,1,0.239095703,1,-0.481643736,1,-0.256935447,1
1.895987511,-4.433220387,1,-2.313483953,1,-8.463589668,1,-0.052964453,1,-0.010472668,1,0.006308376,1,0.238868862,1,-0.48169288,1,-0.256910324,1
1.899986982,-4.434456825,1,-2.278607845,1,-8.44268322,1,-0.05965041,1,-0.011555472,1,0.011732107,1,0.238633022,1,-0.481751531,1,-0.256884217,1
1.903988481,-4.460195065,1,-2.285158634,1,-8.453946114,1,-0.059698239,1,-0.012346324,1,0.009974137,1,0.238375813,1,-0.481806666,1,-0.256845683,1
1.907986164,-4.484415054,1,-2.277101994,1,-8.443167686,1,-0.064823784,1,-0.010480303,1,0.007307593,1,0.238128662,1,-0.481861889,1,-0.256812543,1
1.911985636,-4.468768597,1,-2.318779707,1,-8.449417114,1,-0.066885106,1,-0.011922838,1,0.014718884,1,0.237849817,1,-0.481916547,1,-0.256766528,1
1.915987253,-4.461294174,1,-2.291744947,1,-8.433866501,1,-0.06892366,1,-0.007441852,1,0.016984541,1,0.237549216,1,-0.481964558,1,-0.256700933,1
1.919984937,-4.439778805,1,-2.262930393,1,-8.441461563,1,-0.07087525,1,-0.013270089,1,0.01797686,1,0.237237826,1,-0.482019901,1,-0.25664261,1
1.923984408,-4.442951679,1,-2.22449708,1,-8.526249886,1,-0.069363169,1,-0.009069378,1,0.019898022,1,0.236922681,1,-0.482081383,1,-0.256568104,1
1.927985907,-4.471026897,1,-2.216428041,1,-8.475064278,1,-0.070484802,1,-0.010524552,1,0.017576847,1,0.236610964,1,-0.482151091,1,-0.256505758,1
1.93198359,-4.455914021,1,-2.249567032,1,-8.467384338,1,-0.071185105,1,-0.012736291,1,0.016782522,1,0.236298069,1,-0.482216537,1,-0.256440669,1
1.935983062,-4.46312809,1,-2.255927086,1,-8.491876602,1,-0.06703674,1,-0.015277831,1,0.017399525,1,0.235983744,1,-0.482294828,1,-0.256371558,1
1.939984679,-4.469802856,1,-2.26890564,1,-8.449361801,1,-0.068992548,1,-0.014199743,1,0.020061798,1,0.235679343,1,-0.482368112,1,-0.256302059,1
1.943982124,-4.424690723,1,-2.229470491,1,-8.4563694,1,-0.069863699,1,-0.017467007,1,0.020433858,1,0.235371411,1,-0.482444614,1,-0.256224453,1
1.947981834,-4.477229118,1,-2.208151102,1,-8.483156204,1,-0.067647107,1,-0.015325861,1,0.01970336,1,0.235062078,1,-0.482529789,1,-0.256155849,1
1.951983333,-4.480482101,1,-2.197835207,1,-8.48032856,1,-0.064580627,1,-0.01696372,1,0.021587763,1,0.234763831,1,-0.482616842,1,-0.256073326,1
1.955981016,-4.470685005,1,-2.182177782,1,-8.484131813,1,-0.064325526,1,-0.013705909,1,0.024473147,1,0.23447901,1,-0.482701242,1,-0.25599584,1
1.959986925,-4.472620487,1,-2.203345776,1,-8.492929459,1,-0.059236769,1,-0.013898432,1,0.022161428,1,0.234184563,1,-0.482774138,1,-0.25590989,1
1.963988781,-4.479804993,1,-2.190303326,1,-8.497588158,1,-0.058178522,1,-0.015141943,1,0.021779269,1,0.233920127,1,-0.482845247,1,-0.255837113,1
1.967986703,-4.46791172,1,-2.217826366,1,-8.464357376,1,-0.055382714,1,-0.01354849,1,0.021645676,1,0.233649626,1,-0.48292467,1,-0.255762756,1
1.971986175,-4.457945824,1,-2.223979712,1,-8.462639809,1,-0.057908744,1,-0.01573981,1,0.022374682,1,0.233389303,1,-0.482993454,1,-0.255678862,1
1.975987673,-4.446510315,1,-2.21364069,1,-8.474907875,1,-0.055912048,1,-0.009415632,1,0.024180111,1,0.233127818,1,-0.483065158,1,-0.255596101,1
1.979985356,-4.47663784,1,-2.180753231,1,-8.498703003,1,-0.051778376,1,-0.010644339,1,0.02460761,1,0.232875019,1,-0.483135939,1,-0.255509734,1
1.983991265,-4.477188587,1,-2.114328384,1,-8.484659195,1,-0.047583766,1,-0.014980154,1,0.016584875,1,0.232631072,1,-0.483213425,1,-0.255428374,1
1.987993121,-4.471539021,1,-2.103713989,1,-8.510891914,1,-0.044147611,1,-0.018765273,1,0.019061597,1,0.232926682,1,-0.483019888,1,-0.25636512,1
1.991991282,-4.439795017,1,-2.114588022,1,-8.496014595,1,-0.043445602,1,-0.018933406,1,0.020640617,1,0.232655987,1,-0.482995987,1,-0.255740643,1
1.995990753,-4.458014488,1,-2.116401434,1,-8.504331589,1,-0.035689432,1,-0.014106452,1,0.013873374,1,0.232475758,1,-0.483071923,1,-0.255687445,1
1.999992609,-4.505548954,1,-2.129610062,1,-8.505267143,1,-0.033695344,1,-0.019084763,1,0.016616147,1,0.23231858,1,-0.483148873,1,-0.255635142,1
2.003990173,-4.467031956,1,-2.098175526,1,-8.513216019,1,-0.022914499,1,-0.019813074,1,0.015873782,1,0.232175544,1,-0.48323983,1,-0.255589902,1
2.007989645,-4.486609936,1,-2.126360655,1,-8.479016304,1,-0.024474934,1,-0.025369141,1,0.013520924,1,0.232052475,1,-0.483337134,1,-0.255544662,1
2.011991262,-4.45149374,1,-2.130161047,1,-8.507738113,1,-0.023199152,1,-0.020805489,1,0.013425999,1,0.231948629,1,-0.483437777,1,-0.255517274,1
2.015989065,-4.462535381,1,-2.173231602,1,-8.483365059,1,-0.020323588,1,-0.022729374,1,0.010427925,1,0.231850713,1,-0.48353526,1,-0.255482763,1
2.019988298,-4.485439777,1,-2.202754498,1,-8.486865044,1,-0.01853871,1,-0.023355577,1,0.013490678,1,0.231766701,1,-0.483633548,1,-0.255457193,1
2.023989677,-4.481297493,1,-2.156403303,1,-8.513128281,1,-0.020139346,1,-0.021796996,1,0.015115536,1,0.231678084,1,-0.483737022,1,-0.255422086,1
2.02798748,-4.450563908,1,-2.150894403,1,-8.487306595,1,-0.020712256,1,-0.02250246,1,0.012047634,1,0.231588855,1,-0.483843327,1,-0.25539428,1
2.03198719,-4.492611885,1,-2.178719282,1,-8.473749161,1,-0.016273331,1,-0.022492554,1,0.014702866,1,0.231498688,1,-0.483946562,1,-0.255363613,1
2.035988808,-4.474615097,1,-2.118825436,1,-8.464515686,1,-0.013934813,1,-0.022722948,1,0.012935543,1,0.231419638,1,-0.484042883,1,-0.255327046,1
2.039986134,-4.519027233,1,-2.114050388,1,-8.473161697,1,-0.014889959,1,-0.022475617,1,0.012889192,1,0.231346413,1,-0.484144628,1,-0.255307704,1
2.043985605,-4.479125977,1,-2.104853868,1,-8.466515541,1,-0.011485258,1,-0.019911177,1,0.008617659,1,0.231286228,1,-0.484237581,1,-0.255285561,1
2.047987223,-4.48906517,1,-2.107013226,1,-8.44713974,1,-0.009239836,1,-0.019315001,1,0.005924309,1,0.231237516,1,-0.484322846,1,-0.255269855,1
2.051984787,-4.537480354,1,-2.143521786,1,-8.450829506,1,-0.005463934,1,-0.018485343,1,0.010446406,1,0.231197342,1,-0.484401107,1,-0.255253404,1
2.055990458,-4.498512745,1,-2.134181738,1,-8.39206028,1,-0.005748486,1,-0.013737018,1,0.007552956,1,0.231165662,1,-0.484473825,1,-0.255237222,1
2.059992075,-4.473698616,1,-2.199310064,1,-8.456284523,1,-0.005157023,1,-0.014069254,1,0.009415396,1,0.231122375,1,-0.48453936,1,-0.255212754,1
2.063989401,-4.510336399,1,-2.238337517,1,-8.461636543,1,0.00397869,1,-0.014073214,1,0.012132498,1,0.231094837,1,-0.484601766,1,-0.255176246,1
2.067989111,-4.5187397,1,-2.202237844,1,-8.411031723,1,0.003301852,1,-0.01245766,1,0.014869341,1,0.231093153,1,-0.484673619,1,-0.2551364,1
2.07199049,-4.508748531,1,-2.174129725,1,-8.422616005,1,0.000444962,1,-0.008284871,1,0.017551068,1,0.231073782,1,-0.484731317,1,-0.255079448,1
2.075988293,-4.529577255,1,-2.17621851,1,-8.410838127,1,0.003329539,1,-0.009210763,1,0.014893298,1,0.231059328,1,-0.484777659,1,-0.255025923,1
2.079987764,-4.503320694,1,-2.183799744,1,-8.401857376,1,-0.000188683,1,-0.007341805,1,0.009948568,1,0.231043503,1,-0.484818518,1,-0.254978985,1
2.083989143,-4.538531303,1,-2.149710894,1,-8.433969498,1,0.00044008,1,-0.004012144,1,0.013191625,1,0.231018856,1,-0.484850109,1,-0.254930943,1
2.087986946,-4.51328373,1,-2.194294214,1,-8.397826195,1,0.001124137,1,-0.000668547,1,0.010512808,1,0.231006593,1,-0.484864593,1,-0.254882872,1
2.091986418,-4.508535862,1,-2.199416637,1,-8.408457756,1,-0.002790122,1,0.004119355,1,0.010777598,1,0.230981246,1,-0.484858513,1,-0.254836321,1
2.095988035,-4.500805378,1,-2.219462395,1,-8.418122292,1,-0.00477839,1,0.005388793,1,0.011090307,1,0.230935887,1,-0.484852493,1,-0.25477308,1
2.0999856,-4.529715061,1,-2.262320757,1,-8.425803185,1,-0.008947135,1,0.008741132,1,0.012408456,1,0.230886146,1,-0.484837323,1,-0.254711032,1
2.103985071,-4.48839283,1,-2.207213402,1,-8.430565834,1,-0.009246943,1,0.012504345,1,0.014431341,1,0.23082678,1,-0.48481527,1,-0.254650116,1
2.107986689,-4.510120392,1,-2.231654644,1,-8.419726372,1,-0.011652105,1,0.010843504,1,0.012236586,1,0.230744094,1,-0.484788239,1,-0.254576415,1
2.111984491,-4.467772484,1,-2.248095036,1,-8.447207451,1,-0.019396653,1,0.01271666,1,0.014284901,1,0.230646074,1,-0.484752983,1,-0.254494995,1
2.115983725,-4.471883774,1,-2.245623589,1,-8.44181633,1,-0.016926868,1,0.011856246,1,0.014287517,1,0.230541036,1,-0.484716892,1,-0.254419535,1
2.119985104,-4.494390965,1,-2.232180119,1,-8.440447807,1,-0.018742155,1,0.018212669,1,0.012287399,1,0.230430931,1,-0.484676063,1,-0.254333526,1
2.123982906,-4.472815037,1,-2.197685719,1,-8.476798058,1,-0.023491107,1,0.014254199,1,0.018228777,1,0.230302885,1,-0.484628856,1,-0.25424543,1
2.127982616,-4.462190628,1,-2.213033199,1,-8.430633545,1,-0.025119105,1,0.011732502,1,0.017672077,1,0.23016876,1,-0.484590232,1,-0.254139602,1
2.131984234,-4.455090523,1,-2.21275568,1,-8.45468998,1,-0.023675401,1,0.01484949,1,0.022202259,1,0.23001568,1,-0.484559357,1,-0.254030913,1
2.13598156,-4.478807449,1,-2.25124979,1,-8.459654808,1,-0.031423893,1,0.010304502,1,0.018947111,1,0.229851171,1,-0.484522074,1,-0.253925413,1
2.139981031,-4.463385582,1,-2.2235291,1,-8.473182678,1,-0.030557726,1,0.011447631,1,0.028161842,1,0.229680985,1,-0.484499007,1,-0.253812104,1
2.143982649,-4.448680878,1,-2.173609734,1,-8.453783035,1,-0.030905517,1,0.012349851,1,0.020981897,1,0.229500726,1,-0.484466463,1,-0.253697664,1
2.147979975,-4.47880888,1,-2.144854307,1,-8.49310112,1,-0.03387887,1,0.017031055,1,0.023666939,1,0.229312092,1,-0.48442784,1,-0.25358516,1
2.151979446,-4.484554291,1,-2.152510166,1,-8.485975266,1,-0.035660811,1,0.008655576,1,0.023443528,1,0.229116172,1,-0.484399736,1,-0.25347054,1
2.155987263,-4.485557079,1,-2.141462803,1,-8.478279114,1,-0.035618708,1,0.0149123,1,0.022359055,1,0.22892119,1,-0.484374046,1,-0.253359586,1
2.159991264,-4.492498875,1,-2.167430639,1,-8.476904869,1,-0.033078097,1,0.009104924,1,0.024232268,1,0.228728607,1,-0.484343559,1,-0.253248781,1
2.163991213,-4.450362206,1,-2.156040907,1,-8.490350723,1,-0.035572886,1,0.014015085,1,0.020046253,1,0.228550628,1,-0.484319568,1,-0.253143668,1
2.16799283,-4.44474411,1,-2.160184622,1,-8.507205009,1,-0.031151095,1,0.012791006,1,0.024444092,1,0.228373349,1,-0.484291255,1,-0.253030837,1
2.171990871,-4.491686344,1,-2.187319279,1,-8.474789619,1,-0.024773803,1,0.009163351,1,0.02091416,1,0.228201315,1,-0.48427245,1,-0.252915531,1
2.175990343,-4.467527866,1,-2.206833363,1,-8.486433983,1,-0.019431971,1,0.006642038,1,0.029963292,1,0.22805123,1,-0.484268039,1,-0.252786547,1
2.179991722,-4.48802948,1,-2.157458305,1,-8.488062859,1,-0.017136762,1,0.002965633,1,0.031585634,1,0.22790958,1,-0.48427245,1,-0.252639025,1
2.183989525,-4.49186182,1,-2.146883488,1,-8.458264351,1,-0.012136488,1,0.004752082,1,0.032925747,1,0.227792293,1,-0.484278619,1,-0.252494603,1
2.187988997,-4.460916042,1,-2.111370087,1,-8.51521492,1,-0.005915006,1,0.003571714,1,0.036332395,1,0.227682635,1,-0.484294891,1,-0.2523399,1
2.191990852,-4.476324558,1,-2.145440578,1,-8.49186039,1,-0.003729051,1,0.003430784,1,0.033877991,1,0.227592647,1,-0.484308541,1,-0.25217849,1
2.195988417,-4.485870361,1,-2.163873911,1,-8.506790161,1,0.00967668,1,0.004702331,1,0.0390139,1,0.227529302,1,-0.484334499,1,-0.252009869,1
2.199987888,-4.50279665,1,-2.170729399,1,-8.459354401,1,0.007573758,1,0.005491959,1,0.041008152,1,0.227479279,1,-0.484365046,1,-0.25183472,1
2.203989506,-4.490767002,1,-2.173922777,1,-8.47933197,1,0.010822891,1,0.001005081,1,0.040166173,1,0.227432415,1,-0.484380484,1,-0.25165534,1
2.207987309,-4.497674942,1,-2.153170109,1,-8.459184647,1,0.016331624,1,0.00586223,1,0.043016307,1,0.227390066,1,-0.484407514,1,-0.251461416,1
2.21198678,-4.450165272,1,-2.193032026,1,-8.507254601,1,0.020259084,1,0.000500828,1,0.049621813,1,0.227363229,1,-0.484435201,1,-0.251262188,1
2.215988159,-4.463959694,1,-2.218698263,1,-8.484840393,1,0.028268725,1,-0.001909344,1,0.052848656,1,0.227351755,1,-0.484480888,1,-0.251033515,1
2.219985962,-4.473343372,1,-2.191946507,1,-8.477980614,1,0.036155436,1,-0.002805523,1,0.062938809,1,0.227364227,1,-0.484538347,1,-0.250786394,1
2.223985434,-4.486503601,1,-2.163823366,1,-8.475999832,1,0.041200433,1,-0.006105525,1,0.063265525,1,0.227399155,1,-0.48461026,1,-0.250522226,1
2.227987051,-4.48943758,1,-2.121052504,1,-8.467754364,1,0.041456692,1,-0.000617261,1,0.061178159,1,0.227441549,1,-0.484675139,1,-0.250259042,1
2.231984377,-4.521361351,1,-2.101277113,1,-8.425815582,1,0.043841198,1,-0.001406982,1,0.060293678,1,0.227473617,1,-0.484737426,1,-0.249983907,1
2.235983849,-4.46371603,1,-2.125310659,1,-8.474061012,1,0.03757317,1,-0.004708927,1,0.055013265,1,0.227523297,1,-0.484791756,1,-0.249730214,1
2.239985466,-4.49302721,1,-2.203704357,1,-8.482948303,1,0.03911059,1,-0.003098004,1,0.060453702,1,0.227978662,1,-0.484514296,1,-0.249860838,1
2.24398303,-4.46502161,1,-2.168702364,1,-8.469085693,1,0.035391722,1,-0.003870876,1,0.061476786,1,0.228014901,1,-0.484603405,1,-0.249588996,1
2.247982502,-4.480780125,1,-2.2254529,1,-8.458538055,1,0.041900881,1,-0.003625975,1,0.061790649,1,0.228042573,1,-0.484665841,1,-0.249330699,1
2.251990318,-4.510150909,1,-2.142677546,1,-8.445614815,1,0.036926009,1,0.00044315,1,0.063177414,1,0.228076279,1,-0.484727502,1,-0.249060079,1
2.255994081,-4.498665333,1,-2.133658409,1,-8.462314606,1,0.03308193,1,-0.001582747,1,0.057515435,1,0.228087679,1,-0.484782815,1,-0.248788476,1
2.25999403,-4.485486984,1,-2.086968422,1,-8.486034393,1,0.026160667,1,0.004948625,1,0.057028428,1,0.228087947,1,-0.484835654,1,-0.248537824,1
2.263995647,-4.522016525,1,-2.076824188,1,-8.463739395,1,0.022772733,1,0.003237369,1,0.052346613,1,0.228076994,1,-0.484864861,1,-0.248297185,1
2.267993689,-4.463282585,1,-2.080045938,1,-8.51125145,1,0.022298163,1,0.001868977,1,0.048897348,1,0.228057906,1,-0.484890282,1,-0.248066619,1
2.27199316,-4.4457407,1,-2.191653728,1,-8.478601456,1,0.024518671,1,0.004552636,1,0.054292135,1,0.228048056,1,-0.484917492,1,-0.24784942,1
2.275994539,-4.448665619,1,-2.208752394,1,-8.497456551,1,0.042447641,1,0.002793816,1,0.061219152,1,0.228071064,1,-0.484955966,1,-0.247593269,1
2.279992342,-4.470818996,1,-2.160106659,1,-8.505552292,1,0.053458579,1,0.000747917,1,0.069759481,1,0.228128195,1,-0.485004902,1,-0.247300431,1
2.283991814,-4.457439423,1,-2.1280334,1,-8.46895504,1,0.0545846,1,-0.000492754,1,0.069133796,1,0.228198037,1,-0.485055476,1,-0.247002274,1
2.287993431,-4.468447685,1,-2.082873344,1,-8.47490406,1,0.054776371,1,-0.000315005,1,0.066075176,1,0.228287429,1,-0.485123634,1,-0.246703222,1
2.291990995,-4.452225208,1,-2.056610107,1,-8.464468002,1,0.052591149,1,-0.005169127,1,0.06314873,1,0.228365272,1,-0.485190719,1,-0.246407419,1
2.295990467,-4.455805302,1,-2.078433752,1,-8.493625641,1,0.053820174,1,-0.006123326,1,0.063279249,1,0.22845079,1,-0.48526904,1,-0.246141672,1
2.299992085,-4.475473404,1,-2.182475328,1,-8.459439278,1,0.052082241,1,-0.004457924,1,0.061399877,1,0.228530243,1,-0.485357106,1,-0.245872051,1
2.303989649,-4.497736454,1,-2.198120594,1,-8.447957039,1,0.05494738,1,-0.006733112,1,0.065119497,1,0.228619605,1,-0.485439807,1,-0.245602921,1
2.307989359,-4.50278616,1,-2.168881178,1,-8.446056366,1,0.061673861,1,-0.008445602,1,0.062381499,1,0.228719547,1,-0.485526204,1,-0.24533309,1
2.311990738,-4.491250515,1,-2.113066196,1,-8.458679199,1,0.059711255,1,-0.003683021,1,0.062498286,1,0.228831172,1,-0.485613227,1,-0.245059863,1
2.315988541,-4.554463863,1,-2.087659597,1,-8.452775955,1,0.062724672,1,-0.006524087,1,0.064572208,1,0.228949577,1,-0.485688478,1,-0.244780019,1
2.319988251,-4.536259174,1,-2.097993135,1,-8.46184063,1,0.058122352,1,0.001331988,1,0.062484674,1,0.229072705,1,-0.485762358,1,-0.244518995,1
2.323989868,-4.49575758,1,-2.143835783,1,-8.494738579,1,0.065718502,1,-1.75E-05,1,0.057955492,1,0.229197949,1,-0.485815227,1,-0.244255051,1
2.327987194,-4.504163742,1,-2.159734488,1,-8.480649948,1,0.069421753,1,-0.00077026,1,0.059028458,1,0.229340449,1,-0.485871553,1,-0.243993849,1
2.331986666,-4.520277023,1,-2.155959845,1,-8.498972893,1,0.073038593,1,-0.003120495,1,0.059179727,1,0.229509115,1,-0.485934973,1,-0.243729383,1
2.335988283,-4.508592129,1,-2.165118694,1,-8.470071793,1,0.081237726,1,-0.002407654,1,0.065334894,1,0.22969389,1,-0.486007869,1,-0.243452653,1
2.339985609,-4.510351658,1,-2.169759035,1,-8.49750042,1,0.084055632,1,-0.00137683,1,0.066373073,1,0.229887307,1,-0.486084223,1,-0.243180186,1
2.343985081,-4.470894814,1,-2.244729042,1,-8.510844231,1,0.092296429,1,-0.010705642,1,0.070791692,1,0.230098724,1,-0.48616913,1,-0.242884263,1
2.347992659,-4.456203461,1,-2.38294816,1,-8.54702282,1,0.130878672,1,-0.009670373,1,0.099170409,1,0.23038137,1,-0.486288339,1,-0.242532089,1
2.351996183,-4.404157162,1,-2.311187506,1,-8.6062994,1,0.168045193,1,-0.019912245,1,0.115329795,1,0.23077476,1,-0.486448765,1,-0.242077723,1
2.355995893,-4.453676224,1,-2.188837528,1,-8.58357811,1,0.199645326,1,-0.020937571,1,0.136571616,1,0.231273189,1,-0.486648262,1,-0.241534755,1
2.359997511,-4.599398136,1,-2.263816833,1,-8.545953751,1,0.21986714,1,-0.020319244,1,0.144455329,1,0.231828809,1,-0.486855567,1,-0.240919396,1
2.36399579,-4.358358383,1,-2.113585472,1,-8.56431675,1,0.237114221,1,-0.006066837,1,0.171988368,1,0.232398674,1,-0.487057984,1,-0.240240932,1
2.367995501,-4.576085567,1,-2.059749126,1,-8.64175415,1,0.218564406,1,-0.026778711,1,0.141586855,1,0.233006388,1,-0.48727423,1,-0.23958692,1
2.37199688,-4.669641495,1,-2.094840527,1,-8.51038456,1,0.2254484,1,-0.03591378,1,0.138572931,1,0.23362653,1,-0.487533033,1,-0.239000291,1
2.375994921,-4.533787727,1,-2.13335228,1,-8.623645782,1,0.236347839,1,-0.038364515,1,0.140035823,1,0.234283,1,-0.487805516,1,-0.238435745,1
2.379994392,-4.587704659,1,-2.0321455,1,-8.613177299,1,0.241963923,1,-0.049061663,1,0.133302674,1,0.234985411,1,-0.488102823,1,-0.237874135,1
2.383995533,-4.565070152,1,-2.042626619,1,-8.473413467,1,0.243240267,1,-0.050231796,1,0.121256381,1,0.235714376,1,-0.488414645,1,-0.237357363,1
2.387993336,-4.630321026,1,-2.020617723,1,-8.433943748,1,0.230114922,1,-0.049545124,1,0.109305114,1,0.23645325,1,-0.488724887,1,-0.236895993,1
2.391992807,-4.528289318,1,-2.093239307,1,-8.382990837,1,0.224233717,1,-0.048346337,1,0.096496478,1,0.237162858,1,-0.489011884,1,-0.236490816,1
2.395994425,-4.538848877,1,-2.195574045,1,-8.472673416,1,0.204441816,1,-0.052593119,1,0.086924158,1,0.237849072,1,-0.489297658,1,-0.236129761,1
2.399991989,-4.556620121,1,-2.239378691,1,-8.490672112,1,0.191781521,1,-0.056671351,1,0.081348777,1,0.238491654,1,-0.489588737,1,-0.235807478,1
2.403991461,-4.551409245,1,-2.217215061,1,-8.453842163,1,0.179712608,1,-0.059145529,1,0.077582769,1,0.23910138,1,-0.489900261,1,-0.235511422,1
2.407993317,-4.555340767,1,-2.173370123,1,-8.429299355,1,0.178341806,1,-0.065136924,1,0.078044236,1,0.239686444,1,-0.490215093,1,-0.23522909,1
2.411991119,-4.598637581,1,-2.086241007,1,-8.398629189,1,0.166741744,1,-0.062485591,1,0.066533938,1,0.240249127,1,-0.490529805,1,-0.234974399,1
2.415990829,-4.442486286,1,-2.109807491,1,-8.332567215,1,0.155335635,1,-0.055359334,1,0.062309518,1,0.240790993,1,-0.490811944,1,-0.234753698,1
2.419992685,-4.432522297,1,-2.280267477,1,-8.335771561,1,0.140067413,1,-0.054037478,1,0.055899449,1,0.241277874,1,-0.49108696,1,-0.234548509,1
2.42399025,-4.544091702,1,-2.310040474,1,-8.305075645,1,0.129165366,1,-0.052758086,1,0.049348861,1,0.241730213,1,-0.491353244,1,-0.234366253,1
2.42798996,-4.568493366,1,-2.354288101,1,-8.304852486,1,0.118251801,1,-0.047664501,1,0.044689812,1,0.242147848,1,-0.491592169,1,-0.234213665,1
2.431991816,-4.560391426,1,-2.364231586,1,-8.349684715,1,0.112708248,1,-0.042789303,1,0.046967771,1,0.242536038,1,-0.491814911,1,-0.234057456,1
2.435989618,-4.581145763,1,-2.291672945,1,-8.3640728,1,0.111808337,1,-0.038342226,1,0.047839731,1,0.24291943,1,-0.492009819,1,-0.233906582,1
2.43998909,-4.596071243,1,-2.215760708,1,-8.325418472,1,0.107493535,1,-0.030771948,1,0.042357825,1,0.243279234,1,-0.492188275,1,-0.233746782,1
2.443990469,-4.53250742,1,-2.197133303,1,-8.350196838,1,0.105155714,1,-0.029569719,1,0.033775102,1,0.24363707,1,-0.492342055,1,-0.233612791,1
2.447994471,-4.536286831,1,-2.220800638,1,-8.352596283,1,0.09685833,1,-0.021764558,1,0.034934044,1,0.243981764,1,-0.492474318,1,-0.233498737,1
2.451994181,-4.575323105,1,-2.242237329,1,-8.398346901,1,0.093185104,1,-0.022937695,1,0.028547052,1,0.244309604,1,-0.492591351,1,-0.233395115,1
2.45599556,-4.568371773,1,-2.283062935,1,-8.376328468,1,0.088131994,1,-0.015389878,1,0.02053446,1,0.244626656,1,-0.492688119,1,-0.233309969,1
2.459993362,-4.555182457,1,-2.230837822,1,-8.357945442,1,0.082601041,1,-0.014349913,1,0.02076586,1,0.244932696,1,-0.49277091,1,-0.233238146,1
2.463992834,-4.540587902,1,-2.26268959,1,-8.380862236,1,0.078454472,1,-0.01349334,1,0.015567873,1,0.245218903,1,-0.492837578,1,-0.233182251,1
2.467994452,-4.471786499,1,-2.238472223,1,-8.37816143,1,0.069822282,1,-0.013146177,1,0.009173565,1,0.245505199,1,-0.492900491,1,-0.233145252,1
2.471992254,-4.452384949,1,-2.279183149,1,-8.349528313,1,0.070280142,1,-0.014583835,1,0.005638827,1,0.245771348,1,-0.492973059,1,-0.233115226,1
2.475991488,-4.505878448,1,-2.332790136,1,-8.370091438,1,0.065212093,1,-0.015385594,1,0.014463264,1,0.246021137,1,-0.493043065,1,-0.233078703,1
2.479992867,-4.546797752,1,-2.3141644,1,-8.360695839,1,0.067139968,1,-0.010436051,1,0.011579579,1,0.246264338,1,-0.493108451,1,-0.23304306,1
2.483990431,-4.564698696,1,-2.281862497,1,-8.349297523,1,0.062070072,1,-0.003921771,1,0.012828555,1,0.246506423,1,-0.493152261,1,-0.233007476,1
2.487989902,-4.51735878,1,-2.285623074,1,-8.355902672,1,0.062811173,1,-0.008087454,1,0.010105053,1,0.247143105,1,-0.492930353,1,-0.233813688,1
2.491993666,-4.491855145,1,-2.258876801,1,-8.373318672,1,0.059769191,1,-0.001623315,1,0.005221275,1,0.247301847,1,-0.49285388,1,-0.233238414,1
2.495993137,-4.523413181,1,-2.213872671,1,-8.372708321,1,0.060328394,1,0.003773661,1,0.004619435,1,0.247525409,1,-0.492852539,1,-0.233209372,1
2.499992371,-4.484435081,1,-2.243932724,1,-8.34595871,1,0.055136137,1,0.003543993,1,0.006461924,1,0.247745469,1,-0.492838711,1,-0.233191863,1
2.503994226,-4.497954845,1,-2.299063206,1,-8.315246582,1,0.045964383,1,0.00571726,1,0.001654651,1,0.247944415,1,-0.49283126,1,-0.233172163,1
2.507992029,-4.485630512,1,-2.361330271,1,-8.287631035,1,0.037846521,1,0.003465227,1,0.004181202,1,0.248112127,1,-0.492810845,1,-0.23315686,1
2.511991262,-4.484705925,1,-2.436542273,1,-8.304534912,1,0.031430893,1,0.00759713,1,-0.002553584,1,0.248247474,1,-0.492794603,1,-0.233144462,1
2.515993118,-4.469460487,1,-2.446122169,1,-8.268741608,1,0.018605137,1,0.006269943,1,0.003954336,1,0.248340607,1,-0.492765129,1,-0.233131364,1
2.519990683,-4.524847984,1,-2.485219955,1,-8.285027504,1,0.003527686,1,0.007178551,1,0.007987414,1,0.248380616,1,-0.492747843,1,-0.233104289,1
2.523990154,-4.534346581,1,-2.466198921,1,-8.259893417,1,-0.007592092,1,0.008028915,1,0.00564699,1,0.248370528,1,-0.492728323,1,-0.233072102,1
2.527991772,-4.556838036,1,-2.438386917,1,-8.226436615,1,-0.020972852,1,0.013216976,1,0.010204974,1,0.248291731,1,-0.492684811,1,-0.233023018,1
2.531989336,-4.491782188,1,-2.473675489,1,-8.204181671,1,-0.033269152,1,0.016919168,1,0.014201857,1,0.248150751,1,-0.492631197,1,-0.232961729,1
2.535989046,-4.473442554,1,-2.476975679,1,-8.246623039,1,-0.05044888,1,0.020555584,1,0.015940955,1,0.247942492,1,-0.492576122,1,-0.232877493,1
2.539990425,-4.554899693,1,-2.51040411,1,-8.23203373,1,-0.06449388,1,0.022196315,1,0.020115182,1,0.247660294,1,-0.492508769,1,-0.232768223,1
2.543994188,-4.56300354,1,-2.492579222,1,-8.277950287,1,-0.079108767,1,0.02997639,1,0.025863783,1,0.247314543,1,-0.492434859,1,-0.23264569,1
2.547993898,-4.512131691,1,-2.439826012,1,-8.277153969,1,-0.093702041,1,0.030375874,1,0.023662908,1,0.246899799,1,-0.492333889,1,-0.232507169,1
2.551995754,-4.534450054,1,-2.405094385,1,-8.292778969,1,-0.10448429,1,0.040488534,1,0.024407122,1,0.246432737,1,-0.492230833,1,-0.232355908,1
2.555993557,-4.551964283,1,-2.460189819,1,-8.347672462,1,-0.110066593,1,0.034045085,1,0.030172382,1,0.245917946,1,-0.49211511,1,-0.232189953,1
2.559993029,-4.536744595,1,-2.437621355,1,-8.525090218,1,-0.105951659,1,0.033853643,1,0.035707809,1,0.245395705,1,-0.492006361,1,-0.231998876,1
2.563994646,-4.581143379,1,-2.344812393,1,-8.563250542,1,-0.096860975,1,0.027138533,1,0.04116914,1,0.244890273,1,-0.491923511,1,-0.231793702,1
2.567992687,-4.529456615,1,-2.346515656,1,-8.481414795,1,-0.094081059,1,0.025496457,1,0.042763975,1,0.24440825,1,-0.491859138,1,-0.231586501,1
2.571992159,-4.500160217,1,-2.399246693,1,-8.462170601,1,-0.093866676,1,0.021845359,1,0.047993198,1,0.243923813,1,-0.491813928,1,-0.231360987,1
2.575993299,-4.511619568,1,-2.378576994,1,-8.420748711,1,-0.103119791,1,0.017403269,1,0.052274197,1,0.243417457,1,-0.49179098,1,-0.23112604,1
2.579991102,-4.505144596,1,-2.434621334,1,-8.453371048,1,-0.10858313,1,0.006087136,1,0.055054147,1,0.242876053,1,-0.491792768,1,-0.230883524,1
2.583990574,-4.498512268,1,-2.393817663,1,-8.480437279,1,-0.117651865,1,0.006947846,1,0.054384049,1,0.242302239,1,-0.491820157,1,-0.230629683,1
2.58799243,-4.563652515,1,-2.392368317,1,-8.539111137,1,-0.125530213,1,0.000823625,1,0.062117007,1,0.241693273,1,-0.491867155,1,-0.230367243,1
2.591990232,-4.491314888,1,-2.390834093,1,-8.550777435,1,-0.130030289,1,-0.003573961,1,0.064086802,1,0.241046771,1,-0.491939396,1,-0.230092034,1
2.595989704,-4.456958294,1,-2.452596188,1,-8.525068283,1,-0.142013818,1,-0.013549211,1,0.069159344,1,0.240360841,1,-0.492045671,1,-0.229806572,1
2.59999156,-4.507432938,1,-2.561656713,1,-8.578906059,1,-0.153210342,1,-0.024060797,1,0.081394263,1,0.239623204,1,-0.492196083,1,-0.229498625,1
2.603989363,-4.458889484,1,-2.551740646,1,-8.569116592,1,-0.162320077,1,-0.033374727,1,0.086281985,1,0.238820285,1,-0.492388964,1,-0.22915931,1
2.607989073,-4.472171307,1,-2.607550859,1,-8.555514336,1,-0.181931198,1,-0.04790692,1,0.098323762,1,0.237954244,1,-0.492639691,1,-0.228798881,1
2.611990452,-4.442838192,1,-2.67342782,1,-8.504530907,1,-0.211246878,1,-0.061202362,1,0.103841521,1,0.23698175,1,-0.492937237,1,-0.228404999,1
2.615988016,-4.452954292,1,-2.761001825,1,-8.605197906,1,-0.232332379,1,-0.0731242,1,0.120487615,1,0.235894606,1,-0.493291199,1,-0.227978215,1
2.619987726,-4.441313744,1,-2.813142776,1,-8.57834816,1,-0.265880018,1,-0.078405857,1,0.128731892,1,0.234666377,1,-0.493710607,1,-0.227501169,1
2.623989582,-4.448963642,1,-2.824723482,1,-8.54791832,1,-0.302595913,1,-0.094697051,1,0.148749128,1,0.233283281,1,-0.494190991,1,-0.226987973,1
2.627987146,-4.424553394,1,-2.859664679,1,-8.65144062,1,-0.339022011,1,-0.114511706,1,0.159958899,1,0.231735304,1,-0.494744867,1,-0.226415545,1
2.631986618,-4.391098976,1,-3.012156487,1,-8.792314529,1,-0.38632077,1,-0.138650194,1,0.183738843,1,0.229987279,1,-0.495385259,1,-0.225788087,1
2.635988235,-4.354844093,1,-3.045215368,1,-8.656713486,1,-0.424377382,1,-0.150704846,1,0.20469068,1,0.22802344,1,-0.496128887,1,-0.225067988,1
2.639986038,-4.401493073,1,-3.073451281,1,-8.672614098,1,-0.473581553,1,-0.174500838,1,0.227645442,1,0.2258479,1,-0.496952623,1,-0.224270955,1
2.643991709,-4.453528404,1,-3.250458241,1,-8.822863579,1,-0.524324954,1,-0.195593268,1,0.254584163,1,0.223441184,1,-0.497883677,1,-0.223394305,1
2.647993565,-4.352165222,1,-3.450022221,1,-8.875885963,1,-0.598450065,1,-0.22137621,1,0.293135047,1,0.220713854,1,-0.498941988,1,-0.22239615,1
2.651991606,-4.336405277,1,-3.676808834,1,-8.972318649,1,-0.668169081,1,-0.250941694,1,0.332339674,1,0.217638597,1,-0.500133276,1,-0.221251801,1
2.655991077,-4.421369076,1,-3.828137636,1,-8.994053841,1,-0.73936367,1,-0.283456087,1,0.372448564,1,0.214190111,1,-0.501486123,1,-0.219940424,1
2.659992695,-4.307807922,1,-3.936399937,1,-9.374134064,1,-0.834688187,1,-0.328117609,1,0.411294103,1,0.210344359,1,-0.502997756,1,-0.21848698,1
2.663990259,-3.673877001,1,-2.971974134,1,-10.65671825,1,-0.87971586,1,-0.419304162,1,0.454307735,1,0.206076249,1,-0.504789412,1,-0.216883749,1
2.667989731,-2.720657587,1,-2.199920416,1,-11.46553612,1,-0.609826565,1,-0.544019043,1,0.518748403,1,0.202311799,1,-0.507075727,1,-0.215165779,1
2.671991825,-2.606527567,1,-2.623222589,1,-10.9185133,1,-0.595806062,1,-0.675306678,1,0.60409981,1,0.198986724,1,-0.509908795,1,-0.213217571,1
2.675989866,-3.539662361,1,-3.402956486,1,-11.08391666,1,-0.601108551,1,-0.814405739,1,0.682961941,1,0.195493236,1,-0.513342261,1,-0.2109873,1
2.679989338,-3.786842823,1,-3.643964767,1,-11.25796413,1,-0.589584112,1,-0.925086617,1,0.742266655,1,0.191912204,1,-0.517293096,1,-0.20853892,1
2.683990955,-3.568019152,1,-3.637043953,1,-11.13589573,1,-0.571969151,1,-1.0426898,1,0.812964797,1,0.188263625,1,-0.521737218,1,-0.205883548,1
2.687988758,-3.456338644,1,-3.415380955,1,-11.26400089,1,-0.516268373,1,-1.174938083,1,0.895403087,1,0.184626102,1,-0.526728332,1,-0.202967852,1
2.69198823,-3.521668434,1,-3.035503149,1,-11.26263618,1,-0.441357523,1,-1.291299224,1,0.991378129,1,0.181051195,1,-0.532272995,1,-0.19971253,1
2.695990801,-3.570756197,1,-2.86821413,1,-11.16900635,1,-0.337853998,1,-1.396697164,1,1.101418614,1,0.177613884,1,-0.538312554,1,-0.196044385,1
2.699989319,-3.682692289,1,-3.176261187,1,-11.57041931,1,-0.199218228,1,-1.5074718,1,1.236541867,1,0.174386561,1,-0.54483974,1,-0.191881329,1
2.703988791,-4.47466135,1,-5.759634018,1,-12.69326496,1,-0.199399367,1,-1.621453166,1,1.440852404,1,0.171096891,1,-0.551923275,1,-0.186963782,1
2.707990646,-3.853059769,1,-6.341364384,1,-11.80758953,1,-0.280295312,1,-1.717897534,1,1.551800966,1,0.167121917,1,-0.559524298,1,-0.181305766,1
2.711988211,-3.348785877,1,-5.595493317,1,-10.98588467,1,-0.295538247,1,-1.83860147,1,1.617968798,1,0.162719578,1,-0.567558408,1,-0.175274536,1
2.715987682,-3.481217861,1,-4.029018402,1,-11.43215752,1,-0.230889842,1,-2.001228094,1,1.690593362,1,0.158233091,1,-0.576193571,1,-0.16896373,1
2.719989538,-4.161713123,1,-3.498857975,1,-11.78722668,1,-0.124538042,1,-2.111834049,1,1.781023622,1,0.153874621,1,-0.585417032,1,-0.162311509,1
2.723987103,-5.955747604,1,-4.874380589,1,-11.84422207,1,-0.079249643,1,-2.181633472,1,1.924063683,1,0.149471208,1,-0.595030069,1,-0.155064657,1
2.727986574,-9.6431427,1,-7.312157154,1,-12.92107773,1,-0.280148804,1,-2.13041234,1,1.999727488,1,0.144275904,1,-0.60475117,1,-0.147145569,1
2.731988192,-5.268815994,1,-7.396727085,1,-10.4826107,1,-0.474125952,1,-2.037582874,1,1.976112843,1,0.138070583,1,-0.614091873,1,-0.13896054,1
2.735985994,-4.298667431,1,-5.837810516,1,-11.12689018,1,-0.514697552,1,-2.108386755,1,2.014905691,1,0.131228209,1,-0.623348355,1,-0.130625576,1
2.739991903,-4.299202442,1,-4.796385288,1,-12.37995434,1,-0.484650195,1,-2.121984005,1,2.063040972,1,0.124048099,1,-0.632681906,1,-0.121397249,1
2.743993759,-3.084670544,1,-4.982695103,1,-12.46002483,1,-0.430480242,1,-2.088143826,1,2.082227707,1,0.116847061,1,-0.64202702,1,-0.112406813,1
2.747992039,-2.24600625,1,-5.773738384,1,-12.2519598,1,-0.31530115,1,-2.048455715,1,2.085976601,1,0.109799549,1,-0.651196957,1,-0.103191093,1
2.751991987,-1.127427816,1,-6.946070671,1,-12.16927624,1,-0.234310612,1,-2.008198261,1,2.049062252,1,0.103041708,1,-0.660147309,1,-0.093893588,1
2.755993366,-0.445076019,1,-7.918271065,1,-12.08334827,1,-0.187803492,1,-1.953643441,1,1.970348239,1,0.096545562,1,-0.668837309,1,-0.084714517,1
2.759990931,0.30363965,1,-8.895515442,1,-11.94214821,1,-0.182950124,1,-1.886845469,1,1.829101682,1,0.090326436,1,-0.677203894,1,-0.075922683,1
2.763990641,-0.355148047,1,-8.798763275,1,-12.04676056,1,-0.178487405,1,-1.815729141,1,1.636880875,1,0.084500618,1,-0.685178816,1,-0.067841955,1
2.767992258,-2.408714056,1,-8.305276871,1,-13.29573154,1,-0.055799078,1,-1.635618925,1,1.378654003,1,0.079483122,1,-0.692606151,1,-0.060779713,1
2.771990061,-2.420132875,1,-8.93309021,1,-14.17878151,1,0.114590198,1,-1.321200252,1,1.078335285,1,0.075901188,1,-0.698894143,1,-0.054980155,1
2.775989532,-1.397552848,1,-9.844202995,1,-14.07103539,1,0.245859399,1,-0.988644004,1,0.785327137,1,0.073788457,1,-0.703776896,1,-0.050581682,1
2.779991388,0.271512479,1,-10.64981747,1,-13.73672867,1,0.315604985,1,-0.693751276,1,0.545774281,1,0.072886564,1,-0.707315743,1,-0.047434278,1
2.783989191,2.307036638,1,-10.97665215,1,-13.16762829,1,0.349694461,1,-0.446290404,1,0.34266901,1,0.072854005,1,-0.709700465,1,-0.04532399,1
2.787988901,4.256869316,1,-10.67087269,1,-12.53187084,1,0.363585681,1,-0.284100831,1,0.186787948,1,0.073467031,1,-0.71121788,1,-0.044077504,1
2.791990757,5.765558243,1,-9.889779091,1,-12.05688477,1,0.392838448,1,-0.191869885,1,0.069236413,1,0.074595921,1,-0.71219027,1,-0.043509748,1
2.79598856,6.803349495,1,-9.046906471,1,-11.82828236,1,0.470329493,1,-0.147134259,1,-0.030349916,1,0.076292925,1,-0.71286881,1,-0.043486349,1
2.799988031,7.280484676,1,-8.387425423,1,-11.69706821,1,0.587965548,1,-0.127241507,1,-0.124006659,1,0.078709081,1,-0.713384867,1,-0.043955464,1
2.80398941,7.379159451,1,-8.06631279,1,-11.62731171,1,0.719185889,1,-0.098262258,1,-0.209696651,1,0.081923522,1,-0.713786721,1,-0.044881132,1
2.807986975,7.029628277,1,-7.96132946,1,-11.63986778,1,0.845302701,1,-0.045245163,1,-0.294008464,1,0.085934684,1,-0.713995039,1,-0.046230052,1
2.811986446,6.571831703,1,-7.965315819,1,-11.72618675,1,0.947094381,1,0.042333417,1,-0.377467126,1,0.090690456,1,-0.713887632,1,-0.048004929,1
2.815988064,6.179307938,1,-8.066549301,1,-11.81856346,1,1.018911242,1,0.164063439,1,-0.46714741,1,0.096059047,1,-0.713332772,1,-0.050184764,1
2.81998539,5.831152439,1,-8.024673462,1,-11.90169525,1,1.069125533,1,0.303414762,1,-0.558950663,1,0.101936899,1,-0.712198198,1,-0.052767523,1
2.823984861,5.546718121,1,-7.770849228,1,-12.0421629,1,1.113678217,1,0.464650065,1,-0.651921868,1,0.108241335,1,-0.710416555,1,-0.055737548,1
2.827986479,5.463670254,1,-7.479060173,1,-12.19050503,1,1.158606648,1,0.618440092,1,-0.74064517,1,0.1149588,1,-0.707954645,1,-0.059074327,1
2.831984043,5.523827076,1,-7.218176842,1,-12.20676613,1,1.2111274,1,0.763401628,1,-0.829072893,1,0.122077353,1,-0.704838037,1,-0.062737346,1
2.835989952,5.47221899,1,-6.97943449,1,-12.14841652,1,1.26120472,1,0.902855635,1,-0.91233772,1,0.129596069,1,-0.701088905,1,-0.066712745,1
2.839991808,5.337516785,1,-6.863891602,1,-12.08182907,1,1.310775042,1,1.02827251,1,-0.981515169,1,0.137465611,1,-0.696761072,1,-0.070935875,1
2.843990088,5.168765545,1,-6.84651947,1,-11.99893188,1,1.349747658,1,1.148979783,1,-1.047238827,1,0.145624653,1,-0.691882014,1,-0.075362742,1
2.847989559,4.951601505,1,-6.77090168,1,-11.87693691,1,1.370788455,1,1.266709447,1,-1.104999423,1,0.153971106,1,-0.686469555,1,-0.079939716,1
2.851990938,4.698680878,1,-6.679787159,1,-11.81172371,1,1.378350616,1,1.370420694,1,-1.167125106,1,0.162458763,1,-0.680548787,1,-0.084663987,1
2.855988741,4.447058678,1,-6.522481918,1,-11.76706409,1,1.378829837,1,1.477927923,1,-1.226832509,1,0.170993894,1,-0.674126267,1,-0.089504369,1
2.859988213,4.14574194,1,-6.37877655,1,-11.72054863,1,1.381041408,1,1.581263661,1,-1.285897851,1,0.179591164,1,-0.667228758,1,-0.094474532,1
2.863990068,3.866460085,1,-6.182640076,1,-11.67039013,1,1.372786403,1,1.684305906,1,-1.354666233,1,0.188215718,1,-0.659843028,1,-0.09954951,1
2.867987871,3.571837187,1,-6.085992336,1,-11.61458302,1,1.362071633,1,1.772960424,1,-1.420717239,1,0.196859077,1,-0.651985168,1,-0.104751617,1
2.871987343,3.336547852,1,-5.998870373,1,-11.52902031,1,1.348120332,1,1.86539042,1,-1.486174583,1,0.20548743,1,-0.643685699,1,-0.110067323,1
2.875989199,3.152961493,1,-5.948336124,1,-11.41878128,1,1.317867041,1,1.938532948,1,-1.551167846,1,0.214050993,1,-0.634972095,1,-0.115483373,1
2.87998724,3.056483746,1,-5.910906792,1,-11.26693916,1,1.282241821,1,2.004165649,1,-1.613841295,1,0.222515956,1,-0.625899434,1,-0.121014856,1
2.883986473,2.919731855,1,-5.789289951,1,-11.1490078,1,1.236839533,1,2.04563427,1,-1.67100668,1,0.230832458,1,-0.616528273,1,-0.126644731,1
2.887987852,2.870867968,1,-5.699966431,1,-11.05196476,1,1.186258554,1,2.078266859,1,-1.730140209,1,0.238974825,1,-0.606914818,1,-0.132378593,1
2.891985655,2.610956192,1,-5.634654522,1,-11.02220726,1,1.13607192,1,2.100589037,1,-1.778193474,1,0.246907353,1,-0.597108603,1,-0.138206467,1
2.895985365,2.337818623,1,-5.56717205,1,-11.0779829,1,1.097680926,1,2.116125822,1,-1.829113603,1,0.254661858,1,-0.58713609,1,-0.144097716,1
2.899986982,1.941303849,1,-5.348306656,1,-11.14088631,1,1.077058911,1,2.141235828,1,-1.872404456,1,0.262278229,1,-0.577012479,1,-0.150055438,1
2.903984308,1.249122381,1,-5.216049194,1,-11.30561352,1,1.068090439,1,2.165309429,1,-1.921493053,1,0.269820392,1,-0.566702187,1,-0.156075656,1
2.90798378,0.596152067,1,-5.074192047,1,-11.4677248,1,1.074795842,1,2.198104143,1,-1.983633637,1,0.27735287,1,-0.556191623,1,-0.162171334,1
2.911985397,-0.116953589,1,-5.031333447,1,-11.58392048,1,1.079847097,1,2.232401848,1,-2.046166897,1,0.284914315,1,-0.545450807,1,-0.168374076,1
2.915982962,-0.846004963,1,-5.082598209,1,-11.70648098,1,1.081208229,1,2.27667284,1,-2.116292953,1,0.292472929,1,-0.534431756,1,-0.17467241,1
2.919982672,-1.567596555,1,-5.106766701,1,-11.66393089,1,1.067894936,1,2.324114799,1,-2.175624847,1,0.299998015,1,-0.523126423,1,-0.181063414,1
2.923984051,-2.213805676,1,-5.109151363,1,-11.63409424,1,1.034136295,1,2.371356964,1,-2.239378929,1,0.307400793,1,-0.511517525,1,-0.187526524,1
2.927981853,-2.713530064,1,-5.048511505,1,-11.53946972,1,0.999893606,1,2.413860321,1,-2.289465904,1,0.314625472,1,-0.499628216,1,-0.194036186,1
2.931981325,-3.084285975,1,-4.926498413,1,-11.46405697,1,0.960727215,1,2.443552494,1,-2.322588444,1,0.321627259,1,-0.487512469,1,-0.2005454,1
2.935989141,-3.55770278,1,-4.762131691,1,-11.42223358,1,0.944336772,1,2.460122585,1,-2.343396187,1,0.328416705,1,-0.475233585,1,-0.20699507,1
2.939993382,-4.018636227,1,-4.355233192,1,-11.28190231,1,0.943853736,1,2.473895788,1,-2.35026145,1,0.335049868,1,-0.462845057,1,-0.213330224,1
2.94399333,-4.423134804,1,-3.87476325,1,-11.1832695,1,0.948468149,1,2.473031282,1,-2.353444576,1,0.341571629,1,-0.450388253,1,-0.219550788,1
2.947995186,-4.795881748,1,-3.470625877,1,-11.04635715,1,0.970548987,1,2.464187145,1,-2.344804525,1,0.348026633,1,-0.437908113,1,-0.225649446,1
2.951992989,-4.968579769,1,-3.192247391,1,-10.76019669,1,0.986297667,1,2.445669174,1,-2.335768223,1,0.354439735,1,-0.425461978,1,-0.231621221,1
2.95599246,-5.14555788,1,-2.933825731,1,-10.4526577,1,1.011322379,1,2.417109013,1,-2.295614481,1,0.36079067,1,-0.413109034,1,-0.237396345,1
2.959994078,-5.264202118,1,-2.609655857,1,-10.26935387,1,1.027523637,1,2.367872715,1,-2.249723434,1,0.367064178,1,-0.400935233,1,-0.242945299,1
2.963992119,-5.50915575,1,-2.205020189,1,-10.12259102,1,1.049084902,1,2.306496859,1,-2.185340166,1,0.373255253,1,-0.389000654,1,-0.248241678,1
2.96799159,-5.94045496,1,-1.637165785,1,-9.851113319,1,1.055893779,1,2.235136986,1,-2.131750345,1,0.379365772,1,-0.377380073,1,-0.253308713,1
2.971993685,-6.537713528,1,-1.063252449,1,-9.575488091,1,1.043717265,1,2.161063671,1,-2.072970629,1,0.385335773,1,-0.366081119,1,-0.258162558,1
2.975991488,-6.992176533,1,-0.727648854,1,-9.313270569,1,1.031713486,1,2.080879211,1,-1.999666929,1,0.391118586,1,-0.35514465,1,-0.262794763,1
2.979990959,-7.475728035,1,-0.418497711,1,-9.011742592,1,1.021662593,1,1.998979568,1,-1.907361865,1,0.396717131,1,-0.344606549,1,-0.267132878,1
2.983992815,-7.816970825,1,-0.24376075,1,-8.629244804,1,1.00003767,1,1.905448556,1,-1.787818313,1,0.402089864,1,-0.33453688,1,-0.271137923,1
2.987990856,-8.205194473,1,-0.051672839,1,-8.327218056,1,0.969496965,1,1.787391424,1,-1.666070223,1,0.407211959,1,-0.325017244,1,-0.274778366,1
2.991990566,-8.90605545,1,-0.000541185,1,-7.812696934,1,0.929961264,1,1.677130103,1,-1.524488211,1,0.411990196,1,-0.316034257,1,-0.27733615,1
2.995992422,-9.532756805,1,-0.006478733,1,-7.61047554,1,0.876436114,1,1.550512075,1,-1.382285118,1,0.416458428,1,-0.307782322,1,-0.280199021,1
2.999989986,-10.57530117,1,0.179051816,1,-7.359864235,1,0.832843304,1,1.424791217,1,-1.251325846,1,0.420628041,1,-0.300202429,1,-0.282714605,1
3.003989458,-11.73897839,1,0.409290493,1,-6.985300064,1,0.770822763,1,1.300367355,1,-1.152557254,1,0.424501926,1,-0.293264866,1,-0.28494972,1
3.007991314,-12.7275629,1,0.617761374,1,-6.815340042,1,0.700650573,1,1.151646256,1,-1.069499373,1,0.428054273,1,-0.28696847,1,-0.287049353,1
3.011988878,-14.14943504,1,0.339487284,1,-6.568529606,1,0.629245996,1,1.034270167,1,-1.011651993,1,0.431277603,1,-0.28128019,1,-0.2890926,1
3.015988588,-15.64706802,1,0.255839676,1,-6.171744823,1,0.56790024,1,0.965730667,1,-0.963545084,1,0.434214175,1,-0.276007652,1,-0.29107672,1
3.019989967,-16.92526245,1,0.500647426,1,-5.728049278,1,0.498548478,1,0.929105878,1,-0.955459833,1,0.436884642,1,-0.270973772,1,-0.293032944,1
3.02398777,-18.00231743,1,0.979668856,1,-5.295558453,1,0.421739608,1,0.908332229,1,-0.991838694,1,0.439275861,1,-0.265996277,1,-0.295060635,1
3.02798748,-18.83996773,1,1.237146378,1,-4.811429977,1,0.338857353,1,0.895026207,1,-1.064111114,1,0.441389263,1,-0.260981679,1,-0.297318518,1
3.031995058,-19.32405663,1,1.035296679,1,-4.172682285,1,0.230264843,1,0.886549234,1,-1.140877366,1,0.443181098,1,-0.255873621,1,-0.299862087,1
3.035999298,-19.44347382,1,0.707034171,1,-3.442168236,1,0.123000041,1,0.864202321,1,-1.195231199,1,0.444589198,1,-0.25069803,1,-0.302674264,1
3.039999247,-19.2773304,1,0.565761685,1,-2.615463257,1,0.001386988,1,0.831837773,1,-1.24170351,1,0.445585519,1,-0.245524839,1,-0.305707544,1
3.044000864,-18.83705521,1,0.599499643,1,-1.856856585,1,-0.143790647,1,0.760196507,1,-1.268702507,1,0.446083903,1,-0.240475118,1,-0.308958709,1
3.047998667,-18.18411446,1,0.857150972,1,-1.082799435,1,-0.292592049,1,0.647290707,1,-1.283954024,1,0.446028143,1,-0.235721245,1,-0.312443018,1
3.051998138,-17.36432266,1,1.142340899,1,-0.509975076,1,-0.408441573,1,0.483506531,1,-1.278369427,1,0.445481569,1,-0.231460243,1,-0.316188335,1
3.055999756,-16.6057415,1,1.440564632,1,-0.02167709,1,-0.498908967,1,0.25726077,1,-1.259978652,1,0.444572389,1,-0.227924973,1,-0.320237756,1
3.059997559,-16.08874321,1,1.744095922,1,0.361815006,1,-0.555760682,1,0.000634682,1,-1.228516698,1,0.443440139,1,-0.225311503,1,-0.324611545,1
3.06399703,-15.87438869,1,1.933944464,1,0.67564553,1,-0.587495863,1,-0.274067014,1,-1.18838048,1,0.442193985,1,-0.223727331,1,-0.329331517,1
3.067998648,-15.84873867,1,1.99944675,1,0.907655299,1,-0.617286026,1,-0.54576236,1,-1.149657488,1,0.44090265,1,-0.223217174,1,-0.334393889,1
3.07199645,-15.69313145,1,1.90311408,1,1.006534576,1,-0.633786082,1,-0.808766305,1,-1.097317219,1,0.439587146,1,-0.223752037,1,-0.339749366,1
3.075995922,-15.57921028,1,1.690872669,1,1.00051558,1,-0.653741598,1,-1.048571706,1,-1.027254105,1,0.438250244,1,-0.225311741,1,-0.345326215,1
3.079997778,-15.55255795,1,1.517401814,1,0.935710609,1,-0.67127794,1,-1.273383617,1,-0.938045561,1,0.436883092,1,-0.227864876,1,-0.35100019,1
3.083995342,-15.53859329,1,1.369103551,1,0.810681522,1,-0.689016163,1,-1.448683023,1,-0.839535832,1,0.435449064,1,-0.231299356,1,-0.356678903,1
3.087994814,-15.56782532,1,1.261753798,1,0.500470459,1,-0.687785208,1,-1.598799706,1,-0.732234061,1,0.433982015,1,-0.235516667,1,-0.362251341,1
3.09199667,-15.53118324,1,1.36211133,1,0.141787723,1,-0.665338993,1,-1.709407449,1,-0.61254549,1,0.432533592,1,-0.240390584,1,-0.367615223,1
3.095994473,-15.57137203,1,1.600446701,1,-0.085574135,1,-0.602126241,1,-1.769997239,1,-0.493006051,1,0.431215674,1,-0.245792657,1,-0.372693568,1
3.099994183,-15.39926052,1,1.753891945,1,-0.450347394,1,-0.495725125,1,-1.813171864,1,-0.372495264,1,0.430183381,1,-0.251594245,1,-0.37741375,1
3.1039958,-15.3181181,1,1.88903594,1,-0.762321413,1,-0.364317507,1,-1.827941179,1,-0.248003021,1,0.429541439,1,-0.257700354,1,-0.381725907,1
3.107993603,-15.21712399,1,1.818312287,1,-0.867396355,1,-0.221205503,1,-1.801737309,1,-0.121395253,1,0.429365635,1,-0.263998747,1,-0.385557652,1
3.111993074,-14.98114204,1,1.674464941,1,-1.040032268,1,-0.076853752,1,-1.758698225,1,0.017118072,1,0.429637849,1,-0.270402461,1,-0.388835251,1
3.115994692,-14.61434841,1,1.521034002,1,-1.095742226,1,0.051400352,1,-1.692601085,1,0.163924739,1,0.430306047,1,-0.276827812,1,-0.391489387,1
3.119992018,-14.08073616,1,1.556546807,1,-1.183326483,1,0.170411944,1,-1.62096107,1,0.303508162,1,0.431310117,1,-0.283233911,1,-0.393484414,1
3.123991489,-13.62536049,1,1.517736197,1,-1.216652751,1,0.27583468,1,-1.551844954,1,0.449921399,1,0.432583362,1,-0.289624512,1,-0.394821793,1
3.127999306,-13.19738483,1,1.549627542,1,-1.110469103,1,0.367676526,1,-1.477088809,1,0.58381927,1,0.434075743,1,-0.295983732,1,-0.395514935,1
3.132003069,-12.77758694,1,1.580886364,1,-0.944613993,1,0.423317015,1,-1.406172633,1,0.705825925,1,0.435684085,1,-0.302302957,1,-0.395599484,1
3.136002779,-10.03964615,1,-3.438239813,1,-2.966640711,1,0.157162771,1,-1.406501412,1,0.814988494,1,0.436926991,1,-0.308649093,1,-0.395184398,1
3.140004635,-2.752879143,1,-24.06600571,1,-19.33608627,1,-2.227953434,1,-2.275223017,1,1.31471622,1,0.432833195,1,-0.316790819,1,-0.394388616,1
3.144002676,19.37390327,1,-17.04026604,1,-13.03193092,1,-2.976313353,1,-2.869183302,1,1.736416459,1,0.42159459,1,-0.328777313,1,-0.393138319,1
3.148002148,31.42180824,1,-15.2822094,1,-24.6169529,1,-3.277800798,1,-3.428549767,1,2.253937244,1,0.408358961,1,-0.343543589,1,-0.390725255,1
3.152003527,14.79563332,1,-9.969238281,1,-28.88990021,1,-2.786022902,1,-3.860601902,1,2.565476179,1,0.394660592,1,-0.360696316,1,-0.387363493,1
3.156001329,-4.463130474,1,5.199297428,1,-18.89608192,1,-1.525441408,1,-4.140201569,1,2.843875647,1,0.384684384,1,-0.379699975,1,-0.383109868,1
3.160000563,-26.11046028,1,12.00221348,1,-13.87095928,1,-1.550008059,1,-4.022009373,1,2.683470964,1,0.376999795,1,-0.399166852,1,-0.378542066,1
3.164002657,-40.48820877,1,4.732989788,1,-17.38181114,1,-1.497934341,1,-3.268386364,1,2.273417234,1,0.369134367,1,-0.416498393,1,-0.374289364,1
3.16800046,-43.00070953,1,1.47234261,1,-20.83866692,1,-1.22497189,1,-1.984514475,1,1.614231348,1,0.362093925,1,-0.429144889,1,-0.37041229,1
3.171999931,-32.47590637,1,-1.636453032,1,-17.64564896,1,-1.056485415,1,-0.863380969,1,0.966739237,1,0.356268704,1,-0.436158985,1,-0.367289007,1
3.176001787,-16.14882278,1,-3.306107759,1,-12.70715427,1,-1.041622519,1,-0.335364938,1,0.603681564,1,0.351113141,1,-0.43931517,1,-0.364970922,1
3.17999959,-2.880893946,1,-2.439441442,1,-10.42139626,1,-1.057050467,1,-0.386723399,1,0.456160486,1,0.346181929,1,-0.441292942,1,-0.36330992,1
3.183999062,2.566521883,1,-0.590885937,1,-9.689543724,1,-0.972354352,1,-0.698145151,1,0.370776057,1,0.341722846,1,-0.443866193,1,-0.362399578,1
3.188000679,1.754546285,1,0.188474357,1,-8.918026924,1,-0.893691719,1,-0.973568022,1,0.348588973,1,0.337884068,1,-0.447518557,1,-0.362173975,1
3.191998482,-1.616948128,1,0.644201279,1,-8.817386627,1,-0.793602705,1,-1.09515965,1,0.401545316,1,0.33449474,1,-0.451947957,1,-0.362146735,1
3.195997953,-4.714905262,1,0.753546417,1,-9.879735947,1,-0.692123234,1,-1.082601428,1,0.481595397,1,0.331409007,1,-0.456668854,1,-0.361891985,1
3.199999809,-6.585837364,1,0.352819979,1,-10.85470676,1,-0.600548208,1,-0.947749257,1,0.545188844,1,0.32851243,1,-0.461200237,1,-0.361192644,1
3.203997612,-7.164523602,1,0.965538085,1,-11.24210358,1,-0.486176789,1,-0.803489447,1,0.552740514,1,0.32585755,1,-0.465224415,1,-0.360098958,1
3.207997084,-6.611065388,1,1.432995081,1,-11.00292206,1,-0.354702145,1,-0.713566422,1,0.47774595,1,0.323666066,1,-0.468730032,1,-0.358962059,1
3.211998701,-5.875896931,1,0.998305202,1,-10.39011765,1,-0.205008194,1,-0.675350726,1,0.376688778,1,0.322174549,1,-0.47189334,1,-0.358134776,1
3.215996265,-5.211638451,1,-0.089547239,1,-10.03389263,1,-0.095595188,1,-0.666402996,1,0.307604134,1,0.321356982,1,-0.474877149,1,-0.357645094,1
3.219995737,-4.954753399,1,-1.122930527,1,-9.594276428,1,-0.032352515,1,-0.646256864,1,0.277819991,1,0.320982575,1,-0.477738321,1,-0.357335389,1
3.223996878,-5.365314484,1,-2.197670937,1,-9.396911621,1,-0.00909801,1,-0.611065328,1,0.275123775,1,0.320792437,1,-0.480482548,1,-0.357054412,1
3.228000879,-11.84288311,1,-3.939090967,1,-9.177010536,1,-0.114193581,1,-0.347795576,1,0.2511518,1,0.320254743,1,-0.482708246,1,-0.356540561,1
3.232000589,-8.56692028,1,-3.871587992,1,-8.539478302,1,-0.035270266,1,-0.16920805,1,0.058836464,1,0.31984973,1,-0.48382026,1,-0.356267601,1
3.236001968,-4.076620579,1,-3.821772575,1,-7.802268505,1,-0.090010874,1,-0.171133727,1,0.041725501,1,0.319621325,1,-0.484478921,1,-0.356308639,1
3.239999771,-3.165583849,1,-3.284632921,1,-8.330196381,1,-0.11155998,1,-0.218743086,1,0.075522497,1,0.319116771,1,-0.48517698,1,-0.355378628,1
3.243999243,-4.621199608,1,-2.697252989,1,-8.522828102,1,-0.119430497,1,-0.225742206,1,0.099681668,1,0.318616301,1,-0.486153245,1,-0.355314016,1
3.24800086,-5.888477325,1,-2.41931963,1,-8.706852913,1,-0.108855434,1,-0.190165356,1,0.077405162,1,0.318105459,1,-0.487065166,1,-0.355214417,1
3.251998663,-6.025624752,1,-2.392156363,1,-8.778262138,1,-0.070382968,1,-0.141112998,1,0.025146469,1,0.317757785,1,-0.487756103,1,-0.355231464,1
3.255998135,-5.313865185,1,-2.583217859,1,-8.593243599,1,-0.046589278,1,-0.109808438,1,-0.010597564,1,0.317605972,1,-0.488238603,1,-0.355391622,1
3.25999999,-4.745185852,1,-2.78605032,1,-8.405851364,1,-0.028074527,1,-0.09207318,1,-0.007539123,1,0.317548066,1,-0.488606334,1,-0.355572701,1
3.263997793,-4.78383255,1,-3.068330288,1,-8.284324646,1,-0.006080023,1,-0.080633812,1,-0.003183667,1,0.317558587,1,-0.48892507,1,-0.355721056,1
3.267997265,-5.031207561,1,-3.355372667,1,-8.180627823,1,-0.009241929,1,-0.06473399,1,-0.002746169,1,0.31758821,1,-0.489197254,1,-0.355833292,1
3.271999121,-4.973967552,1,-3.448631525,1,-8.096191406,1,-0.020501783,1,-0.046426602,1,-0.005535312,1,0.317577124,1,-0.489391834,1,-0.355926484,1
3.275997162,-4.696082592,1,-3.376638412,1,-8.162183762,1,-0.038665839,1,-0.035550434,1,-0.005654255,1,0.317486107,1,-0.489535958,1,-0.356012553,1
3.279996634,-4.390147209,1,-3.236192703,1,-8.216344833,1,-0.058971509,1,-0.031152448,1,0.006812121,1,0.317317247,1,-0.489660025,1,-0.356061071,1
3.283998489,-4.479153633,1,-3.124374151,1,-8.283808708,1,-0.067453757,1,-0.032071989,1,0.012252904,1,0.317072451,1,-0.489793718,1,-0.356072038,1
3.287996054,-4.56510067,1,-3.083696842,1,-8.259620667,1,-0.075080797,1,-0.030819943,1,0.01449617,1,0.316773772,1,-0.489931613,1,-0.356051207,1
3.291996002,-4.496315479,1,-2.943617344,1,-8.231328011,1,-0.084748909,1,-0.033642616,1,0.014130605,1,0.316442877,1,-0.490071774,1,-0.356031418,1
3.29599762,-4.339215755,1,-2.947367668,1,-8.195542336,1,-0.091119997,1,-0.031743899,1,0.02425565,1,0.316073418,1,-0.490221977,1,-0.355999261,1
3.299995422,-4.039764881,1,-3.066765785,1,-8.046877861,1,-0.099021353,1,-0.041316103,1,0.039613761,1,0.315660238,1,-0.490392953,1,-0.355918765,1
3.303994894,-3.891393423,1,-3.26072979,1,-7.984668732,1,-0.112829454,1,-0.057892911,1,0.060421951,1,0.315167904,1,-0.490629524,1,-0.355775774,1
3.307996988,-4.037178516,1,-3.447909832,1,-7.97865963,1,-0.135231048,1,-0.067310877,1,0.085419416,1,0.314562082,1,-0.490954101,1,-0.355541289,1
3.311995029,-4.266243458,1,-3.479263306,1,-7.975983143,1,-0.142027467,1,-0.069366857,1,0.100948453,1,0.3138614,1,-0.491332531,1,-0.35523057,1
3.31599474,-4.283441544,1,-3.22307229,1,-8.035822868,1,-0.150177553,1,-0.082660653,1,0.109226063,1,0.313114405,1,-0.491752714,1,-0.354878783,1
3.319996357,-4.242537975,1,-3.044674635,1,-8.172578812,1,-0.152997106,1,-0.089912303,1,0.126083434,1,0.312321544,1,-0.492222667,1,-0.354492337,1
3.323999882,-4.353954792,1,-2.940160275,1,-8.21422863,1,-0.1594107,1,-0.102508888,1,0.135303855,1,0.311491162,1,-0.492753476,1,-0.354062676,1
3.327999592,-4.328155041,1,-3.014498949,1,-8.148849487,1,-0.166506752,1,-0.105392583,1,0.150647432,1,0.310621619,1,-0.493326545,1,-0.353585958,1
