Time,inertial-6253.76535:estCompensatedAccelX,inertial-6253.76535:estCompensatedAccelX:valid,inertial-6253.76535:estCompensatedAccelY,inertial-6253.76535:estCompensatedAccelY:valid,inertial-6253.76535:estCompensatedAccelZ,inertial-6253.76535:estCompensatedAccelZ:valid,inertial-6253.76535:estAngularRateX,inertial-6253.76535:estAngularRateX:valid,inertial-6253.76535:estAngularRateY,inertial-6253.76535:estAngularRateY:valid,inertial-6253.76535:estAngularRateZ,inertial-6253.76535:estAngularRateZ:valid,inertial-6253.76535:estRoll,inertial-6253.76535:estRoll:valid,inertial-6253.76535:estPitch,inertial-6253.76535:estPitch:valid,inertial-6253.76535:estYaw,inertial-6253.76535:estYaw:valid,inertial-6253.76535:estLinearAccelX,inertial-6253.76535:estLinearAccelX:valid,inertial-6253.76535:estLinearAccelY,inertial-6253.76535:estLinearAccelY:valid,inertial-6253.76535:estLinearAccelZ,inertial-6253.76535:estLinearAccelZ:valid
0,-4.84551096,1,-2.605134249,1,-8.219698906,1,0.074827373,1,-0.002410647,1,-0.058199104,1,0.271199822,1,-0.507025957,1,0.033358127,1,-0.096463203,1,-0.314763308,1,0.017557144,1
0.004001536,-4.836570263,1,-2.626620531,1,-8.166357994,1,0.055449605,1,0.006376732,1,-0.051063228,1,0.271578163,1,-0.506960213,1,0.033113625,1,-0.088085175,1,-0.333048582,1,0.070332527,1
0.008004864,-4.8040061,1,-2.631127119,1,-8.125473976,1,0.05089711,1,0.013000522,1,-0.04355634,1,0.271883994,1,-0.50686425,1,0.032919176,1,-0.056341171,1,-0.334914446,1,0.110953331,1
0.012004096,-4.78076458,1,-2.616621733,1,-8.138559341,1,0.03925994,1,0.024276335,1,-0.035131618,1,0.272140384,1,-0.506760895,1,0.032771952,1,-0.033983231,1,-0.318165779,1,0.09774971,1
0.016005632,-4.713120937,1,-2.760993481,1,-8.077215195,1,0.033839021,1,0.030360889,1,-0.033709176,1,0.272352308,1,-0.506610513,1,0.032643281,1,0.032374382,1,-0.460598946,1,0.159296989,1
0.020003073,-4.802445889,1,-2.601196051,1,-8.032107353,1,0.022667646,1,0.036966413,1,-0.031328388,1,0.272521853,1,-0.506454647,1,0.032531664,1,-0.058283806,1,-0.299206734,1,0.204727173,1
0.024002047,-5.206276894,1,-2.792122841,1,-8.341244698,1,0.018585065,1,0.033509742,1,-0.002555399,1,0.27264148,1,-0.506299436,1,0.032473017,1,-0.463442326,1,-0.488949776,1,-0.103977203,1
0.028003328,-4.440657616,1,-2.227366447,1,-8.13044548,1,0.030473039,1,0.046679992,1,-0.029251236,1,0.272707462,1,-0.506100416,1,0.032456387,1,0.300474644,1,0.076603889,1,0.107577324,1
0.032000769,-4.719069481,1,-2.308746815,1,-8.256937981,1,0.031142253,1,0.034314707,1,-0.027277265,1,0.272874832,1,-0.505922139,1,0.032378968,1,0.020537853,1,-0.003170013,1,-0.018488884,1
0.035999998,-4.736418724,1,-2.219340086,1,-8.245019913,1,0.034150336,1,0.040519711,1,-0.027752616,1,0.273027301,1,-0.50574261,1,0.032310855,1,0.001652718,1,0.087722301,1,-0.006101608,1
0.040001281,-4.70936203,1,-2.26827836,1,-8.256784439,1,0.040856469,1,0.041262221,1,-0.032026362,1,0.27321595,1,-0.505553186,1,0.032236617,1,0.027088642,1,0.040580511,1,-0.017436981,1
0.043998465,-4.733586311,1,-2.265311718,1,-8.261131287,1,0.037103612,1,0.043900575,1,-0.036278322,1,0.273416638,1,-0.505361259,1,0.032147672,1,0.001221657,1,0.045446157,1,-0.021370888,1
0.047997694,-5.20208931,1,-2.561573982,1,-8.423639297,1,0.030956756,1,0.03979053,1,-0.009560423,1,0.273596972,1,-0.505175948,1,0.032081775,1,-0.468867302,1,-0.249092579,1,-0.183450699,1
0.051998977,-4.521608353,1,-2.109504461,1,-8.393375397,1,0.055502087,1,0.038173769,1,-0.04521488,1,0.273798943,1,-0.504943848,1,0.031995904,1,0.209627628,1,0.204937696,1,-0.152597427,1
0.055996161,-4.787094593,1,-2.283713341,1,-8.29115963,1,0.052960005,1,0.033893395,1,-0.045078188,1,0.274094343,1,-0.504758239,1,0.031841327,1,-0.057447433,1,0.033400536,1,-0.05022049,1
0.05999539,-4.758985519,1,-2.181897879,1,-8.309535027,1,0.060373355,1,0.040279016,1,-0.053210624,1,0.274393439,1,-0.504556715,1,0.031674724,1,-0.031064034,1,0.137938976,1,-0.068372726,1
0.063996673,-4.774879456,1,-2.153778791,1,-8.305175781,1,0.066738337,1,0.039921973,1,-0.049441367,1,0.274734974,1,-0.504350364,1,0.031502537,1,-0.048724651,1,0.169137001,1,-0.063867569,1
0.067994371,-4.78742218,1,-2.219067335,1,-8.306913376,1,0.071887515,1,0.036370952,1,-0.055327009,1,0.27510488,1,-0.504153073,1,0.031313065,1,-0.06295681,1,0.107149839,1,-0.06556797,1
0.071993597,-4.800338745,1,-2.263627529,1,-8.28680706,1,0.074409299,1,0.038445864,1,-0.055080105,1,0.275506824,1,-0.503953159,1,0.0311106,1,-0.07758522,1,0.066159964,1,-0.04548645,1
0.075994879,-4.712257385,1,-2.38444829,1,-8.091422081,1,0.060978714,1,0.044259727,1,-0.047124133,1,0.275858939,1,-0.503772497,1,0.030959165,1,0.008948803,1,-0.051527977,1,0.149895668,1
0.079992317,-4.743858814,1,-2.286838293,1,-8.429441452,1,0.090528943,1,0.033959147,1,-0.067409016,1,0.276272476,1,-0.503542125,1,0.03075207,1,-0.024625778,1,0.049786806,1,-0.188042641,1
0.08399155,-4.746573448,1,-2.45357728,1,-8.232349396,1,0.077023,1,0.033774033,1,-0.060894262,1,0.276723146,1,-0.503347576,1,0.030518308,1,-0.029006958,1,-0.112986803,1,0.008879662,1
0.087998718,-4.727343559,1,-2.566270113,1,-8.210956573,1,0.078217059,1,0.037938878,1,-0.061391726,1,0.277142704,1,-0.503141463,1,0.030302258,1,-0.011543274,1,-0.221956491,1,0.030225754,1
0.092002302,-4.709547997,1,-2.516685247,1,-8.205608368,1,0.073091835,1,0.038813543,1,-0.057988286,1,0.277549565,1,-0.502930522,1,0.030090518,1,0.004445076,1,-0.168745518,1,0.035577774,1
0.096001789,-4.803885937,1,-2.632027626,1,-8.229287148,1,0.074453622,1,0.042520441,1,-0.051812246,1,0.277937591,1,-0.502713501,1,0.029897336,1,-0.091752529,1,-0.280610561,1,0.011967659,1
0.100003071,-4.895208836,1,-2.674075603,1,-8.242459297,1,0.089431077,1,0.051610906,1,-0.039248575,1,0.278331161,1,-0.502476692,1,0.029763218,1,-0.185105324,1,-0.31910944,1,-0.001059532,1
0.104000509,-5.043979645,1,-2.681919813,1,-8.256448746,1,0.106495909,1,0.062230997,1,-0.014644559,1,0.278744698,1,-0.502223849,1,0.029722581,1,-0.336043358,1,-0.323218107,1,-0.014879227,1
0.107999742,-5.390908241,1,-2.794668674,1,-8.246199608,1,0.106126852,1,0.070727929,1,0.025872083,1,0.279124618,1,-0.501973391,1,0.029822504,1,-0.685119152,1,-0.432510138,1,-0.00439167,1
0.112001278,-4.512674809,1,-2.54385972,1,-8.293576241,1,0.111910515,1,0.0756303,1,0.006987565,1,0.279476255,1,-0.501675606,1,0.029982202,1,0.190560818,1,-0.178417206,1,-0.051252365,1
0.115998723,-4.798538685,1,-2.625901222,1,-8.155315399,1,0.10772834,1,0.064696163,1,0.005649963,1,0.279871136,1,-0.501422822,1,0.030082436,1,-0.09747076,1,-0.256875753,1,0.087216377,1
0.119997695,-4.750927448,1,-2.516130209,1,-8.212218285,1,0.098443501,1,0.067157894,1,0.004370573,1,0.280226111,1,-0.501162291,1,0.030194202,1,-0.052093983,1,-0.143839836,1,0.030650139,1
0.123998977,-4.536744595,1,-2.351350307,1,-8.021570206,1,0.091592073,1,0.075564735,1,0.003031966,1,0.280544102,1,-0.500894785,1,0.030308967,1,0.159794331,1,0.0239079,1,0.221748352,1
0.127996162,-4.726429939,1,-2.309429407,1,-8.268716812,1,0.086965941,1,0.061290517,1,-0.006892937,1,0.280864418,1,-0.500628293,1,0.03038008,1,-0.032177925,1,0.0688169,1,-0.02495575,1
0.131995395,-4.719172001,1,-2.387580395,1,-8.149695396,1,0.084939659,1,0.067295521,1,-0.010116242,1,0.281189203,1,-0.500374854,1,0.03041748,1,-0.027094841,1,-0.006327391,1,0.094434738,1
0.13599667,-4.660562992,1,-2.36344552,1,-8.244747162,1,0.086521074,1,0.063422091,1,-0.015351251,1,0.28152138,1,-0.500102997,1,0.030442622,1,0.02918148,1,0.020900249,1,-0.000184059,1
0.139993861,-4.610371113,1,-2.30596137,1,-8.316390038,1,0.088453285,1,0.067048222,1,-0.01997569,1,0.281875432,1,-0.499823481,1,0.030443348,1,0.076974392,1,0.081668139,1,-0.07141304,1
0.143993095,-4.822240353,1,-2.272607565,1,-8.513175011,1,0.084607571,1,0.06393481,1,-0.010963039,1,0.282217383,1,-0.499549806,1,0.030454395,1,-0.137244225,1,0.118198872,1,-0.267780304,1
0.147994369,-4.106075764,1,-2.169032574,1,-8.299160957,1,0.093304664,1,0.082056671,1,-0.028320253,1,0.282544225,1,-0.499240339,1,0.030484097,1,0.576263428,1,0.224872589,1,-0.053156853,1
0.151991546,-4.66328001,1,-2.22884798,1,-8.386143684,1,0.10094627,1,0.057537135,1,-0.030425915,1,0.283059418,1,-0.498922229,1,0.030278815,1,0.016327381,1,0.169721603,1,-0.139943123,1
0.155990779,-4.610888004,1,-2.280902147,1,-8.36335659,1,0.10517028,1,0.061986536,1,-0.030666456,1,0.283505708,1,-0.498609155,1,0.030057829,1,0.066030502,1,0.121756315,1,-0.116822243,1
0.159992069,-4.6658535,1,-2.363582611,1,-8.333377838,1,0.104260176,1,0.051363051,1,-0.035427693,1,0.283965558,1,-0.498361737,1,0.029977012,1,0.008939743,1,0.043192387,1,-0.086838722,1
0.163989499,-4.640612602,1,-2.357065439,1,-8.315077782,1,0.105350502,1,0.051167842,1,-0.043809179,1,0.284448951,1,-0.498118937,1,0.029861838,1,0.032094955,1,0.054014206,1,-0.068612099,1
0.16799514,-4.595182419,1,-2.433503866,1,-8.342234612,1,0.106421135,1,0.052391116,1,-0.043773919,1,0.284932315,1,-0.497879326,1,0.029742036,1,0.075466633,1,-0.018123865,1,-0.095863342,1
0.171996668,-4.676983356,1,-2.530528069,1,-8.371271133,1,0.10850323,1,0.036291376,1,-0.044749781,1,0.285431087,1,-0.497662097,1,0.029602135,1,-0.008201599,1,-0.11074996,1,-0.125130653,1
0.175994366,-4.576498985,1,-2.552726507,1,-8.352884293,1,0.106255487,1,0.035852026,1,-0.04606967,1,0.285934448,1,-0.497472882,1,0.029455794,1,0.090656757,1,-0.128548622,1,-0.107116699,1
0.1799936,-4.607066154,1,-2.522469044,1,-8.346904755,1,0.105573408,1,0.021567563,1,-0.044092432,1,0.286432654,1,-0.497303694,1,0.029291335,1,0.058635235,1,-0.093959808,1,-0.101586342,1
0.183994621,-4.68097496,1,-2.549240112,1,-8.329766273,1,0.101788402,1,0.020816868,1,-0.047105581,1,0.286930203,1,-0.497161418,1,0.029122943,1,-0.016496181,1,-0.116442442,1,-0.085024834,1
0.187991813,-4.625200272,1,-2.545603991,1,-8.329976082,1,0.101717658,1,0.019122699,1,-0.046697192,1,0.287419498,1,-0.497029632,1,0.028944977,1,0.038145542,1,-0.108597755,1,-0.085836411,1
0.191991046,-4.624826431,1,-2.551838875,1,-8.305046082,1,0.101792,1,0.012220072,1,-0.045172974,1,0.287905395,1,-0.496912658,1,0.028762555,1,0.037513733,1,-0.110672951,1,-0.061569214,1
0.195992321,-4.572244167,1,-2.535326481,1,-8.237812042,1,0.095054343,1,0.012368738,1,-0.045129169,1,0.288383335,1,-0.496816963,1,0.028584659,1,0.089272976,1,-0.090093613,1,0.004925728,1
0.199989766,-4.496203423,1,-2.575408936,1,-8.258504868,1,0.097034603,1,0.001160549,1,-0.042410072,1,0.288860261,1,-0.496736825,1,0.028401528,1,0.164624691,1,-0.126138449,1,-0.01657486,1
0.203988731,-4.463918209,1,-2.613563538,1,-8.253229141,1,0.099426001,1,-0.003226975,1,-0.040637463,1,0.289329469,1,-0.496692806,1,0.028213393,1,0.196531296,1,-0.160367489,1,-0.012251854,1
0.207990021,-4.508011341,1,-2.662064075,1,-8.266988754,1,0.091235161,1,-0.010910184,1,-0.045336947,1,0.289805561,1,-0.496667832,1,0.02801648,1,0.152223587,1,-0.20491147,1,-0.027069092,1
0.211987451,-4.525571346,1,-2.737883091,1,-8.219343185,1,0.092424259,1,-0.014517693,1,-0.044227902,1,0.290272385,1,-0.496662617,1,0.027800864,1,0.134618759,1,-0.276877403,1,0.019451141,1
0.215986431,-4.55908823,1,-2.734965086,1,-8.24817276,1,0.086241789,1,-0.021223431,1,-0.041615944,1,0.29071787,1,-0.496688008,1,0.027589226,1,0.101320267,1,-0.270323038,1,-0.010588646,1
0.219987705,-4.605333805,1,-2.759316921,1,-8.235866547,1,0.078762226,1,-0.021257276,1,-0.043306403,1,0.2911551,1,-0.496717542,1,0.027364856,1,0.055328846,1,-0.291112423,1,0.000508308,1
0.223984897,-4.690056324,1,-2.699760675,1,-8.206734657,1,0.071634918,1,-0.02396678,1,-0.042775597,1,0.291549623,1,-0.496749997,1,0.02715425,1,-0.029114723,1,-0.22835207,1,0.028516769,1
0.22798413,-3.955710411,1,-2.539996624,1,-7.727507591,1,0.049260437,1,-0.001761423,1,-0.035706852,1,0.291844875,1,-0.496798187,1,0.027034312,1,0.705645561,1,-0.066220522,1,0.506801605,1
0.231985405,-4.664573193,1,-2.526924372,1,-8.29319191,1,0.078567781,1,-0.033638228,1,-0.045460917,1,0.29222399,1,-0.496830672,1,0.026817368,1,-0.002938271,1,-0.050070286,1,-0.059966087,1
0.23598285,-4.564650059,1,-2.666299105,1,-8.260557175,1,0.070937954,1,-0.033379126,1,-0.044643421,1,0.292634875,1,-0.496906579,1,0.026579099,1,0.097637653,1,-0.186164379,1,-0.028689384,1
0.239982083,-4.500058174,1,-2.602790356,1,-8.243811607,1,0.075082839,1,-0.038063213,1,-0.046769872,1,0.293043971,1,-0.496995658,1,0.026334452,1,0.162995338,1,-0.119408369,1,-0.013357162,1
0.243989497,-4.439425468,1,-2.636459351,1,-8.195652962,1,0.070879705,1,-0.041792691,1,-0.043951638,1,0.293450147,1,-0.497093081,1,0.026087716,1,0.224465847,1,-0.149865627,1,0.03335762,1
0.247992828,-4.456651211,1,-2.738219738,1,-8.27735424,1,0.073790625,1,-0.055075295,1,-0.040667348,1,0.293868899,1,-0.497233629,1,0.025840128,1,0.208447933,1,-0.248370409,1,-0.050013542,1
0.251992583,-4.458218575,1,-2.780294657,1,-8.226885796,1,0.067297734,1,-0.06061472,1,-0.044590563,1,0.294271529,1,-0.497399032,1,0.025574099,1,0.208302498,1,-0.287356615,1,-0.001285553,1
0.255993843,-4.490875721,1,-2.729363918,1,-8.22706604,1,0.072275005,1,-0.067253262,1,-0.036681283,1,0.294682741,1,-0.497598469,1,0.025314786,1,0.177359581,1,-0.233314276,1,-0.003383636,1
0.259991288,-4.620645523,1,-2.712139368,1,-8.223345757,1,0.068078734,1,-0.07329493,1,-0.034035452,1,0.295083821,1,-0.497824073,1,0.025061699,1,0.049528122,1,-0.213097572,1,-0.001671791,1
0.263990521,-4.718806267,1,-2.674060106,1,-8.248657227,1,0.070010684,1,-0.073541142,1,-0.03828853,1,0.295484245,1,-0.49806419,1,0.024806814,1,-0.046569347,1,-0.172053099,1,-0.029057503,1
0.267991811,-4.806895256,1,-2.596661091,1,-8.232557297,1,0.070274003,1,-0.070183866,1,-0.037109308,1,0.295890599,1,-0.498295248,1,0.024547357,1,-0.132673264,1,-0.091628551,1,-0.015007019,1
0.271989256,-4.800487518,1,-2.465121984,1,-8.298370361,1,0.068758339,1,-0.071778826,1,-0.036061831,1,0.296294272,1,-0.498524845,1,0.02429132,1,-0.124293327,1,0.042913675,1,-0.082858086,1
0.275988489,-4.782162666,1,-2.451523781,1,-8.278720856,1,0.074487925,1,-0.073670506,1,-0.03825089,1,0.296709418,1,-0.498763174,1,0.024030775,1,-0.103920937,1,0.059597015,1,-0.065317154,1
0.279989749,-4.783217907,1,-2.460449934,1,-8.249399185,1,0.079753734,1,-0.069763176,1,-0.037316184,1,0.297135055,1,-0.498994231,1,0.023774443,1,-0.102992058,1,0.053848505,1,-0.03810215,1
0.283987194,-4.723585606,1,-2.544265747,1,-8.261301994,1,0.082698554,1,-0.067677386,1,-0.037423294,1,0.297590256,1,-0.499226004,1,0.023519354,1,-0.041369438,1,-0.026547194,1,-0.052186012,1
0.287986428,-4.764165401,1,-2.610813856,1,-8.259209633,1,0.084350504,1,-0.074676432,1,-0.040462706,1,0.298055589,1,-0.49945268,1,0.023246348,1,-0.080002785,1,-0.089586973,1,-0.052279472,1
0.291987717,-4.791493893,1,-2.684160709,1,-8.201626778,1,0.085659705,1,-0.06282562,1,-0.042566292,1,0.298531175,1,-0.499668986,1,0.022967556,1,-0.105474472,1,-0.159328938,1,0.003135681,1
0.295985162,-4.702173233,1,-2.721695185,1,-8.2052145,1,0.085413128,1,-0.068104059,1,-0.038547322,1,0.299004376,1,-0.499884278,1,0.022692312,1,-0.014305592,1,-0.19327879,1,-0.002612114,1
0.299984396,-4.670054436,1,-2.723679066,1,-8.213027,1,0.085075609,1,-0.070727602,1,-0.039920546,1,0.299469948,1,-0.500105977,1,0.02243535,1,0.019716263,1,-0.191750526,1,-0.01259613,1
0.303985655,-4.673362255,1,-2.712429047,1,-8.246422768,1,0.084920771,1,-0.074898772,1,-0.030924667,1,0.299930722,1,-0.500355124,1,0.022183888,1,0.018546104,1,-0.177067518,1,-0.048275948,1
0.3079831,-4.575750351,1,-2.740014553,1,-8.177991867,1,0.077871993,1,-0.07615409,1,-0.027632777,1,0.300366759,1,-0.500616431,1,0.02195677,1,0.118400574,1,-0.201441288,1,0.017877579,1
0.311982065,-4.621656895,1,-2.742082834,1,-8.192730904,1,0.076984055,1,-0.078718916,1,-0.025858168,1,0.300794125,1,-0.500879049,1,0.021733133,1,0.074746132,1,-0.200372219,1,0.000876427,1
0.315983355,-4.599082947,1,-2.782316923,1,-8.224433899,1,0.076942906,1,-0.084076583,1,-0.018889286,1,0.301207215,1,-0.501169443,1,0.021523139,1,0.099812031,1,-0.237626791,1,-0.03318119,1
0.319980532,-4.652671337,1,-2.750794888,1,-8.226620674,1,0.071331725,1,-0.083840534,1,-0.018375538,1,0.301602125,1,-0.501464784,1,0.021328431,1,0.048756123,1,-0.203283072,1,-0.037700653,1
0.323985934,-4.737616062,1,-2.791337729,1,-8.239896774,1,0.069124013,1,-0.085478097,1,-0.016244303,1,0.301973462,1,-0.501766741,1,0.021143787,1,-0.0335989,1,-0.241206646,1,-0.053277016,1
0.327987194,-4.81654644,1,-2.833343744,1,-8.22935009,1,0.065364696,1,-0.089648411,1,-0.012517933,1,0.302334309,1,-0.502081454,1,0.020965802,1,-0.109830856,1,-0.280699015,1,-0.045063972,1
0.331984639,-4.817382336,1,-2.825098991,1,-8.234550476,1,0.060533836,1,-0.081578106,1,-0.009947499,1,0.302668691,1,-0.502399266,1,0.020814253,1,-0.107942581,1,-0.270165443,1,-0.05255127,1
0.335983872,-4.769816875,1,-2.797264576,1,-8.216426849,1,0.062892124,1,-0.08514563,1,-0.003954305,1,0.302978277,1,-0.502721012,1,0.020662719,1,-0.057619095,1,-0.240250111,1,-0.036664963,1
0.339985162,-4.819371223,1,-2.746567488,1,-8.236162186,1,0.05475333,1,-0.083186686,1,0.001087333,1,0.303272039,1,-0.503032506,1,0.020541977,1,-0.104504585,1,-0.187588215,1,-0.058550835,1
0.343982339,-4.831093788,1,-2.765643835,1,-8.193761826,1,0.051470961,1,-0.080490202,1,0.003800675,1,0.30353415,1,-0.503343999,1,0.020431658,1,-0.113558292,1,-0.204961061,1,-0.018224716,1
0.347981572,-4.817465782,1,-2.76552248,1,-8.188941002,1,0.050885644,1,-0.080129161,1,0.004711004,1,0.303786933,1,-0.503660679,1,0.020332331,1,-0.09721756,1,-0.203220606,1,-0.015479088,1
0.351982862,-4.779399395,1,-2.81677866,1,-8.162325859,1,0.04093558,1,-0.084846012,1,0.015176001,1,0.304011106,1,-0.503982067,1,0.020262612,1,-0.056398392,1,-0.253098011,1,0.009116173,1
0.355980277,-4.683999538,1,-2.875272512,1,-8.182045937,1,0.042721327,1,-0.083287075,1,0.017412242,1,0.304201216,1,-0.504319608,1,0.020219177,1,0.041892052,1,-0.310515165,1,-0.012611389,1
0.35997951,-4.689557076,1,-2.888905525,1,-8.204134941,1,0.033476409,1,-0.085199475,1,0.022554092,1,0.304367125,1,-0.504663646,1,0.020185811,1,0.039280415,1,-0.323280811,1,-0.036678314,1
0.363980532,-4.714899063,1,-2.97717452,1,-8.184438705,1,0.025001662,1,-0.086581931,1,0.023444816,1,0.304485202,1,-0.505011857,1,0.020177798,1,0.016919136,1,-0.411079407,1,-0.018857002,1
0.367977977,-4.721032143,1,-2.927131891,1,-8.178415298,1,0.015860133,1,-0.084424548,1,0.029061433,1,0.304556787,1,-0.505364895,1,0.020191917,1,0.013807297,1,-0.360954285,1,-0.014615059,1
0.37197721,-4.80222702,1,-2.881733179,1,-8.146092415,1,0.008349302,1,-0.08669997,1,0.03387465,1,0.304600835,1,-0.505721927,1,0.020214576,1,-0.064332485,1,-0.315702438,1,0.015983582,1
0.3759785,-4.830182076,1,-2.804935932,1,-8.166994095,1,0.001952405,1,-0.081200689,1,0.0407901,1,0.304598451,1,-0.506080449,1,0.020266522,1,-0.089220524,1,-0.239434242,1,-0.006531715,1
0.379975945,-4.859586239,1,-2.740433931,1,-8.132435799,1,-1.48E-05,1,-0.076035716,1,0.040643163,1,0.304568052,1,-0.506435037,1,0.020338885,1,-0.115592003,1,-0.175683975,1,0.026501656,1
0.383975178,-4.806126595,1,-2.713591576,1,-8.14925766,1,-0.002335614,1,-0.072363757,1,0.039730623,1,0.30452913,1,-0.506773591,1,0.020413335,1,-0.059236526,1,-0.149641275,1,0.008246422,1
0.387976438,-4.824850082,1,-2.668289423,1,-8.141823769,1,-0.001038023,1,-0.072032399,1,0.044728022,1,0.30447495,1,-0.507102847,1,0.02050313,1,-0.075145245,1,-0.105250359,1,0.014327049,1
0.391973883,-4.929605484,1,-2.757859707,1,-8.194688797,1,-0.009205641,1,-0.07246834,1,0.052191798,1,0.304392695,1,-0.507429004,1,0.020612769,1,-0.177112103,1,-0.195955515,1,-0.039806366,1
0.395973116,-4.148399353,1,-2.71847415,1,-7.984541893,1,-0.023996061,1,-0.046402492,1,0.049779251,1,0.304213047,1,-0.507718444,1,0.020813242,1,0.606567383,1,-0.158446789,1,0.169489861,1
0.399974644,-4.900971889,1,-2.668709517,1,-8.160799026,1,-0.006426498,1,-0.07217294,1,0.045794003,1,0.30410254,1,-0.508016706,1,0.020925237,1,-0.143455982,1,-0.11000967,1,-0.007843018,1
0.40397799,-4.833842278,1,-2.751607656,1,-8.170578957,1,-0.018445538,1,-0.063840322,1,0.050266676,1,0.304247677,1,-0.508212686,1,0.020425938,1,-0.074651718,1,-0.192003489,1,-0.018882751,1
0.407977223,-4.830572605,1,-2.757915258,1,-8.132127762,1,-0.014373044,1,-0.066054694,1,0.047803037,1,0.304122627,1,-0.508524418,1,0.020547319,1,-0.06871891,1,-0.19977355,1,0.018475533,1
0.411978751,-4.792028427,1,-2.722147226,1,-8.127369881,1,-0.020807723,1,-0.064984947,1,0.05118078,1,0.303992748,1,-0.508829713,1,0.020670969,1,-0.02756691,1,-0.165500879,1,0.022173882,1
0.415976197,-4.714236736,1,-2.773350239,1,-8.140450478,1,-0.021264343,1,-0.067597426,1,0.051226482,1,0.303853571,1,-0.509133637,1,0.020797165,1,0.052820683,1,-0.218271017,1,0.008069038,1
0.41997543,-4.724893093,1,-2.782612801,1,-8.194992065,1,-0.025768925,1,-0.064748727,1,0.050232939,1,0.303689063,1,-0.509445488,1,0.020933487,1,0.044827461,1,-0.22931838,1,-0.047469139,1
0.42397669,-4.817382336,1,-2.800508022,1,-8.183296204,1,-0.032602631,1,-0.06738086,1,0.057641216,1,0.303501725,1,-0.509756982,1,0.021081235,1,-0.04500246,1,-0.249185324,1,-0.036716461,1
0.427973896,-4.827996731,1,-2.880224466,1,-8.16415596,1,-0.040387511,1,-0.060550913,1,0.060236022,1,0.303285241,1,-0.510066748,1,0.02124401,1,-0.05297327,1,-0.331105471,1,-0.018432617,1
0.43197313,-4.846175671,1,-2.908969641,1,-8.133368492,1,-0.045060456,1,-0.057000324,1,0.064148933,1,0.303026855,1,-0.510371208,1,0.02142771,1,-0.068553448,1,-0.362389565,1,0.01162529,1
0.435974389,-4.848159313,1,-2.827641249,1,-8.120475769,1,-0.051967107,1,-0.058736749,1,0.062669553,1,0.302740574,1,-0.510672629,1,0.021622561,1,-0.067965031,1,-0.283822298,1,0.023872375,1
0.439971596,-4.831284523,1,-2.688431263,1,-8.159534454,1,-0.051159836,1,-0.053871073,1,0.066478334,1,0.302439243,1,-0.510960996,1,0.021829365,1,-0.048630238,1,-0.147476912,1,-0.015734673,1
0.443970829,-4.87140274,1,-2.574484587,1,-8.149811745,1,-0.052347459,1,-0.049698424,1,0.063776933,1,0.3021245,1,-0.511233211,1,0.022042707,1,-0.086426735,1,-0.036482096,1,-0.00646019,1
0.447972089,-4.863762379,1,-2.542376995,1,-8.157179832,1,-0.055168211,1,-0.051544826,1,0.069031917,1,0.301810384,1,-0.511514902,1,0.02225426,1,-0.076383591,1,-0.007333517,1,-0.014318466,1
0.451969534,-4.82545805,1,-2.562678576,1,-8.133410454,1,-0.051178314,1,-0.044883892,1,0.066300489,1,0.301495373,1,-0.511779785,1,0.022469126,1,-0.035820484,1,-0.030576944,1,0.009037971,1
0.455968767,-4.877621651,1,-2.65582037,1,-8.155574799,1,-0.052124456,1,-0.048251439,1,0.06445381,1,0.301190138,1,-0.512039959,1,0.022673111,1,-0.085765839,1,-0.126573563,1,-0.013544083,1
0.459969789,-4.84114027,1,-2.7067101,1,-8.125757217,1,-0.051162124,1,-0.043964639,1,0.061361238,1,0.300874412,1,-0.512286544,1,0.022885131,1,-0.047182083,1,-0.180385113,1,0.01594162,1
0.463967234,-4.827151775,1,-2.701956034,1,-8.171222687,1,-0.053212933,1,-0.041904639,1,0.063165627,1,0.300563335,1,-0.512522042,1,0.023096194,1,-0.031186104,1,-0.178497553,1,-0.029815674,1
0.467966467,-4.888346672,1,-2.676282406,1,-8.26451683,1,-0.054485798,1,-0.044193249,1,0.061902203,1,0.300252616,1,-0.512762249,1,0.023298126,1,-0.090333939,1,-0.155694008,1,-0.123425484,1
0.471967995,-4.715600967,1,-2.615061045,1,-8.001343727,1,-0.057385005,1,-0.042899765,1,0.062500127,1,0.299904644,1,-0.513010502,1,0.023512691,1,0.084527493,1,-0.097657919,1,0.139485359,1
0.47596544,-4.906876564,1,-2.596854925,1,-8.161293983,1,-0.054770425,1,-0.038183089,1,0.060237579,1,0.299576312,1,-0.513228774,1,0.023729505,1,-0.104887962,1,-0.082434654,1,-0.020640373,1
0.479970813,-4.839072704,1,-2.568455458,1,-8.155164719,1,-0.048794664,1,-0.03592696,1,0.064578786,1,0.299253702,1,-0.513443828,1,0.023954662,1,-0.035252094,1,-0.056965351,1,-0.014686584,1
0.483972341,-4.544870377,1,-2.37173748,1,-7.906878948,1,-0.066515192,1,-0.009818305,1,0.071071684,1,0.298853427,1,-0.513649404,1,0.0242707,1,0.26070118,1,0.136203289,1,0.233660221,1
0.487969786,-4.983640671,1,-2.457809448,1,-8.302693367,1,-0.045138344,1,-0.050572898,1,0.06024798,1,0.298525542,1,-0.51385349,1,0.024497716,1,-0.176330566,1,0.0471735,1,-0.162269592,1
0.491969019,-4.794769764,1,-2.638206482,1,-8.141242981,1,-0.051537722,1,-0.039671127,1,0.059861451,1,0.298219174,1,-0.514086306,1,0.024702473,1,0.014523029,1,-0.13604641,1,-0.001122475,1
0.495970547,-4.84792614,1,-2.653443336,1,-8.19419384,1,-0.050477214,1,-0.034361389,1,0.060946621,1,0.297907352,1,-0.51429975,1,0.024917746,1,-0.036815643,1,-0.154123068,1,-0.054274559,1
0.499967992,-4.843019485,1,-2.587790251,1,-8.184309006,1,-0.048151627,1,-0.036428239,1,0.057546645,1,0.297605395,1,-0.514522612,1,0.025131855,1,-0.030011177,1,-0.09124279,1,-0.044661522,1
0.503967464,-4.863481522,1,-2.606027126,1,-8.151082039,1,-0.050787352,1,-0.04384537,1,0.057460263,1,0.297312051,1,-0.514744699,1,0.025325948,1,-0.048583031,1,-0.112180233,1,-0.011722565,1
0.507968783,-4.91188097,1,-2.571353674,1,-8.137075424,1,-0.049844854,1,-0.033907969,1,0.061794974,1,0.297004342,1,-0.514956951,1,0.025538232,1,-0.095175266,1,-0.080310345,1,0.002074242,1
0.511966228,-4.945516109,1,-2.506572008,1,-8.157319069,1,-0.050168641,1,-0.035390511,1,0.055439405,1,0.296712816,1,-0.515158415,1,0.025742207,1,-0.127095699,1,-0.018186331,1,-0.018375397,1
0.515965462,-4.904969692,1,-2.549528837,1,-8.151955605,1,-0.04962676,1,-0.032262798,1,0.058879919,1,0.296411037,1,-0.515364885,1,0.025958858,1,-0.084792137,1,-0.063889503,1,-0.01321125,1
0.519966722,-4.904852867,1,-2.590922356,1,-8.16505909,1,-0.052161254,1,-0.033089992,1,0.058132678,1,0.296106756,1,-0.51556015,1,0.026173605,1,-0.083014011,1,-0.108033657,1,-0.026457787,1
0.523963928,-4.905245781,1,-2.584822655,1,-8.121159554,1,-0.051592737,1,-0.029641753,1,0.060178719,1,0.295810342,1,-0.515753567,1,0.026379924,1,-0.08176136,1,-0.10461998,1,0.017281532,1
0.527963161,-4.906931877,1,-2.583017826,1,-8.137675285,1,-0.050425321,1,-0.025165824,1,0.059705861,1,0.295501709,1,-0.515930116,1,0.026600465,1,-0.081945419,1,-0.105575085,1,0.000715256,1
0.531964421,-4.937648773,1,-2.570988894,1,-8.115495682,1,-0.050646633,1,-0.02314391,1,0.059276469,1,0.295191675,1,-0.516102076,1,0.02682104,1,-0.111199856,1,-0.096310854,1,0.02286911,1
0.535961866,-4.944538116,1,-2.560271025,1,-8.11472702,1,-0.052360199,1,-0.025236508,1,0.057169683,1,0.294872731,1,-0.51626724,1,0.027053364,1,-0.11668396,1,-0.088419914,1,0.023664474,1
0.5399611,-4.915334702,1,-2.535561323,1,-8.108953476,1,-0.050035879,1,-0.025121544,1,0.057267323,1,0.29455632,1,-0.516435742,1,0.027274393,1,-0.086047173,1,-0.066521645,1,0.029442787,1
0.543962359,-4.92212534,1,-2.500661373,1,-8.131199837,1,-0.04889857,1,-0.018649891,1,0.053948127,1,0.29425624,1,-0.516582966,1,0.027487081,1,-0.091586113,1,-0.034270287,1,0.007255554,1
0.547959805,-4.923812866,1,-2.4283216,1,-8.156389236,1,-0.049335301,1,-0.01887781,1,0.053301781,1,0.293961048,1,-0.516726911,1,0.027700705,1,-0.092049122,1,0.035466194,1,-0.017869949,1
0.551959038,-4.896527767,1,-2.375453711,1,-8.165784836,1,-0.041872434,1,-0.013477108,1,0.046337217,1,0.293679178,1,-0.516858935,1,0.027906979,1,-0.063641548,1,0.085854292,1,-0.027186394,1
0.555960059,-4.937902927,1,-2.426243305,1,-8.141679764,1,-0.039705783,1,-0.014540515,1,0.049531378,1,0.293420315,1,-0.51696676,1,0.028101597,1,-0.104100227,1,0.032807112,1,-0.002942085,1
0.559963405,-4.925545216,1,-2.475028038,1,-8.136743546,1,-0.030893033,1,-0.01039659,1,0.041608997,1,0.293184042,1,-0.517078519,1,0.028280299,1,-0.090792179,1,-0.018056393,1,0.00206089,1
0.563962877,-4.89593792,1,-2.524405479,1,-8.138608932,1,-0.034020126,1,-0.012219547,1,0.038035646,1,0.292967558,1,-0.517161369,1,0.028442102,1,-0.060480118,1,-0.06931138,1,0.000342369,1
0.567964673,-4.898872375,1,-2.545317173,1,-8.117834091,1,-0.030548144,1,-0.009408112,1,0.041151717,1,0.292757928,1,-0.517250419,1,0.028597794,1,-0.062657833,1,-0.092053175,1,0.021220207,1
0.571962357,-4.895059109,1,-2.572351933,1,-8.14046669,1,-0.032522216,1,-0.008864318,1,0.036379777,1,0.292544067,1,-0.517322183,1,0.028753787,1,-0.058234215,1,-0.120928764,1,-0.001219749,1
0.57596159,-4.879450798,1,-2.588866234,1,-8.132896423,1,-0.036016971,1,-0.009696014,1,0.032990135,1,0.292340696,1,-0.517398477,1,0.028907645,1,-0.041977406,1,-0.139205694,1,0.006491661,1
0.579962909,-4.86448288,1,-2.597326994,1,-8.171776772,1,-0.034332007,1,-0.003673,1,0.039849795,1,0.292126238,1,-0.517457724,1,0.029061221,1,-0.026505947,1,-0.149494648,1,-0.032137871,1
0.583960295,-4.907461166,1,-2.540298462,1,-8.162606239,1,-0.0343749,1,-0.002366008,1,0.036776394,1,0.291914761,1,-0.517512143,1,0.029226804,1,-0.069022179,1,-0.094263077,1,-0.022701263,1
0.587959528,-4.927412033,1,-2.506389856,1,-8.168937683,1,-0.032672174,1,-0.005553186,1,0.03631518,1,0.291694105,1,-0.517565548,1,0.029389806,1,-0.08851862,1,-0.062224627,1,-0.028739929,1
0.591960847,-4.883665085,1,-2.530567169,1,-8.17671299,1,-0.034195222,1,-6.27E-05,1,0.035351843,1,0.291481972,1,-0.51761055,1,0.029547079,1,-0.044389248,1,-0.088191986,1,-0.036207199,1
0.595958292,-4.877259254,1,-2.527207613,1,-8.164528847,1,-0.034733959,1,0.00037087,1,0.031604797,1,0.291273534,1,-0.517646492,1,0.02970233,1,-0.037678242,1,-0.086578369,1,-0.023677826,1
0.599957764,-4.90619421,1,-2.498961687,1,-8.178868294,1,-0.030296786,1,0.003012352,1,0.036940895,1,0.291070819,1,-0.517681837,1,0.029842587,1,-0.066313267,1,-0.060032129,1,-0.037688255,1
0.603959024,-4.867474556,1,-2.456594944,1,-8.156359673,1,-0.032083414,1,0.001183908,1,0.031398907,1,0.290864825,1,-0.517707527,1,0.029999096,1,-0.027374744,1,-0.019378662,1,-0.014797211,1
0.607956231,-4.913481236,1,-2.471915245,1,-8.156281471,1,-0.027699437,1,0.00392996,1,0.030037535,1,0.29067874,1,-0.517731845,1,0.030131534,1,-0.07317543,1,-0.03624773,1,-0.014379501,1
0.611955464,-4.918082237,1,-2.523236752,1,-8.127239227,1,-0.031122692,1,0.005716118,1,0.028152687,1,0.290490091,1,-0.517748237,1,0.030269474,1,-0.077636719,1,-0.089127302,1,0.015048981,1
0.615956724,-4.908905506,1,-2.505880833,1,-8.167672157,1,-0.029402353,1,0.007094219,1,0.030586449,1,0.290313363,1,-0.517759919,1,0.030393202,1,-0.068361282,1,-0.073227167,1,-0.025009155,1
0.619954169,-4.916397572,1,-2.478328466,1,-8.130795479,1,-0.031057352,1,0.008597611,1,0.030103864,1,0.290133536,1,-0.517762005,1,0.030525068,1,-0.075835228,1,-0.047142029,1,0.012294769,1
0.62395364,-4.873229504,1,-2.49513483,1,-8.162286758,1,-0.026727024,1,0.009734772,1,0.025958007,1,0.289963543,1,-0.517755508,1,0.030648099,1,-0.032721519,1,-0.06532383,1,-0.018754005,1
0.62795496,-4.879392624,1,-2.510178089,1,-8.129043579,1,-0.026502108,1,0.010667658,1,0.023259731,1,0.28979516,1,-0.517743409,1,0.030771837,1,-0.038988113,1,-0.081721306,1,0.014954567,1
0.631952643,-4.870673656,1,-2.544508696,1,-8.147022247,1,-0.024975242,1,0.010742347,1,0.023487801,1,0.289629489,1,-0.51772809,1,0.030887084,1,-0.030399799,1,-0.117379665,1,-0.002549171,1
0.635951877,-4.888528347,1,-2.557891846,1,-8.172499657,1,-0.027616579,1,0.008971132,1,0.024108302,1,0.289458632,1,-0.517712295,1,0.031008461,1,-0.048388004,1,-0.132132292,1,-0.027537346,1
0.639959276,-4.884087086,1,-2.581609964,1,-8.169750214,1,-0.024538979,1,0.013805686,1,0.026062381,1,0.289285898,1,-0.517698765,1,0.031137263,1,-0.044061661,1,-0.157239199,1,-0.024308205,1
0.64396286,-5.016291142,1,-2.573242188,1,-8.269360542,1,-0.041029736,1,0.002916309,1,0.026632262,1,0.289104521,1,-0.517695308,1,0.031258963,1,-0.176295757,1,-0.150343418,1,-0.123461723,1
0.64796263,-4.864962578,1,-2.470073938,1,-8.095216751,1,-0.029146507,1,0.010378366,1,0.025266696,1,0.288899511,1,-0.517691255,1,0.031382419,1,-0.025001049,1,-0.048840523,1,0.051195145,1
0.65196389,-4.849041939,1,-2.520870924,1,-8.111170769,1,-0.028556503,1,0.015354021,1,0.02446074,1,0.288869023,1,-0.517721355,1,0.031257041,1,-0.008824348,1,-0.099926472,1,0.035178185,1
0.655961335,-4.904614925,1,-2.429370165,1,-8.190944672,1,-0.027389361,1,0.011297286,1,0.022527805,1,0.28870973,1,-0.51765132,1,0.031247949,1,-0.064992905,1,-0.009627819,1,-0.043888092,1
0.659960568,-4.863114834,1,-2.430772066,1,-8.166424751,1,-0.021257583,1,0.008650845,1,0.021376971,1,0.288553268,1,-0.517641723,1,0.031359565,1,-0.023574352,1,-0.012291193,1,-0.018943787,1
0.663962126,-4.861478329,1,-2.471482277,1,-8.123552322,1,-0.020485483,1,0.01283059,1,0.016841315,1,0.288407177,1,-0.517617702,1,0.031462085,1,-0.022141933,1,-0.054158688,1,0.024393082,1
0.667959571,-4.836047649,1,-2.491336107,1,-8.143633842,1,-0.021557603,1,0.009107713,1,0.014503404,1,0.288282752,1,-0.517594457,1,0.031546921,1,0.003090858,1,-0.074994087,1,0.004719734,1
0.671958804,-4.804201126,1,-2.475805759,1,-8.178525925,1,-0.017519597,1,0.007083137,1,0.009867974,1,0.288167357,1,-0.517571449,1,0.031628612,1,0.034741879,1,-0.060372591,1,-0.029787064,1
0.675960064,-4.825459003,1,-2.41817379,1,-8.190587044,1,-0.014750763,1,0.009570674,1,0.012735303,1,0.288068295,1,-0.517554581,1,0.031697292,1,0.013340473,1,-0.003524542,1,-0.041530609,1
0.679957509,-4.799646378,1,-2.407723188,1,-8.197010994,1,-0.011342787,1,0.005114575,1,0.007080787,1,0.287983418,1,-0.517538011,1,0.031760581,1,0.039012432,1,0.006257772,1,-0.047671318,1
0.683956742,-4.805606365,1,-2.469402075,1,-8.198637962,1,-0.010110004,1,6.60E-05,1,0.007447419,1,0.287921786,1,-0.517542422,1,0.031796195,1,0.033090115,1,-0.055929661,1,-0.04916954,1
0.687958002,-4.822544575,1,-2.475052118,1,-8.203935623,1,-0.004965842,1,0.003128003,1,0.004205813,1,0.287873954,1,-0.517542183,1,0.031826477,1,0.016149998,1,-0.061969757,1,-0.05435276,1
0.691955447,-4.835929871,1,-2.472108841,1,-8.210748672,1,-0.005931286,1,-0.000642568,1,0.002688816,1,0.287842333,1,-0.517547727,1,0.031848375,1,0.002811909,1,-0.059291363,1,-0.061113358,1
0.695954919,-4.835464954,1,-2.477164507,1,-8.191649437,1,-0.004852033,1,-0.003486536,1,0.005954306,1,0.287810802,1,-0.517558575,1,0.031863105,1,0.003368855,1,-0.064618587,1,-0.041988373,1
0.699956238,-4.822621822,1,-2.469296455,1,-8.209340096,1,-0.001217939,1,-0.00315964,1,-0.002791543,1,0.287791133,1,-0.517575502,1,0.031867009,1,0.016355515,1,-0.05693388,1,-0.059708595,1
0.703953385,-4.811487198,1,-2.49571991,1,-8.203894615,1,-6.77E-05,1,-0.00728164,1,0.002439292,1,0.287788868,1,-0.517595649,1,0.031860903,1,0.027661324,1,-0.083403587,1,-0.054351807,1
0.707952917,-4.858820915,1,-2.483196259,1,-8.193216324,1,0.00483479,1,-0.007803041,1,-0.001273226,1,0.28780511,1,-0.51762557,1,0.031845912,1,-0.019417763,1,-0.070788622,1,-0.043851852,1
0.711954415,-4.829667091,1,-2.446175337,1,-8.165035248,1,0.005091652,1,-0.010327484,1,-0.002244808,1,0.287819624,1,-0.517661273,1,0.031826075,1,0.010039806,1,-0.033699989,1,-0.015875816,1
0.715957522,-4.799168587,1,-2.466537952,1,-8.161905289,1,0.000970337,1,-0.01367825,1,-0.003082369,1,0.287849873,1,-0.517710507,1,0.03179856,1,0.040956497,1,-0.053883314,1,-0.013045311,1
0.719956756,-4.790691376,1,-2.529673338,1,-8.189299583,1,0.008581157,1,-0.017314123,1,-0.00097446,1,0.287878901,1,-0.517767429,1,0.031765286,1,0.049917698,1,-0.116859913,1,-0.040773392,1
0.723958552,-4.788241863,1,-2.578884125,1,-8.207043648,1,0.000467391,1,-0.015349026,1,-0.000634353,1,0.287904859,1,-0.517827392,1,0.031753983,1,0.052876472,1,-0.165941,1,-0.058856964,1
0.727956474,-4.786826611,1,-2.618582964,1,-8.175439835,1,0.00163589,1,-0.024001187,1,0.007224755,1,0.287917167,1,-0.517909527,1,0.031742357,1,0.054989815,1,-0.205653429,1,-0.027667046,1
0.731955707,-4.823847771,1,-2.659379959,1,-8.167524338,1,-0.005060014,1,-0.024236508,1,0.008441005,1,0.28790921,1,-0.51801163,1,0.031743743,1,0.018836021,1,-0.246655226,1,-0.02020359,1
0.735956967,-4.873846054,1,-2.640671015,1,-8.170330048,1,-0.003893153,1,-0.028229101,1,0.014426151,1,0.287875623,1,-0.518116474,1,0.031760473,1,-0.03027153,1,-0.228364229,1,-0.023415565,1
0.739954412,-4.849075317,1,-2.598659754,1,-8.184246063,1,-0.008794568,1,-0.034775551,1,0.013429206,1,0.287829399,1,-0.518238842,1,0.031792365,1,-0.004461288,1,-0.186897755,1,-0.037788391,1
0.743953645,-4.864851475,1,-2.588171005,1,-8.168714523,1,-0.01488695,1,-0.023197321,1,0.02023443,1,0.287762523,1,-0.518372178,1,0.031827692,1,-0.019104481,1,-0.17713666,1,-0.022713661,1
0.747954965,-4.888717175,1,-2.581655025,1,-8.156331062,1,-0.014036885,1,-0.028934706,1,0.019263744,1,0.287685335,1,-0.518495798,1,0.031874768,1,-0.041920185,1,-0.171419144,1,-0.010717392,1
0.75195241,-4.910399914,1,-2.595653534,1,-8.130143166,1,-0.014351562,1,-0.028181296,1,0.022329155,1,0.287596464,1,-0.518621981,1,0.031930283,1,-0.062530994,1,-0.18631506,1,0.015097618,1
0.755951643,-4.862612247,1,-2.574285269,1,-8.157336235,1,-0.023103293,1,-0.025730267,1,0.021028768,1,0.287491441,1,-0.518745959,1,0.031984255,1,-0.013689995,1,-0.165973902,1,-0.012422562,1
0.759953141,-4.8490839,1,-2.529015779,1,-8.125505447,1,-0.021226332,1,-0.025720242,1,0.022144536,1,0.287369311,1,-0.51886797,1,0.032052688,1,0.000874996,1,-0.121865988,1,0.019136429,1
0.763950825,-4.834231377,1,-2.479434013,1,-8.157431602,1,-0.022291392,1,-0.023108602,1,0.020674068,1,0.287253976,1,-0.518985868,1,0.032108858,1,0.016728878,1,-0.073386192,1,-0.01306057,1
0.767950356,-4.835094452,1,-2.444448471,1,-8.121832848,1,-0.020530166,1,-0.025064219,1,0.018980648,1,0.287141442,1,-0.519105732,1,0.032168705,1,0.016883373,1,-0.039481401,1,0.022252083,1
0.771951616,-4.883111,1,-2.457054853,1,-8.128806114,1,-0.020613255,1,-0.024340818,1,0.020515658,1,0.287025034,1,-0.519223809,1,0.032225657,1,-0.03013134,1,-0.053198576,1,0.015007019,1
0.775949061,-4.890383244,1,-2.462729931,1,-8.135181427,1,-0.019275025,1,-0.021735942,1,0.017234799,1,0.286925197,1,-0.519339979,1,0.032289732,1,-0.036417007,1,-0.059845924,1,0.008331299,1
0.779948056,-4.860120296,1,-2.464428186,1,-8.120880127,1,-0.01315993,1,-0.021202708,1,0.016151991,1,0.28683871,1,-0.519446433,1,0.032327008,1,-0.005249977,1,-0.062394857,1,0.022344589,1
0.783949554,-4.898895264,1,-2.486030817,1,-8.130393982,1,-0.015813015,1,-0.024381815,1,0.017915696,1,0.286761612,1,-0.519551635,1,0.032374866,1,-0.043131828,1,-0.084769726,1,0.012526512,1
0.787946999,-4.87127924,1,-2.488589525,1,-8.133646965,1,-0.01536956,1,-0.020635139,1,0.01778991,1,0.286684811,1,-0.519655287,1,0.03240826,1,-0.01463604,1,-0.088095903,1,0.008975983,1
0.791946232,-4.843357563,1,-2.481074572,1,-8.126976967,1,-0.015380682,1,-0.024044134,1,0.011199346,1,0.286611021,1,-0.51975584,1,0.032439351,1,0.014139652,1,-0.081320286,1,0.015354156,1
0.795953691,-4.87108469,1,-2.53745985,1,-8.142158508,1,-0.017906368,1,-0.022229332,1,0.015173808,1,0.286525697,1,-0.519857943,1,0.032480307,1,-0.012721062,1,-0.138540506,1,-9.82E-05,1
0.799957275,-4.905596733,1,-2.515033484,1,-8.133461952,1,-0.016953982,1,-0.017279856,1,0.016588686,1,0.286439717,1,-0.519948065,1,0.032521222,1,-0.046468258,1,-0.116937637,1,0.008384705,1
0.803956985,-4.839627743,1,-2.50680232,1,-8.102510452,1,-0.018969372,1,-0.02144115,1,0.017393524,1,0.286347747,1,-0.520038366,1,0.032562681,1,0.020267487,1,-0.109579325,1,0.039136887,1
0.807958245,-4.849349499,1,-2.562017441,1,-8.094694138,1,-0.020350752,1,-0.017741036,1,0.018746581,1,0.286243618,1,-0.520131946,1,0.032617465,1,0.011340141,1,-0.165769815,1,0.046767235,1
0.811955452,-4.892984867,1,-2.55394125,1,-8.11518383,1,-0.021099443,1,-0.01930489,1,0.017201865,1,0.286135912,1,-0.520226121,1,0.032670628,1,-0.031496048,1,-0.158700943,1,0.026091576,1
0.815955222,-4.855913162,1,-2.569051743,1,-8.138092995,1,-0.021880435,1,-0.017637942,1,0.014683157,1,0.286023468,1,-0.520305991,1,0.032722544,1,0.006253719,1,-0.174836874,1,0.003079414,1
0.819956481,-4.860487461,1,-2.541629791,1,-8.156326294,1,-0.024592692,1,-0.014417174,1,0.017314017,1,0.285904765,1,-0.520394623,1,0.032780953,1,0.002430439,1,-0.148502111,1,-0.01527977,1
0.823954165,-4.885335445,1,-2.496415377,1,-8.125631332,1,-0.024596503,1,-0.017236426,1,0.020088138,1,0.285772592,1,-0.520476937,1,0.032841191,1,-0.021718502,1,-0.10447669,1,0.015345573,1
0.827953935,-4.877684593,1,-2.49938798,1,-8.149290085,1,-0.023894608,1,-0.017519681,1,0.013966579,1,0.285643727,1,-0.520559669,1,0.032898795,1,-0.013365746,1,-0.108612299,1,-0.008392334,1
0.831955194,-4.85974884,1,-2.486421824,1,-8.156618118,1,-0.026155928,1,-0.018806528,1,0.01299548,1,0.285524189,1,-0.520642579,1,0.032941371,1,0.005273819,1,-0.096731663,1,-0.015818596,1
0.83595264,-4.917181015,1,-2.444588661,1,-8.155576706,1,-0.020027755,1,-0.015761824,1,0.016145263,1,0.285406947,1,-0.52071631,1,0.032991964,1,-0.051533222,1,-0.055954218,1,-0.01484108,1
0.839951873,-4.919827938,1,-2.48783803,1,-8.137740135,1,-0.022107862,1,-0.014046059,1,0.015906498,1,0.285293221,1,-0.520791888,1,0.033042517,1,-0.053538799,1,-0.100232601,1,0.002914429,1
0.843953133,-4.900940895,1,-2.474305868,1,-8.144043922,1,-0.022880571,1,-0.009735776,1,0.014049793,1,0.285183191,1,-0.520853639,1,0.033087786,1,-0.034127712,1,-0.087681055,1,-0.003416061,1
0.847950578,-4.884959698,1,-2.460328341,1,-8.122408867,1,-0.021606045,1,-0.016610384,1,0.014868978,1,0.285068154,1,-0.520919561,1,0.033136807,1,-0.017587662,1,-0.074730396,1,0.018185616,1
0.851950109,-4.874720573,1,-2.465567589,1,-8.112234116,1,-0.018939512,1,-0.012898698,1,0.013464294,1,0.284969419,1,-0.520993531,1,0.033176791,1,-0.006721497,1,-0.080874681,1,0.028249741,1
0.855951607,-4.902691841,1,-2.432240248,1,-8.110832214,1,-0.016995858,1,-0.014915013,1,0.019045677,1,0.284871638,1,-0.521067321,1,0.033232775,1,-0.0340662,1,-0.04844451,1,0.029540062,1
0.859949291,-4.822789192,1,-2.430393934,1,-8.153382301,1,-0.017888304,1,-0.013113086,1,0.012135657,1,0.28477937,1,-0.521135509,1,0.033272739,1,0.046414852,1,-0.047442913,1,-0.013110161,1
0.863948286,-4.833386898,1,-2.454565525,1,-8.12447834,1,-0.014793118,1,-0.013687941,1,0.018618699,1,0.284689903,1,-0.521204174,1,0.033325315,1,0.036399364,1,-0.072436571,1,0.015686989,1
0.867949545,-4.8447752,1,-2.505875826,1,-8.173823357,1,-0.018748246,1,-0.016640911,1,0.015078731,1,0.284592867,1,-0.521279752,1,0.03338271,1,0.025652409,1,-0.124640226,1,-0.033782005,1
0.87194699,-4.860099792,1,-2.606002331,1,-8.158478737,1,-0.018979177,1,-0.014269653,1,0.019597415,1,0.284485638,1,-0.52135402,1,0.033439498,1,0.010957718,1,-0.225741148,1,-0.018528938,1
0.875952363,-4.85217905,1,-2.549975395,1,-8.134316444,1,-0.023685325,1,-0.016832709,1,0.022755632,1,0.284367323,1,-0.521433771,1,0.033506591,1,0.019554615,1,-0.170785904,1,0.005543709,1
0.879953921,-4.880745888,1,-2.546713114,1,-8.158446312,1,-0.02041257,1,-0.015665254,1,0.017341834,1,0.284245193,1,-0.52152127,1,0.033571649,1,-0.008270264,1,-0.168637037,1,-0.018704414,1
0.883951366,-4.87957859,1,-2.439317703,1,-8.165692329,1,-0.02205297,1,-0.020362768,1,0.019785861,1,0.284127325,1,-0.521608829,1,0.033637043,1,-0.006360054,1,-0.062321186,1,-0.026081085,1
0.887950599,-4.913660049,1,-2.431554794,1,-8.166528702,1,-0.024072917,1,-0.021398664,1,0.018573135,1,0.284013599,1,-0.521706641,1,0.033695783,1,-0.03961277,1,-0.055617094,1,-0.027103424,1
0.891951859,-4.905486584,1,-2.392162323,1,-8.140440941,1,-0.018965943,1,-0.017295722,1,0.019819571,1,0.283898234,1,-0.52180177,1,0.033760756,1,-0.030632973,1,-0.017293692,1,-0.001186371,1
0.895949304,-4.895607471,1,-2.382519245,1,-8.125557899,1,-0.019266795,1,-0.024226163,1,0.017105799,1,0.283805728,1,-0.521905243,1,0.03381278,1,-0.019875526,1,-0.008544445,1,0.013432503,1
0.899948537,-4.917329311,1,-2.410005093,1,-8.156599998,1,-0.016431618,1,-0.019911664,1,0.015927643,1,0.283705771,1,-0.522004366,1,0.033863816,1,-0.040757656,1,-0.03697896,1,-0.017835617,1
0.903949797,-4.924953938,1,-2.438228369,1,-8.202547073,1,-0.011386698,1,-0.021932805,1,0.018080745,1,0.283775032,1,-0.522045314,1,0.033539511,1,-0.048035145,1,-0.064694881,1,-0.06414032,1
0.907947004,-4.896564484,1,-2.42884016,1,-8.146753311,1,-0.018297367,1,-0.02281758,1,0.015476352,1,0.283696532,1,-0.522147655,1,0.033589527,1,-0.018778324,1,-0.056085348,1,-0.008640289,1
0.911946237,-4.891489983,1,-2.451081514,1,-8.174176216,1,-0.012436595,1,-0.02130948,1,0.014222503,1,0.283615708,1,-0.522252858,1,0.033630047,1,-0.012812138,1,-0.079128027,1,-0.036361694,1
0.915947497,-4.897106647,1,-2.504319429,1,-8.182795525,1,-0.013816933,1,-0.026254956,1,0.018173262,1,0.283543527,1,-0.52236408,1,0.033674967,1,-0.017485619,1,-0.13310504,1,-0.045331001,1
0.919944942,-4.881984711,1,-2.472444773,1,-8.146988869,1,-0.013276668,1,-0.024950916,1,0.01776319,1,0.283469886,1,-0.522475302,1,0.033716619,1,-0.001420975,1,-0.101982117,1,-0.00987339,1
0.923944473,-4.889712811,1,-2.478079557,1,-8.162021637,1,-0.011548115,1,-0.031533204,1,0.015946753,1,0.283396959,1,-0.52259928,1,0.033764198,1,-0.008098125,1,-0.108379126,1,-0.025313377,1
0.927945733,-4.870920658,1,-2.522789717,1,-8.133423805,1,-0.016986035,1,-0.026862871,1,0.019576564,1,0.283318996,1,-0.52273643,1,0.033809304,1,0.011856079,1,-0.153910875,1,0.002825737,1
0.931943178,-4.872951031,1,-2.490728617,1,-8.166282654,1,-0.011657325,1,-0.031062672,1,0.018722834,1,0.283234179,1,-0.522868335,1,0.033862855,1,0.010942936,1,-0.122719526,1,-0.030450821,1
0.93594265,-4.886163235,1,-2.504309893,1,-8.152251244,1,-0.016490515,1,-0.035286825,1,0.02027081,1,0.283157289,1,-0.523010254,1,0.03390795,1,-0.001066685,1,-0.137121201,1,-0.016905785,1
0.939943671,-4.908144474,1,-2.462867975,1,-8.174873352,1,-0.016409418,1,-0.031284846,1,0.017018031,1,0.283069491,1,-0.523154736,1,0.03396089,1,-0.021823406,1,-0.096590996,1,-0.039996147,1
0.943941116,-4.917143822,1,-2.489758968,1,-8.1375103,1,-0.016942937,1,-0.032109056,1,0.019117085,1,0.282989144,1,-0.523304045,1,0.034002446,1,-0.029558182,1,-0.124337912,1,-0.00314045,1
0.94794035,-4.936977863,1,-2.464263439,1,-8.14227581,1,-0.015757585,1,-0.034865111,1,0.01914533,1,0.28290081,1,-0.523444355,1,0.034045078,1,-0.048203468,1,-0.099752426,1,-0.008356094,1
0.951941907,-4.966029644,1,-2.424295425,1,-8.129784584,1,-0.016078927,1,-0.030807531,1,0.020283375,1,0.282819867,1,-0.523588359,1,0.034092568,1,-0.0760355,1,-0.060639858,1,0.003647804,1
0.955945194,-4.925667286,1,-2.405986309,1,-8.111210823,1,-0.014135753,1,-0.031763364,1,0.015625326,1,0.282741427,1,-0.523725629,1,0.034130808,1,-0.034510612,1,-0.043155909,1,0.021762848,1
0.959944427,-4.940899372,1,-2.407778025,1,-8.126124382,1,-0.010514175,1,-0.031318489,1,0.020876326,1,0.282670915,1,-0.523857713,1,0.034169953,1,-0.048624039,1,-0.045701265,1,0.00639534,1
0.963945746,-4.921161175,1,-2.440994978,1,-8.10469532,1,-0.012898484,1,-0.026629804,1,0.017064955,1,0.282598913,1,-0.523987114,1,0.034219429,1,-0.027790546,1,-0.079680443,1,0.027385712,1
0.967943192,-4.926923752,1,-2.468610764,1,-8.118812561,1,-0.008501036,1,-0.026166001,1,0.014267106,1,0.282538712,1,-0.524099171,1,0.034256686,1,-0.032603264,1,-0.107939243,1,0.01288414,1
0.971942127,-4.886773586,1,-2.519573212,1,-8.116117477,1,-0.015638631,1,-0.025082618,1,0.020481959,1,0.282464087,1,-0.524223685,1,0.034305215,1,0.008600712,1,-0.159677505,1,0.015172005,1
0.975943446,-4.862264633,1,-2.570235014,1,-8.085457802,1,-0.015036317,1,-0.021960657,1,0.025031537,1,0.28237018,1,-0.524335623,1,0.034370091,1,0.034057617,1,-0.211255789,1,0.045525551,1
0.979940593,-4.885742664,1,-2.586343765,1,-8.096540451,1,-0.018814499,1,-0.02189297,1,0.02286711,1,0.282265186,1,-0.524446249,1,0.03444818,1,0.011515617,1,-0.228369236,1,0.034170151,1
0.983939826,-4.896493912,1,-2.597920179,1,-8.105205536,1,-0.01771773,1,-0.021567851,1,0.028218804,1,0.282139897,1,-0.524558723,1,0.034532793,1,0.001717091,1,-0.241117716,1,0.025271416,1
0.987941146,-4.905985832,1,-2.588686228,1,-8.11192894,1,-0.032220129,1,-0.02359614,1,0.030680032,1,0.28198567,1,-0.524677575,1,0.034630168,1,-0.00676918,1,-0.233299494,1,0.018354416,1
0.991938531,-4.93440485,1,-2.562684536,1,-8.136536598,1,-0.032374561,1,-0.021954723,1,0.030912997,1,0.281802177,1,-0.524789631,1,0.034745917,1,-0.034239292,1,-0.208942175,1,-0.006350517,1
0.995937765,-4.885318279,1,-2.49399662,1,-8.152586937,1,-0.033414084,1,-0.019475369,1,0.029242015,1,0.28161791,1,-0.524908483,1,0.034855869,1,0.015852928,1,-0.141914368,1,-0.022526741,1
0.999939084,-4.867081642,1,-2.449156046,1,-8.194151878,1,-0.033678591,1,-0.025312401,1,0.033678442,1,0.281430125,1,-0.52502352,1,0.034967501,1,0.03506279,1,-0.098757505,1,-0.064192772,1
1.003936291,-4.928803444,1,-2.36576581,1,-8.211463928,1,-0.029628292,1,-0.027324824,1,0.0308393,1,0.281253666,1,-0.525153518,1,0.035073262,1,-0.025558949,1,-0.016978502,1,-0.081700325,1
1.007935524,-4.946032047,1,-2.383015394,1,-8.147395134,1,-0.028496504,1,-0.023448791,1,0.03011754,1,0.281082511,1,-0.525285065,1,0.035181772,1,-0.041674137,1,-0.035798788,1,-0.017849922,1
1.011936784,-4.953657627,1,-2.395160913,1,-8.159039497,1,-0.029700864,1,-0.026026366,1,0.029118432,1,0.280923009,1,-0.525423586,1,0.035287701,1,-0.048127174,1,-0.049429417,1,-0.029773712,1
1.015934229,-4.94396019,1,-2.394794464,1,-8.162525177,1,-0.026777748,1,-0.021508159,1,0.027654069,1,0.280765265,1,-0.525550961,1,0.035382733,1,-0.037352085,1,-0.050518751,1,-0.033490181,1
1.019933462,-4.971998215,1,-2.449247122,1,-8.141477585,1,-0.02451333,1,-0.026137935,1,0.024811057,1,0.280632794,1,-0.525681436,1,0.035456814,1,-0.064287186,1,-0.106225491,1,-0.012746811,1
1.023934722,-4.947546482,1,-2.394871473,1,-8.140851974,1,-0.01930921,1,-0.029633997,1,0.024960726,1,0.280498624,1,-0.525820732,1,0.035537936,1,-0.038656712,1,-0.053129435,1,-0.012462616,1
1.027932167,-4.964398384,1,-2.385160446,1,-8.158556938,1,-0.018595805,1,-0.025673993,1,0.023639696,1,0.280375004,1,-0.525950193,1,0.035613064,1,-0.054413319,1,-0.044599056,1,-0.030488968,1
1.03193748,-4.953541756,1,-2.396362305,1,-8.140353203,1,-0.019417794,1,-0.027854346,1,0.020715129,1,0.280264169,1,-0.526076376,1,0.035684563,1,-0.042489529,1,-0.056872845,1,-0.012619972,1
1.035939097,-4.940165997,1,-2.386344433,1,-8.126830101,1,-0.015390532,1,-0.02394795,1,0.021246571,1,0.280163288,1,-0.526201189,1,0.035747051,1,-0.028058529,1,-0.04784441,1,0.000549316,1
1.039936543,-4.973886967,1,-2.400328875,1,-8.135428429,1,-0.017834146,1,-0.020830264,1,0.019552832,1,0.280064523,1,-0.526316464,1,0.035824936,1,-0.06080389,1,-0.062788486,1,-0.00836277,1
1.043935776,-4.938813686,1,-2.435026169,1,-8.13512516,1,-0.013493896,1,-0.02439028,1,0.02373415,1,0.279972702,1,-0.52643472,1,0.035885256,1,-0.024731159,1,-0.098392487,1,-0.008403778,1
1.047937274,-4.901737213,1,-2.507833719,1,-8.116288185,1,-0.019308874,1,-0.022134762,1,0.020646807,1,0.279871881,1,-0.526550114,1,0.035964623,1,0.0133214,1,-0.172175884,1,0.01012516,1
1.051934719,-4.857230186,1,-2.533926249,1,-8.124062538,1,-0.023446048,1,-0.025009226,1,0.025756396,1,0.279754043,1,-0.526663363,1,0.036049329,1,0.058785439,1,-0.199379921,1,0.0020895,1
1.055933952,-4.874198914,1,-2.51194334,1,-8.114919662,1,-0.026119011,1,-0.019813528,1,0.033081315,1,0.279600024,1,-0.526778281,1,0.036154076,1,0.042788506,1,-0.178804159,1,0.011048317,1
1.059935212,-4.90041256,1,-2.534852982,1,-8.139965057,1,-0.03091797,1,-0.018667618,1,0.036909521,1,0.279420018,1,-0.52689153,1,0.036286388,1,0.017532349,1,-0.20333147,1,-0.014115334,1
1.063932657,-4.93245554,1,-2.528209686,1,-8.108376503,1,-0.033336375,1,-0.020343088,1,0.037199326,1,0.279227436,1,-0.527019203,1,0.03641599,1,-0.013431072,1,-0.19842577,1,0.017319679,1
1.067932129,-4.934408665,1,-2.513210297,1,-8.086984634,1,-0.035173103,1,-0.023982795,1,0.040648058,1,0.279021323,1,-0.527136505,1,0.036556173,1,-0.01439333,1,-0.185259581,1,0.038638115,1
1.071933389,-4.970745087,1,-2.473841667,1,-8.10478878,1,-0.041734956,1,-0.019664982,1,0.039769098,1,0.278798074,1,-0.527267277,1,0.036709454,1,-0.049623966,1,-0.147882462,1,0.020734787,1
1.075930595,-4.986943722,1,-2.456949234,1,-8.111160278,1,-0.039691746,1,-0.019011002,1,0.041644022,1,0.278553158,1,-0.5273785,1,0.036874093,1,-0.064882755,1,-0.13313055,1,0.014406204,1
1.079930067,-4.978736877,1,-2.406036139,1,-8.095876694,1,-0.043002002,1,-0.016725862,1,0.042292409,1,0.278312564,1,-0.527488291,1,0.037031092,1,-0.055747986,1,-0.084321022,1,0.029728889,1
1.083931446,-4.968940735,1,-2.383081675,1,-8.109703064,1,-0.038490489,1,-0.009501977,1,0.040188245,1,0.278069139,1,-0.527587473,1,0.037200693,1,-0.045113564,1,-0.063478708,1,0.015996933,1
1.087928891,-4.991325378,1,-2.361846924,1,-8.099836349,1,-0.037058212,1,-0.010626381,1,0.036059462,1,0.277833223,1,-0.527666509,1,0.037366167,1,-0.066830158,1,-0.044267654,1,0.026037216,1
1.091928005,-5.01213026,1,-2.350456476,1,-8.06987381,1,-0.038113125,1,-0.011406731,1,0.040130921,1,0.277602434,1,-0.527743816,1,0.037519224,1,-0.08698225,1,-0.034856796,1,0.05616951,1
1.095929384,-4.968997002,1,-2.396253824,1,-8.111587524,1,-0.034724914,1,-0.007981986,1,0.037129685,1,0.277380407,1,-0.527814567,1,0.037680801,1,-0.043251514,1,-0.082554102,1,0.014635086,1
1.099927068,-4.967767239,1,-2.390577078,1,-8.100871086,1,-0.03507217,1,-0.008813269,1,0.03352949,1,0.277174175,1,-0.527872086,1,0.037820343,1,-0.041535378,1,-0.078630686,1,0.025556564,1
1.103926301,-4.961622715,1,-2.427339077,1,-8.128559113,1,-0.029277982,1,-5.82E-05,1,0.036608748,1,0.276965827,1,-0.527924061,1,0.037966456,1,-0.034951687,1,-0.11715579,1,-0.001896858,1
1.107927561,-4.97191143,1,-2.419889688,1,-8.120811462,1,-0.035788856,1,-0.005346164,1,0.031445324,1,0.276764333,1,-0.527962744,1,0.038107861,1,-0.044913769,1,-0.111396313,1,0.006131172,1
1.111930847,-4.982511044,1,-2.397928476,1,-8.11158371,1,-0.03628806,1,0.00172582,1,0.030119887,1,0.276551187,1,-0.52800107,1,0.038257219,1,-0.05518961,1,-0.091219187,1,0.015668869,1
1.11593008,-4.968665123,1,-2.419026375,1,-8.104260445,1,-0.031392209,1,0.007274348,1,0.03439299,1,0.276339293,1,-0.528019905,1,0.038405314,1,-0.041184425,1,-0.114064455,1,0.02339077,1
1.11993134,-4.962997437,1,-2.393661022,1,-8.098406792,1,-0.037701741,1,0.003388695,1,0.029794788,1,0.276129305,1,-0.528032541,1,0.038549561,1,-0.035410404,1,-0.090422869,1,0.029669762,1
1.123929143,-4.962589264,1,-2.355401516,1,-8.109866142,1,-0.028614849,1,0.007342279,1,0.0288144,1,0.275924146,1,-0.528040648,1,0.038691707,1,-0.03493309,1,-0.053842306,1,0.018642426,1
1.127928376,-4.972099781,1,-2.309443235,1,-8.126049995,1,-0.031886607,1,0.005435557,1,0.027546572,1,0.275733173,1,-0.52804482,1,0.038827684,1,-0.044408321,1,-0.009441137,1,0.002879143,1
1.131929874,-4.963489056,1,-2.294942141,1,-8.128066063,1,-0.027024919,1,0.005996392,1,0.028699024,1,0.275552332,1,-0.528053522,1,0.038964137,1,-0.03572464,1,0.003577471,1,0.001236916,1
1.13592732,-4.972327709,1,-2.299984694,1,-8.105676651,1,-0.026616497,1,0.009596642,1,0.023182506,1,0.275381386,1,-0.528049767,1,0.039086036,1,-0.044594765,1,-0.002849102,1,0.024038315,1
1.139926553,-4.981542587,1,-2.314301014,1,-8.101857185,1,-0.023199357,1,0.009267652,1,0.023103572,1,0.275227368,1,-0.528037786,1,0.039192408,1,-0.053910732,1,-0.018401861,1,0.02826786,1
1.143928051,-4.995057106,1,-2.337071896,1,-8.124709129,1,-0.022798,1,0.010404985,1,0.024045002,1,0.275083721,1,-0.528016388,1,0.039305937,1,-0.067605972,1,-0.042312145,1,0.005847931,1
1.147925735,-5.013047695,1,-2.277420759,1,-8.121417046,1,-0.018878791,1,0.01820853,1,0.019680455,1,0.274956107,1,-0.527985394,1,0.03941017,1,-0.085858822,1,0.016343832,1,0.009581566,1
1.151924968,-4.926834106,1,-2.302371502,1,-8.118135452,1,-0.012002882,1,0.01302002,1,0.018157557,1,0.274995148,1,-0.527966499,1,0.039263777,1,0.00019598,1,-0.008265018,1,0.012860298,1
1.155926228,-4.914420128,1,-2.316306591,1,-8.129108429,1,-0.013786431,1,0.015562652,1,0.014620656,1,0.274902582,1,-0.527883828,1,0.039221331,1,0.011910915,1,-0.022841692,1,0.002492905,1
1.159923673,-4.933889389,1,-2.355954885,1,-8.134222984,1,-0.010554866,1,0.013984151,1,0.014554219,1,0.274808526,1,-0.527845144,1,0.03930527,1,-0.007884979,1,-0.063204527,1,-0.002225876,1
1.163923502,-4.91493988,1,-2.350347281,1,-8.121251106,1,-0.010988686,1,0.014884019,1,0.014980355,1,0.274723768,1,-0.527803361,1,0.039387058,1,0.010711193,1,-0.058229685,1,0.01113987,1
1.167925,-4.939461231,1,-2.424562693,1,-8.125618935,1,-0.005724647,1,0.012013271,1,0.014955975,1,0.274641454,1,-0.527766585,1,0.039465059,1,-0.014120579,1,-0.133064508,1,0.007137299,1
1.171922445,-4.923802376,1,-2.443475723,1,-8.096117973,1,-0.012448013,1,0.015442457,1,0.013182491,1,0.274558663,1,-0.52772665,1,0.039545681,1,0.001200676,1,-0.152597427,1,0.037017822,1
1.175921679,-4.985140324,1,-2.425666571,1,-8.142362595,1,-0.011506303,1,0.017454516,1,0.014820091,1,0.274473041,1,-0.5276829,1,0.0396276,1,-0.060506821,1,-0.135426283,1,-0.008822441,1
1.179922938,-4.937319279,1,-2.360378504,1,-8.125641823,1,-0.010203386,1,0.016374296,1,0.013995996,1,0.274386585,1,-0.527642787,1,0.03971203,1,-0.013025284,1,-0.07078886,1,0.008282661,1
1.183920383,-4.954818726,1,-2.265872002,1,-8.10081768,1,-0.007363568,1,0.016549002,1,0.017024387,1,0.274300694,1,-0.52759558,1,0.039804183,1,-0.030923367,1,0.023082972,1,0.033530235,1
1.187919617,-4.973549366,1,-2.280746937,1,-8.133360863,1,-0.005731486,1,0.015451947,1,0.012674542,1,0.274231493,1,-0.527546883,1,0.039883357,1,-0.050065517,1,0.007708788,1,0.001372337,1
1.191920877,-4.9229002,1,-2.234681368,1,-8.133813858,1,-0.002123271,1,0.018361375,1,0.011023561,1,0.274180889,1,-0.52749455,1,0.039952621,1,0.000141621,1,0.05343318,1,0.001284599,1
1.195918322,-4.957550526,1,-2.217383862,1,-8.131185532,1,0.003335109,1,0.016434506,1,0.009964479,1,0.27415511,1,-0.527434766,1,0.040021248,1,-0.035014153,1,0.07060051,1,0.004256248,1
1.199917555,-4.982205868,1,-2.201717854,1,-8.153983116,1,0.008661538,1,0.014169855,1,0.005309073,1,0.274158746,1,-0.52737838,1,0.040064439,1,-0.060145378,1,0.086371183,1,-0.018283844,1
1.203918815,-4.975065231,1,-2.176705837,1,-8.156364441,1,0.011908222,1,0.01717926,1,0.000618863,1,0.274178892,1,-0.527319551,1,0.040105537,1,-0.053502083,1,0.11162591,1,-0.020431519,1
1.207916498,-4.940731525,1,-2.139961958,1,-8.234179497,1,0.020132124,1,0.01519486,1,-0.003691265,1,0.274247348,1,-0.527254879,1,0.040108498,1,-0.019715309,1,0.149013042,1,-0.098095894,1
1.211916089,-4.937416077,1,-2.08969593,1,-8.241505623,1,0.027316252,1,0.011368893,1,-0.012387715,1,0.274352252,1,-0.527192354,1,0.040099174,1,-0.016928673,1,0.200215816,1,-0.105365753,1
1.215917349,-4.935298443,1,-2.064987421,1,-8.216786385,1,0.04103858,1,0.006890298,1,-0.011816215,1,0.274503708,1,-0.527144134,1,0.040072042,1,-0.015217781,1,0.226221085,1,-0.080764771,1
1.219914794,-4.946434975,1,-2.102174282,1,-8.223383904,1,0.053536206,1,0.004453151,1,-0.014739126,1,0.274706632,1,-0.527109921,1,0.040031321,1,-0.02664423,1,0.190731049,1,-0.087664604,1
1.223914027,-4.920893192,1,-2.155416727,1,-8.252502441,1,0.056847021,1,0.000343195,1,-0.011519035,1,0.274953097,1,-0.527093232,1,0.039965026,1,-0.001243591,1,0.139515638,1,-0.117271423,1
1.227915525,-4.905795574,1,-2.204191685,1,-8.210291862,1,0.069916315,1,-0.004923075,1,-0.019383857,1,0.275250554,1,-0.527081311,1,0.039885931,1,0.013753414,1,0.093175888,1,-0.075688362,1
1.231912971,-4.926698685,1,-2.248245955,1,-8.211427689,1,0.072942622,1,-0.004349568,1,-0.022983864,1,0.275597453,1,-0.527077079,1,0.039778639,1,-0.007185459,1,0.051949024,1,-0.077602386,1
1.235912204,-4.913873672,1,-2.258111,1,-8.195202827,1,0.078039363,1,-0.00547704,1,-0.032732207,1,0.275967062,1,-0.527069211,1,0.039647367,1,0.005573273,1,0.045100451,1,-0.06219101,1
1.239913702,-4.959898949,1,-2.249290943,1,-8.170031548,1,0.083730869,1,-0.009457136,1,-0.035536226,1,0.276365817,1,-0.527058244,1,0.039501354,1,-0.04054451,1,0.057179451,1,-0.037883759,1
1.243911147,-4.953752518,1,-2.240997076,1,-8.150781631,1,0.090313479,1,-0.009787367,1,-0.04314442,1,0.276802897,1,-0.527055383,1,0.039319869,1,-0.034422874,1,0.069031477,1,-0.019629478,1
1.24791038,-4.975183964,1,-2.147959232,1,-8.135279655,1,0.099134922,1,-0.005838105,1,-0.048162099,1,0.27728498,1,-0.527035177,1,0.039102651,1,-0.056025028,1,0.166015863,1,-0.005145073,1
1.251911879,-4.992010593,1,-2.081066608,1,-8.169966698,1,0.106148027,1,-0.008265021,1,-0.057048541,1,0.277816713,1,-0.527003884,1,0.03886639,1,-0.073116302,1,0.237272501,1,-0.040919304,1
1.255909324,-4.977030754,1,-2.036782742,1,-8.132083893,1,0.115277991,1,-0.006920523,1,-0.068184391,1,0.278409302,1,-0.526968479,1,0.038585063,1,-0.05843544,1,0.286421537,1,-0.004242897,1
1.259908915,-4.97371006,1,-2.062959671,1,-8.133185387,1,0.130517483,1,-0.004756615,1,-0.075964935,1,0.279072851,1,-0.526916265,1,0.03826056,1,-0.055556297,1,0.265708208,1,-0.006639481,1
1.263910174,-4.987927437,1,-2.139914989,1,-8.130784988,1,0.139955595,1,-0.007685425,1,-0.085466944,1,0.279798269,1,-0.526856303,1,0.037897393,1,-0.070280552,1,0.194728851,1,-0.005646706,1
1.267913222,-4.993916988,1,-2.177896976,1,-8.093035698,1,0.1497913,1,-0.005835508,1,-0.093069747,1,0.280588299,1,-0.52678895,1,0.037494224,1,-0.07683897,1,0.163256168,1,0.03057003,1
1.271912694,-4.978765965,1,-2.220553637,1,-8.092452049,1,0.163957775,1,-0.00883717,1,-0.10007178,1,0.281441212,1,-0.526712954,1,0.037052762,1,-0.0623312,1,0.127631426,1,0.029515266,1
1.275913954,-4.963154793,1,-2.242917538,1,-8.101212502,1,0.166240886,1,-0.005025219,1,-0.108552016,1,0.282339722,1,-0.526626945,1,0.036576226,1,-0.047446728,1,0.112682581,1,0.019049644,1
1.27991116,-4.949843407,1,-2.268566847,1,-8.099354744,1,0.175504848,1,-0.006899662,1,-0.108820796,1,0.283279419,1,-0.526532769,1,0.036074959,1,-0.03493166,1,0.094792366,1,0.019135475,1
1.283910632,-4.966212273,1,-2.373356819,1,-8.066945076,1,0.174461544,1,-0.004379545,1,-0.109892607,1,0.28422609,1,-0.526427269,1,0.035583179,1,-0.052192688,1,-0.002168417,1,0.049798012,1
1.287911892,-4.945559978,1,-2.455909014,1,-8.077370644,1,0.173086509,1,-0.004748709,1,-0.104888201,1,0.285159141,1,-0.526319504,1,0.035100657,1,-0.032451153,1,-0.076998472,1,0.037667274,1
1.291909337,-4.931778908,1,-2.580287218,1,-8.084698677,1,0.169988692,1,0.00406005,1,-0.100708999,1,0.286069989,1,-0.526199758,1,0.034636803,1,-0.019683361,1,-0.193820238,1,0.028733253,1
1.29590857,-4.89998436,1,-2.666000128,1,-8.079690933,1,0.162441611,1,0.005643651,1,-0.097707845,1,0.286960095,1,-0.526074588,1,0.034193903,1,0.011052608,1,-0.272139072,1,0.032200813,1
1.299910188,-4.853917122,1,-2.75411725,1,-8.021965981,1,0.143927217,1,0.004719241,1,-0.085317269,1,0.287775427,1,-0.525955439,1,0.033795569,1,0.056112289,1,-0.353476286,1,0.088534355,1
1.303907871,-4.844558239,1,-2.898622751,1,-8.052610397,1,0.130673453,1,0.008080916,1,-0.071966335,1,0.288494378,1,-0.525837958,1,0.033464875,1,0.064477444,1,-0.491987228,1,0.056715012,1
1.307907104,-4.848626614,1,-3.040770531,1,-8.087654114,1,0.116429746,1,0.011272701,1,-0.063522123,1,0.289127767,1,-0.525721908,1,0.033184547,1,0.059427261,1,-0.628838062,1,0.020688057,1
1.311908364,-4.870971203,1,-3.13867259,1,-8.052472115,1,0.094141677,1,0.007649055,1,-0.047992744,1,0.28966713,1,-0.525619924,1,0.03295248,1,0.036220074,1,-0.72222352,1,0.055047989,1
1.315905809,-4.954239845,1,-3.092302561,1,-8.063441277,1,0.081406109,1,0.007542328,1,-0.040742725,1,0.290120363,1,-0.52553463,1,0.032755781,1,-0.0477705,1,-0.672059536,1,0.043384552,1
1.319905043,-4.957431316,1,-3.043207884,1,-8.061008453,1,0.061289977,1,0.013491788,1,-0.034162182,1,0.290482402,1,-0.525451362,1,0.032611128,1,-0.05166626,1,-0.61991334,1,0.045330048,1
1.323906302,-4.973770618,1,-2.934404135,1,-8.111359596,1,0.056885712,1,0.006961969,1,-0.024844522,1,0.290778071,1,-0.525383174,1,0.03249377,1,-0.068582535,1,-0.508616924,1,-0.005415916,1
1.327903748,-4.938870907,1,-2.880254507,1,-8.15364933,1,0.041845117,1,0.009103928,1,-0.022288054,1,0.291019112,1,-0.525316954,1,0.032402743,1,-0.034243107,1,-0.452420235,1,-0.047980309,1
1.331902981,-4.945694923,1,-2.80133152,1,-8.15391922,1,0.030681623,1,0.007971063,1,-0.016569866,1,0.291195899,1,-0.525263846,1,0.032335263,1,-0.041516304,1,-0.371989727,1,-0.048429489,1
1.335904241,-4.935349941,1,-2.798403263,1,-8.134235382,1,0.028084258,1,0.005545389,1,-0.010343032,1,0.291340947,1,-0.525221705,1,0.032279175,1,-0.031527519,1,-0.367826223,1,-0.028900146,1
1.339901686,-4.918190956,1,-2.79236269,1,-8.171197891,1,0.018304976,1,0.003620399,1,-0.008862088,1,0.291451275,1,-0.525193155,1,0.032238454,1,-0.014610767,1,-0.360851049,1,-0.06599617,1
1.343901157,-4.909278393,1,-2.76905489,1,-8.177185059,1,0.008580104,1,-0.001377883,1,-0.006516638,1,0.291528285,1,-0.525179744,1,0.032208387,1,-0.005811691,1,-0.336899519,1,-0.072105408,1
1.347908616,-4.85822773,1,-2.759716988,1,-8.168171883,1,0.006690756,1,-0.003135575,1,-0.00553824,1,0.291575551,1,-0.525174558,1,0.032189082,1,0.045195103,1,-0.327171564,1,-0.063184738,1
1.351912141,-4.878304482,1,-2.758067608,1,-8.179914474,1,-0.00080717,1,-0.005442229,1,0.000916584,1,0.291580021,1,-0.52518779,1,0.032194871,1,0.025230408,1,-0.325505018,1,-0.075000763,1
1.35591197,-4.887321949,1,-2.725359917,1,-8.182276726,1,-0.004076022,1,-0.006357418,1,0.005023992,1,0.291555703,1,-0.525216341,1,0.032204352,1,0.016454697,1,-0.293034554,1,-0.077437401,1
1.35991323,-4.867136955,1,-2.703589201,1,-8.154104233,1,-0.012432359,1,-0.010679802,1,0.006935399,1,0.291509658,1,-0.525256336,1,0.032224257,1,0.036978245,1,-0.271692991,1,-0.049341202,1
1.363910675,-4.879186153,1,-2.66487813,1,-8.130914688,1,-0.016315633,1,-0.008989461,1,0.012212805,1,0.29142797,1,-0.525303602,1,0.032267269,1,0.025328636,1,-0.233710766,1,-0.026173592,1
1.367909908,-4.853505135,1,-2.631907225,1,-8.171839714,1,-0.021525104,1,-0.012187015,1,0.015630186,1,0.291335136,1,-0.525362909,1,0.032307617,1,0.051511765,1,-0.201575994,1,-0.067152023,1
1.371911168,-4.911537647,1,-2.637552023,1,-8.149734497,1,-0.020973695,1,-0.020621762,1,0.018365055,1,0.291224182,1,-0.525441408,1,0.03236651,1,-0.005856514,1,-0.208229542,1,-0.045144081,1
1.375908375,-4.883489609,1,-2.642579317,1,-8.116565704,1,-0.026283886,1,-0.018925477,1,0.021308031,1,0.29109484,1,-0.525539219,1,0.03242974,1,0.02301836,1,-0.214443445,1,-0.012123108,1
1.379907846,-4.870465755,1,-2.696160793,1,-8.147467613,1,-0.024738217,1,-0.021780442,1,0.02053885,1,0.290957958,1,-0.525638342,1,0.032495443,1,0.03688097,1,-0.269274235,1,-0.043159485,1
1.383909106,-4.906836987,1,-2.702616453,1,-8.129493713,1,-0.030699927,1,-0.022854015,1,0.027007768,1,0.290801823,1,-0.525747299,1,0.032567646,1,0.001431465,1,-0.277148247,1,-0.025318146,1
1.387906551,-4.908051014,1,-2.706319094,1,-8.113431931,1,-0.036857143,1,-0.020684412,1,0.025892505,1,0.290626287,1,-0.525863647,1,0.032651886,1,0.001202106,1,-0.282437801,1,-0.009378433,1
1.391905785,-4.931667328,1,-2.679196358,1,-8.095901489,1,-0.040502645,1,-0.022350971,1,0.031611666,1,0.290418565,1,-0.525979638,1,0.032751508,1,-0.021433353,1,-0.257161379,1,0.008110046,1
1.395907044,-4.886410236,1,-2.63819313,1,-8.112758636,1,-0.044436388,1,-0.025260402,1,0.032108381,1,0.290193439,1,-0.526109278,1,0.032860443,1,0.024919987,1,-0.218164921,1,-0.008811951,1
1.399904728,-4.904260635,1,-2.662189245,1,-8.075703621,1,-0.049258418,1,-0.020288587,1,0.035853371,1,0.289948642,1,-0.526236594,1,0.032981634,1,0.008146763,1,-0.244323969,1,0.028234482,1
1.403903961,-4.918144226,1,-2.675609589,1,-8.095693588,1,-0.052948464,1,-0.022341119,1,0.038972434,1,0.289868951,1,-0.526301086,1,0.032676883,1,-0.005191326,1,-0.258479595,1,0.008135796,1
1.407905579,-4.924633503,1,-2.660441875,1,-8.066720009,1,-0.056172244,1,-0.016046982,1,0.035280541,1,0.289590418,1,-0.526422799,1,0.032806415,1,-0.010651588,1,-0.245739937,1,0.037210464,1
1.411903024,-4.965589523,1,-2.667446852,1,-8.052032471,1,-0.059578255,1,-0.016113266,1,0.038350563,1,0.289282501,1,-0.526532173,1,0.032952458,1,-0.050683022,1,-0.255393505,1,0.052125931,1
1.415902257,-4.938792706,1,-2.664231777,1,-8.063114166,1,-0.065918103,1,-0.013480511,1,0.041008703,1,0.288953841,1,-0.526629269,1,0.033110648,1,-0.02306509,1,-0.254978895,1,0.041377068,1
1.419903755,-4.955931187,1,-2.60773778,1,-8.03990078,1,-0.067299277,1,-0.010254732,1,0.047503959,1,0.288599551,1,-0.526731372,1,0.03329289,1,-0.039340019,1,-0.201498508,1,0.064963341,1
1.4239012,-4.953129768,1,-2.575938702,1,-8.100468636,1,-0.068873897,1,-0.006709113,1,0.044108238,1,0.288233697,1,-0.526818275,1,0.033480458,1,-0.035804272,1,-0.172786713,1,0.004864693,1
1.427906513,-4.97343874,1,-2.551615,1,-8.0589571,1,-0.073151626,1,-0.006305854,1,0.047422893,1,0.287851155,1,-0.526897192,1,0.033674382,1,-0.055445671,1,-0.151674032,1,0.046923637,1
1.431908131,-4.943469048,1,-2.506062746,1,-8.057085037,1,-0.072098449,1,-0.003973717,1,0.044250268,1,0.287469506,1,-0.526970208,1,0.033870094,1,-0.024859428,1,-0.109317064,1,0.049366951,1
1.435905576,-4.979926586,1,-2.559449196,1,-8.053857803,1,-0.071387708,1,-0.00208942,1,0.047837172,1,0.287082076,1,-0.52703476,1,0.034063913,1,-0.060770988,1,-0.165934086,1,0.053218842,1
1.439904809,-4.979191303,1,-2.526101589,1,-8.077012062,1,-0.073418044,1,0.001141123,1,0.047431942,1,0.286687851,1,-0.527083337,1,0.034274556,1,-0.059625626,1,-0.135851622,1,0.030773163,1
1.443906069,-5.033811569,1,-2.417395592,1,-8.040150642,1,-0.067621402,1,0.014626851,1,0.05174426,1,0.286277384,1,-0.527109027,1,0.03451414,1,-0.1140275,1,-0.030509472,1,0.068493843,1
1.447903514,-4.931639194,1,-2.46859026,1,-8.112265587,1,-0.074085131,1,0.003129881,1,0.043518573,1,0.285881519,1,-0.527131855,1,0.034730285,1,-0.01166296,1,-0.084944725,1,-0.002780914,1
1.451902986,-4.965364933,1,-2.431867123,1,-8.098044395,1,-0.072364718,1,0.00750058,1,0.051497445,1,0.285474092,1,-0.527168751,1,0.03494636,1,-0.045076847,1,-0.05157733,1,0.012235641,1
1.455904245,-4.982406139,1,-2.418991089,1,-8.101430893,1,-0.071903355,1,0.009173188,1,0.048583496,1,0.285078377,1,-0.52718997,1,0.035177577,1,-0.061938286,1,-0.041940212,1,0.009691238,1
1.45990169,-4.99808979,1,-2.395256758,1,-8.100112915,1,-0.070875749,1,0.011679805,1,0.049670331,1,0.284676731,1,-0.52720505,1,0.035416439,1,-0.077494621,1,-0.021484613,1,0.011891365,1
1.463901162,-4.997837543,1,-2.388562679,1,-8.061026573,1,-0.071363904,1,0.01045227,1,0.05243203,1,0.284278095,1,-0.527219474,1,0.035651673,1,-0.077120304,1,-0.018043995,1,0.051855087,1
1.467902422,-4.967879295,1,-2.43471837,1,-8.098898888,1,-0.067014925,1,0.014873345,1,0.049818505,1,0.283877939,1,-0.527231097,1,0.035895288,1,-0.047064304,1,-0.067463636,1,0.014872551,1
1.471899867,-4.9591856,1,-2.459652424,1,-8.083821297,1,-0.068217762,1,0.018128805,1,0.051878564,1,0.283485711,1,-0.527231395,1,0.036142118,1,-0.038368225,1,-0.095580101,1,0.030879021,1
1.475899339,-4.964540005,1,-2.417613029,1,-8.082056046,1,-0.071155138,1,0.023570368,1,0.050377931,1,0.283082843,1,-0.527211428,1,0.036392968,1,-0.043890953,1,-0.056782484,1,0.033690453,1
1.479900718,-4.949852467,1,-2.362622976,1,-8.126836777,1,-0.066246927,1,0.021614084,1,0.048562288,1,0.282685578,1,-0.527193248,1,0.036643788,1,-0.029357433,1,-0.00499177,1,-0.010066986,1
1.483898163,-4.990367889,1,-2.293350458,1,-8.163249016,1,-0.065728754,1,0.023593297,1,0.046737865,1,0.282300919,1,-0.527165353,1,0.036888879,1,-0.070108414,1,0.061196566,1,-0.045441628,1
1.487897396,-4.971733093,1,-2.270496368,1,-8.120802879,1,-0.058654312,1,0.02122595,1,0.046767924,1,0.2819345,1,-0.527131259,1,0.037123978,1,-0.051761627,1,0.081122398,1,-0.001973152,1
1.491898656,-4.99725914,1,-2.243041515,1,-8.131072998,1,-0.055008866,1,0.025099128,1,0.040311683,1,0.281608284,1,-0.527093112,1,0.037336498,1,-0.077610016,1,0.105980635,1,-0.011294365,1
1.495896101,-4.968043327,1,-2.227482557,1,-8.170632362,1,-0.042968854,1,0.020476736,1,0.036683775,1,0.281306684,1,-0.527059853,1,0.03753408,1,-0.04867506,1,0.119136333,1,-0.0499897,1
1.499895334,-4.985930443,1,-2.235665321,1,-8.20513916,1,-0.043059431,1,0.015700933,1,0.031369586,1,0.281040967,1,-0.527028799,1,0.037714541,1,-0.066824913,1,0.108838081,1,-0.083724976,1
1.503902674,-4.980624676,1,-2.203874588,1,-8.184364319,1,-0.031081626,1,0.020109488,1,0.027585827,1,0.280817628,1,-0.52699542,1,0.037865497,1,-0.061801434,1,0.138861418,1,-0.062267303,1
1.507906318,-5.026542187,1,-2.146788836,1,-8.225753784,1,-0.028422922,1,0.029014459,1,0.024311859,1,0.280620635,1,-0.52694273,1,0.038016338,1,-0.10816431,1,0.194417715,1,-0.102949142,1
1.511905789,-4.971648216,1,-2.259542704,1,-8.175685883,1,-0.019456917,1,0.008890248,1,0.013195457,1,0.280470014,1,-0.526899159,1,0.038123041,1,-0.053638935,1,0.080499887,1,-0.052323341,1
1.515907288,-4.979560852,1,-2.332846403,1,-8.181224823,1,-0.017598569,1,0.009872937,1,0.011612887,1,0.280360401,1,-0.526874423,1,0.038194515,1,-0.061760902,1,0.006339312,1,-0.057488441,1
1.519904971,-4.965966225,1,-2.29028511,1,-8.182014465,1,-0.012693667,1,0.009060874,1,0.011868505,1,0.280272126,1,-0.52685535,1,0.038255993,1,-0.048326969,1,0.04820919,1,-0.057981491,1
1.523904204,-5.001823425,1,-2.258956671,1,-8.196833611,1,-0.00506239,1,0.005674602,1,0.005616419,1,0.280218452,1,-0.52683574,1,0.038298767,1,-0.084350109,1,0.079128742,1,-0.072582245,1
1.527905583,-4.991631031,1,-2.204477549,1,-8.21068573,1,-0.00075301,1,0.006860108,1,-0.002943661,1,0.280203253,1,-0.526821136,1,0.038309373,1,-0.074280739,1,0.133504391,1,-0.08632946,1
1.531903028,-5.022327423,1,-2.194598198,1,-8.218102455,1,0.005727313,1,0.003270094,1,-0.008934459,1,0.280223131,1,-0.526800752,1,0.038295548,1,-0.105149746,1,0.143572807,1,-0.093695641,1
1.5359025,-5.074798107,1,-2.228481531,1,-8.165884018,1,0.009753588,1,0.005554913,1,-0.008748164,1,0.280278921,1,-0.526771069,1,0.038253143,1,-0.157871723,1,0.110182762,1,-0.041469574,1
1.53990376,-5.083317757,1,-2.273586035,1,-8.11613369,1,0.016646491,1,0.005771743,1,-0.017593235,1,0.280368656,1,-0.526733875,1,0.038194031,1,-0.166705608,1,0.065857649,1,0.008246422,1
1.543901205,-5.101420403,1,-2.277840376,1,-8.173971176,1,0.021529343,1,0.008970511,1,-0.026024926,1,0.280484736,1,-0.526683152,1,0.038109038,1,-0.185236931,1,0.062615156,1,-0.049624443,1
1.547900438,-5.104646683,1,-2.264338255,1,-8.158244133,1,0.021663396,1,0.016721079,1,-0.031024303,1,0.280618966,1,-0.526601493,1,0.038008753,1,-0.189154625,1,0.077319622,1,-0.03382206,1
1.551901698,-5.061571121,1,-2.277427673,1,-8.127526283,1,0.026743496,1,0.018050514,1,-0.034988232,1,0.280771673,1,-0.526501894,1,0.037890926,1,-0.146920204,1,0.065606594,1,-0.002991676,1
1.555898905,-5.025266647,1,-2.267808437,1,-8.085708618,1,0.026315033,1,0.022358648,1,-0.038994946,1,0.28094852,1,-0.526379228,1,0.037756808,1,-0.111653328,1,0.07682991,1,0.038989067,1
1.559898138,-4.894502163,1,-2.308285952,1,-8.061566353,1,0.035176609,1,0.019233076,1,-0.035991348,1,0.281151354,1,-0.526261747,1,0.037615493,1,0.018117428,1,0.038160801,1,0.063211441,1
1.563899398,-4.621502399,1,-2.418354273,1,-8.005429268,1,0.037647467,1,0.01848584,1,-0.036387671,1,0.281363487,1,-0.526146829,1,0.037471373,1,0.290145874,1,-0.07002759,1,0.119393349,1
1.567897081,-4.58285141,1,-2.718529701,1,-8.143584251,1,0.034421172,1,0.017592281,1,-0.031991679,1,0.281580031,1,-0.526039839,1,0.037339162,1,0.327891827,1,-0.368297577,1,-0.01876545,1
1.571896315,-4.52513504,1,-2.935213089,1,-8.215408325,1,0.030326141,1,0.009222124,1,-0.022664022,1,0.281772614,1,-0.525969982,1,0.037229445,1,0.385016918,1,-0.583320618,1,-0.090711594,1
1.575897574,-4.626382351,1,-3.130781412,1,-8.237000465,1,0.017721057,1,6.07E-05,1,-0.007140272,1,0.281914651,1,-0.525930762,1,0.037165061,1,0.283437729,1,-0.777682543,1,-0.112457275,1
1.57989502,-4.747021198,1,-3.103209496,1,-8.246380806,1,0.007288912,1,-0.007025355,1,0.003504731,1,0.281977177,1,-0.525942922,1,0.037147071,1,0.162902355,1,-0.749619484,1,-0.122041702,1
1.583906293,-5.061978817,1,-2.92300725,1,-8.196857452,1,-0.004055901,1,-0.006051501,1,0.017377913,1,0.281962454,1,-0.5259884,1,0.037175842,1,-0.151670456,1,-0.569598198,1,-0.072696686,1
1.587913513,-4.53477335,1,-2.933016539,1,-8.30991745,1,-0.008435724,1,-0.027052023,1,0.017451566,1,0.281903446,1,-0.52604115,1,0.037239175,1,0.375980854,1,-0.58015871,1,-0.185865402,1
1.591917038,-4.875145912,1,-2.629370928,1,-8.370770454,1,-0.014014143,1,-0.036532585,1,0.025058432,1,0.281820297,1,-0.526179552,1,0.037299,1,0.036778927,1,-0.277377367,1,-0.247175217,1
1.59591651,-4.757387161,1,-2.462918043,1,-8.42417717,1,-0.010719166,1,-0.044419754,1,0.031355374,1,0.28174749,1,-0.526365876,1,0.03736702,1,0.156113625,1,-0.111770868,1,-0.301290512,1
1.599917769,-4.771154404,1,-2.277782679,1,-8.539488792,1,-0.008004422,1,-0.059255652,1,0.029415347,1,0.281668127,1,-0.526599765,1,0.037440751,1,0.144323826,1,0.072399378,1,-0.417523384,1
1.603915215,-4.833713055,1,-2.288840055,1,-8.621329308,1,-0.000450847,1,-0.079003707,1,0.036483813,1,0.281616271,1,-0.52690661,1,0.037496623,1,0.084359169,1,0.060501575,1,-0.50069046,1
1.607914448,-4.416077614,1,-2.403344393,1,-8.699447632,1,0.007743504,1,-0.089597091,1,0.032243431,1,0.281585962,1,-0.527252197,1,0.037560575,1,0.504915714,1,-0.05472064,1,-0.580368996,1
1.611916065,-4.792237759,1,-2.386520863,1,-8.637785912,1,0.019218767,1,-0.114016518,1,0.045701772,1,0.281625092,1,-0.52769804,1,0.037592478,1,0.132523537,1,-0.038189411,1,-0.520907402,1
1.61591351,-4.759119987,1,-2.501740217,1,-8.698126793,1,0.037365641,1,-0.139553919,1,0.057113323,1,0.281699598,1,-0.528243721,1,0.037651636,1,0.170251369,1,-0.15355134,1,-0.58400631,1
1.619912744,-4.722011566,1,-2.488747358,1,-8.764959335,1,0.051477183,1,-0.157570153,1,0.072690628,1,0.281824291,1,-0.528880477,1,0.037744951,1,0.21273756,1,-0.140419722,1,-0.654147148,1
1.623914242,-4.713809013,1,-2.564866781,1,-8.873538971,1,0.060593154,1,-0.192364752,1,0.094470002,1,0.281980395,1,-0.529633939,1,0.037893169,1,0.227301121,1,-0.216309309,1,-0.766669273,1
1.627911687,-4.391939163,1,-2.685752153,1,-9.069556236,1,0.071524195,1,-0.218541309,1,0.105939604,1,0.282136798,1,-0.530518472,1,0.038091615,1,0.556634426,1,-0.337143421,1,-0.967252731,1
1.63191092,-4.549302101,1,-2.824317455,1,-8.986169815,1,0.091108263,1,-0.279834121,1,0.139295191,1,0.282365233,1,-0.531622767,1,0.038307335,1,0.408584118,1,-0.475382805,1,-0.889657021,1
1.63591218,-4.532134533,1,-2.939461946,1,-8.969851494,1,0.090890944,1,-0.331041843,1,0.165577769,1,0.282571495,1,-0.532966375,1,0.038596794,1,0.437074184,1,-0.590716839,1,-0.880228996,1
1.639909625,-4.315440655,1,-2.851567984,1,-9.407306671,1,0.118512921,1,-0.377038658,1,0.190824106,1,0.282814622,1,-0.534505963,1,0.038936328,1,0.666731358,1,-0.502993822,1,-1.325610161,1
1.643909097,-3.997985125,1,-3.14292407,1,-9.666921616,1,0.153588429,1,-0.442871958,1,0.237665594,1,0.28315556,1,-0.536318898,1,0.039349932,1,0.99943614,1,-0.794121742,1,-1.594712257,1
1.647910357,-3.928597927,1,-3.089677811,1,-10.07201862,1,0.194000095,1,-0.532488823,1,0.3006984,1,0.283546269,1,-0.538476825,1,0.039923821,1,1.08695364,1,-0.740743876,1,-2.011099815,1
1.651907563,-3.659423828,1,-3.848238707,1,-9.632031441,1,0.277446419,1,-0.628046691,1,0.37990123,1,0.284091204,1,-0.541077435,1,0.040666267,1,1.3779459,1,-1.498576403,1,-1.584942818,1
1.655906796,-4.448804379,1,-3.673213005,1,-9.645494461,1,0.374278724,1,-0.662664294,1,0.45094946,1,0.284880757,1,-0.544004261,1,0.041563511,1,0.613079548,1,-1.321352005,1,-1.614447594,1
1.659908056,-4.372126102,1,-2.860095263,1,-10.03427029,1,0.470139295,1,-0.742731929,1,0.447469562,1,0.285994232,1,-0.547190487,1,0.042673264,1,0.716395855,1,-0.503855467,1,-2.021361351,1
1.6639117,-4.522128105,1,-3.35726738,1,-10.19244194,1,0.543509603,1,-0.855198681,1,0.445733041,1,0.287556767,1,-0.550781846,1,0.043610036,1,0.596355915,1,-0.993708372,1,-2.200800896,1
1.66791141,-4.413140297,1,-2.916218042,1,-10.98025894,1,0.61410588,1,-0.91010046,1,0.408213168,1,0.289469182,1,-0.554640472,1,0.044369444,1,0.737463474,1,-0.543033838,1,-3.012135983,1
1.67191267,-3.314506292,1,-3.517240047,1,-11.34861565,1,0.629894853,1,-1.066300154,1,0.403837383,1,0.291713893,1,-0.558850229,1,0.044863686,1,1.87105155,1,-1.13243413,1,-3.406682014,1
1.675910115,-3.547193527,1,-3.926824093,1,-11.26918983,1,0.65367806,1,-1.236246586,1,0.458346397,1,0.294073462,1,-0.563759327,1,0.045241918,1,1.679009438,1,-1.530692816,1,-3.357364178,1
1.679909348,-4.179685593,1,-4.923663139,1,-11.67144871,1,0.618123651,1,-1.346457362,1,0.475483418,1,0.296438992,1,-0.569268167,1,0.045591701,1,1.091977596,1,-2.517268658,1,-3.792964935,1
1.683910608,-4.57358408,1,-6.510324478,1,-12.27127075,1,0.543007374,1,-1.483994007,1,0.513322949,1,0.298628747,1,-0.575237632,1,0.045861475,1,0.747159958,1,-4.095985413,1,-4.428290367,1
1.687908053,-6.282093525,1,-6.262734413,1,-12.24722004,1,0.470877558,1,-1.595449686,1,0.567782819,1,0.300473034,1,-0.581773698,1,0.046154112,1,-0.907827854,1,-3.844280481,1,-4.442094803,1
1.691907287,-6.974334717,1,-4.849253654,1,-12.11225224,1,0.504802763,1,-1.696806788,1,0.679192543,1,0.30214119,1,-0.58880794,1,0.046654422,1,-1.542723656,1,-2.429092169,1,-4.347456455,1
1.695908666,-6.937653065,1,-4.397599697,1,-11.9017992,1,0.527671158,1,-1.815495729,1,0.820307136,1,0.303698421,1,-0.596390665,1,0.04755982,1,-1.444527149,1,-1.977734804,1,-4.180301666,1
1.699906349,-7.41348505,1,-5.149627209,1,-11.66686249,1,0.519383192,1,-1.934223294,1,0.990161598,1,0.305011272,1,-0.60463196,1,0.049010765,1,-1.853858948,1,-2.733305693,1,-3.991994381,1
1.703905582,-9.419921875,1,-6.781556129,1,-12.87086678,1,0.304929107,1,-1.892579198,1,1.170782804,1,0.305382967,1,-0.613331079,1,0.051287428,1,-3.790511608,1,-4.37701416,1,-5.243312836,1
1.707907081,-9.872908592,1,-8.091334343,1,-11.33908749,1,0.232254848,1,-1.932218671,1,1.228940487,1,0.304851651,1,-0.622019172,1,0.054070733,1,-4.174228191,1,-5.705615997,1,-3.757198334,1
1.711904526,-10.95714664,1,-7.878780842,1,-12.72525978,1,0.012574283,1,-1.831557035,1,1.336560011,1,0.303447843,1,-0.630776286,1,0.057359084,1,-5.189081192,1,-5.51871109,1,-5.187944889,1
1.715903759,-8.015453339,1,-8.143269539,1,-12.07339478,1,-0.159769654,1,-1.757756829,1,1.349745989,1,0.300903618,1,-0.6392138,1,0.061097473,1,-2.180953503,1,-5.81689167,1,-4.57684803,1
1.719905257,-8.782073975,1,-8.9027071,1,-11.3428812,1,-0.297404587,1,-1.75626123,1,1.3963449,1,0.29764545,1,-0.647545159,1,0.06501995,1,-2.882382393,1,-6.615101814,1,-3.88552475,1
1.723902702,-12.91245556,1,-10.04755592,1,-12.71901703,1,-0.496223629,1,-1.645763397,1,1.448488712,1,0.293405294,1,-0.6557616,1,0.069389872,1,-6.948872089,1,-7.805687904,1,-5.298686504,1
1.727902174,-13.8697691,1,-12.00468063,1,-14.99036694,1,-0.692564905,1,-1.305567622,1,1.35583365,1,0.288159966,1,-0.663082063,1,0.074104853,1,-7.849601269,1,-9.814229965,1,-7.600432873,1
1.731903434,-11.72245693,1,-12.60061455,1,-16.5210762,1,-0.908614516,1,-0.860017896,1,1.124152899,1,0.282158375,1,-0.668646753,1,0.078626938,1,-5.659491062,1,-10.46391487,1,-9.150416374,1
1.735900879,-8.113624573,1,-10.15493679,1,-17.38408279,1,-1.061824322,1,-0.451817125,1,0.937719882,1,0.275624037,1,-0.672276974,1,0.082760178,1,-2.022840023,1,-8.072447777,1,-10.02084541,1
1.739906311,-4.069541454,1,-8.026960373,1,-15.29263306,1,-1.046993852,1,-0.314231396,1,0.895186901,1,0.268953294,1,-0.674668908,1,0.086696014,1,2.039528847,1,-5.997512817,1,-7.929733276,1
1.743907809,-1.202128291,1,-6.680103302,1,-14.61695385,1,-0.950295568,1,-0.246980458,1,0.921739221,1,0.262340605,1,-0.676697075,1,0.090828918,1,4.922419548,1,-4.702607155,1,-7.252782822,1
1.747905254,1.162657738,1,-5.981335163,1,-13.80799007,1,-0.81269151,1,-0.231462598,1,0.947747648,1,0.256090909,1,-0.678575516,1,0.09514758,1,7.301517487,1,-4.052817822,1,-6.442742825,1
1.751904726,2.726995468,1,-5.342031956,1,-13.03040218,1,-0.635139704,1,-0.246794537,1,1.001176834,1,0.250337929,1,-0.68046838,1,0.099692658,1,8.880255699,1,-3.458800793,1,-5.665454865,1
1.755906105,3.360021114,1,-5.4151721,1,-12.55666161,1,-0.480993539,1,-0.286140889,1,1.07998383,1,0.245053202,1,-0.682516336,1,0.104551286,1,9.528837204,1,-3.573949337,1,-5.194103718,1
1.759903431,3.45163703,1,-6.047199249,1,-12.36239624,1,-0.391545415,1,-0.287735701,1,1.156281948,1,0.2400157,1,-0.684719801,1,0.109796695,1,9.637161255,1,-4.246323586,1,-5.003873825,1
1.763902664,3.422494411,1,-6.647753716,1,-12.31716919,1,-0.353706986,1,-0.254676342,1,1.198203206,1,0.234999686,1,-0.686902285,1,0.115387686,1,9.624536514,1,-4.886959076,1,-4.962855339,1
1.767904043,3.405500174,1,-6.939126968,1,-12.33710575,1,-0.361231863,1,-0.174542144,1,1.211052775,1,0.229884729,1,-0.688848317,1,0.121199228,1,9.622246742,1,-5.218725681,1,-4.985647202,1
1.771901727,3.388419628,1,-6.811813831,1,-12.42158794,1,-0.376092046,1,-0.058308106,1,1.205974936,1,0.224611238,1,-0.690391183,1,0.127174661,1,9.616807938,1,-5.132342815,1,-5.070521355,1
1.77590096,3.605904818,1,-6.412660599,1,-12.46609688,1,-0.377832055,1,0.072577171,1,1.176699162,1,0.219259888,1,-0.691418052,1,0.133207113,1,9.842033386,1,-4.773943424,1,-5.112393379,1
1.779902458,4.025810719,1,-5.916559219,1,-12.39052582,1,-0.355329901,1,0.213049874,1,1.138222814,1,0.213949487,1,-0.691860914,1,0.139232889,1,10.265275,1,-4.317502975,1,-5.030923843,1
1.783900142,4.848287582,1,-5.608763218,1,-12.12782669,1,-0.306523234,1,0.335554242,1,1.082209349,1,0.208828077,1,-0.691721618,1,0.145172149,1,11.08670235,1,-4.047239304,1,-4.759283066,1
1.787899613,5.570649624,1,-5.3491745,1,-11.81969547,1,-0.249164805,1,0.43842113,1,1.032914281,1,0.204025969,1,-0.691072464,1,0.150960788,1,11.80417442,1,-3.822232246,1,-4.439771652,1
1.791901231,6.292510509,1,-5.202998638,1,-11.4049139,1,-0.185718626,1,0.523240328,1,0.987656116,1,0.199555978,1,-0.689996481,1,0.156598359,1,12.5179224,1,-3.707731009,1,-4.011668682,1
1.795898676,6.950395107,1,-5.239339828,1,-11.00892735,1,-0.126565889,1,0.578031182,1,0.934465945,1,0.195463851,1,-0.688587666,1,0.16204837,1,13.16517448,1,-3.77263689,1,-3.601029873,1
1.799897909,7.236334801,1,-5.353076935,1,-10.71292877,1,-0.063900962,1,0.617751956,1,0.891934454,1,0.191763431,1,-0.686931014,1,0.167298406,1,13.43859482,1,-3.911836147,1,-3.289557457,1
1.803899407,7.345811367,1,-5.392367363,1,-10.52182007,1,-0.004309699,1,0.654376686,1,0.842958987,1,0.188450605,1,-0.685081482,1,0.17232278,1,13.53407478,1,-3.973580599,1,-3.082461834,1
1.807896852,7.002148151,1,-5.320034027,1,-10.46864223,1,0.060957074,1,0.701806247,1,0.769575,1,0.185566083,1,-0.683016002,1,0.177060768,1,13.1747551,1,-3.920355797,1,-3.012670994,1
1.811896086,6.696816444,1,-5.227054119,1,-10.48305607,1,0.126138821,1,0.773219287,1,0.687584102,1,0.183179408,1,-0.68066138,1,0.181442276,1,12.85154343,1,-3.842531681,1,-3.009496689,1
1.815897584,6.40824461,1,-5.29211235,1,-10.45865059,1,0.193844572,1,0.836900115,1,0.578641534,1,0.181338266,1,-0.677960694,1,0.185400054,1,12.54242325,1,-3.91835928,1,-2.96623373,1
1.81990087,6.237319469,1,-5.322495937,1,-10.45797539,1,0.253738165,1,0.915403187,1,0.459843695,1,0.180079073,1,-0.674884498,1,0.188828513,1,12.34803581,1,-3.954805613,1,-2.945307255,1
1.823900461,6.022129059,1,-5.392091751,1,-10.49476242,1,0.306538463,1,0.99868995,1,0.3230896,1,0.179432318,1,-0.671402633,1,0.191677555,1,12.10622025,1,-4.02547121,1,-2.960320473,1
1.827901721,5.927131176,1,-5.438192368,1,-10.49573803,1,0.35583806,1,1.075443029,1,0.184456244,1,0.17937623,1,-0.667501867,1,0.193898395,1,11.98130703,1,-4.067770481,1,-2.937925339,1
1.831899166,5.761768341,1,-5.473052502,1,-10.48092175,1,0.386080414,1,1.156636834,1,0.036471687,1,0.179885924,1,-0.663182557,1,0.195473716,1,11.78271103,1,-4.094112873,1,-2.898149967,1
1.835898876,5.722886562,1,-5.504989624,1,-10.36611366,1,0.418022931,1,1.232591271,1,-0.107110918,1,0.180940807,1,-0.658456385,1,0.196379036,1,11.70733643,1,-4.11294651,1,-2.756895065,1
1.839900136,5.633238792,1,-5.396128654,1,-10.29491711,1,0.442815185,1,1.293612719,1,-0.259655416,1,0.182519451,1,-0.653354764,1,0.196615681,1,11.57814789,1,-3.986551523,1,-2.657979488,1
1.843897581,5.578957558,1,-5.218296528,1,-10.25103664,1,0.46838209,1,1.352757931,1,-0.40808621,1,0.18459332,1,-0.647904813,1,0.196193129,1,11.48145485,1,-3.786958694,1,-2.585303307,1
1.847896814,5.449272156,1,-5.10571909,1,-10.21097469,1,0.484108627,1,1.403202176,1,-0.549008012,1,0.187151805,1,-0.642128587,1,0.195111737,1,11.30662632,1,-3.648454189,1,-2.515558243,1
1.851898074,5.388090611,1,-4.963629246,1,-10.07802486,1,0.50447017,1,1.451451182,1,-0.689863265,1,0.190148517,1,-0.636053503,1,0.193404809,1,11.19775581,1,-3.476612568,1,-2.35221386,1
1.855895519,5.180644512,1,-4.768444538,1,-10.20179844,1,0.516277373,1,1.493484735,1,-0.829154432,1,0.193550572,1,-0.629696965,1,0.191084281,1,10.94018173,1,-3.248079538,1,-2.44500351,1
1.859894753,4.803179264,1,-4.734628677,1,-10.05593586,1,0.53305459,1,1.538932562,1,-0.948727429,1,0.197340965,1,-0.623067617,1,0.188226417,1,10.51019001,1,-3.177422047,1,-2.267691612,1
1.863896012,4.735728741,1,-4.723963737,1,-10.00207901,1,0.53329438,1,1.571620226,1,-1.063710213,1,0.201396257,1,-0.616170228,1,0.184905678,1,10.38782215,1,-3.127349377,1,-2.181828976,1
1.867893457,4.312679768,1,-4.619356155,1,-10.08970833,1,0.53618747,1,1.611805797,1,-1.177384734,1,0.205724671,1,-0.60903722,1,0.181107938,1,9.907697678,1,-2.980713367,1,-2.237174511,1
1.871893287,4.076144695,1,-4.520469666,1,-10.11078835,1,0.526911259,1,1.659270763,1,-1.278030396,1,0.210244551,1,-0.601611018,1,0.17689842,1,9.611437798,1,-2.837725878,1,-2.225322247,1
1.875894547,3.712825537,1,-4.432412148,1,-10.09322929,1,0.518369675,1,1.698086619,1,-1.376762867,1,0.214905694,1,-0.593918443,1,0.172336325,1,9.185930252,1,-2.703902245,1,-2.174325943,1
1.879891992,3.179064274,1,-4.240120411,1,-10.18313503,1,0.514229596,1,1.744727492,1,-1.466683388,1,0.219696939,1,-0.585972428,1,0.167442068,1,8.587591171,1,-2.464266777,1,-2.230408192,1
1.883891225,2.716542482,1,-4.089740753,1,-10.26926708,1,0.511396885,1,1.801996827,1,-1.543702126,1,0.22457464,1,-0.577727795,1,0.162293896,1,8.057704926,1,-2.265249729,1,-2.282098293,1
1.887892723,2.304449558,1,-4.002341747,1,-10.2807703,1,0.501496434,1,1.867021322,1,-1.621508718,1,0.229524508,1,-0.569149494,1,0.156910405,1,7.575134754,1,-2.12798214,1,-2.258407593,1
1.891890168,1.92644465,1,-3.87873435,1,-10.2583971,1,0.49213472,1,1.928097129,1,-1.687898993,1,0.234495401,1,-0.560247064,1,0.151344836,1,7.123579979,1,-1.953692794,1,-2.200129509,1
1.895889401,1.642827749,1,-3.788270235,1,-10.20188046,1,0.486613452,1,1.991530657,1,-1.740794182,1,0.239453152,1,-0.551006317,1,0.145660892,1,6.763183594,1,-1.811995387,1,-2.106945038,1
1.89989686,1.481076002,1,-3.664682388,1,-10.08572674,1,0.47613439,1,2.047297955,1,-1.785958052,1,0.244365752,1,-0.54146713,1,0.139907405,1,6.521712303,1,-1.636939049,1,-1.953572273,1
1.903900385,1.257568002,1,-3.567067623,1,-9.966547966,1,0.460722566,1,2.095897675,1,-1.817106605,1,0.24920702,1,-0.531638682,1,0.134071246,1,6.215588093,1,-1.487859726,1,-1.796689987,1
1.907899857,1.076735854,1,-3.401011944,1,-9.887859344,1,0.45390144,1,2.124601841,1,-1.82787776,1,0.253926367,1,-0.521646142,1,0.128329754,1,5.950270176,1,-1.270931721,1,-1.680358887,1
1.911901236,0.844299257,1,-3.246836424,1,-9.725217819,1,0.44316119,1,2.153318167,1,-1.843231916,1,0.258514881,1,-0.511497676,1,0.122654215,1,5.631531715,1,-1.066586256,1,-1.480184555,1
1.915898681,0.621538401,1,-3.201406002,1,-9.641330719,1,0.437637269,1,2.169470072,1,-1.832953334,1,0.262967855,1,-0.501242638,1,0.117086545,1,5.321061134,1,-0.971817493,1,-1.359115601,1
1.919898152,0.406865984,1,-3.060303926,1,-9.553792,1,0.426790029,1,2.180684805,1,-1.81878078,1,0.267279088,1,-0.490933508,1,0.111655742,1,5.017717838,1,-0.78235507,1,-1.23497963,1
1.923899412,0.154487416,1,-3.040549755,1,-9.514538765,1,0.429101616,1,2.183049679,1,-1.789034605,1,0.27144447,1,-0.48059392,1,0.106409952,1,4.675915718,1,-0.71531105,1,-1.159803391,1
1.927896857,-0.163023129,1,-3.092100859,1,-9.538756371,1,0.435276508,1,2.189238071,1,-1.752881527,1,0.275470406,1,-0.470246404,1,0.101392396,1,4.268427849,1,-0.720647097,1,-1.148879051,1
1.931896329,-0.710878432,1,-3.097456932,1,-9.675005913,1,0.458706111,1,2.203233004,1,-1.708424091,1,0.279392481,1,-0.459905207,1,0.096639775,1,3.630176544,1,-0.680606365,1,-1.250891685,1
1.935897589,-1.357701659,1,-2.985123873,1,-9.785039902,1,0.48452875,1,2.223181486,1,-1.673006773,1,0.283249438,1,-0.449539363,1,0.092151307,1,2.892275333,1,-0.523355961,1,-1.32755661,1
1.939895034,-2.002331972,1,-2.888468504,1,-9.935389519,1,0.511000752,1,2.259359837,1,-1.641793489,1,0.287069082,1,-0.439079583,1,0.087898485,1,2.155279875,1,-0.381963253,1,-1.445199013,1
1.943894267,-2.562517405,1,-2.943612576,1,-10.04151344,1,0.545948148,1,2.313404799,1,-1.619246483,1,0.290873826,1,-0.428462297,1,0.083875239,1,1.50087285,1,-0.392307043,1,-1.519112587,1
1.947895527,-3.026685953,1,-2.990385294,1,-10.12652493,1,0.583454847,1,2.366011143,1,-1.600070357,1,0.294692039,1,-0.417645782,1,0.080080576,1,0.940243721,1,-0.393943548,1,-1.572368622,1
1.951892972,-3.555628538,1,-2.916501999,1,-10.22827816,1,0.632236004,1,2.421031237,1,-1.581036448,1,0.298558414,1,-0.406633377,1,0.076493546,1,0.312617064,1,-0.27431488,1,-1.642987251,1
1.955892205,-4.032515049,1,-2.807537079,1,-10.27196598,1,0.670467675,1,2.483080626,1,-1.572835803,1,0.302481085,1,-0.395397007,1,0.07309816,1,-0.265444279,1,-0.118916035,1,-1.656159401,1
1.959893465,-4.423943043,1,-2.73755908,1,-10.21143341,1,0.72284168,1,2.542015553,1,-1.571258187,1,0.306499839,1,-0.383928895,1,0.069872737,1,-0.760623932,1,-0.001479387,1,-1.565880775,1
1.963891149,-4.749546051,1,-2.654945135,1,-10.16279507,1,0.774723113,1,2.602707863,1,-1.560245037,1,0.3106215,1,-0.372219682,1,0.066817671,1,-1.192656755,1,0.129666567,1,-1.488341331,1
1.967890382,-4.916269779,1,-2.654670477,1,-10.02383995,1,0.823997498,1,2.665606022,1,-1.555323958,1,0.314845324,1,-0.360275,1,0.063933976,1,-1.468452454,1,0.179510355,1,-1.321447372,1
1.971891761,-4.973076344,1,-2.620454311,1,-9.785959244,1,0.85859108,1,2.705265999,1,-1.546211362,1,0.319155693,1,-0.348138183,1,0.061219022,1,-1.636589527,1,0.264128208,1,-1.056774139,1
1.975889206,-4.812489986,1,-2.540060043,1,-9.568122864,1,0.89523387,1,2.730588436,1,-1.531876802,1,0.323517293,1,-0.335870326,1,0.058672037,1,-1.589035988,1,0.395360231,1,-0.81344986,1
1.979894757,-4.846365452,1,-2.475602865,1,-9.396967888,1,0.923649609,1,2.727518559,1,-1.506865859,1,0.327938616,1,-0.323588669,1,0.056274101,1,-1.736556768,1,0.511022568,1,-0.618538857,1
1.983896613,-4.84940052,1,-2.492928982,1,-9.124997139,1,0.943651617,1,2.71380496,1,-1.475865364,1,0.332366288,1,-0.311348349,1,0.054048985,1,-1.853321075,1,0.544728518,1,-0.32455349,1
1.987894297,-4.906368256,1,-2.522109985,1,-8.931936264,1,0.960425615,1,2.687443733,1,-1.446454287,1,0.33680743,1,-0.29922086,1,0.051969808,1,-2.023412943,1,0.566382885,1,-0.111422539,1
1.99189353,-5.000257015,1,-2.625226736,1,-8.752662659,1,0.96798861,1,2.647927523,1,-1.410054207,1,0.341222197,1,-0.287255347,1,0.050044257,1,-2.229329824,1,0.513496161,1,0.086007118,1
1.995895028,-5.213563442,1,-2.735141754,1,-8.629443169,1,0.955952346,1,2.606835842,1,-1.363999486,1,0.345553309,1,-0.275488913,1,0.048283756,1,-2.553188324,1,0.4526546,1,0.225608826,1
1.999892473,-5.369653702,1,-2.837763786,1,-8.632973671,1,0.939065874,1,2.548423052,1,-1.321129322,1,0.349770248,1,-0.263959914,1,0.04669141,1,-2.817956448,1,0.397641659,1,0.236784935,1
2.003891706,-5.691911221,1,-2.925362587,1,-8.705347061,1,0.937338948,1,2.490796328,1,-1.264069438,1,0.353891671,1,-0.252710551,1,0.04525901,1,-3.246583223,1,0.356312037,1,0.17736721,1
2.007893324,-6.302118301,1,-2.834318161,1,-8.90372467,1,0.936309218,1,2.431580782,1,-1.217909813,1,0.357942522,1,-0.24176158,1,0.04399427,1,-3.960616112,1,0.492492914,1,-0.009831429,1
2.01189065,-7.092871189,1,-2.694382668,1,-9.094914436,1,0.953110576,1,2.397816658,1,-1.181612611,1,0.361984372,1,-0.23103109,1,0.042867292,1,-4.853396416,1,0.677052498,1,-0.191555977,1
2.015890121,-7.906415939,1,-2.55437851,1,-9.283802032,1,0.977694273,1,2.380034208,1,-1.16107142,1,0.366069794,1,-0.220447302,1,0.041868739,1,-5.767825127,1,0.861696005,1,-0.372656822,1
2.0198915,-8.523518562,1,-2.483962536,1,-9.440964699,1,0.998638332,1,2.386081219,1,-1.146911144,1,0.370205075,1,-0.209883779,1,0.040977061,1,-6.485857964,1,0.976913214,1,-0.523459435,1
2.023888826,-8.99505806,1,-2.35064435,1,-9.469352722,1,1.031983972,1,2.402901888,1,-1.147108316,1,0.374436378,1,-0.199297905,1,0.04017083,1,-7.058769226,1,1.155627251,1,-0.546992302,1
2.02788806,-9.26346302,1,-2.249262333,1,-9.43229866,1,1.061406493,1,2.423284054,1,-1.150378466,1,0.378766954,1,-0.188632071,1,0.039425585,1,-7.429531097,1,1.303050041,1,-0.506524086,1
2.031889439,-9.293159485,1,-1.970386028,1,-9.282055855,1,1.089841604,1,2.44213295,1,-1.164798021,1,0.383192658,1,-0.177873686,1,0.038739767,1,-7.562684536,1,1.628562927,1,-0.354307175,1
2.035886765,-9.176801682,1,-1.630982518,1,-9.065864563,1,1.112245798,1,2.43695879,1,-1.174158931,1,0.387708962,1,-0.167072073,1,0.03806993,1,-7.550400257,1,2.015104771,1,-0.137676239,1
2.039885998,-8.989643097,1,-1.419143915,1,-8.78657341,1,1.123392463,1,2.405023336,1,-1.181362391,1,0.392294884,1,-0.156315178,1,0.037383862,1,-7.467073441,1,2.274322987,1,0.14044857,1
2.043887377,-8.778522491,1,-1.240300417,1,-8.416161537,1,1.128064394,1,2.343699217,1,-1.184102535,1,0.396912754,1,-0.145723045,1,0.036662325,1,-7.358366013,1,2.500375748,1,0.508084297,1
2.047884703,-8.718977928,1,-1.184084415,1,-7.982310295,1,1.113734126,1,2.262797594,1,-1.173991203,1,0.401504576,1,-0.135385185,1,0.035883605,1,-7.398929596,1,2.603065491,1,0.937700272,1
2.051883936,-8.728830338,1,-1.189579844,1,-7.498032093,1,1.081001282,1,2.156914473,1,-1.167899966,1,0.406017393,1,-0.125408784,1,0.035032984,1,-7.505524635,1,2.642796993,1,1.416453838,1
2.055891514,-8.762661934,1,-1.27647984,1,-6.992596149,1,1.024175286,1,2.030380249,1,-1.1395365,1,0.410343319,1,-0.115891129,1,0.034111001,1,-7.631762981,1,2.598893642,1,1.915501118,1
2.059895039,-8.95314312,1,-1.408302546,1,-6.573312283,1,0.947498202,1,1.882763386,1,-1.113995433,1,0.414395392,1,-0.106915675,1,0.033101439,1,-7.909481049,1,2.507064581,1,2.327941418,1
2.06389451,-9.360812187,1,-1.379514456,1,-6.272501945,1,0.851799905,1,1.733089805,1,-1.074209452,1,0.418108463,1,-0.098539069,1,0.032019328,1,-8.39864254,1,2.572286844,1,2.621827126,1
2.067895889,-10.02387238,1,-1.398360372,1,-5.980550766,1,0.757580042,1,1.584341764,1,-1.039202213,1,0.421429396,1,-0.090764515,1,0.030857876,1,-9.13739872,1,2.585897923,1,2.907167435,1
2.071893215,-10.58498859,1,-1.059051514,1,-5.792299747,1,0.661552072,1,1.442365408,1,-1.004707336,1,0.424373209,1,-0.08357051,1,0.029618986,1,-9.768606186,1,2.953873634,1,3.089231014,1
2.075892687,-11.19402122,1,-0.750038683,1,-5.62561655,1,0.578144968,1,1.313931227,1,-0.98164463,1,0.426963419,1,-0.076913416,1,0.028268719,1,-10.44253731,1,3.288038731,1,3.250237942,1
2.079894304,-11.76590824,1,-0.463231564,1,-5.476245403,1,0.511802137,1,1.192706347,1,-0.966828108,1,0.429261565,1,-0.070729353,1,0.026799478,1,-11.07474041,1,3.597090244,1,3.394361973,1
2.08389163,-12.23816299,1,-0.300146252,1,-5.253517628,1,0.45870617,1,1.092831254,1,-0.957574487,1,0.431309432,1,-0.064977728,1,0.02519686,1,-11.60311699,1,3.779926538,1,3.612220287,1
2.087890863,-12.52617359,1,-0.07817807,1,-5.005954742,1,0.411338359,1,0.991153598,1,-0.95061928,1,0.433160782,1,-0.059589114,1,0.02347289,1,-11.94372749,1,4.019680023,1,3.855195045,1
2.091892719,-12.49444199,1,0.107164674,1,-4.754947186,1,0.372253418,1,0.892865002,1,-0.942234874,1,0.434834212,1,-0.05457335,1,0.021629676,1,-11.96097088,1,4.221024513,1,4.10187006,1
2.095890522,-12.29114723,1,0.284987628,1,-4.525930405,1,0.342009634,1,0.775667846,1,-0.928878069,1,0.43636632,1,-0.04995786,1,0.019642636,1,-11.8027544,1,4.413408756,1,4.326712608,1
2.099889755,-12.17394161,1,0.499554843,1,-4.249614716,1,0.315956354,1,0.645050824,1,-0.910813451,1,0.437781513,1,-0.04582737,1,0.017510027,1,-11.7258997,1,4.641319752,1,4.598927498,1
2.103891134,-12.21333313,1,0.591243982,1,-3.976955414,1,0.283548683,1,0.513402939,1,-0.887522817,1,0.439080447,1,-0.042201374,1,0.015237676,1,-11.80071926,1,4.745162964,1,4.867611885,1
2.107888699,-12.21976757,1,0.52071023,1,-3.720622778,1,0.245832354,1,0.387599409,1,-0.870529413,1,0.440245092,1,-0.039071456,1,0.012814066,1,-11.83773994,1,4.685456276,1,5.120223999,1
2.11188817,-12.14519882,1,0.41487959,1,-3.613292933,1,0.190611377,1,0.266176254,1,-0.846891046,1,0.441223145,1,-0.036426134,1,0.01025408,1,-11.78902435,1,4.588688374,1,5.22436142,1
2.115889311,-12.04948235,1,0.085464917,1,-3.465619087,1,0.118368238,1,0.144702286,1,-0.814354956,1,0.441933274,1,-0.034263212,1,0.007598241,1,-11.71444798,1,4.26586771,1,5.369744301,1
2.119886875,-12.06273556,1,0.112031519,1,-3.416954041,1,0.039244469,1,0.021858087,1,-0.784803033,1,0.44234252,1,-0.032591086,1,0.004841248,1,-11.74404621,1,4.296284676,1,5.417193413,1
2.123886347,-11.98654842,1,0.382542759,1,-3.390269756,1,-0.040490154,1,-0.099299714,1,-0.760630906,1,0.442438126,1,-0.031406425,1,0.001980214,1,-11.67943859,1,4.567798615,1,5.443812847,1
2.127887964,-11.8296051,1,0.640055001,1,-3.337775707,1,-0.11986623,1,-0.216010034,1,-0.738709152,1,0.44221133,1,-0.030690594,1,-0.00099382,1,-11.52949333,1,4.823400021,1,5.497451305,1
2.13188529,-11.66965866,1,0.836024761,1,-3.279739857,1,-0.186748952,1,-0.33840549,1,-0.715918958,1,0.441689044,1,-0.030450597,1,-0.004099768,1,-11.37189293,1,5.014786243,1,5.55773592,1
2.135890961,-11.54398823,1,0.986564517,1,-3.16526866,1,-0.244619414,1,-0.458208591,1,-0.693565071,1,0.440927476,1,-0.030692086,1,-0.007342282,1,-11.24386215,1,5.15856266,1,5.675319672,1
2.139892578,-11.46330833,1,1.042618632,1,-3.116946936,1,-0.304039717,1,-0.587793529,1,-0.662328124,1,0.439931542,1,-0.031430475,1,-0.01069048,1,-11.1559639,1,5.205713272,1,5.727586746,1
2.143890142,-11.38419342,1,1.087928176,1,-3.017383814,1,-0.358828276,1,-0.711631775,1,-0.627616525,1,0.438708007,1,-0.032676049,1,-0.014139992,1,-11.06467342,1,5.240034103,1,5.831887245,1
2.147895575,-11.53844738,1,0.929157257,1,-2.985178709,1,-0.4065198,1,-0.837029576,1,-0.578518569,1,0.437298268,1,-0.034459587,1,-0.01764933,1,-11.20149326,1,5.068534851,1,5.869403839,1
2.151897192,-11.71186733,1,0.79170388,1,-2.924538851,1,-0.452726424,1,-0.950960755,1,-0.52232182,1,0.435705483,1,-0.036762349,1,-0.021155192,1,-11.3524065,1,4.916635036,1,5.935901642,1
2.155894756,-11.94928646,1,0.620364368,1,-2.841840744,1,-0.496580899,1,-1.057975292,1,-0.449719459,1,0.433952421,1,-0.039566193,1,-0.024041554,1,-11.56242371,1,4.729315281,1,6.024866104,1
2.15989399,-12.19989395,1,0.41224277,1,-2.770392418,1,-0.535326362,1,-1.156544924,1,-0.365525514,1,0.432024807,1,-0.042905141,1,-0.027385674,1,-11.78040314,1,4.503530979,1,6.102993965,1
2.163895369,-12.360116,1,0.25596714,1,-2.696995258,1,-0.579376042,1,-1.238350391,1,-0.276037306,1,0.429940999,1,-0.046722807,1,-0.030568032,1,-11.90332508,1,4.32806015,1,6.183380604,1
2.167892933,-12.48160458,1,0.137934163,1,-2.698322058,1,-0.602601886,1,-1.321326733,1,-0.17113398,1,0.427714467,1,-0.051012307,1,-0.03352667,1,-11.98291206,1,4.189393997,1,6.189232826,1
2.171892166,-12.6042614,1,-0.015876666,1,-2.76849246,1,-0.613679349,1,-1.388733149,1,-0.060904782,1,0.425418556,1,-0.055748649,1,-0.03620049,1,-12.05931282,1,4.014146805,1,6.126087189,1
2.175893784,-9.718054771,1,-0.774914384,1,-5.701449871,1,-0.586342692,1,-1.461205363,1,0.101241998,1,0.423129857,1,-0.060934383,1,-0.038500868,1,-9.122475624,1,3.233528137,1,3.199635983,1
2.179891109,11.26209927,1,5.510833263,1,-12.087286,1,0.497202128,1,-2.086445808,1,0.913549542,1,0.42257905,1,-0.067900889,1,-0.039491355,1,11.92567062,1,9.512573242,1,-3.187994003,1
2.183890581,-7.267089367,1,-1.741502643,1,-8.170138359,1,0.279955626,1,-2.727336884,1,1.183604002,1,0.424840212,1,-0.078923233,1,-0.039531931,1,-6.496008396,1,2.277090073,1,0.71287632,1
2.187892199,8.412029266,1,-12.16235924,1,-7.797637463,1,-0.330444306,1,-2.19592452,1,1.240983367,1,0.42432788,1,-0.089737579,1,-0.039235443,1,9.288499832,1,-8.151984215,1,1.079320431,1
2.191889763,15.82983398,1,-15.53904533,1,-9.26888752,1,-0.14737083,1,-2.670100212,1,1.55585885,1,0.423429012,1,-0.100731872,1,-0.03806781,1,16.81334305,1,-11.54085255,1,-0.397651672,1
2.195888996,4.886748314,1,-15.51201057,1,-11.97063446,1,-0.640767932,1,-2.854513407,1,1.868904114,1,0.421697617,1,-0.113858543,1,-0.036437556,1,5.997899055,1,-11.53481102,1,-3.105032921,1
2.199890375,4.314290047,1,-13.86771393,1,-13.54922867,1,-1.002637982,1,-2.757094383,1,2.084216356,1,0.418060303,1,-0.127239615,1,-0.033700045,1,5.555358887,1,-9.929178238,1,-4.68360424,1
2.203887939,5.370744705,1,-12.04635334,1,-12.84156799,1,-1.22315073,1,-2.838455915,1,2.264976978,1,0.413040519,1,-0.140990257,1,-0.030244919,1,6.745089054,1,-8.159586906,1,-3.972752571,1
2.207887411,2.486700773,1,-8.500425339,1,-11.60852623,1,-1.249156833,1,-3.03643465,1,2.351816654,1,0.407526731,1,-0.155470863,1,-0.026345372,1,4.001113415,1,-4.670908451,1,-2.737617493,1
2.211888552,0.055224389,1,-7.69889164,1,-9.748856544,1,-1.239753485,1,-3.273053408,1,2.19652319,1,0.401978552,1,-0.170622602,1,-0.02285246,1,1.715856791,1,-3.928061724,1,-0.878973961,1
2.215892076,-1.372419953,1,-6.124487877,1,-8.711309433,1,-1.268766165,1,-3.596072912,1,2.055200815,1,0.396525681,1,-0.186557874,1,-0.020338228,1,0.441581726,1,-2.412772417,1,0.153466225,1
2.219891548,-3.269266129,1,-4.456221581,1,-9.057229042,1,-1.267417789,1,-3.88908577,1,1.94900763,1,0.391139686,1,-0.203466937,1,-0.018650981,1,-1.293027878,1,-0.804522753,1,-0.202217102,1
2.223892689,-6.060533047,1,-5.353827953,1,-9.055604935,1,-1.329749584,1,-4.139742851,1,1.786549091,1,0.385809898,1,-0.221176222,1,-0.017809952,1,-3.91498661,1,-1.763110399,1,-0.215069771,1
2.227890015,-9.073740959,1,-3.095153093,1,-9.856856346,1,-1.304608703,1,-4.253654003,1,1.672325969,1,0.380474687,1,-0.239358082,1,-0.017687993,1,-6.755068779,1,0.433275461,1,-1.034974098,1
2.231889725,-13.42032528,1,-0.627295673,1,-11.21661377,1,-1.159955382,1,-4.200960636,1,1.528244734,1,0.375636429,1,-0.257481933,1,-0.017981758,1,-10.929842,1,2.842420578,1,-2.418305397,1
2.235890865,-16.2741909,1,1.195194721,1,-13.7043047,1,-0.990781128,1,-3.913241863,1,1.347085476,1,0.37145102,1,-0.27472952,1,-0.018614624,1,-13.6209631,1,4.611955643,1,-4.93288517,1
2.239888668,-18.76903152,1,1.497044325,1,-15.18128204,1,-0.841263413,1,-3.564720631,1,1.203862429,1,0.367995918,1,-0.290538758,1,-0.019324206,1,-15.9673233,1,4.867965221,1,-6.438344955,1
2.243887901,-18.82410431,1,2.013235092,1,-16.04272652,1,-0.665350616,1,-3.090135336,1,1.115414143,1,0.365095258,1,-0.304619789,1,-0.019801948,1,-15.89073467,1,5.344366074,1,-7.327763557,1
2.247889042,-16.57216072,1,2.13414669,1,-15.58979797,1,-0.481007308,1,-2.675412893,1,1.087386966,1,0.362822831,1,-0.316945016,1,-0.019786961,1,-13.52402401,1,5.43238163,1,-6.901751518,1
2.251886606,-14.27889919,1,2.064325809,1,-14.71091461,1,-0.359561682,1,-2.344948053,1,1.144063234,1,0.360925674,1,-0.327886045,1,-0.019165197,1,-11.12927151,1,5.33409977,1,-6.048344612,1
2.255886078,-11.63629723,1,2.239575624,1,-13.43493271,1,-0.191677317,1,-2.110143423,1,1.238310337,1,0.359339178,1,-0.337870419,1,-0.017750962,1,-8.394381523,1,5.484380245,1,-4.797059059,1
2.259887457,-9.707859993,1,1.666182995,1,-12.7152195,1,-0.049601827,1,-1.958964348,1,1.28806293,1,0.358203709,1,-0.347249269,1,-0.015760412,1,-6.379547119,1,4.890375614,1,-4.102521896,1
2.263884783,-9.417032242,1,0.256616712,1,-12.11132431,1,0.008421235,1,-1.85391736,1,1.350789666,1,0.3573066,1,-0.35623157,1,-0.013343591,1,-6.006249905,1,3.462496758,1,-3.524090767,1
2.267884016,-8.570651054,1,-0.988197803,1,-11.21062374,1,0.086819932,1,-1.733412266,1,1.34996438,1,0.356511235,1,-0.364857256,1,-0.010583853,1,-5.080932617,1,2.200464725,1,-2.648732185,1
2.271885395,-7.835467815,1,-2.626045465,1,-10.66892338,1,0.153848514,1,-1.662728548,1,1.276954055,1,0.356040061,1,-0.37305069,1,-0.007828798,1,-4.271008968,1,0.548508644,1,-2.132619858,1
2.275882721,-8.961580276,1,-4.42952013,1,-9.834272385,1,0.100323543,1,-1.607294083,1,1.230833411,1,0.355583906,1,-0.380918682,1,-0.00523558,1,-5.325574875,1,-1.268722534,1,-1.323078156,1
2.279881954,-7.967706203,1,-6.206290722,1,-8.771586418,1,0.059991684,1,-1.524531245,1,1.09651053,1,0.355004311,1,-0.388404697,1,-0.002848697,1,-4.263836384,1,-3.059975147,1,-0.28431797,1
2.283883572,-8.34751606,1,-7.125636578,1,-7.771997929,1,-0.034605835,1,-1.486392379,1,0.998125136,1,0.354283333,1,-0.395495594,1,-0.000862422,1,-4.579555035,1,-3.994630814,1,0.69269228,1
2.287880898,-7.190142155,1,-7.55493927,1,-6.957933903,1,-0.113973141,1,-1.443360567,1,0.835977316,1,0.353386164,1,-0.402249545,1,0.000683091,1,-3.361312151,1,-4.440408707,1,1.485488415,1
2.29188633,-6.438535213,1,-7.997959614,1,-7.09003973,1,-0.210387379,1,-1.4512254,1,0.712804914,1,0.352382392,1,-0.408746511,1,0.00164144,1,-2.551316977,1,-4.900556564,1,1.332979679,1
2.295887947,-7.588418484,1,-7.61405611,1,-6.624138832,1,-0.330120474,1,-1.437383413,1,0.632871151,1,0.351054311,1,-0.415120631,1,0.002236411,1,-3.644074917,1,-4.536425591,1,1.779551506,1
2.299885273,-6.708239555,1,-7.565187931,1,-7.07106781,1,-0.438084215,1,-1.385802627,1,0.550506592,1,0.349395573,1,-0.421221793,1,0.002542461,1,-2.709367275,1,-4.509796143,1,1.314948082,1
2.303884745,-6.574612141,1,-6.24957943,1,-7.630445004,1,-0.532982349,1,-1.335134149,1,0.499544293,1,0.347402662,1,-0.427061856,1,0.002653166,1,-2.523684025,1,-3.218908548,1,0.739543438,1
2.307886124,-6.948074341,1,-4.500151157,1,-8.472891808,1,-0.598860383,1,-1.265307188,1,0.508624673,1,0.34509638,1,-0.432646692,1,0.002772353,1,-2.847495079,1,-1.49649334,1,-0.117360115,1
2.311883211,-7.961840153,1,-2.824661493,1,-9.101174355,1,-0.633960843,1,-1.129977822,1,0.540322542,1,0.342436194,1,-0.43787539,1,0.003176414,1,-3.814891338,1,0.149518728,1,-0.757991791,1
2.315882683,-7.826120377,1,-0.671223104,1,-10.05444145,1,-0.574264407,1,-0.984833598,1,0.553939283,1,0.339682639,1,-0.442574352,1,0.003909317,1,-3.637596607,1,2.27344799,1,-1.721563339,1
2.319884062,-8.981755257,1,-0.452556998,1,-10.02725983,1,-0.536180913,1,-0.827153563,1,0.545652449,1,0.337053001,1,-0.446733832,1,0.004876818,1,-4.75650692,1,2.464403391,1,-1.703184128,1
2.323881149,-8.027399063,1,-0.532456994,1,-9.63619709,1,-0.467781305,1,-0.675174296,1,0.513061166,1,0.334555566,1,-0.450258493,1,0.006006048,1,-3.771088123,1,2.358798981,1,-1.31897831,1
2.327880621,-7.260617733,1,-1.140240192,1,-9.392339706,1,-0.408224225,1,-0.588249981,1,0.489428878,1,0.332320064,1,-0.453295916,1,0.007183951,1,-2.977581024,1,1.728183746,1,-1.080939293,1
2.331882,-7.016057968,1,-2.560513496,1,-8.941386223,1,-0.401917905,1,-0.509671509,1,0.448753178,1,0.33018434,1,-0.455980182,1,0.008368816,1,-2.709434986,1,0.286415815,1,-0.634782791,1
2.335879326,-5.590474129,1,-2.736388683,1,-9.035395622,1,-0.360388905,1,-0.485071331,1,0.402441502,1,0.328182161,1,-0.458400458,1,0.009459195,1,-1.262611389,1,0.090534925,1,-0.733000755,1
2.339878559,-5.113787174,1,-3.622221947,1,-8.809770584,1,-0.3704862,1,-0.484741658,1,0.352192491,1,0.326334059,1,-0.460722536,1,0.010342725,1,-0.765570641,1,-0.813875437,1,-0.511705399,1
2.343879938,-4.819358349,1,-3.521439791,1,-8.796685219,1,-0.380722016,1,-0.482702494,1,0.347534597,1,0.324495852,1,-0.462992489,1,0.011124314,1,-0.451267242,1,-0.731506586,1,-0.50285244,1
2.347877264,-4.975138187,1,-3.287430763,1,-8.765982628,1,-0.400443435,1,-0.46050933,1,0.335605383,1,0.3225559,1,-0.465217292,1,0.011922927,1,-0.587590218,1,-0.516678572,1,-0.475985527,1
2.351876497,-5.365537643,1,-3.222182751,1,-8.834062576,1,-0.405503422,1,-0.454315364,1,0.323499978,1,0.320625603,1,-0.467380077,1,0.012656515,1,-0.959095478,1,-0.470435381,1,-0.54776001,1
2.355877876,-4.909620762,1,-2.99597311,1,-8.38932991,1,-0.407556534,1,-0.42386505,1,0.320278764,1,0.318639338,1,-0.469471663,1,0.013423701,1,-0.484925747,1,-0.263584137,1,-0.106349945,1
2.359875441,-4.610266209,1,-2.701934814,1,-8.566716194,1,-0.391897976,1,-0.452653408,1,0.315865725,1,0.316729069,1,-0.471531659,1,0.014159594,1,-0.167613506,1,0.011783123,1,-0.287209511,1
2.363874674,-4.935719967,1,-2.688914299,1,-8.909506798,1,-0.395692825,1,-0.449614495,1,0.334371597,1,0.314822078,1,-0.473641574,1,0.01490222,1,-0.474693775,1,0.006099939,1,-0.633773804,1
2.367876053,-4.764564037,1,-2.283278465,1,-9.124486923,1,-0.371640921,1,-0.449627906,1,0.300392002,1,0.312942177,1,-0.475706428,1,0.015634622,1,-0.28557539,1,0.393332005,1,-0.852484703,1
2.371879339,-5.807032108,1,-2.506119013,1,-8.857261658,1,-0.35858354,1,-0.405509651,1,0.299586862,1,0.311167091,1,-0.477710307,1,0.016324874,1,-1.310630322,1,0.153052092,1,-0.589076042,1
2.375878572,-5.474310398,1,-1.542465568,1,-8.858830452,1,-0.316244662,1,-0.35675323,1,0.279073149,1,0.309431344,1,-0.479502499,1,0.017104214,1,-0.962350368,1,1.099890351,1,-0.593735695,1
2.37988019,-5.473479748,1,-1.867090225,1,-8.643027306,1,-0.284148693,1,-0.360994011,1,0.27001977,1,0.307934403,1,-0.481218219,1,0.017774211,1,-0.946638584,1,0.760540485,1,-0.381374359,1
2.383877993,-5.417246819,1,-1.896799445,1,-8.662540436,1,-0.260228038,1,-0.325289488,1,0.274449468,1,0.306524992,1,-0.482875168,1,0.018476734,1,-0.876047134,1,0.716917634,1,-0.404355049,1
2.387877226,-4.399444103,1,-1.746570349,1,-9.315120697,1,-0.198215455,1,-0.346720159,1,0.234017715,1,0.305328339,1,-0.484422863,1,0.019095309,1,0.155156136,1,0.85514617,1,-1.060527802,1
2.391878366,-4.333061695,1,-2.287575245,1,-9.043423653,1,-0.171790376,1,-0.341152102,1,0.231603578,1,0.304330826,1,-0.48601535,1,0.019637631,1,0.235315323,1,0.303730488,1,-0.793166161,1
2.395875931,-5.003213406,1,-2.758336067,1,-8.442083359,1,-0.15272972,1,-0.302228749,1,0.246507406,1,0.303400517,1,-0.487597227,1,0.020234013,1,-0.421163082,1,-0.176869154,1,-0.196328163,1
2.399875402,-4.599750519,1,-2.801774025,1,-8.875044823,1,-0.117393196,1,-0.35428071,1,0.220104322,1,0.302613169,1,-0.489100426,1,0.020784635,1,-0.004716873,1,-0.228855848,1,-0.633841515,1
2.403876781,-5.098136902,1,-3.103152752,1,-8.581131935,1,-0.116729349,1,-0.3388201,1,0.222594142,1,0.301800072,1,-0.490625143,1,0.022155939,1,-0.489944458,1,-0.539022446,1,-0.344540596,1
2.407874346,-5.180695057,1,-2.978958368,1,-8.161963463,1,-0.106083818,1,-0.276267201,1,0.225554526,1,0.301078141,1,-0.492101878,1,0.022727223,1,-0.559768677,1,-0.422794819,1,0.069971085,1
2.411873817,-5.153583527,1,-2.652699471,1,-8.61870575,1,-0.085060798,1,-0.322113723,1,0.205553725,1,0.300463021,1,-0.493520856,1,0.023239356,1,-0.520430565,1,-0.103542805,1,-0.391469955,1
2.415874958,-5.117397308,1,-2.402208805,1,-8.609783173,1,-0.077208355,1,-0.308564931,1,0.202643082,1,0.299914837,1,-0.494959772,1,0.023704898,1,-0.47185564,1,0.140463591,1,-0.387534142,1
2.419872522,-5.743728638,1,-2.289545536,1,-8.682721138,1,-0.0712796,1,-0.303006768,1,0.22031635,1,0.299405843,1,-0.496373177,1,0.024189759,1,-1.086027145,1,0.247002602,1,-0.465459824,1
2.423871756,-4.595489025,1,-1.860075951,1,-8.930231094,1,-0.034761425,1,-0.295604318,1,0.175900578,1,0.298936158,1,-0.497666657,1,0.024687067,1,0.073331833,1,0.670835972,1,-0.717544556,1
2.427873135,-5.530141354,1,-1.844275236,1,-8.460751534,1,-0.007765288,1,-0.286717474,1,0.167102963,1,0.298681676,1,-0.499009043,1,0.025034057,1,-0.849788189,1,0.682700157,1,-0.253417969,1
2.431870461,-5.564186573,1,-1.710739493,1,-8.475996017,1,0.015895568,1,-0.271964669,1,0.143830463,1,0.298556566,1,-0.500259221,1,0.025323035,1,-0.873100758,1,0.813486934,1,-0.27394104,1
2.435869694,-5.510364532,1,-1.772943974,1,-8.409368515,1,0.045500267,1,-0.26613149,1,0.118651882,1,0.298579633,1,-0.501449287,1,0.025532819,1,-0.809069633,1,0.749827147,1,-0.212715149,1
2.439871073,-6.650603294,1,-1.947466731,1,-8.27145195,1,0.046820745,1,-0.233827963,1,0.122353658,1,0.298694104,1,-0.502561092,1,0.025703928,1,-1.939776421,1,0.574702859,1,-0.080088615,1
2.443868399,-4.987779617,1,-1.72148788,1,-8.63084507,1,0.099379614,1,-0.248377174,1,0.073642947,1,0.298940957,1,-0.503528416,1,0.025804531,1,-0.268663883,1,0.801361442,1,-0.444461823,1
2.44786787,-5.151428699,1,-2.011567593,1,-8.214466095,1,0.110650994,1,-0.23812227,1,0.056459356,1,0.29936862,1,-0.504537821,1,0.025766997,1,-0.423668385,1,0.513375759,1,-0.033718109,1
2.45187521,-5.089491844,1,-2.056882381,1,-8.451540947,1,0.130095124,1,-0.228515267,1,0.053627651,1,0.299873352,1,-0.505484939,1,0.025703164,1,-0.353625298,1,0.47086525,1,-0.276352882,1
2.455878973,-5.062877655,1,-2.238146782,1,-8.356355667,1,0.143211454,1,-0.223418534,1,0.042667404,1,0.300467014,1,-0.506400585,1,0.025604,1,-0.319177628,1,0.293170214,1,-0.186811447,1
2.459878445,-4.934764862,1,-2.38885355,1,-8.289981842,1,0.149969086,1,-0.218592241,1,0.036383796,1,0.301113844,1,-0.507289231,1,0.02548968,1,-0.183466911,1,0.146495104,1,-0.126109123,1
2.463879824,-5.226916313,1,-2.597992897,1,-8.376701355,1,0.150829569,1,-0.226576403,1,0.054315675,1,0.301778674,1,-0.508180976,1,0.025378941,1,-0.467997074,1,-0.058476686,1,-0.218562126,1
2.467877388,-3.772963047,1,-2.674879551,1,-8.332896233,1,0.163498193,1,-0.20267117,1,0.03963244,1,0.302403986,1,-0.508993208,1,0.025340736,1,0.99289465,1,-0.131416082,1,-0.180043221,1
2.471876621,-4.805225372,1,-2.999115229,1,-8.122841835,1,0.16477637,1,-0.222105712,1,0.046924941,1,0.303122789,1,-0.509889245,1,0.025242548,1,-0.031716347,1,-0.451066494,1,0.024106026,1
2.475878,-4.697874069,1,-3.228396416,1,-8.23187542,1,0.150112465,1,-0.222235322,1,0.066455446,1,0.303780913,1,-0.510789514,1,0.02518685,1,0.08331728,1,-0.676273584,1,-0.090712547,1
2.479875326,-4.69500351,1,-3.478151798,1,-8.179257393,1,0.126965567,1,-0.221275821,1,0.074983478,1,0.304349542,1,-0.511713862,1,0.025183851,1,0.094071865,1,-0.922725677,1,-0.043766975,1
2.483874559,-4.70801115,1,-3.593033791,1,-8.116463661,1,0.095868625,1,-0.22921434,1,0.081976935,1,0.304771245,1,-0.512663186,1,0.025221897,1,0.089157581,1,-1.035542011,1,0.013609886,1
2.487875938,-4.793096066,1,-3.492412806,1,-8.124750137,1,0.058528788,1,-0.225186259,1,0.089900181,1,0.305048674,1,-0.513621867,1,0.025288841,1,0.012241364,1,-0.934048891,1,0.000219345,1
2.491873264,-4.920594692,1,-3.298803329,1,-8.093274117,1,0.031306233,1,-0.224648952,1,0.099098787,1,0.305173606,1,-0.514605165,1,0.025395814,1,-0.106884003,1,-0.740844965,1,0.026866913,1
2.495872736,-3.903965712,1,-2.913458109,1,-8.086046219,1,0.011012971,1,-0.198726386,1,0.086440578,1,0.305136651,1,-0.515517533,1,0.025589295,1,0.917510271,1,-0.35711956,1,0.029998779,1
2.499874115,-5.126790524,1,-2.757898808,1,-8.123996735,1,0.012764607,1,-0.230928034,1,0.083770446,1,0.305162698,1,-0.516477406,1,0.025646407,1,-0.297148705,1,-0.202741623,1,-0.012438774,1
2.503871441,-4.983520031,1,-2.550530672,1,-8.203586578,1,-0.007887448,1,-0.227103025,1,0.071502611,1,0.305147797,1,-0.517429352,1,0.025676763,1,-0.145784855,1,0.003123999,1,-0.096378326,1
2.507870674,-4.934069157,1,-2.499261141,1,-8.131574631,1,-0.013800168,1,-0.229339346,1,0.067738771,1,0.305108666,1,-0.518380642,1,0.025675189,1,-0.08825016,1,0.05269289,1,-0.028657913,1
2.511872053,-5.003009796,1,-2.524729252,1,-8.11073494,1,-0.017201355,1,-0.230678692,1,0.05656017,1,0.30507493,1,-0.519327641,1,0.025623102,1,-0.149147987,1,0.025571346,1,-0.012114525,1
2.515869617,-5.0513134,1,-2.468421698,1,-8.066625595,1,-0.02380866,1,-0.22273618,1,0.048033345,1,0.305024803,1,-0.520254016,1,0.025541939,1,-0.18958807,1,0.080121756,1,0.027830124,1
2.519869089,-5.053207397,1,-2.428939819,1,-8.011288643,1,-0.026646858,1,-0.224507391,1,0.04421762,1,0.3049739,1,-0.521158993,1,0.025434995,1,-0.183804512,1,0.117869616,1,0.079097748,1
2.523870468,-6.274326324,1,-2.680666924,1,-8.092684746,1,-0.046541885,1,-0.195375711,1,0.088851616,1,0.304857194,1,-0.522051513,1,0.025398867,1,-1.39735508,1,-0.136107922,1,-0.006152153,1
2.527873755,-4.611365318,1,-2.268076897,1,-8.324874878,1,-0.018734625,1,-0.228841424,1,0.041264292,1,0.304734349,1,-0.522868454,1,0.025369789,1,0.272530079,1,0.274293184,1,-0.241830826,1
2.531873226,-5.025737286,1,-2.693429708,1,-7.971892834,1,-0.029738436,1,-0.203894079,1,0.045710556,1,0.304687381,1,-0.523752153,1,0.025264751,1,-0.134356022,1,-0.152736187,1,0.10714674,1
2.535874605,-5.003482342,1,-2.656618595,1,-8.055107117,1,-0.03082357,1,-0.197434306,1,0.051764827,1,0.304588944,1,-0.524583936,1,0.025206555,1,-0.10505867,1,-0.117940664,1,0.020300865,1
2.539872169,-5.096222878,1,-2.902667522,1,-7.992328644,1,-0.046902508,1,-0.196911991,1,0.061269794,1,0.304450095,1,-0.525408506,1,0.025177104,1,-0.190820217,1,-0.366322041,1,0.079576492,1
2.543871403,-5.014225006,1,-3.140668392,1,-7.815573215,1,-0.061111439,1,-0.183394596,1,0.069013856,1,0.304227114,1,-0.526212096,1,0.02519103,1,-0.102025032,1,-0.607304811,1,0.253132343,1
2.54787302,-5.177980423,1,-3.361261606,1,-7.793494225,1,-0.082495116,1,-0.17342478,1,0.079722598,1,0.303901911,1,-0.526982009,1,0.025272943,1,-0.259270668,1,-0.83165431,1,0.272425652,1
2.551870346,-5.868250847,1,-3.73911953,1,-7.957126617,1,-0.119929865,1,-0.15370515,1,0.131210119,1,0.303403676,1,-0.527722895,1,0.025468618,1,-0.943279266,1,-1.214621782,1,0.106568336,1
2.555869579,-3.773540497,1,-3.404612303,1,-7.739337444,1,-0.131756604,1,-0.120055325,1,0.10528779,1,0.302655101,1,-0.528334796,1,0.025855912,1,1.156599998,1,-0.887049675,1,0.323369503,1
