Time,inertial-6253.76535:estCompensatedAccelX,inertial-6253.76535:estCompensatedAccelX:valid,inertial-6253.76535:estCompensatedAccelY,inertial-6253.76535:estCompensatedAccelY:valid,inertial-6253.76535:estCompensatedAccelZ,inertial-6253.76535:estCompensatedAccelZ:valid,inertial-6253.76535:estAngularRateX,inertial-6253.76535:estAngularRateX:valid,inertial-6253.76535:estAngularRateY,inertial-6253.76535:estAngularRateY:valid,inertial-6253.76535:estAngularRateZ,inertial-6253.76535:estAngularRateZ:valid,inertial-6253.76535:estRoll,inertial-6253.76535:estRoll:valid,inertial-6253.76535:estPitch,inertial-6253.76535:estPitch:valid,inertial-6253.76535:estYaw,inertial-6253.76535:estYaw:valid,inertial-6253.76535:estLinearAccelX,inertial-6253.76535:estLinearAccelX:valid,inertial-6253.76535:estLinearAccelY,inertial-6253.76535:estLinearAccelY:valid,inertial-6253.76535:estLinearAccelZ,inertial-6253.76535:estLinearAccelZ:valid
0,-5.099366665,1,-3.468263626,1,-7.6428442,1,-0.0338879,1,-0.017789191,1,0.044787798,1,0.404745042,1,-0.551308453,1,-0.470087528,1,0.023505211,1,-0.187592268,1,0.015160084,1
0.003999744,-5.093479633,1,-3.417226076,1,-7.654156208,1,-0.032638498,1,-0.01775367,1,0.043151271,1,0.404527307,1,-0.551443875,1,-0.469928056,1,0.030520916,1,-0.138494968,1,0.00392437,1
0.00800128,-5.104000568,1,-3.401786327,1,-7.680578709,1,-0.030596253,1,-0.020476094,1,0.044357844,1,0.40430069,1,-0.551577151,1,-0.469765723,1,0.021110535,1,-0.125059843,1,-0.022383213,1
0.011998976,-5.122421741,1,-3.326774836,1,-7.694315434,1,-0.035330243,1,-0.012034581,1,0.044713598,1,0.404079854,1,-0.551703453,1,-0.469595313,1,0.003740788,1,-0.051993847,1,-0.035991669,1
0.015998464,-5.12328577,1,-3.301700592,1,-7.703651428,1,-0.033711802,1,-0.015939912,1,0.045001138,1,0.403856695,1,-0.551831365,1,-0.469430327,1,0.00394249,1,-0.02888608,1,-0.045200348,1
0.019999744,-5.107408524,1,-3.288071871,1,-7.688461304,1,-0.034204587,1,-0.014581492,1,0.04296875,1,0.403636813,1,-0.551950216,1,-0.469269872,1,0.02080965,1,-0.01718092,1,-0.02985096,1
0.023997439,-5.084407806,1,-3.257188797,1,-7.69139576,1,-0.02778344,1,-0.011119924,1,0.044392563,1,0.403430015,1,-0.552066624,1,-0.469104439,1,0.044779301,1,0.011883497,1,-0.032659054,1
0.027996672,-5.060279846,1,-3.310763359,1,-7.649288654,1,-0.030042214,1,-0.017064124,1,0.041013908,1,0.403237402,1,-0.552174687,1,-0.468955994,1,0.069807053,1,-0.043384075,1,0.009567261,1
0.03199821,-5.039897442,1,-3.36423254,1,-7.708664894,1,-0.02543138,1,-0.01318333,1,0.044209164,1,0.403041363,1,-0.552301705,1,-0.46879369,1,0.091247559,1,-0.098610163,1,-0.049767494,1
0.035995647,-5.001097202,1,-3.394660234,1,-7.683938026,1,-0.026468091,1,-0.019976798,1,0.042025998,1,0.402847826,1,-0.55242753,1,-0.46863693,1,0.131095409,1,-0.130773544,1,-0.025003433,1
0.039994881,-4.992596149,1,-3.393474817,1,-7.697900772,1,-0.028713381,1,-0.01712759,1,0.045254361,1,0.402661473,1,-0.552560627,1,-0.468486935,1,0.140704155,1,-0.131283283,1,-0.038986683,1
0.043996416,-5.035302162,1,-3.382685423,1,-7.768470287,1,-0.03106655,1,-0.017317675,1,0.046486996,1,0.402451873,1,-0.55269891,1,-0.468321294,1,0.099149227,1,-0.122377396,1,-0.109526634,1
0.047993857,-5.049897671,1,-3.375242233,1,-7.756355762,1,-0.028308917,1,-0.023058198,1,0.045079678,1,0.402250528,1,-0.552843094,1,-0.468164176,1,0.085754395,1,-0.116766214,1,-0.097436428,1
0.051993087,-5.072680473,1,-3.346710205,1,-7.755511761,1,-0.028402157,1,-0.023649875,1,0.043211687,1,0.402044296,1,-0.552998066,1,-0.468003333,1,0.06426096,1,-0.090123892,1,-0.096651077,1
0.055994622,-5.074516296,1,-3.321379662,1,-7.737488747,1,-0.025736971,1,-0.027325906,1,0.046077687,1,0.401859969,1,-0.553157866,1,-0.467864215,1,0.063755512,1,-0.066526651,1,-0.078783512,1
0.059992064,-5.096831799,1,-3.300572395,1,-7.718770027,1,-0.028243765,1,-0.026433907,1,0.040596478,1,0.40166837,1,-0.553322554,1,-0.467714816,1,0.042809963,1,-0.047518015,1,-0.060221195,1
0.063991554,-5.142084122,1,-3.260047197,1,-7.733065605,1,-0.021045212,1,-0.029191595,1,0.043131068,1,0.40148899,1,-0.55349046,1,-0.46757552,1,-0.001045227,1,-0.00870347,1,-0.074727058,1
0.06799309,-5.123083591,1,-3.252394199,1,-7.749864578,1,-0.023142816,1,-0.02873173,1,0.040775884,1,0.40132308,1,-0.553670824,1,-0.46744594,1,0.01945591,1,-0.002683878,1,-0.091840744,1
0.071990527,-5.098992825,1,-3.251713514,1,-7.707669258,1,-0.02464176,1,-0.027879218,1,0.045611747,1,0.401159644,1,-0.553847551,1,-0.467306942,1,0.045016766,1,-0.003609419,1,-0.0499506,1
0.075990014,-5.102249622,1,-3.284546614,1,-7.71050787,1,-0.018681977,1,-0.033134315,1,0.041048229,1,0.401005536,1,-0.554023743,1,-0.467175126,1,0.043225288,1,-0.037976265,1,-0.053122997,1
0.079997696,-5.108495235,1,-3.342311621,1,-7.690383911,1,-0.020236323,1,-0.027834581,1,0.042212311,1,0.400866628,1,-0.554195344,1,-0.467050195,1,0.038406849,1,-0.097151041,1,-0.033364296,1
0.08400128,-5.119916439,1,-3.374944687,1,-7.688707352,1,-0.028777439,1,-0.031761874,1,0.04441458,1,0.400706351,1,-0.554368138,1,-0.466906309,1,0.028422832,1,-0.131357431,1,-0.031985283,1
0.088001028,-5.069146156,1,-3.421553373,1,-7.685233116,1,-0.025163744,1,-0.031010406,1,0.046805024,1,0.400711775,1,-0.554424703,1,-0.467003554,1,0.079663277,1,-0.17803812,1,-0.028796673,1
0.092002563,-5.063655853,1,-3.414676666,1,-7.648090839,1,-0.025789542,1,-0.02880059,1,0.054804157,1,0.400497049,1,-0.554551363,1,-0.467537999,1,0.086206913,1,-0.173059225,1,0.008442402,1
0.096000254,-5.089967251,1,-3.424467087,1,-7.66018486,1,-0.033817876,1,-0.03055268,1,0.055826429,1,0.400278777,1,-0.554750502,1,-0.467347771,1,0.061551094,1,-0.184920549,1,-0.00388813,1
0.099999741,-5.14666605,1,-3.385828733,1,-7.711276054,1,-0.031144055,1,-0.027512087,1,0.062689885,1,0.400050998,1,-0.554942191,1,-0.467143506,1,0.006445408,1,-0.148410797,1,-0.055150509,1
0.104001537,-5.304346085,1,-3.507339001,1,-7.597010612,1,-0.0368842,1,-0.026599661,1,0.068887018,1,0.399796307,1,-0.555146277,1,-0.466922224,1,-0.14953804,1,-0.272280931,1,0.058969021,1
0.107999742,-4.74877739,1,-3.434188604,1,-7.824726105,1,-0.037252188,1,-0.02866867,1,0.063746415,1,0.399502099,1,-0.55532521,1,-0.466652423,1,0.407517433,1,-0.201742411,1,-0.168646812,1
0.111998975,-5.139688492,1,-3.42015934,1,-7.688221931,1,-0.039112672,1,-0.026636297,1,0.06723737,1,0.399222821,1,-0.555538476,1,-0.466416061,1,0.018378735,1,-0.190279007,1,-0.032252312,1
0.116000257,-5.191795826,1,-3.3731637,1,-7.6520648,1,-0.037989996,1,-0.027452862,1,0.066325627,1,0.398935199,1,-0.555743337,1,-0.466181219,1,-0.032026291,1,-0.145895481,1,0.003860474,1
0.119997948,-5.17423296,1,-3.327211142,1,-7.686385155,1,-0.03771542,1,-0.02606618,1,0.069752522,1,0.398648709,1,-0.555949092,1,-0.465935469,1,-0.012753963,1,-0.102548599,1,-0.030514717,1
0.123997442,-5.160677433,1,-3.310592175,1,-7.6961689,1,-0.039987117,1,-0.024750581,1,0.064984947,1,0.398358315,1,-0.556149125,1,-0.465694577,1,0.002462387,1,-0.088553905,1,-0.040314198,1
0.127998978,-5.151560307,1,-3.291658878,1,-7.664152145,1,-0.041813131,1,-0.024866538,1,0.066908382,1,0.398066223,1,-0.556353807,1,-0.465452343,1,0.013279915,1,-0.072266579,1,-0.008329868,1
0.131996676,-5.181658268,1,-3.259217739,1,-7.676267147,1,-0.035276003,1,-0.027206091,1,0.067913078,1,0.397796392,1,-0.556552589,1,-0.465222955,1,-0.015166759,1,-0.042288542,1,-0.020523071,1
0.13599591,-5.140218258,1,-3.239793539,1,-7.692687511,1,-0.034877535,1,-0.028884362,1,0.059673782,1,0.397534609,1,-0.556743145,1,-0.464989841,1,0.027855873,1,-0.025249481,1,-0.037009239,1
0.139997438,-5.143585682,1,-3.25328517,1,-7.705888271,1,-0.027683916,1,-0.026354281,1,0.05960666,1,0.397287786,1,-0.556930661,1,-0.46477282,1,0.026044846,1,-0.041006088,1,-0.050311565,1
0.143994883,-5.126935959,1,-3.209539175,1,-7.67724514,1,-0.0306031,1,-0.023348084,1,0.060084525,1,0.397051811,1,-0.557109833,1,-0.464561194,1,0.044181824,1,0.000574827,1,-0.021763802,1
0.147994116,-5.116031647,1,-3.245439529,1,-7.727199554,1,-0.027894728,1,-0.022497263,1,0.057327956,1,0.396834493,1,-0.557287812,1,-0.46435228,1,0.056563854,1,-0.037345409,1,-0.071870327,1
0.151995644,-5.121679783,1,-3.258975983,1,-7.688913822,1,-0.028527347,1,-0.024592424,1,0.051986527,1,0.396615207,1,-0.557465911,1,-0.464153469,1,0.052393913,1,-0.052916288,1,-0.033730984,1
0.155993342,-5.10013628,1,-3.2690413,1,-7.71643734,1,-0.023859616,1,-0.030018875,1,0.053139586,1,0.396419466,1,-0.55764097,1,-0.463975489,1,0.075389862,1,-0.064829588,1,-0.061462879,1
0.159998983,-5.148273945,1,-3.224506378,1,-7.729342937,1,-0.020393016,1,-0.026173852,1,0.046992056,1,0.396230817,1,-0.557819545,1,-0.463801712,1,0.028734684,1,-0.022097349,1,-0.074621201,1
0.164000764,-5.15563345,1,-3.214067698,1,-7.709065914,1,-0.014620549,1,-0.025298355,1,0.047152486,1,0.396072507,1,-0.557997346,1,-0.463636667,1,0.022850037,1,-0.01322484,1,-0.054684162,1
0.167998463,-5.138064861,1,-3.192579269,1,-7.700654984,1,-0.017987562,1,-0.026132358,1,0.044694275,1,0.395932138,1,-0.558170557,1,-0.463488579,1,0.041855812,1,0.006842852,1,-0.046652317,1
0.171998203,-5.174494743,1,-3.160742998,1,-7.742242813,1,-0.01132946,1,-0.027511833,1,0.041736014,1,0.395801067,1,-0.558335602,1,-0.463347375,1,0.00679493,1,0.037346125,1,-0.088610172,1
0.175999746,-5.174281597,1,-3.166453838,1,-7.705845833,1,-0.00969365,1,-0.028111959,1,0.039785318,1,0.395687163,1,-0.558493614,1,-0.463222474,1,0.008318901,1,0.030448198,1,-0.052603722,1
0.179997191,-5.178431034,1,-3.164884567,1,-7.711730957,1,-0.005101215,1,-0.025779031,1,0.037623569,1,0.395594478,1,-0.558654726,1,-0.463108003,1,0.005505562,1,0.030987501,1,-0.058960438,1
0.183996677,-5.132597446,1,-3.204710722,1,-7.724190712,1,-0.010491416,1,-0.028059259,1,0.035613224,1,0.395508915,1,-0.558814645,1,-0.462996542,1,0.05266571,1,-0.009813547,1,-0.071913242,1
0.187998205,-5.117883205,1,-3.314735889,1,-7.696005344,1,-0.008261245,1,-0.025748191,1,0.040118773,1,0.395412922,1,-0.558974743,1,-0.462888449,1,0.068706989,1,-0.120893002,1,-0.044186592,1
0.191995904,-5.163073063,1,-3.346628428,1,-7.706468105,1,-0.005530832,1,-0.029265011,1,0.038816594,1,0.395317167,1,-0.559135795,1,-0.462763041,1,0.024852276,1,-0.153840065,1,-0.0551157,1
0.19599539,-5.163457394,1,-3.369184971,1,-7.702975273,1,-0.011676673,1,-0.025596494,1,0.036291979,1,0.395224094,1,-0.559293807,1,-0.462649435,1,0.025777817,1,-0.177424669,1,-0.052082539,1
0.199996933,-5.153104305,1,-3.381057262,1,-7.663451195,1,-0.008336157,1,-0.024858098,1,0.043673851,1,0.395119131,1,-0.559445739,1,-0.462523997,1,0.037390232,1,-0.190403938,1,-0.012951851,1
0.203994617,-5.173367977,1,-3.323806047,1,-7.677710533,1,-0.013556009,1,-0.025115769,1,0.042544112,1,0.394994438,1,-0.559607327,1,-0.462384462,1,0.018465996,1,-0.134429693,1,-0.027588844,1
0.20799385,-5.142226219,1,-3.322226524,1,-7.669621944,1,-0.015569353,1,-0.02276885,1,0.044927385,1,0.394872725,1,-0.559765697,1,-0.462239355,1,0.050920963,1,-0.134096622,1,-0.019868374,1
0.21199514,-5.148281574,1,-3.341929674,1,-7.700199127,1,-0.010979205,1,-0.027082305,1,0.045577794,1,0.394748747,1,-0.559930682,1,-0.462091148,1,0.046232224,1,-0.155077696,1,-0.050841331,1
0.215992838,-5.167436123,1,-3.313289642,1,-7.723856926,1,-0.013631781,1,-0.028077906,1,0.046625622,1,0.394626558,1,-0.560099006,1,-0.461943984,1,0.0284729,1,-0.127708912,1,-0.07491684,1
0.219992071,-5.12003231,1,-3.350574017,1,-7.710315228,1,-0.011647376,1,-0.026650788,1,0.049304664,1,0.394486874,1,-0.560265124,1,-0.461787224,1,0.077252865,1,-0.166392803,1,-0.06172657,1
0.223993599,-5.172088146,1,-3.327072144,1,-7.674289227,1,-0.018503502,1,-0.029505735,1,0.049148098,1,0.39435181,1,-0.560444474,1,-0.461629301,1,0.026682854,1,-0.144284248,1,-0.026135445,1
0.227991298,-5.174852848,1,-3.344497442,1,-7.704607964,1,-0.00718595,1,-0.026413467,1,0.047481608,1,0.394214988,1,-0.560621023,1,-0.461473018,1,0.025381088,1,-0.163107634,1,-0.056865215,1
0.231990531,-5.147370815,1,-3.275422812,1,-7.707271099,1,-0.014740381,1,-0.02909228,1,0.048876226,1,0.394082129,1,-0.560804129,1,-0.461318374,1,0.054379463,1,-0.0954144,1,-0.059983253,1
0.235998213,-5.177684307,1,-3.24775362,1,-7.719819546,1,-0.009713031,1,-0.02887773,1,0.049029104,1,0.393951476,1,-0.560986936,1,-0.461158186,1,0.025580406,1,-0.069109201,1,-0.072994709,1
0.240002051,-5.171658039,1,-3.227298737,1,-7.687022686,1,-0.006170142,1,-0.027160598,1,0.045638833,1,0.3938362,1,-0.561157644,1,-0.461004645,1,0.033019543,1,-0.049876213,1,-0.040649891,1
0.244001791,-5.190180779,1,-3.243945599,1,-7.707496643,1,-0.008112048,1,-0.030999618,1,0.048509285,1,0.393739581,1,-0.561343908,1,-0.460861415,1,0.016038895,1,-0.067635298,1,-0.061715603,1
0.248003334,-5.182423115,1,-3.289651394,1,-7.663162231,1,-0.005359336,1,-0.028952127,1,0.039152246,1,0.393637627,1,-0.561524749,1,-0.460714012,1,0.025293827,1,-0.114481926,1,-0.017927647,1
0.252001017,-5.164305687,1,-3.276559591,1,-7.656597614,1,-0.007192075,1,-0.033285864,1,0.043371718,1,0.39354679,1,-0.561700344,1,-0.460585892,1,0.044864655,1,-0.102435112,1,-0.011919022,1
0.256000519,-5.175198078,1,-3.25024581,1,-7.679145336,1,-0.004096549,1,-0.030075992,1,0.045624927,1,0.39345026,1,-0.561879992,1,-0.460454702,1,0.035459518,1,-0.077218056,1,-0.03502512,1
0.260002047,-5.181781292,1,-3.296746492,1,-7.697804928,1,-0.005791065,1,-0.029129136,1,0.037485182,1,0.393361449,1,-0.562048495,1,-0.460322648,1,0.030270576,1,-0.124733448,1,-0.05421114,1
0.263999492,-5.164727211,1,-3.276696205,1,-7.708124161,1,-0.007337374,1,-0.029946608,1,0.042398043,1,0.393275023,1,-0.562214732,1,-0.460198224,1,0.048700333,1,-0.105675936,1,-0.065057278,1
0.267998964,-5.154672623,1,-3.321521521,1,-7.689110279,1,-0.00584802,1,-0.027704921,1,0.044726178,1,0.393176407,1,-0.562388361,1,-0.460068882,1,0.060191154,1,-0.15160203,1,-0.04656744,1
0.272000521,-5.17798996,1,-3.291637182,1,-7.690881729,1,-0.004607374,1,-0.030154964,1,0.042073678,1,0.39308235,1,-0.562562227,1,-0.4599379,1,0.038312912,1,-0.122783661,1,-0.048878193,1
0.275998205,-5.21339798,1,-3.274079561,1,-7.702746868,1,-0.009412255,1,-0.034441765,1,0.046704892,1,0.39298439,1,-0.5627352,1,-0.459801853,1,0.00433588,1,-0.106319666,1,-0.061264992,1
0.279997706,-5.217044353,1,-3.280287504,1,-7.679491043,1,-0.012818666,1,-0.027953951,1,0.043568321,1,0.392873913,1,-0.562917352,1,-0.459667593,1,0.002195835,1,-0.113735676,1,-0.038537502,1
0.283999234,-5.205486298,1,-3.264443636,1,-7.685079098,1,-0.012651059,1,-0.0308866,1,0.04356974,1,0.392752945,1,-0.563089252,1,-0.459532738,1,0.015176296,1,-0.099159956,1,-0.044572353,1
0.287996918,-5.190438271,1,-3.243908644,1,-7.67590332,1,-0.010274855,1,-0.027702264,1,0.043801382,1,0.392635286,1,-0.56326735,1,-0.459393382,1,0.031696796,1,-0.079881191,1,-0.035886288,1
0.291996419,-5.17078352,1,-3.261008978,1,-7.668679237,1,-0.013359692,1,-0.024574988,1,0.045897968,1,0.392504513,1,-0.563434005,1,-0.459234655,1,0.052729607,1,-0.098313332,1,-0.029052258,1
0.295997709,-5.176578522,1,-3.298480034,1,-7.657896042,1,-0.009509146,1,-0.028530067,1,0.047369249,1,0.3923904,1,-0.563603163,1,-0.459090739,1,0.048333168,1,-0.136994123,1,-0.018724918,1
0.299995393,-5.230149269,1,-3.288375378,1,-7.616526604,1,-0.013112592,1,-0.025939474,1,0.044269886,1,0.392260134,1,-0.563773215,1,-0.458945453,1,-0.00383234,1,-0.128224373,1,0.022235394,1
0.303994626,-5.225123405,1,-3.26417923,1,-7.646913528,1,-0.011358496,1,-0.022656213,1,0.044455808,1,0.392122149,1,-0.563932419,1,-0.458787978,1,0.002510071,1,-0.105399847,1,-0.00848341,1
0.307995915,-5.236859322,1,-3.196009398,1,-7.632417679,1,-0.013217905,1,-0.022041677,1,0.046892948,1,0.391986191,1,-0.564083934,1,-0.458632261,1,-0.007973671,1,-0.038571119,1,0.005709171,1
0.311993599,-5.229423046,1,-3.192061186,1,-7.624444962,1,-0.013586648,1,-0.018055586,1,0.044813756,1,0.391841471,1,-0.564228117,1,-0.45846656,1,0.000653744,1,-0.036015749,1,0.013442993,1
0.31599924,-5.24923563,1,-3.176156759,1,-7.62121439,1,-0.013501191,1,-0.016681233,1,0.038281258,1,0.391701013,1,-0.564355016,1,-0.458307564,1,-0.018109322,1,-0.021437645,1,0.016503811,1
0.320001036,-5.258201599,1,-3.184098244,1,-7.591394901,1,-0.012648697,1,-0.015368799,1,0.037561454,1,0.391575575,1,-0.564469755,1,-0.458166987,1,-0.026127338,1,-0.030566216,1,0.046164036,1
0.323998988,-5.270248413,1,-3.139096975,1,-7.605807304,1,-0.014007399,1,-0.014549078,1,0.037097245,1,0.391459107,1,-0.564577103,1,-0.458030254,1,-0.037287235,1,0.01333189,1,0.031600952,1
0.327998221,-5.259336948,1,-3.135413885,1,-7.625157356,1,-0.01266394,1,-0.008357953,1,0.033177149,1,0.391336501,1,-0.564668715,1,-0.457899332,1,-0.02561903,1,0.015893698,1,0.012190819,1
0.331999749,-5.25165987,1,-3.182729244,1,-7.602969646,1,-0.011178896,1,-0.004069381,1,0.027779547,1,0.39122659,1,-0.564740241,1,-0.457782358,1,-0.017350674,1,-0.032403708,1,0.034378529,1
0.335997432,-5.274292469,1,-3.15255475,1,-7.58520937,1,-0.013482666,1,-0.000964245,1,0.028903479,1,0.391104728,1,-0.564791918,1,-0.457665026,1,-0.039556503,1,-0.003262758,1,0.052272797,1
0.339996934,-5.256215096,1,-3.170932531,1,-7.589486122,1,-0.012777872,1,0.002853768,1,0.025383096,1,0.391116321,1,-0.564674616,1,-0.458417147,1,-0.02244854,1,-0.021317482,1,0.048527718,1
0.343998462,-5.251654625,1,-3.201853275,1,-7.598244667,1,-0.016221892,1,0.00657794,1,0.023024648,1,0.391002119,1,-0.564696968,1,-0.458305627,1,-0.017703533,1,-0.053154945,1,0.04002142,1
0.347996145,-5.247905254,1,-3.197963715,1,-7.61607933,1,-0.014333447,1,0.004575619,1,0.018336665,1,0.390879989,1,-0.56470561,1,-0.458200246,1,-0.013883114,1,-0.050215721,1,0.022529602,1
0.351995647,-5.21714592,1,-3.196953773,1,-7.608402252,1,-0.013446501,1,0.012070602,1,0.018084569,1,0.390770972,1,-0.564700425,1,-0.458100677,1,0.016833782,1,-0.050027847,1,0.030575752,1
0.355997175,-5.254674435,1,-3.209572077,1,-7.619863033,1,-0.016531333,1,0.013173258,1,0.012513917,1,0.390668809,1,-0.56467855,1,-0.458010584,1,-0.020875454,1,-0.063383102,1,0.01954174,1
0.35999462,-5.209773064,1,-3.246972322,1,-7.620044231,1,-0.014751173,1,0.017586309,1,0.013618054,1,0.390566945,1,-0.564653039,1,-0.457930744,1,0.023815155,1,-0.101510525,1,0.019804001,1
0.363994122,-5.248206139,1,-3.235612869,1,-7.611862659,1,-0.016511992,1,0.018574208,1,0.013374584,1,0.390454948,1,-0.564607561,1,-0.457845569,1,-0.014993668,1,-0.090916872,1,0.028556347,1
0.36799565,-5.266576767,1,-3.270260572,1,-7.623978615,1,-0.014527155,1,0.019620225,1,0.012746351,1,0.390350431,1,-0.564551115,1,-0.457760692,1,-0.033830643,1,-0.126250505,1,0.017043114,1
0.371993333,-5.265814304,1,-3.199228525,1,-7.578300953,1,-0.018251814,1,0.027196888,1,0.008729681,1,0.390230238,1,-0.564479411,1,-0.457670987,1,-0.033660412,1,-0.055994511,1,0.063445091,1
0.375992835,-5.236274242,1,-3.195184946,1,-7.605439186,1,-0.017300617,1,0.027440429,1,0.008446114,1,0.390111983,1,-0.564394295,1,-0.4575876,1,-0.004823685,1,-0.052684784,1,0.037090778,1
0.379994363,-5.221569061,1,-3.176665306,1,-7.613788128,1,-0.019049149,1,0.031415049,1,0.00352242,1,0.389995575,1,-0.564295709,1,-0.457507908,1,0.009067059,1,-0.03485918,1,0.029583454,1
0.383992076,-5.240498543,1,-3.145602942,1,-7.625151157,1,-0.014817894,1,0.034814544,1,0.000302447,1,0.389885426,1,-0.564177215,1,-0.457432568,1,-0.010841846,1,-0.004403591,1,0.019137859,1
0.387991816,-5.248503208,1,-3.128639936,1,-7.610882282,1,-0.016383452,1,0.032222267,1,0.000499215,1,0.389786094,1,-0.56405288,1,-0.457363218,1,-0.019874096,1,0.012047291,1,0.034321785,1
0.391993344,-5.226099968,1,-3.160921812,1,-7.627248764,1,-0.012022834,1,0.036339089,1,0.000523417,1,0.389696062,1,-0.563920379,1,-0.457305878,1,0.001434326,1,-0.020659924,1,0.018877983,1
0.395996928,-5.236502647,1,-3.125806332,1,-7.612512112,1,-0.013083051,1,0.038708072,1,-0.001303975,1,0.389619112,1,-0.563779473,1,-0.457255453,1,-0.010133743,1,0.014146805,1,0.034538746,1
0.399996668,-5.163761139,1,-3.164992809,1,-7.65860033,1,-0.010272664,1,0.038269993,1,-0.007707866,1,0.389551431,1,-0.563624918,1,-0.457214713,1,0.061330318,1,-0.025249958,1,-0.010589123,1
0.403998196,-5.154393196,1,-3.194026709,1,-7.665471554,1,-0.007681224,1,0.034225181,1,-0.006774179,1,0.38950175,1,-0.563487053,1,-0.457183003,1,0.069558144,1,-0.054390192,1,-0.016638279,1
0.407995909,-5.152071953,1,-3.182213306,1,-7.701395035,1,-0.004290624,1,0.035625931,1,-0.009834599,1,0.389460742,1,-0.563339055,1,-0.457157314,1,0.070655823,1,-0.042596102,1,-0.051715851,1
0.411995649,-5.156768322,1,-3.177772522,1,-7.708077908,1,-4.59E-05,1,0.035434995,1,-0.011595037,1,0.389442831,1,-0.563193262,1,-0.457143605,1,0.064753532,1,-0.038004398,1,-0.057640553,1
0.415997446,-5.189551353,1,-3.166475534,1,-7.690161228,1,-0.003662751,1,0.031752605,1,-0.014784727,1,0.389434934,1,-0.563044906,1,-0.457142174,1,0.030744076,1,-0.026473284,1,-0.038981438,1
0.419995397,-5.180095673,1,-3.172923088,1,-7.666317463,1,-0.00024955,1,0.029596265,1,-0.014300536,1,0.389447391,1,-0.562908888,1,-0.457149565,1,0.039074421,1,-0.032556534,1,-0.014521122,1
0.423994869,-5.192706585,1,-3.146410942,1,-7.689893723,1,0.006988977,1,0.026634745,1,-0.018488018,1,0.389469385,1,-0.56278199,1,-0.457173347,1,0.025414467,1,-0.005625486,1,-0.037555218,1
0.427996427,-5.170032024,1,-3.155218601,1,-7.70129776,1,0.009430521,1,0.02687059,1,-0.019741306,1,0.389517248,1,-0.562648237,1,-0.457206607,1,0.046982288,1,-0.013801098,1,-0.048462391,1
0.43199411,-5.141068935,1,-3.178879023,1,-7.727386475,1,0.010977522,1,0.027283743,1,-0.023992186,1,0.389581531,1,-0.562519789,1,-0.457252294,1,0.07488203,1,-0.036714077,1,-0.074131489,1
0.435993612,-5.198370934,1,-3.214214325,1,-7.687929153,1,0.013703783,1,0.022701837,1,-0.022130301,1,0.389666915,1,-0.562405288,1,-0.45731169,1,0.016633511,1,-0.071169376,1,-0.034390926,1
0.439995378,-5.151040554,1,-3.165800095,1,-7.698676586,1,0.014652672,1,0.021052578,1,-0.025799064,1,0.389763385,1,-0.562286258,1,-0.457383871,1,0.062979221,1,-0.021781445,1,-0.044868469,1
0.44399333,-5.176272869,1,-3.135331869,1,-7.701076508,1,0.020022202,1,0.020296551,1,-0.02955546,1,0.389881849,1,-0.562173188,1,-0.457453668,1,0.036811352,1,0.009817362,1,-0.047095776,1
0.447992831,-5.164242268,1,-3.136619329,1,-7.72023344,1,0.023292918,1,0.014321864,1,-0.031007359,1,0.390018165,1,-0.562068343,1,-0.457556844,1,0.04797411,1,0.009780407,1,-0.066177368,1
0.451994359,-5.142311573,1,-3.077867746,1,-7.716994286,1,0.026661638,1,0.012976824,1,-0.036284067,1,0.390194535,1,-0.56196326,1,-0.457680196,1,0.06903553,1,0.070091009,1,-0.062984943,1
0.455991805,-5.175803185,1,-3.064328432,1,-7.729261398,1,0.039386064,1,0.013905257,1,-0.043306421,1,0.390401423,1,-0.56186384,1,-0.4578318,1,0.034720898,1,0.085410357,1,-0.075426102,1
0.459991544,-5.155083656,1,-3.016905785,1,-7.713822365,1,0.040468719,1,0.005302408,1,-0.048112374,1,0.390650392,1,-0.561771393,1,-0.458003491,1,0.054675102,1,0.134922266,1,-0.060325146,1
0.463993102,-5.151510715,1,-3.015803099,1,-7.747573853,1,0.052568588,1,-0.000880553,1,-0.054989636,1,0.390955478,1,-0.561685085,1,-0.458218157,1,0.057533264,1,0.138531446,1,-0.094622612,1
0.467990518,-5.18088913,1,-3.016613722,1,-7.757442951,1,0.063919149,1,-0.004643894,1,-0.055841286,1,0.39131248,1,-0.561599493,1,-0.458460927,1,0.02744627,1,0.140623808,1,-0.105203629,1
0.471996158,-5.145521164,1,-3.003304005,1,-7.76955986,1,0.072023131,1,-0.003282769,1,-0.065783396,1,0.391726494,1,-0.561523438,1,-0.458736539,1,0.062185287,1,0.157251835,1,-0.118263245,1
0.475997955,-5.177441597,1,-3.065942764,1,-7.750620842,1,0.075595289,1,-0.008788489,1,-0.062639058,1,0.392168939,1,-0.561440825,1,-0.459022135,1,0.029580593,1,0.098163605,1,-0.100324154,1
0.479995906,-5.153085232,1,-3.192586184,1,-7.729438782,1,0.078046486,1,-0.008744348,1,-0.06522464,1,0.392632544,1,-0.561373234,1,-0.459317207,1,0.053377151,1,-0.024799824,1,-0.080285549,1
0.483995646,-5.158383846,1,-3.298708439,1,-7.702921867,1,0.070793524,1,-0.007645383,1,-0.058323011,1,0.39308694,1,-0.561308682,1,-0.459603995,1,0.047544003,1,-0.127317667,1,-0.054898739,1
0.487997174,-5.157836914,1,-3.481725931,1,-7.66064167,1,0.064759217,1,-0.004267492,1,-0.056323655,1,0.393504441,1,-0.561233163,1,-0.459866524,1,0.047466278,1,-0.306992054,1,-0.013580322,1
0.491994888,-5.170439243,1,-3.561901093,1,-7.624024868,1,0.059436113,1,-0.000761079,1,-0.05094922,1,0.393875688,1,-0.561166406,1,-0.460093081,1,0.034310818,1,-0.384195328,1,0.022177696,1
0.495994359,-5.126144409,1,-3.616716623,1,-7.495113373,1,0.047160368,1,0.008075029,1,-0.04205671,1,0.394196391,1,-0.561089039,1,-0.46028775,1,0.077964783,1,-0.43640399,1,0.150442123,1
0.499995917,-5.229611874,1,-3.517081738,1,-7.607297897,1,0.040516388,1,0.00260089,1,-0.038816027,1,0.39446184,1,-0.561009467,1,-0.460454315,1,-0.026161194,1,-0.334580421,1,0.037795067,1
0.503993571,-5.208205223,1,-3.479094028,1,-7.57660675,1,0.029053792,1,0.010391179,1,-0.034497116,1,0.394667029,1,-0.560925126,1,-0.460597575,1,-0.00545311,1,-0.294854879,1,0.068239212,1
0.507993102,-5.197685242,1,-3.39883709,1,-7.588703632,1,0.026086535,1,0.014989231,1,-0.02875209,1,0.394838721,1,-0.560829699,1,-0.460716933,1,0.004276276,1,-0.213095188,1,0.056051731,1
0.511994898,-5.213440418,1,-3.341450214,1,-7.594445229,1,0.020526052,1,0.016630365,1,-0.028560534,1,0.394978464,1,-0.560724914,1,-0.460806429,1,-0.012346745,1,-0.154430151,1,0.050368309,1
0.515992582,-5.21637249,1,-3.256747961,1,-7.608114243,1,0.016296417,1,0.025054745,1,-0.027227212,1,0.39510113,1,-0.560604632,1,-0.460897148,1,-0.016274452,1,-0.06855011,1,0.036884785,1
0.519992054,-5.23487711,1,-3.276063919,1,-7.590566635,1,0.015622417,1,0.026632357,1,-0.033051305,1,0.395212352,1,-0.560467601,1,-0.46097672,1,-0.035914898,1,-0.086740255,1,0.054737568,1
0.52399385,-5.248952389,1,-3.214441776,1,-7.644561291,1,0.015702665,1,0.029057223,1,-0.032811727,1,0.395325512,1,-0.560313404,1,-0.461065471,1,-0.051267147,1,-0.023944616,1,0.001121044,1
0.527991533,-5.18708849,1,-3.192045689,1,-7.617416382,1,0.016584214,1,0.032718278,1,-0.03184998,1,0.395431697,1,-0.560157359,1,-0.461147398,1,0.00930357,1,-0.000423908,1,0.028676033,1
0.531991065,-5.170536041,1,-3.225852013,1,-7.630045891,1,0.015812322,1,0.02935244,1,-0.037244927,1,0.395549417,1,-0.559987128,1,-0.461233258,1,0.024446011,1,-0.03298974,1,0.016487598,1
0.535992563,-5.184114456,1,-3.228186369,1,-7.652585506,1,0.019658558,1,0.032283068,1,-0.037808396,1,0.395669281,1,-0.559814095,1,-0.461334199,1,0.009433746,1,-0.03406167,1,-0.005607605,1
0.539990246,-5.17089653,1,-3.258375406,1,-7.659810066,1,0.020971678,1,0.034905996,1,-0.036653575,1,0.395809978,1,-0.559629917,1,-0.461434007,1,0.02112484,1,-0.062805653,1,-0.012397766,1
0.543989778,-5.136104107,1,-3.268191576,1,-7.669040203,1,0.022287223,1,0.034423869,1,-0.037007444,1,0.395952195,1,-0.559449017,1,-0.461535722,1,0.054418087,1,-0.071171761,1,-0.021215916,1
0.547991276,-5.118230343,1,-3.333779573,1,-7.707383633,1,0.024558917,1,0.031151002,1,-0.036091607,1,0.396107376,1,-0.559263229,1,-0.461638629,1,0.070751667,1,-0.1352005,1,-0.059165478,1
0.55199486,-5.130169868,1,-3.31899333,1,-7.715519905,1,0.022920582,1,0.033212379,1,-0.036769692,1,0.39626199,1,-0.559085727,1,-0.461742818,1,0.057340145,1,-0.118877649,1,-0.066949368,1
0.55599463,-5.117815971,1,-3.288724184,1,-7.743154526,1,0.022485562,1,0.029968236,1,-0.035220347,1,0.396402061,1,-0.558913887,1,-0.461838812,1,0.06826973,1,-0.087193251,1,-0.094210625,1
0.559996188,-5.108953476,1,-3.286022186,1,-7.714240551,1,0.022188675,1,0.030830987,1,-0.035436548,1,0.396553457,1,-0.558745027,1,-0.461941302,1,0.075731277,1,-0.082995415,1,-0.064974308,1
0.563993573,-5.11584425,1,-3.27409935,1,-7.726145267,1,0.025131557,1,0.030011488,1,-0.036962483,1,0.396708488,1,-0.558581054,1,-0.46204409,1,0.067481518,1,-0.069557667,1,-0.076590538,1
0.567993104,-5.12536335,1,-3.311453581,1,-7.73815155,1,0.022698697,1,0.025797863,1,-0.03258834,1,0.396861911,1,-0.55842495,1,-0.462149709,1,0.056667328,1,-0.105425119,1,-0.088341236,1
0.571994603,-5.101979733,1,-3.291818857,1,-7.786419868,1,0.022793926,1,0.022362225,1,-0.034387648,1,0.397009492,1,-0.558279991,1,-0.462245435,1,0.078848362,1,-0.084371328,1,-0.136391163,1
0.575992346,-5.12589407,1,-3.303557396,1,-7.751597404,1,0.0261756,1,0.020059012,1,-0.031819358,1,0.397163332,1,-0.55814296,1,-0.462342888,1,0.053797245,1,-0.094658613,1,-0.101406574,1
0.579991817,-5.113537312,1,-3.3196733,1,-7.705429077,1,0.023867313,1,0.02054642,1,-0.028231122,1,0.397307813,1,-0.558016479,1,-0.462436229,1,0.065104961,1,-0.109416008,1,-0.05509901,1
0.583993316,-5.091271877,1,-3.364705801,1,-7.731125832,1,0.01611387,1,0.016690785,1,-0.024162145,1,0.397434592,1,-0.557911217,1,-0.462521791,1,0.08649683,1,-0.153267384,1,-0.080699444,1
0.587991297,-5.068552017,1,-3.502809048,1,-7.749468803,1,0.014811952,1,0.015000539,1,-0.017304048,1,0.397641182,1,-0.557730556,1,-0.462720126,1,0.107717514,1,-0.289428949,1,-0.098845959,1
0.591990769,-5.087716103,1,-3.556525469,1,-7.727893829,1,0.006410893,1,0.014034598,1,-0.015012885,1,0.397670358,1,-0.557584822,1,-0.463451773,1,0.087343693,1,-0.342628717,1,-0.076666832,1
0.595992327,-5.086833477,1,-3.514935493,1,-7.717189312,1,0.002794956,1,0.013275336,1,-0.004495845,1,0.397695184,1,-0.557522833,1,-0.463461369,1,0.087712288,1,-0.300724983,1,-0.065746784,1
0.599990249,-5.132383823,1,-3.534810781,1,-7.68351841,1,-0.005688186,1,0.011435312,1,-0.005294466,1,0.397685528,1,-0.557469308,1,-0.463453054,1,0.041718006,1,-0.320566416,1,-0.031788349,1
0.60398978,-5.15204525,1,-3.463953495,1,-7.666502953,1,-0.005456307,1,0.012011413,1,-0.000365444,1,0.397658229,1,-0.557420969,1,-0.463435978,1,0.021655083,1,-0.249821186,1,-0.014455795,1
0.607991576,-5.129403591,1,-3.413107872,1,-7.689456463,1,-0.012387293,1,0.011261094,1,0.004439498,1,0.397595286,1,-0.557383299,1,-0.46340704,1,0.043984413,1,-0.19938159,1,-0.037026405,1
0.61198926,-5.135041237,1,-3.374214172,1,-7.668999672,1,-0.016513871,1,0.012384148,1,0.007005773,1,0.397517323,1,-0.557355106,1,-0.463362664,1,0.03811264,1,-0.161028147,1,-0.016184807,1
0.615988731,-5.114988327,1,-3.313728571,1,-7.668791294,1,-0.013846149,1,0.009927771,1,0.006664656,1,0.397424281,1,-0.557328641,1,-0.463303268,1,0.057946205,1,-0.101201773,1,-0.01555109,1
0.619990528,-5.140668392,1,-3.288678169,1,-7.696380615,1,-0.014788374,1,0.008837416,1,0.007163771,1,0.39732933,1,-0.557291329,1,-0.463255137,1,0.031956196,1,-0.076802492,1,-0.042655945,1
0.623988211,-5.150564671,1,-3.257148027,1,-7.691518307,1,-0.015832961,1,0.012076479,1,0.008714098,1,0.397239566,1,-0.557265282,1,-0.463208675,1,0.021843433,1,-0.045907259,1,-0.037380695,1
0.627987683,-5.146375656,1,-3.256798029,1,-7.687635899,1,-0.011869686,1,0.010356398,1,0.005033645,1,0.39716059,1,-0.557235241,1,-0.463166088,1,0.025783539,1,-0.046102524,1,-0.033103943,1
0.63199538,-5.138113022,1,-3.238980055,1,-7.663879395,1,-0.014525028,1,0.015438662,1,0.005239171,1,0.397087932,1,-0.557196975,1,-0.463124484,1,0.033728123,1,-0.028764725,1,-0.008931637,1
0.635998964,-5.136575699,1,-3.191141605,1,-7.723165989,1,-0.010105841,1,0.013380757,1,4.99E-05,1,0.397018045,1,-0.557157815,1,-0.463087529,1,0.03494072,1,0.018617868,1,-0.067806244,1
0.639998972,-5.101056099,1,-3.280400276,1,-7.697396278,1,-0.013868462,1,0.012923523,1,0.000232577,1,0.396955311,1,-0.55710876,1,-0.463059634,1,0.070052624,1,-0.071023226,1,-0.041600704,1
0.64400053,-5.122409344,1,-3.257244587,1,-7.650677204,1,-0.009834539,1,0.014675938,1,0.000215356,1,0.396891773,1,-0.557061851,1,-0.463027924,1,0.04831028,1,-0.048259974,1,0.005546093,1
0.647998214,-5.149577141,1,-3.310711384,1,-7.636051655,1,-0.010445088,1,0.013726979,1,0.000538904,1,0.396830112,1,-0.557011545,1,-0.46300292,1,0.020724773,1,-0.102098227,1,0.020608902,1
0.651997924,-5.098381042,1,-3.324134827,1,-7.661171436,1,-0.01210503,1,0.015967468,1,0.00329961,1,0.396758974,1,-0.55695951,1,-0.462959945,1,0.071488857,1,-0.115962029,1,-0.004033566,1
0.655999482,-5.141338348,1,-3.327338457,1,-7.680100918,1,-0.012820483,1,0.016508959,1,0.003300999,1,0.396691114,1,-0.556901097,1,-0.462921411,1,0.028046608,1,-0.119568586,1,-0.022466183,1
0.659996927,-5.119231701,1,-3.313646793,1,-7.641684532,1,-0.011743085,1,0.021858474,1,0.005296426,1,0.396623045,1,-0.556839705,1,-0.462872565,1,0.049643993,1,-0.106277227,1,0.016456604,1
0.663996398,-5.13829565,1,-3.299021959,1,-7.691576481,1,-0.009793785,1,0.016023332,1,0.001955106,1,0.396550298,1,-0.55677557,1,-0.462822378,1,0.03004694,1,-0.092080593,1,-0.032894611,1
0.667997956,-5.174343109,1,-3.297943592,1,-7.692474365,1,-0.010403924,1,0.021649774,1,0.003924089,1,0.396475971,1,-0.556709766,1,-0.462772131,1,-0.006546497,1,-0.091440678,1,-0.033240795,1
0.67199564,-5.123763561,1,-3.292063236,1,-7.679461002,1,-0.009175742,1,0.018195517,1,0.001663441,1,0.396399558,1,-0.556636274,1,-0.462717801,1,0.043422699,1,-0.085999012,1,-0.019631863,1
0.675995111,-5.113684177,1,-3.27383852,1,-7.701961517,1,-0.012959444,1,0.018053934,1,0.001026906,1,0.396332562,1,-0.556557119,1,-0.462671965,1,0.052844524,1,-0.068129539,1,-0.041540623,1
0.679996669,-5.102907658,1,-3.311184168,1,-7.730189323,1,-0.010317988,1,0.016717417,1,0.003112213,1,0.396259576,1,-0.556496441,1,-0.46262607,1,0.063117504,1,-0.105912924,1,-0.069245338,1
0.683994353,-5.128220558,1,-3.253610849,1,-7.687767506,1,-0.009872989,1,0.018644517,1,-0.001441651,1,0.396194041,1,-0.556429267,1,-0.46258384,1,0.037247181,1,-0.048707724,1,-0.026292324,1
0.687993884,-5.120452404,1,-3.248535156,1,-7.675958157,1,-0.00906397,1,0.014483521,1,0.001614217,1,0.396135598,1,-0.556369841,1,-0.46255514,1,0.044520855,1,-0.04396081,1,-0.014011383,1
0.691995382,-5.147321224,1,-3.246049881,1,-7.697651863,1,-0.008407023,1,0.016628955,1,-0.001628436,1,0.396088183,1,-0.556308031,1,-0.46252948,1,0.017138958,1,-0.041716099,1,-0.035259247,1
0.695993066,-5.111366272,1,-3.256883144,1,-7.694393158,1,-0.007294017,1,0.01474339,1,0.001445253,1,0.396044791,1,-0.556255281,1,-0.462504387,1,0.052655697,1,-0.052776337,1,-0.031609535,1
0.699992597,-5.122959614,1,-3.218786478,1,-7.703201771,1,-0.008095407,1,0.012495705,1,-0.004985014,1,0.396009773,1,-0.556196153,1,-0.462492347,1,0.04057169,1,-0.014830351,1,-0.040023804,1
0.703994393,-5.114515781,1,-3.175559759,1,-7.721163273,1,-0.000577447,1,0.012818326,1,-0.006795851,1,0.395994484,1,-0.556147814,1,-0.462489963,1,0.048613548,1,0.02837491,1,-0.057708263,1
0.707997978,-5.12518692,1,-3.138367653,1,-7.70058012,1,0.005011567,1,0.00963038,1,-0.008707051,1,0.3960163,1,-0.55608505,1,-0.462507248,1,0.037421227,1,0.065859079,1,-0.036895752,1
0.711997449,-5.116355896,1,-3.179080486,1,-7.742738724,1,0.009586602,1,0.006968765,1,-0.008909157,1,0.396063834,1,-0.556036711,1,-0.462540984,1,0.045851231,1,0.025607347,1,-0.078975201,1
0.715999246,-5.118582726,1,-3.140664339,1,-7.704728603,1,0.007561887,1,0.008947881,1,-0.019792756,1,0.39612484,1,-0.555984735,1,-0.462592721,1,0.043192387,1,0.06459403,1,-0.040915012,1
0.719996929,-5.158845901,1,-3.208312511,1,-7.711292267,1,0.014935968,1,0.007318709,1,-0.01933402,1,0.396206617,1,-0.55592525,1,-0.462646067,1,0.002435207,1,-0.002308846,1,-0.047456264,1
0.723996401,-5.152832508,1,-3.221605778,1,-7.692564964,1,0.016184654,1,0.008140675,1,-0.018591965,1,0.396291375,1,-0.555870175,1,-0.462703735,1,0.007991314,1,-0.014843225,1,-0.028739929,1
0.727997959,-5.113124371,1,-3.227464676,1,-7.733701229,1,0.019579917,1,0.012631472,1,-0.021208538,1,0.396404266,1,-0.555807412,1,-0.462766945,1,0.047177792,1,-0.019711971,1,-0.06994009,1
0.731995642,-5.168898106,1,-3.203398466,1,-7.734347343,1,0.021215903,1,0.008316508,1,-0.023119463,1,0.396522671,1,-0.555739105,1,-0.462840706,1,-0.009163857,1,0.005397797,1,-0.070641041,1
0.735995412,-5.113226891,1,-3.216186285,1,-7.694599628,1,0.022507181,1,0.006256639,1,-0.023839585,1,0.39665854,1,-0.555672646,1,-0.462926537,1,0.045955658,1,-0.006216526,1,-0.031013012,1
0.73999691,-5.12810421,1,-3.233875513,1,-7.700739384,1,0.026908612,1,0.006724702,1,-0.027435565,1,0.396801054,1,-0.555608511,1,-0.463017166,1,0.030544758,1,-0.022684813,1,-0.037303448,1
0.743994653,-5.156342506,1,-3.281844616,1,-7.635787487,1,0.029460659,1,0.00941593,1,-0.025898324,1,0.396963596,1,-0.555533111,1,-0.463129073,1,0.001680374,1,-0.069258928,1,0.027482986,1
0.747994125,-5.108674049,1,-3.272146702,1,-7.66002655,1,0.025641153,1,0.011490038,1,-0.02891336,1,0.397120595,1,-0.555454552,1,-0.463219941,1,0.048696041,1,-0.058201075,1,0.00311327,1
0.751995623,-5.129374027,1,-3.336530209,1,-7.64396143,1,0.026674833,1,0.011751218,1,-0.028087303,1,0.397277415,1,-0.555373728,1,-0.46331504,1,0.027323723,1,-0.121221066,1,0.019060135,1
0.755993366,-5.112681389,1,-3.308907032,1,-7.679600716,1,0.025620766,1,0.009012547,1,-0.023874607,1,0.397436023,1,-0.555288672,1,-0.46341458,1,0.043310642,1,-0.092213154,1,-0.016684532,1
0.759993076,-5.134414673,1,-3.30576539,1,-7.682503223,1,0.023072006,1,0.014521246,1,-0.02763601,1,0.397585213,1,-0.555198371,1,-0.463496953,1,0.02082634,1,-0.087747335,1,-0.019637108,1
0.763994634,-5.140574932,1,-3.356638193,1,-7.706007957,1,0.029069642,1,0.014616606,1,-0.026482807,1,0.397738397,1,-0.555098772,1,-0.463585287,1,0.013837814,1,-0.137247086,1,-0.043159962,1
0.767992318,-5.119925022,1,-3.350414515,1,-7.663425922,1,0.026150592,1,0.01350337,1,-0.025170624,1,0.397891104,1,-0.555003285,1,-0.463675946,1,0.033694267,1,-0.129662514,1,-0.000616074,1
0.771991789,-5.136126518,1,-3.363958836,1,-7.656077862,1,0.026499225,1,0.017850844,1,-0.025602724,1,0.398037344,1,-0.55490464,1,-0.46375522,1,0.016673088,1,-0.141890526,1,0.006725788,1
0.775993347,-5.135280132,1,-3.291368484,1,-7.696523666,1,0.028260909,1,0.016503416,1,-0.028600857,1,0.398188293,1,-0.55480063,1,-0.463835835,1,0.016654968,1,-0.067935467,1,-0.03371191,1
0.779991031,-5.115789413,1,-3.291941404,1,-7.670296669,1,0.029141359,1,0.021290362,1,-0.029982325,1,0.398348331,1,-0.554697812,1,-0.46392715,1,0.035290718,1,-0.067075968,1,-0.007511139,1
0.783990502,-5.111249924,1,-3.263453484,1,-7.718779087,1,0.029354891,1,0.017683472,1,-0.028743658,1,0.398512125,1,-0.554593742,1,-0.464021385,1,0.038965225,1,-0.037125349,1,-0.056028843,1
0.787997961,-5.107603073,1,-3.235512257,1,-7.691808224,1,0.033368193,1,0.010476179,1,-0.033528756,1,0.39869976,1,-0.554486632,1,-0.464129448,1,0.041721344,1,-0.007532358,1,-0.029155254,1
0.792001784,-5.10553503,1,-3.15947485,1,-7.735238075,1,0.03513721,1,0.01379667,1,-0.032078627,1,0.398901045,1,-0.554386318,1,-0.464241683,1,0.042954922,1,0.07024765,1,-0.072759628,1
0.796001554,-5.120506763,1,-3.195622683,1,-7.715920448,1,0.045371283,1,0.013222275,1,-0.038300656,1,0.399129629,1,-0.554280996,1,-0.464371026,1,0.027107716,1,0.036062241,1,-0.053679943,1
0.80000335,-5.079143524,1,-3.151314259,1,-7.742873669,1,0.048693117,1,0.010093419,1,-0.039198566,1,0.399384528,1,-0.554177523,1,-0.464511693,1,0.067610264,1,0.082531214,1,-0.080965519,1
0.804001033,-5.123917103,1,-3.180085421,1,-7.726752281,1,0.051211931,1,0.011108881,1,-0.044106431,1,0.399665594,1,-0.554071188,1,-0.464668632,1,0.021952629,1,0.056126356,1,-0.065249443,1
0.808000505,-5.07576561,1,-3.218775272,1,-7.739170074,1,0.054140043,1,0.010429187,1,-0.039198715,1,0.399963439,1,-0.553965747,1,-0.464831054,1,0.069226742,1,0.019929647,1,-0.078131199,1
0.812002301,-5.09824419,1,-3.295303106,1,-7.738894463,1,0.054056603,1,0.009015135,1,-0.045020819,1,0.400275022,1,-0.553865969,1,-0.464999139,1,0.045918465,1,-0.054011106,1,-0.078392029,1
0.816000283,-5.051539421,1,-3.388221979,1,-7.714599609,1,0.05329264,1,0.009302969,1,-0.039808463,1,0.400584161,1,-0.553762555,1,-0.465164006,1,0.09176302,1,-0.144354105,1,-0.054609776,1
0.819999754,-5.112739086,1,-3.498094559,1,-7.664935589,1,0.055157393,1,0.012586131,1,-0.035474896,1,0.400883079,1,-0.553666472,1,-0.465320677,1,0.029764175,1,-0.251744747,1,-0.005461216,1
0.824001253,-5.082545757,1,-3.543974638,1,-7.679252625,1,0.046488423,1,0.005126501,1,-0.038400285,1,0.401162624,1,-0.553575754,1,-0.465463161,1,0.059202671,1,-0.295301676,1,-0.020256519,1
0.827998698,-5.093447208,1,-3.528340101,1,-7.665232182,1,0.03949932,1,0.011813162,1,-0.031212283,1,0.401410848,1,-0.553486764,1,-0.46559763,1,0.047560692,1,-0.277587414,1,-0.006621838,1
0.831998467,-5.126238346,1,-3.471423388,1,-7.640022755,1,0.036848102,1,0.009153012,1,-0.030841637,1,0.401631594,1,-0.553394377,1,-0.465713769,1,0.014001369,1,-0.2187953,1,0.018304825,1
0.836000025,-5.092399597,1,-3.437579632,1,-7.63071394,1,0.037513968,1,0.012994033,1,-0.02335879,1,0.401834011,1,-0.553313732,1,-0.465817511,1,0.047168255,1,-0.183239222,1,0.027337074,1
0.839997709,-5.136088371,1,-3.388157368,1,-7.669291019,1,0.034828048,1,0.014760073,1,-0.030321755,1,0.40213564,1,-0.553056657,1,-0.466777742,1,0.001340866,1,-0.13098979,1,-0.011004925,1
0.84399718,-5.116540432,1,-3.364494085,1,-7.677140713,1,0.029228529,1,0.010302586,1,-0.025894841,1,0.402320325,1,-0.552970052,1,-0.466874897,1,0.020167828,1,-0.105737209,1,-0.01904583,1
0.847998738,-5.09978199,1,-3.384767056,1,-7.684661865,1,0.029489214,1,0.01046038,1,-0.025382213,1,0.402479142,1,-0.552884042,1,-0.466956288,1,0.036211014,1,-0.124622583,1,-0.026681423,1
0.851996183,-5.079409122,1,-3.441030264,1,-7.677440643,1,0.030080965,1,0.014405709,1,-0.024663249,1,0.402634859,1,-0.552800357,1,-0.467034191,1,0.055887222,1,-0.17952466,1,-0.019572258,1
0.855995893,-5.08842802,1,-3.382652283,1,-7.695160866,1,0.029129764,1,0.014251146,1,-0.020608984,1,0.402793795,1,-0.552722275,1,-0.467113674,1,0.046217918,1,-0.119772673,1,-0.037442207,1
0.859997451,-5.114129543,1,-3.407876968,1,-7.675933838,1,0.02794482,1,0.014689899,1,-0.023693042,1,0.402933687,1,-0.552646101,1,-0.467182606,1,0.019882679,1,-0.14377141,1,-0.018309593,1
0.863995135,-5.147763252,1,-3.393741131,1,-7.691821575,1,0.021313621,1,0.015466433,1,-0.020250928,1,0.403071493,1,-0.552566767,1,-0.467248052,1,-0.014411449,1,-0.128420591,1,-0.034272194,1
0.868000746,-5.095245361,1,-3.408258438,1,-7.647902489,1,0.022581682,1,0.010611429,1,-0.018685397,1,0.403196722,1,-0.552492797,1,-0.467312247,1,0.037489891,1,-0.141829729,1,0.009587288,1
0.872002304,-5.0921278,1,-3.380487204,1,-7.745714188,1,0.022832498,1,0.010264289,1,-0.019241767,1,0.40333423,1,-0.552423298,1,-0.467380136,1,0.040029526,1,-0.112866402,1,-0.088347435,1
0.875999987,-5.038897038,1,-3.414351702,1,-7.692829132,1,0.020156646,1,0.011518936,1,-0.018864807,1,0.403441876,1,-0.552359223,1,-0.467436224,1,0.092726707,1,-0.145777225,1,-0.03551054,1
0.879999459,-5.085550785,1,-3.40744853,1,-7.70531559,1,0.020248448,1,0.005081668,1,-0.013410742,1,0.403545558,1,-0.552298546,1,-0.467491835,1,0.045567513,1,-0.13795805,1,-0.048049927,1
0.884001017,-5.092786789,1,-3.385216951,1,-7.674908638,1,0.018239334,1,0.010362159,1,-0.014222492,1,0.403644621,1,-0.55223757,1,-0.467538863,1,0.037824154,1,-0.114845991,1,-0.017680168,1
0.8879987,-5.129579067,1,-3.34777832,1,-7.688701153,1,0.014658807,1,0.012795188,1,-0.013219381,1,0.403737873,1,-0.55217582,1,-0.467586219,1,0.000517368,1,-0.076568604,1,-0.031487465,1
0.891998231,-5.106402397,1,-3.393596888,1,-7.670516968,1,0.015795633,1,0.011834905,1,-0.012335369,1,0.403826833,1,-0.552118242,1,-0.46763134,1,0.023214817,1,-0.121589899,1,-0.0133214,1
0.89599973,-5.103942394,1,-3.309299231,1,-7.683907509,1,0.018014237,1,0.007787608,1,-0.01612737,1,0.403911054,1,-0.55205375,1,-0.467676699,1,0.025137901,1,-0.03651762,1,-0.026684284,1
0.899997413,-5.056781769,1,-3.242258072,1,-7.755134583,1,0.016277276,1,0.010647028,1,-0.016667381,1,0.404009104,1,-0.55199486,1,-0.46773082,1,0.071807861,1,0.031393528,1,-0.097954273,1
0.903997421,-5.098473072,1,-3.287052155,1,-7.70584774,1,0.018901972,1,0.004676897,1,-0.01361875,1,0.404120564,1,-0.551935971,1,-0.467791885,1,0.029626369,1,-0.012428045,1,-0.048753738,1
0.907998979,-5.079930305,1,-3.259087086,1,-7.694973946,1,0.023864137,1,0.007283066,1,-0.027022531,1,0.404240787,1,-0.551879942,1,-0.467859566,1,0.047702789,1,0.01657033,1,-0.038009644,1
0.911996663,-5.126651287,1,-3.265109301,1,-7.721817493,1,0.026309032,1,0.002612335,1,-0.022257656,1,0.404383451,1,-0.551822603,1,-0.467952579,1,0.000504017,1,0.011756659,1,-0.065049171,1
0.915995896,-5.076597214,1,-3.319508314,1,-7.685194016,1,0.030544182,1,0.005475021,1,-0.02501573,1,0.404553354,1,-0.55176425,1,-0.468044817,1,0.050071716,1,-0.04122448,1,-0.028708935,1
0.919997454,-5.057902813,1,-3.302036524,1,-7.716836452,1,0.037426081,1,0.002458534,1,-0.028739583,1,0.404755056,1,-0.551709712,1,-0.468160689,1,0.068312168,1,-0.022098303,1,-0.060755253,1
0.923994899,-5.071600437,1,-3.313812017,1,-7.721918583,1,0.041545015,1,0.001056406,1,-0.02931154,1,0.404972076,1,-0.551654339,1,-0.468285948,1,0.054153442,1,-0.032100201,1,-0.066288948,1
0.92799437,-5.098707199,1,-3.259556532,1,-7.744540691,1,0.041152388,1,-4.84E-05,1,-0.032004781,1,0.405198306,1,-0.551605105,1,-0.468412489,1,0.0266366,1,0.023987293,1,-0.089419842,1
0.931995928,-5.063424587,1,-3.2792449,1,-7.725241184,1,0.042188581,1,-0.000796673,1,-0.033492394,1,0.405443549,1,-0.551551282,1,-0.468557835,1,0.061470985,1,0.006284952,1,-0.070672512,1
0.935993612,-5.10661602,1,-3.24364233,1,-7.751004696,1,0.051359843,1,-0.001303447,1,-0.03596985,1,0.405706167,1,-0.55149579,1,-0.468696594,1,0.01781702,1,0.044009686,1,-0.097037792,1
0.939993083,-5.092001915,1,-3.212697744,1,-7.72044754,1,0.054970693,1,-0.002442728,1,-0.041332543,1,0.40600276,1,-0.551442862,1,-0.468860418,1,0.031990528,1,0.077330828,1,-0.06720829,1
0.943994343,-5.098498344,1,-3.201918125,1,-7.733558178,1,0.061116852,1,-0.008114123,1,-0.04252746,1,0.40632233,1,-0.551398456,1,-0.469038427,1,0.025124073,1,0.090646267,1,-0.081161499,1
0.947997928,-5.135318279,1,-3.267363548,1,-7.683112144,1,0.064988621,1,-0.004795479,1,-0.044706903,1,0.406685442,1,-0.551351905,1,-0.469247162,1,-0.01208353,1,0.028073549,1,-0.031691551,1
0.951997697,-5.064448357,1,-3.266302824,1,-7.715322495,1,0.068976201,1,-0.00432956,1,-0.045487609,1,0.407049209,1,-0.551294923,1,-0.469446391,1,0.058310986,1,0.032033205,1,-0.064833164,1
0.955999255,-5.048097134,1,-3.346942902,1,-7.680519104,1,0.06743706,1,-0.004957712,1,-0.046252165,1,0.407432526,1,-0.551246047,1,-0.469658256,1,0.074255466,1,-0.045576572,1,-0.031067371,1
0.959996939,-5.087433338,1,-3.352081537,1,-7.697194099,1,0.068910576,1,-0.005342726,1,-0.047491688,1,0.407816648,1,-0.551192462,1,-0.469867826,1,0.034472942,1,-0.047668457,1,-0.04875946,1
0.96399641,-5.069937229,1,-3.428536177,1,-7.659932613,1,0.068774156,1,-0.005169196,1,-0.047247104,1,0.40819633,1,-0.551136017,1,-0.470068187,1,0.051498413,1,-0.121103525,1,-0.012485981,1
0.967997968,-5.116267204,1,-3.427312613,1,-7.683516979,1,0.069355644,1,-0.00103126,1,-0.04517344,1,0.40858829,1,-0.551080644,1,-0.470279157,1,0.004707336,1,-0.116770029,1,-0.037106991,1
0.971995652,-5.106696606,1,-3.473185062,1,-7.644992352,1,0.0657873,1,-0.00441694,1,-0.045699455,1,0.408961445,1,-0.551018596,1,-0.470475703,1,0.01376009,1,-0.159662485,1,0.00047493,1
0.975995123,-5.070351124,1,-3.476202488,1,-7.638467312,1,0.061828718,1,-0.00311979,1,-0.045814995,1,0.409318477,1,-0.55096072,1,-0.470659673,1,0.049623489,1,-0.159832478,1,0.00608778,1
0.979996681,-5.167705059,1,-3.511188507,1,-7.68488884,1,0.060856313,1,-0.004940188,1,-0.042305436,1,0.409670174,1,-0.550901175,1,-0.470851153,1,-0.048226357,1,-0.192008734,1,-0.041220665,1
0.983994365,-5.051700592,1,-3.495475054,1,-7.615971088,1,0.058811475,1,0.000143129,1,-0.036197886,1,0.409988105,1,-0.550843477,1,-0.471012771,1,0.067296982,1,-0.17374754,1,0.026912212,1
0.987993836,-5.056837559,1,-3.600405455,1,-7.640761852,1,0.051884506,1,-0.000332881,1,-0.032722384,1,0.410284579,1,-0.55077678,1,-0.471163034,1,0.0616045,1,-0.276275635,1,0.001450539,1
0.991995633,-5.094383717,1,-3.573635817,1,-7.619610786,1,0.043077171,1,0.001498128,1,-0.030832786,1,0.410547763,1,-0.550727665,1,-0.47129336,1,0.023649216,1,-0.247396469,1,0.021953106,1
0.995993316,-5.091452122,1,-3.569752455,1,-7.634438515,1,0.04066794,1,0.001045518,1,-0.022904465,1,0.410784662,1,-0.550674081,1,-0.471406341,1,0.026134491,1,-0.241593122,1,0.006588936,1
0.999993086,-5.081895351,1,-3.547319174,1,-7.658734798,1,0.037531361,1,0.006371434,1,-0.024118723,1,0.410993576,1,-0.550618351,1,-0.471500129,1,0.035226345,1,-0.217449427,1,-0.01814127,1
1.003994823,-5.105828762,1,-3.487581968,1,-7.630972385,1,0.032547276,1,0.002010809,1,-0.019045224,1,0.411174059,1,-0.550572515,1,-0.471582234,1,0.010911465,1,-0.15623951,1,0.009235859,1
1.007992625,-5.077056408,1,-3.43416214,1,-7.676969528,1,0.029033259,1,0.007890618,1,-0.017439462,1,0.411335379,1,-0.55052501,1,-0.471654445,1,0.039287567,1,-0.101490259,1,-0.037077427,1
1.011992097,-5.023753643,1,-3.438192844,1,-7.62955904,1,0.032277782,1,0.00211458,1,-0.018623814,1,0.411504,1,-0.550475955,1,-0.471731246,1,0.092181206,1,-0.104132652,1,0.010000706,1
1.015993595,-5.075877666,1,-3.489316702,1,-7.608428001,1,0.029107001,1,0.008889988,1,-0.01687764,1,0.411658645,1,-0.550434053,1,-0.471798897,1,0.039708138,1,-0.153989553,1,0.030812263,1
1.01999104,-5.010765553,1,-3.461661339,1,-7.685048103,1,0.027724683,1,0.003628056,1,-0.015945483,1,0.411803305,1,-0.55037421,1,-0.471855074,1,0.104321003,1,-0.125106335,1,-0.046009541,1
1.023996711,-5.056074619,1,-3.564319849,1,-7.677787304,1,0.021851772,1,0.004157579,1,-0.016961057,1,0.411938101,1,-0.55033344,1,-0.471914709,1,0.058672428,1,-0.226651192,1,-0.039006233,1
1.027998447,-5.028782845,1,-3.542899847,1,-7.661592007,1,0.022991613,1,0.002140332,1,-0.010361779,1,0.41205892,1,-0.550293326,1,-0.471964717,1,0.08562994,1,-0.20422554,1,-0.023025513,1
1.031996131,-5.040318489,1,-3.554031372,1,-7.682743073,1,0.022556525,1,0.00081147,1,-0.012968451,1,0.412173033,1,-0.550267637,1,-0.472004414,1,0.073879719,1,-0.214432716,1,-0.044436932,1
1.035995603,-5.085277081,1,-3.493716955,1,-7.681632519,1,0.021265797,1,-0.000686738,1,-0.00865858,1,0.412274837,1,-0.550253451,1,-0.472041517,1,0.028802872,1,-0.153311729,1,-0.043600082,1
1.03999722,-5.04303503,1,-3.477143288,1,-7.660630703,1,0.019100636,1,0.003348994,1,-0.006530144,1,0.41237244,1,-0.550239146,1,-0.472066522,1,0.070925713,1,-0.135962963,1,-0.022856236,1
1.043994665,-5.03995657,1,-3.473278522,1,-7.71248579,1,0.017520549,1,-0.003603527,1,-0.006276058,1,0.41246137,1,-0.550231993,1,-0.472098649,1,0.073944569,1,-0.131403685,1,-0.07497406,1
1.047994137,-5.015639782,1,-3.443236828,1,-7.700109959,1,0.019833902,1,-0.004627002,1,-0.00565444,1,0.412558615,1,-0.550232768,1,-0.472137034,1,0.098267555,1,-0.100622892,1,-0.062931061,1
1.051995635,-5.008222103,1,-3.414766073,1,-7.7070961,1,0.022668635,1,-0.006168116,1,-0.005965877,1,0.412665635,1,-0.550241768,1,-0.472172022,1,0.105760574,1,-0.07135272,1,-0.070316315,1
1.055993319,-5.061109066,1,-3.492568493,1,-7.698598862,1,0.018855667,1,-0.005034662,1,-0.004063848,1,0.41276896,1,-0.55025357,1,-0.472209364,1,0.052972317,1,-0.148390055,1,-0.062219143,1
1.05999279,-4.990869999,1,-3.462800503,1,-7.660428047,1,0.020119207,1,-0.009960334,1,-0.005581338,1,0.412867427,1,-0.550272882,1,-0.472245246,1,0.123372078,1,-0.117910385,1,-0.024468899,1
1.063994408,-4.965411663,1,-3.576565742,1,-7.697316647,1,0.019025138,1,-0.011074758,1,-0.001601197,1,0.412951022,1,-0.550312638,1,-0.472265124,1,0.149162292,1,-0.231118202,1,-0.061822891,1
1.067992091,-5.059280872,1,-3.527998686,1,-7.680450439,1,0.01150177,1,-0.014307884,1,0.003471901,1,0.413023055,1,-0.550360799,1,-0.472286254,1,0.055694103,1,-0.182099819,1,-0.0454216,1
1.071991801,-5.123470306,1,-3.526504993,1,-7.669062614,1,0.013430499,1,-0.011969829,1,0.00229823,1,0.41308105,1,-0.550414324,1,-0.472296059,1,-0.008049011,1,-0.180272579,1,-0.034478188,1
1.075993299,-5.094403744,1,-3.503425837,1,-7.641163349,1,0.013942335,1,-0.009976009,1,0.005552655,1,0.413142562,1,-0.550465405,1,-0.472304344,1,0.021443367,1,-0.156828642,1,-0.007023335,1
1.079991341,-5.061534882,1,-3.525562286,1,-7.670002937,1,0.017051551,1,-0.013415346,1,0.003764241,1,0.4132002,1,-0.550517857,1,-0.472308904,1,0.054749489,1,-0.178633213,1,-0.036303043,1
1.083990812,-5.078502178,1,-3.48864603,1,-7.708075047,1,0.013576025,1,-0.01296808,1,0.00615062,1,0.413259715,1,-0.550576031,1,-0.472316146,1,0.038266182,1,-0.141381502,1,-0.074845314,1
1.087992549,-5.131250381,1,-3.502225876,1,-7.707876205,1,0.016775001,1,-0.018253902,1,0.008540383,1,0.413504541,1,-0.550516248,1,-0.472549945,1,-0.014979839,1,-0.152971029,1,-0.075188637,1
1.091990232,-5.000748634,1,-3.468500137,1,-7.740893841,1,0.011675378,1,-0.016447935,1,0.008910872,1,0.41351825,1,-0.550531805,1,-0.473213196,1,0.115652084,1,-0.119172335,1,-0.108324528,1
1.095989704,-5.048961639,1,-3.478311777,1,-7.732561111,1,0.010429845,1,-0.022355646,1,0.010460857,1,0.413559973,1,-0.550621212,1,-0.473212779,1,0.068183422,1,-0.12884903,1,-0.100549698,1
1.099991322,-5.079428673,1,-3.550010681,1,-7.697555065,1,0.011323973,1,-0.025459338,1,0.011794059,1,0.413608253,1,-0.550722361,1,-0.473217577,1,0.038559914,1,-0.200389624,1,-0.066184044,1
1.103994846,-5.087716103,1,-3.494762897,1,-7.700388908,1,0.009954964,1,-0.023681756,1,0.011114854,1,0.413648725,1,-0.550830841,1,-0.47321558,1,0.031176567,1,-0.145055294,1,-0.069660187,1
1.107994318,-5.091923237,1,-3.540170908,1,-7.709750175,1,0.011738868,1,-0.028182412,1,0.01481436,1,0.413685739,1,-0.550948918,1,-0.473211497,1,0.027953625,1,-0.190422773,1,-0.079696178,1
1.111995935,-5.090326309,1,-3.436076641,1,-7.707551479,1,0.008495675,1,-0.028032312,1,0.011875654,1,0.413724333,1,-0.551080465,1,-0.473211497,1,0.030646324,1,-0.086304665,1,-0.078242779,1
1.115993619,-5.078680515,1,-3.422554016,1,-7.706712246,1,0.009881699,1,-0.029276341,1,0.016507456,1,0.413761735,1,-0.551211715,1,-0.473209709,1,0.043385983,1,-0.072767496,1,-0.078145981,1
1.119993567,-5.08583498,1,-3.365030766,1,-7.747351646,1,0.013133998,1,-0.032544345,1,0.012413517,1,0.413801968,1,-0.551351905,1,-0.473207295,1,0.037399769,1,-0.01522541,1,-0.119576454,1
1.123995185,-5.087472916,1,-3.381896496,1,-7.73478651,1,0.01411936,1,-0.039583482,1,0.01376337,1,0.41385603,1,-0.551505089,1,-0.473214269,1,0.037037373,1,-0.031995773,1,-0.107913971,1
1.127992868,-5.070969105,1,-3.424996138,1,-7.721105099,1,0.011716255,1,-0.037235953,1,0.014483131,1,0.41392222,1,-0.551657379,1,-0.473227561,1,0.054810047,1,-0.07490325,1,-0.09516573,1
1.13199234,-5.108227253,1,-3.435813665,1,-7.75066328,1,0.014218775,1,-0.042363632,1,0.013833771,1,0.413979232,1,-0.551827669,1,-0.473242223,1,0.018970013,1,-0.085637569,1,-0.125715733,1
1.135993838,-5.138193607,1,-3.48860383,1,-7.715146542,1,0.013016433,1,-0.039265223,1,0.016137119,1,0.41404441,1,-0.552010894,1,-0.473255843,1,-0.009469986,1,-0.138309002,1,-0.091277122,1
1.139991283,-5.096295357,1,-3.520118713,1,-7.745923519,1,0.014206612,1,-0.051925424,1,0.020728013,1,0.414106339,1,-0.552207112,1,-0.473271847,1,0.034061432,1,-0.169756174,1,-0.123182774,1
1.143990755,-5.141085625,1,-3.507022858,1,-7.73721838,1,0.014179776,1,-0.052266188,1,0.01427141,1,0.414174646,1,-0.552420199,1,-0.473295748,1,-0.008954048,1,-0.156579256,1,-0.115705967,1
1.147992373,-5.107566833,1,-3.545146704,1,-7.778012753,1,0.011066113,1,-0.05416736,1,0.016419861,1,0.414240539,1,-0.552639842,1,-0.473330677,1,0.026393414,1,-0.194656849,1,-0.157758236,1
1.151990056,-5.138741016,1,-3.668099642,1,-7.729813576,1,0.00237242,1,-0.056183375,1,0.018302877,1,0.414287686,1,-0.552866518,1,-0.47336334,1,-0.002894402,1,-0.317718506,1,-0.11078167,1
1.155989528,-5.181169987,1,-3.687781811,1,-7.739163399,1,-0.000243611,1,-0.063219182,1,0.017709324,1,0.414308012,1,-0.553102791,1,-0.473390877,1,-0.043356419,1,-0.337734699,1,-0.121310234,1
1.159991026,-5.125819683,1,-3.686633587,1,-7.737985134,1,-0.007520203,1,-0.058472559,1,0.02091209,1,0.414309412,1,-0.55334878,1,-0.473425657,1,0.01404047,1,-0.337084055,1,-0.121292591,1
1.163988709,-5.21906805,1,-3.639713049,1,-7.738223553,1,-0.017161191,1,-0.060387354,1,0.017380308,1,0.414268732,1,-0.553596199,1,-0.473450303,1,-0.077149391,1,-0.290985107,1,-0.122558594,1
1.167988181,-5.216471672,1,-3.547810316,1,-7.743927002,1,-0.02318288,1,-0.052672978,1,0.019722486,1,0.414202094,1,-0.553831697,1,-0.47347784,1,-0.072594643,1,-0.200077534,1,-0.12914753,1
1.171989799,-5.344953537,1,-3.474314928,1,-7.764031887,1,-0.032329176,1,-0.051484827,1,0.016082207,1,0.41409716,1,-0.554049253,1,-0.473510593,1,-0.199266434,1,-0.127831697,1,-0.149926186,1
1.175987482,-5.388828278,1,-3.365410566,1,-7.695831299,1,-0.037362423,1,-0.045760304,1,0.00832106,1,0.41398859,1,-0.554250836,1,-0.47355321,1,-0.241464615,1,-0.020170927,1,-0.082312107,1
1.179986954,-5.452607155,1,-3.449818373,1,-7.657127857,1,-0.04259105,1,-0.040530298,1,0.000798419,1,0.413862109,1,-0.554409564,1,-0.473615319,1,-0.303923607,1,-0.105870008,1,-0.043932915,1
1.18398869,-5.302908421,1,-3.361540318,1,-7.484312057,1,-0.045870706,1,-0.037154991,1,0.001609375,1,0.413722128,1,-0.554558396,1,-0.47368446,1,-0.15298748,1,-0.018966198,1,0.128648758,1
1.187986374,-5.026376724,1,-3.332678556,1,-7.480101109,1,-0.043193039,1,-0.038319193,1,0.004760578,1,0.413586378,1,-0.554700136,1,-0.473752797,1,0.124722481,1,0.008568525,1,0.132644653,1
1.191985965,-4.815565109,1,-3.508574963,1,-7.719009399,1,-0.038941596,1,-0.044063564,1,0.001650799,1,0.413462311,1,-0.554856718,1,-0.473830104,1,0.336836338,1,-0.168596745,1,-0.106588364,1
1.195987463,-4.823282719,1,-3.536380291,1,-7.812241554,1,-0.043243743,1,-0.0528525,1,0.01334892,1,0.413317144,1,-0.555045724,1,-0.473879486,1,0.330689907,1,-0.197898626,1,-0.200228691,1
1.199985147,-4.653542995,1,-3.662821054,1,-7.73348999,1,-0.045206878,1,-0.059374921,1,0.029973749,1,0.41314137,1,-0.555285215,1,-0.473892689,1,0.502419949,1,-0.32617259,1,-0.122020245,1
1.20398438,-4.475846291,1,-3.684745789,1,-7.786879539,1,-0.04280021,1,-0.078612283,1,0.045190025,1,0.412960291,1,-0.555601895,1,-0.473863602,1,0.682747841,1,-0.350130081,1,-0.176299572,1
1.207985878,-4.585855961,1,-3.828897715,1,-8.008548737,1,-0.034698904,1,-0.104079209,1,0.058007877,1,0.412781417,1,-0.556021214,1,-0.473813087,1,0.576221943,1,-0.496511698,1,-0.399354458,1
1.211983323,-4.671028614,1,-3.807682514,1,-8.112856865,1,-0.032117855,1,-0.126131192,1,0.075887881,1,0.412602633,1,-0.556552649,1,-0.473734468,1,0.495463371,1,-0.477758646,1,-0.505583286,1
1.215983152,-4.663450241,1,-3.808320761,1,-8.184797287,1,-0.033605479,1,-0.15719825,1,0.091757528,1,0.412416995,1,-0.557196975,1,-0.473639727,1,0.50839138,1,-0.481144905,1,-0.579959393,1
1.219984651,-4.705513,1,-3.808759451,1,-8.224428177,1,-0.030181043,1,-0.183283001,1,0.106062137,1,0.412232637,1,-0.5579772,1,-0.47354418,1,0.472803116,1,-0.484602451,1,-0.622674942,1
1.223982334,-4.494013786,1,-3.484151125,1,-8.626623154,1,-0.010083301,1,-0.225963429,1,0.122656226,1,0.412083894,1,-0.55890274,1,-0.473436177,1,0.691979408,1,-0.163045406,1,-1.028768063,1
1.227981806,-4.303831577,1,-3.40370369,1,-8.725375175,1,0.021829652,1,-0.277757555,1,0.138095215,1,0.412069261,1,-0.56002903,1,-0.473351687,1,0.891497135,1,-0.085050821,1,-1.132829666,1
1.231983304,-4.550586224,1,-3.268377542,1,-8.769731522,1,0.038378738,1,-0.318984181,1,0.155974329,1,0.412152946,1,-0.561355293,1,-0.473286211,1,0.655727863,1,0.048147678,1,-1.183784008,1
1.235981107,-4.521611214,1,-3.222587585,1,-8.819789886,1,0.07299453,1,-0.378331214,1,0.167773843,1,0.412351727,1,-0.56289506,1,-0.473248661,1,0.697444439,1,0.092227936,1,-1.241857052,1
1.239980578,-4.42789793,1,-3.426619768,1,-9.002523422,1,0.09729632,1,-0.433983296,1,0.169382527,1,0.412726253,1,-0.564640522,1,-0.473295748,1,0.805587769,1,-0.112624407,1,-1.434186935,1
1.243982077,-4.323460102,1,-3.366259813,1,-9.157506943,1,0.136212528,1,-0.513730764,1,0.189100012,1,0.413243353,1,-0.566664755,1,-0.473418653,1,0.926738262,1,-0.052612543,1,-1.60060215,1
1.24797976,-4.291601181,1,-3.439108849,1,-9.3673563,1,0.185867146,1,-0.591372192,1,0.21774365,1,0.413978696,1,-0.569009066,1,-0.473593652,1,0.977927208,1,-0.124866009,1,-1.82418108,1
1.251979232,-3.932069302,1,-3.64446497,1,-9.862738609,1,0.259267181,1,-0.682336092,1,0.276918679,1,0.414941788,1,-0.571728349,1,-0.473747253,1,1.359844208,1,-0.328747749,1,-2.335898876,1
1.255980849,-3.192153931,1,-4.034023762,1,-10.21175766,1,0.335234761,1,-0.804917634,1,0.365436345,1,0.416147083,1,-0.574962497,1,-0.473762453,1,2.126332283,1,-0.716172457,1,-2.704613209,1
1.259984374,-3.410239458,1,-4.566272736,1,-10.49341202,1,0.386853993,1,-0.951070964,1,0.476161629,1,0.417520642,1,-0.578846037,1,-0.473629206,1,1.940081358,1,-1.24651289,1,-3.009767532,1
1.263984084,-2.797241688,1,-5.872514248,1,-10.88520432,1,0.394143879,1,-1.10825479,1,0.58489275,1,0.418934047,1,-0.583462834,1,-0.473330498,1,2.590818882,1,-2.552262783,1,-3.428901672,1
1.267985463,-2.780665159,1,-6.146362305,1,-10.64314938,1,0.499783307,1,-1.256086469,1,0.763944685,1,0.420331389,1,-0.588883817,1,-0.472714394,1,2.651562452,1,-2.827664852,1,-3.21827364,1
1.271983147,-2.688929319,1,-7.506614208,1,-10.35002327,1,0.630829215,1,-1.383976221,1,0.966095686,1,0.421951771,1,-0.595108092,1,-0.471491069,1,2.793813944,1,-4.189801216,1,-2.961523533,1
1.275982618,-3.061584234,1,-7.854857922,1,-10.21081829,1,0.630599976,1,-1.547039628,1,1.113791704,1,0.42352435,1,-0.602159917,1,-0.469773561,1,2.478134394,1,-4.542401314,1,-2.862971306,1
1.279984593,-4.213021755,1,-7.378214836,1,-10.3392458,1,0.578485668,1,-1.69476974,1,1.137513876,1,0.424944878,1,-0.609936118,1,-0.468008637,1,1.389204025,1,-4.073185921,1,-3.035584927,1
1.283982635,-5.136175156,1,-7.099319458,1,-10.36700821,1,0.486422181,1,-1.787067771,1,1.096178055,1,0.42622292,1,-0.618148208,1,-0.466527015,1,0.531694412,1,-3.804090023,1,-3.10970974,1
1.287982106,-4.873463154,1,-6.865673065,1,-10.31539059,1,0.46768707,1,-1.865797162,1,1.083580136,1,0.427461356,1,-0.626585782,1,-0.465406418,1,0.861454964,1,-3.581402302,1,-3.105958939,1
1.291983604,-4.851501465,1,-6.358927727,1,-10.51959515,1,0.491022795,1,-1.945543289,1,1.120142937,1,0.428765595,1,-0.635357499,1,-0.46435976,1,0.952687263,1,-3.086297274,1,-3.360480785,1
1.295981288,-5.814332962,1,-7.845311165,1,-10.97972679,1,0.433155149,1,-2.001452446,1,1.226783514,1,0.429944366,1,-0.644485354,1,-0.463186443,1,0.061463833,1,-4.586462021,1,-3.872927666,1
1.299980521,-6.982417583,1,-8.257637978,1,-11.06053829,1,0.310996294,1,-2.050224543,1,1.289174199,1,0.430511117,1,-0.653950989,1,-0.461655438,1,-1.032879829,1,-5.018119812,1,-4.006449223,1
1.303982139,-5.455220222,1,-7.906852722,1,-10.61630058,1,0.28177768,1,-2.127112627,1,1.278549314,1,0.43074137,1,-0.663672328,1,-0.460146427,1,0.569496632,1,-4.690013885,1,-3.615847111,1
1.307979822,-7.202130795,1,-7.898049831,1,-10.93780899,1,0.232477888,1,-2.198622942,1,1.283985257,1,0.430999637,1,-0.673678696,1,-0.458851904,1,-1.100625992,1,-4.704749107,1,-3.993307114,1
1.311979294,-9.010573387,1,-7.913313389,1,-11.19422436,1,0.142028242,1,-2.172857761,1,1.319802523,1,0.430877686,1,-0.683816373,1,-0.457476825,1,-2.831896305,1,-4.746856689,1,-4.305885792,1
1.315980792,-8.153419495,1,-6.824206829,1,-10.51073647,1,0.127861306,1,-2.145624876,1,1.314787388,1,0.43040356,1,-0.693849266,1,-0.455926836,1,-1.898993015,1,-3.687039852,1,-3.677580833,1
1.319978237,-7.609648705,1,-5.448270798,1,-9.993974686,1,0.19074811,1,-2.141875982,1,1.342282176,1,0.429996073,1,-0.703872323,1,-0.454305738,1,-1.280175209,1,-2.340178967,1,-3.216866493,1
1.323977709,-8.016077995,1,-5.999058723,1,-9.464243889,1,0.219588757,1,-2.076758862,1,1.45857954,1,0.429507911,1,-0.713897109,1,-0.452269971,1,-1.61218071,1,-2.920853138,1,-2.743646145,1
1.327979207,-8.975666046,1,-6.631814003,1,-9.743685722,1,0.173597187,1,-1.986817956,1,1.515098691,1,0.428524166,1,-0.723783493,1,-0.449560821,1,-2.499002934,1,-3.586678743,1,-3.077978134,1
1.331976652,-10.91702747,1,-8.492433548,1,-10.19544792,1,0.074721865,1,-1.759645462,1,1.547770739,1,0.426839441,1,-0.733150184,1,-0.446267098,1,-4.37200737,1,-5.483781815,1,-3.580137253,1
1.335976243,-9.162858009,1,-8.81697464,1,-10.0299263,1,-0.093193501,1,-1.499232888,1,1.452299595,1,0.424247026,1,-0.741593838,1,-0.442439288,1,-2.556708336,1,-5.848336697,1,-3.457435131,1
1.339983821,-9.261867523,1,-11.52346516,1,-8.853460312,1,-0.217214003,1,-1.380361915,1,1.178332448,1,0.421343446,1,-0.748915672,1,-0.439645112,1,-2.603091717,1,-8.59378624,1,-2.316696644,1
1.343987703,-13.25202847,1,-12.52735424,1,-10.09819984,1,-0.310007602,1,-1.149935961,1,0.927714229,1,0.41868791,1,-0.755325556,1,-0.437247455,1,-6.547473907,1,-9.632455826,1,-3.592806816,1
1.347987771,-10.98578358,1,-12.69523907,1,-12.36972618,1,-0.530027211,1,-0.752026558,1,0.6139431,1,0.415803939,1,-0.760068297,1,-0.435477167,1,-4.247534275,1,-9.831990242,1,-5.885170937,1
1.351989269,-6.939625263,1,-12.02884769,1,-12.23845673,1,-0.74489063,1,-0.432772249,1,0.287773579,1,0.412569642,1,-0.762910903,1,-0.434495628,1,-0.181252956,1,-9.194278717,1,-5.76224947,1
1.355986953,-3.640996456,1,-10.48482895,1,-10.95428085,1,-0.851543367,1,-0.330680788,1,0.04187068,1,0.40937233,1,-0.764515281,1,-0.434520543,1,3.128708839,1,-7.675299644,1,-4.478998184,1
1.359986424,-1.282583117,1,-8.584991455,1,-10.16406918,1,-0.872813523,1,-0.32364732,1,-0.094697759,1,0.406524777,1,-0.765659451,1,-0.435399532,1,5.495193481,1,-5.796975613,1,-3.687927723,1
1.363987684,0.455493331,1,-6.921577454,1,-9.639761925,1,-0.845589697,1,-0.353327066,1,-0.149179921,1,0.404010236,1,-0.766703665,1,-0.43677783,1,7.240629196,1,-4.152639389,1,-3.163143158,1
1.367985368,1.455509067,1,-5.778303623,1,-9.205647469,1,-0.744481206,1,-0.405952096,1,-0.183291689,1,0.402001411,1,-0.767833829,1,-0.438468784,1,8.24860096,1,-3.025384665,1,-2.730543613,1
1.371984601,1.720800042,1,-5.417805195,1,-8.996123314,1,-0.596650243,1,-0.443925709,1,-0.186961606,1,0.400639236,1,-0.769108355,1,-0.440364838,1,8.522853851,1,-2.677086353,1,-2.525248528,1
1.375986457,1.696844101,1,-5.355079174,1,-9.032744408,1,-0.468468338,1,-0.442842662,1,-0.168168321,1,0.399825394,1,-0.770475805,1,-0.442243874,1,8.508501053,1,-2.623252392,1,-2.568219185,1
1.37998414,1.617569923,1,-5.608986378,1,-9.172275543,1,-0.36865133,1,-0.40601626,1,-0.146354362,1,0.399359256,1,-0.771800876,1,-0.44397226,1,8.438520432,1,-2.883684397,1,-2.714797497,1
1.383984089,1.577974558,1,-5.820020199,1,-9.355903625,1,-0.308719039,1,-0.327402472,1,-0.131076515,1,0.399065405,1,-0.772944212,1,-0.445477605,1,8.406934738,1,-3.099647999,1,-2.904815197,1
1.387985706,1.466033936,1,-5.820301056,1,-9.620897293,1,-0.281224638,1,-0.217715263,1,-0.127487108,1,0.398772717,1,-0.773751497,1,-0.446744502,1,8.300643921,1,-3.103958368,1,-3.174094677,1
1.39198339,1.660359263,1,-5.751081944,1,-9.730911255,1,-0.264610916,1,-0.086774088,1,-0.129969612,1,0.398376107,1,-0.774114192,1,-0.447739303,1,8.497506142,1,-3.038257837,1,-3.285316944,1
1.395982623,1.901350498,1,-5.299116135,1,-9.939621925,1,-0.255075842,1,0.049549315,1,-0.142197669,1,0.397847444,1,-0.773980021,1,-0.448483229,1,8.737558365,1,-2.589345932,1,-3.491751194,1
1.399984121,2.323658228,1,-4.900997639,1,-10.07848263,1,-0.230330124,1,0.184764296,1,-0.161919758,1,0.397237837,1,-0.77331531,1,-0.449014097,1,9.155215263,1,-2.193401098,1,-3.624773502,1
1.403981805,2.794796944,1,-4.430593014,1,-10.10638905,1,-0.196726233,1,0.310748219,1,-0.180702314,1,0.396631598,1,-0.772133291,1,-0.449373007,1,9.618077278,1,-1.723792315,1,-3.643595695,1
1.407981515,3.236243486,1,-4.129359722,1,-10.08914471,1,-0.1538212,1,0.428545237,1,-0.196782202,1,0.396059155,1,-0.770471931,1,-0.449550956,1,10.0478735,1,-1.421888351,1,-3.614350796,1
1.411983132,3.681751966,1,-4.033322811,1,-10.0288868,1,-0.109230414,1,0.528633237,1,-0.206797943,1,0.395536482,1,-0.768388867,1,-0.44955492,1,10.47874832,1,-1.323775768,1,-3.53960228,1
1.415980577,3.989478827,1,-4.076003075,1,-9.944933891,1,-0.080799058,1,0.623106778,1,-0.215538234,1,0.395053506,1,-0.765934825,1,-0.449405164,1,10.76919651,1,-1.36317873,1,-3.438964367,1
1.419986486,4.094523907,1,-3.974516153,1,-9.907702446,1,-0.063802496,1,0.704909444,1,-0.220797688,1,0.39455986,1,-0.76315707,1,-0.449103594,1,10.85463524,1,-1.257674456,1,-3.383031845,1
1.423988223,4.196282864,1,-3.9364326,1,-9.831421852,1,-0.047784775,1,0.782699823,1,-0.220522732,1,0.394037604,1,-0.760061204,1,-0.448647261,1,10.93448162,1,-1.214977741,1,-3.286043167,1
1.427985907,4.127821922,1,-3.864781141,1,-9.867602348,1,-0.042800643,1,0.86492455,1,-0.230325177,1,0.393449903,1,-0.756668568,1,-0.448052973,1,10.84193325,1,-1.138426304,1,-3.299552441,1
1.431985617,4.009523869,1,-3.722893,1,-9.814142227,1,-0.042293027,1,0.93854475,1,-0.245375499,1,0.392810941,1,-0.75297749,1,-0.447361916,1,10.69734001,1,-0.991265774,1,-3.221496105,1
1.435987234,3.86358881,1,-3.753519297,1,-9.860607147,1,-0.029369717,1,1.020379424,1,-0.255330056,1,0.392135561,1,-0.748969436,1,-0.446576238,1,10.5227499,1,-1.016121864,1,-3.241397381,1
1.439984918,3.5952034,1,-3.800436497,1,-9.970256805,1,-0.014946322,1,1.107555866,1,-0.275752723,1,0.391453356,1,-0.744631827,1,-0.445698082,1,10.22323227,1,-1.056562901,1,-3.322549343,1
1.443984389,3.366063356,1,-3.791285276,1,-10.08810902,1,-0.004409998,1,1.203940034,1,-0.294303477,1,0.390755415,1,-0.739920676,1,-0.444725573,1,9.960137367,1,-1.040187597,1,-3.409685612,1
1.447985888,3.144154549,1,-3.714322567,1,-10.16926289,1,0.006453103,1,1.298864007,1,-0.316878825,1,0.390051305,1,-0.734815836,1,-0.443675339,1,9.701271057,1,-0.955166578,1,-3.457863331,1
1.451983571,2.956308842,1,-3.696532965,1,-10.24403286,1,0.010752025,1,1.398328066,1,-0.344168246,1,0.389352292,1,-0.729316831,1,-0.442565918,1,9.473423004,1,-0.928420782,1,-3.497443199,1
1.455983162,2.762382269,1,-3.854452372,1,-10.32245159,1,0.016447553,1,1.496583581,1,-0.365184963,1,0.388626248,1,-0.723425269,1,-0.441379756,1,9.236420631,1,-1.076740742,1,-3.538443565,1
1.45998466,2.459323168,1,-4.026288986,1,-10.49121475,1,0.01568279,1,1.600657225,1,-0.388444662,1,0.38786155,1,-0.717123508,1,-0.440112472,1,8.887037277,1,-1.23838973,1,-3.667449474,1
1.463982344,2.254594564,1,-4.065794945,1,-10.5170269,1,0.017329464,1,1.703313947,1,-0.407957464,1,0.387039363,1,-0.710408449,1,-0.438756645,1,8.632665634,1,-1.267277956,1,-3.651155949,1
1.467981815,1.9702245,1,-4.054064751,1,-10.65656185,1,0.01948531,1,1.807149649,1,-0.425840735,1,0.386172295,1,-0.703279495,1,-0.43730849,1,8.295277596,1,-1.2444489,1,-3.746323586,1
1.471983671,1.789624214,1,-3.904920578,1,-10.68080711,1,0.023063364,1,1.911630511,1,-0.450013101,1,0.385278314,1,-0.695731163,1,-0.435778201,1,8.058190346,1,-1.083620548,1,-3.724013805,1
1.475981593,1.521317363,1,-3.866604567,1,-10.79843426,1,0.039210267,1,2.008748055,1,-0.475148737,1,0.384388328,1,-0.687768996,1,-0.434176385,1,7.729911804,1,-1.032869577,1,-3.793083668,1
1.479981065,1.485310912,1,-3.660452843,1,-10.90127277,1,0.056248568,1,2.097155571,1,-0.506487668,1,0.383555412,1,-0.679411888,1,-0.432549477,1,7.630537033,1,-0.813235521,1,-3.845692635,1
1.483982563,1.13360846,1,-3.65773201,1,-10.82622719,1,0.089609034,1,2.180223942,1,-0.548523307,1,0.382827997,1,-0.670693576,1,-0.430959672,1,7.212268829,1,-0.795743704,1,-3.719150543,1
1.487980247,0.781162083,1,-3.591303587,1,-11.05136108,1,0.119181111,1,2.273704767,1,-0.581197679,1,0.38229093,1,-0.661580026,1,-0.429397345,1,6.789746761,1,-0.712586164,1,-3.891646385,1
1.491979718,0.812895179,1,-3.653270483,1,-11.01806068,1,0.138970539,1,2.349907875,1,-0.626945615,1,0.381883591,1,-0.652089059,1,-0.427875429,1,6.747970104,1,-0.756346941,1,-3.804576874,1
1.495987415,0.651273906,1,-3.647642374,1,-11.00336647,1,0.15211758,1,2.407495499,1,-0.693282783,1,0.381639123,1,-0.64228183,1,-0.426509917,1,6.509828091,1,-0.730942726,1,-3.735502243,1
1.499991059,0.449086905,1,-3.706710815,1,-10.97289371,1,0.159093872,1,2.472168446,1,-0.749054015,1,0.381550223,1,-0.63215667,1,-0.425318509,1,6.228050232,1,-0.768719912,1,-3.650093079,1
1.503991008,0.297620088,1,-3.728845358,1,-10.91193962,1,0.15449053,1,2.511837721,1,-0.804274917,1,0.381573141,1,-0.621748567,1,-0.424297124,1,5.994149208,1,-0.768447638,1,-3.533780098,1
1.507992625,0.093855441,1,-3.749153852,1,-10.87584591,1,0.145060346,1,2.551072598,1,-0.863130569,1,0.381693095,1,-0.611105859,1,-0.423464596,1,5.705454826,1,-0.765455961,1,-3.442195415,1
1.511990309,-0.090247363,1,-3.733447552,1,-10.79541206,1,0.138853744,1,2.581220627,1,-0.920312345,1,0.381915748,1,-0.600252986,1,-0.422841102,1,5.434091568,1,-0.72557354,1,-3.306353092,1
1.51598978,-0.333846778,1,-3.711989164,1,-10.67875099,1,0.135390103,1,2.610880613,1,-0.975448966,1,0.382225662,1,-0.58919847,1,-0.42241776,1,5.100940228,1,-0.679200172,1,-3.134418964,1
1.519991279,-0.52375555,1,-3.689340591,1,-10.60741425,1,0.125583842,1,2.638823032,1,-1.021946192,1,0.382609934,1,-0.577966809,1,-0.422166795,1,4.819364548,1,-0.631055832,1,-3.008099556,1
1.523988724,-0.649759829,1,-3.637731552,1,-10.52699566,1,0.123507634,1,2.662263393,1,-1.070091486,1,0.383058429,1,-0.56656599,1,-0.422077239,1,4.59962368,1,-0.553469181,1,-2.873044491,1
1.527988195,-0.784918427,1,-3.5248456,1,-10.5085268,1,0.125952467,1,2.674428463,1,-1.110184073,1,0.383587778,1,-0.55503583,1,-0.422140896,1,4.368972301,1,-0.414088011,1,-2.80059576,1
1.531989813,-0.911839306,1,-3.497554779,1,-10.37431145,1,0.134034395,1,2.687503576,1,-1.141467333,1,0.384199858,1,-0.543408751,1,-0.422329754,1,4.145060062,1,-0.359829426,1,-2.613251209,1
1.535987496,-0.976584017,1,-3.410385847,1,-10.30047417,1,0.145007044,1,2.685427666,1,-1.165952682,1,0.384900987,1,-0.531718314,1,-0.422619343,1,3.982108116,1,-0.245236635,1,-2.487350941,1
1.539986968,-1.095063448,1,-3.36616683,1,-10.23709011,1,0.159979016,1,2.680738449,1,-1.17830956,1,0.385698646,1,-0.520005345,1,-0.422986627,1,3.764551401,1,-0.173154116,1,-2.373216152,1
1.543988228,-1.258710623,1,-3.347659826,1,-10.15655422,1,0.177695706,1,2.666780949,1,-1.182140827,1,0.386575818,1,-0.508320272,1,-0.423395753,1,3.501398802,1,-0.126562357,1,-2.243432522,1
1.547985673,-1.263566017,1,-3.316138506,1,-10.03268814,1,0.199670479,1,2.640192509,1,-1.179395437,1,0.387533695,1,-0.496697724,1,-0.423818439,1,3.396925926,1,-0.066771984,1,-2.071965218,1
1.551985145,-1.441618323,1,-3.350440264,1,-9.924672127,1,0.213210016,1,2.618724823,1,-1.173048973,1,0.388565034,1,-0.485181212,1,-0.424240053,1,3.119544029,1,-0.072747469,1,-1.918162346,1
1.555986643,-1.532101035,1,-3.403204918,1,-9.852970123,1,0.234013066,1,2.583550453,1,-1.14799118,1,0.389648855,1,-0.473795772,1,-0.424631715,1,2.930266857,1,-0.097324133,1,-1.802500725,1
1.559984326,-1.634788394,1,-3.404602766,1,-9.767669678,1,0.253338963,1,2.539545774,1,-1.116925478,1,0.390775979,1,-0.46259746,1,-0.424966425,1,2.729845047,1,-0.070823431,1,-1.675231934,1
1.563983917,-1.804781199,1,-3.499183178,1,-9.643767357,1,0.25947237,1,2.492847443,1,-1.083022237,1,0.391903728,1,-0.451605558,1,-0.425218076,1,2.463387251,1,-0.138158321,1,-1.511246681,1
1.567985415,-1.988763094,1,-3.526957512,1,-9.537203789,1,0.265608907,1,2.438827038,1,-1.033201337,1,0.393027306,1,-0.440874159,1,-0.425384462,1,2.184728384,1,-0.139449835,1,-1.366623878,1
1.571982861,-2.145832539,1,-3.651638031,1,-9.440250397,1,0.272083968,1,2.377171278,1,-0.992797196,1,0.394117177,1,-0.430423975,1,-0.425433159,1,1.935001373,1,-0.238664865,1,-1.233540535,1
1.575994134,-2.398913622,1,-3.832400084,1,-9.494063377,1,0.267801285,1,2.310158968,1,-0.934393644,1,0.395161033,1,-0.420288473,1,-0.425378114,1,1.591626644,1,-0.395116091,1,-1.253170013,1
1.580001831,-2.695711613,1,-4.020177841,1,-9.567632675,1,0.276065677,1,2.248503447,1,-0.876237392,1,0.396169722,1,-0.410480559,1,-0.425195813,1,1.207063198,1,-0.559645414,1,-1.294499397,1
1.584005356,-3.191179037,1,-4.12266016,1,-9.725008011,1,0.298712283,1,2.191750288,1,-0.82935077,1,0.397190511,1,-0.400978655,1,-0.424881697,1,0.626210451,1,-0.63949728,1,-1.421590805,1
1.588004827,-3.783777475,1,-4.033078194,1,-9.911073685,1,0.328368843,1,2.156774521,1,-0.799133956,1,0.398296058,1,-0.391703248,1,-0.424480796,1,-0.050070047,1,-0.527154446,1,-1.579230309,1
1.592006445,-4.381136894,1,-4.018645763,1,-10.08031273,1,0.35591054,1,2.131975174,1,-0.789658546,1,0.399293333,1,-0.382516086,1,-0.424805254,1,-0.730633259,1,-0.491227627,1,-1.720719337,1
1.59600389,-4.899053097,1,-4.006634712,1,-10.31708813,1,0.391802341,1,2.131242752,1,-0.803285539,1,0.400638342,1,-0.373423934,1,-0.424384236,1,-1.331194639,1,-0.45517683,1,-1.932026863,1
1.6000036,-5.335075378,1,-4.005289078,1,-10.49804497,1,0.43437624,1,2.140082359,1,-0.835959911,1,0.402164608,1,-0.36428833,1,-0.424035728,1,-1.850555182,1,-0.428429842,1,-2.088773727,1
1.604005098,-5.727127552,1,-4.106004715,1,-10.65700245,1,0.461360127,1,2.175066233,1,-0.883048296,1,0.403875172,1,-0.355002761,1,-0.423800588,1,-2.327611446,1,-0.502206326,1,-2.224473,1
1.608002543,-6.03317976,1,-4.149522781,1,-10.77420425,1,0.495964915,1,2.213590384,1,-0.945566535,1,0.405751407,1,-0.345496714,1,-0.423696578,1,-2.720989227,1,-0.517318249,1,-2.319141388,1
1.612002015,-6.227959633,1,-4.18342495,1,-10.77891445,1,0.519161165,1,2.256158829,1,-1.017455578,1,0.407811135,1,-0.335737228,1,-0.423765272,1,-3.005734444,1,-0.521164656,1,-2.302075386,1
1.616003275,-6.327018738,1,-4.152583599,1,-10.72942066,1,0.543074548,1,2.313119411,1,-1.098043203,1,0.410020232,1,-0.325664014,1,-0.424018323,1,-3.197973013,1,-0.458854675,1,-2.231355667,1
1.62000072,-6.263303757,1,-3.974406242,1,-10.72233868,1,0.555491269,1,2.354778528,1,-1.178050995,1,0.412368566,1,-0.315284491,1,-0.424481571,1,-3.230602264,1,-0.24791646,1,-2.203676224,1
1.624000311,-6.110337257,1,-3.950320005,1,-10.59107971,1,0.571405053,1,2.384729385,1,-1.256115317,1,0.414833367,1,-0.304646552,1,-0.425167322,1,-3.176718235,1,-0.19005394,1,-2.052583694,1
1.628001809,-5.972971439,1,-3.888939619,1,-10.45781803,1,0.595079541,1,2.411713362,1,-1.320377588,1,0.417426318,1,-0.293792993,1,-0.426046729,1,-3.14078474,1,-0.093859673,1,-1.900494576,1
1.631999493,-6.035718918,1,-3.747046947,1,-10.32308388,1,0.617481887,1,2.424002409,1,-1.379228473,1,0.420151234,1,-0.282773495,1,-0.427092999,1,-3.306856632,1,0.083833456,1,-1.74816227,1
1.635998964,-6.054246426,1,-3.624608994,1,-10.10592651,1,0.650259197,1,2.427324772,1,-1.431609154,1,0.423019409,1,-0.271606833,1,-0.428300679,1,-3.430427074,1,0.243120432,1,-1.514771461,1
1.640000224,-6.182962418,1,-3.481925011,1,-9.930851936,1,0.676050723,1,2.435109615,1,-1.476684928,1,0.42602554,1,-0.260359168,1,-0.429638743,1,-3.665277719,1,0.423560381,1,-1.325036049,1
1.643997908,-6.180932999,1,-3.330799341,1,-9.654708862,1,0.707711816,1,2.435804844,1,-1.513496161,1,0.429161161,1,-0.249016494,1,-0.431093723,1,-3.770602703,1,0.613282442,1,-1.035764694,1
1.647997499,-6.225225449,1,-3.307682514,1,-9.380098343,1,0.720059335,1,2.421288013,1,-1.547249794,1,0.432390213,1,-0.237639308,1,-0.43264538,1,-3.922887325,1,0.675443411,1,-0.749593735,1
1.651998758,-6.254392147,1,-3.292472601,1,-9.060647964,1,0.729892135,1,2.401002645,1,-1.56229043,1,0.435665548,1,-0.226274714,1,-0.434282333,1,-4.060224056,1,0.72968173,1,-0.420072556,1
1.656002283,-6.31742382,1,-3.25984025,1,-8.76591301,1,0.736772299,1,2.366643667,1,-1.570059299,1,0.438966274,1,-0.214979649,1,-0.435962021,1,-4.231045246,1,0.801088095,1,-0.116775513,1
1.660001755,-6.350658894,1,-3.212858915,1,-8.498067856,1,0.732605278,1,2.333949804,1,-1.567054629,1,0.442256719,1,-0.203791872,1,-0.437668324,1,-4.371308327,1,0.886238813,1,0.158211708,1
1.664003372,-6.44692421,1,-3.096629858,1,-8.243191719,1,0.720061958,1,2.28515625,1,-1.552929163,1,0.445506752,1,-0.192758754,1,-0.439374089,1,-4.573364735,1,1.03973937,1,0.418902397,1
1.668001056,-6.574048042,1,-3.037563801,1,-8.000534058,1,0.717528224,1,2.23665452,1,-1.534374833,1,0.448697567,1,-0.181924254,1,-0.441066504,1,-4.804597378,1,1.134984493,1,0.666099548,1
1.672000527,-6.7342453,1,-2.91957593,1,-7.711523533,1,0.703197181,1,2.188076496,1,-1.51025176,1,0.451813072,1,-0.171303064,1,-0.442716479,1,-5.067054749,1,1.287920713,1,0.958487034,1
1.676002026,-6.766487122,1,-2.78083086,1,-7.459264278,1,0.691350222,1,2.131351233,1,-1.472717285,1,0.454858392,1,-0.160924315,1,-0.444314301,1,-5.199404716,1,1.460422993,1,1.212969303,1
1.679999709,-6.87777853,1,-2.647651672,1,-7.184781075,1,0.684895813,1,2.067518473,1,-1.433129787,1,0.457843691,1,-0.15081194,1,-0.445849359,1,-5.408397675,1,1.626259327,1,1.488526344,1
1.683998942,-6.988483429,1,-2.54078269,1,-6.882275581,1,0.678076863,1,2.007447958,1,-1.383822203,1,0.460779369,1,-0.141001761,1,-0.447306395,1,-5.614027977,1,1.76477313,1,1.790940285,1
1.68800056,-7.079236984,1,-2.444312334,1,-6.495015621,1,0.674039185,1,1.93083024,1,-1.332918644,1,0.463673234,1,-0.131524205,1,-0.448673397,1,-5.79661417,1,1.891957045,1,2.176968098,1
1.691998005,-7.134189606,1,-2.387119293,1,-6.147921085,1,0.662856638,1,1.850806117,1,-1.272661328,1,0.466506064,1,-0.122419104,1,-0.449950725,1,-5.939898968,1,1.97877121,1,2.521815777,1
1.695997715,-7.211093903,1,-2.340587378,1,-5.794349194,1,0.646463931,1,1.753445983,1,-1.210642695,1,0.469266593,1,-0.113754742,1,-0.451145649,1,-6.100951672,1,2.05373311,1,2.872205257,1
1.699999213,-7.377100945,1,-2.355894804,1,-5.509161949,1,0.627141476,1,1.649145484,1,-1.136420727,1,0.471933246,1,-0.105560146,1,-0.452256471,1,-6.346621513,1,2.065508604,1,3.153456688,1
1.703996658,-7.483107567,1,-2.460615158,1,-5.224841595,1,0.603498459,1,1.531225324,1,-1.068900466,1,0.47450453,1,-0.097888112,1,-0.453292727,1,-6.527274132,1,1.986528873,1,3.43315649,1
1.70799613,-7.597680569,1,-2.420272589,1,-5.031213284,1,0.567802727,1,1.403057933,1,-1.003629565,1,0.476947963,1,-0.090775356,1,-0.454291344,1,-6.711101532,1,2.051021814,1,3.621715069,1
1.711997747,-7.738119125,1,-2.428066015,1,-4.899178505,1,0.521669149,1,1.261049628,1,-0.944264889,1,0.479223549,1,-0.084250018,1,-0.455301583,1,-6.915114403,1,2.06547904,1,3.748500824,1
1.715995193,-7.905785561,1,-2.357881546,1,-4.837735653,1,0.46970427,1,1.113606095,1,-0.900576651,1,0.481302738,1,-0.078332826,1,-0.456378371,1,-7.140460968,1,2.155809402,1,3.804749012,1
1.719994664,-8.263754845,1,-2.212947369,1,-4.815567493,1,0.418005377,1,0.965042889,1,-0.862306654,1,0.483171165,1,-0.073029585,1,-0.457575023,1,-7.55014801,1,2.318706036,1,3.821941853,1
1.723995924,-8.696988106,1,-2.123435974,1,-4.775632858,1,0.355876714,1,0.822060406,1,-0.841557562,1,0.48481226,1,-0.068281159,1,-0.458937258,1,-8.029706001,1,2.423913479,1,3.857326508,1
1.727993608,-9.240005493,1,-2.062108755,1,-4.799769402,1,0.293787122,1,0.699704111,1,-0.83667028,1,0.48622185,1,-0.064030103,1,-0.460486829,1,-8.614208221,1,2.498688459,1,3.829199791,1
1.731999278,-9.627279282,1,-2.16432476,1,-4.72684145,1,0.221795246,1,0.595582664,1,-0.831507981,1,0.487361312,1,-0.060176212,1,-0.462230623,1,-9.039100647,1,2.407398224,1,3.898993969,1
1.736000776,-9.799546242,1,-2.185617447,1,-4.667581558,1,0.145703897,1,0.506440222,1,-0.830818892,1,0.488205731,1,-0.056679424,1,-0.464140266,1,-9.245509148,1,2.394325256,1,3.956154823,1
1.73999846,-9.939904213,1,-2.077998161,1,-4.664520741,1,0.070743755,1,0.416982263,1,-0.821744502,1,0.488746703,1,-0.053499799,1,-0.466195673,1,-9.416916847,1,2.50741148,1,3.958246708,1
1.743997931,-10.00771427,1,-1.800381303,1,-4.627937317,1,0.000881725,1,0.332205802,1,-0.819004655,1,0.489002675,1,-0.050642248,1,-0.468404025,1,-9.512636185,1,2.787919044,1,3.994940758,1
1.747999191,-10.02160263,1,-1.414758325,1,-4.60510397,1,-0.054147895,1,0.255719632,1,-0.811803758,1,0.489006847,1,-0.04806982,1,-0.470736682,1,-9.551652908,1,3.17416048,1,4.018850803,1
1.751996636,-10.05105209,1,-1.10404563,1,-4.525136471,1,-0.08340241,1,0.178158641,1,-0.807067573,1,0.488838494,1,-0.045783009,1,-0.473183006,1,-9.603443146,1,3.48391366,1,4.100515842,1
1.755996108,-10.04641247,1,-0.878858685,1,-4.439529896,1,-0.109430417,1,0.11427892,1,-0.802152634,1,0.48856914,1,-0.043758567,1,-0.475752473,1,-9.618582726,1,3.707194328,1,4.188141346,1
1.759997725,-9.982263565,1,-0.766311646,1,-4.370210648,1,-0.120628908,1,0.053460848,1,-0.788976729,1,0.488224745,1,-0.041980948,1,-0.478408039,1,-9.571804047,1,3.817118645,1,4.259697914,1
1.763995171,-9.926878929,1,-0.689851642,1,-4.216879845,1,-0.142736673,1,-0.007481814,1,-0.774222195,1,0.487812698,1,-0.040440507,1,-0.48113057,1,-9.531472206,1,3.890313625,1,4.415464401,1
1.767994642,-9.868075371,1,-0.640618086,1,-4.125638008,1,-0.157477051,1,-0.06058237,1,-0.754193187,1,0.487321585,1,-0.039131992,1,-0.4839046,1,-9.485455513,1,3.935547113,1,4.509408951,1
1.77199614,-9.751364708,1,-0.626067102,1,-3.931344748,1,-0.183672056,1,-0.117121808,1,-0.727044523,1,0.486740768,1,-0.038071088,1,-0.486696422,1,-9.379113197,1,3.945267677,1,4.706708908,1
1.775993586,-9.609355927,1,-0.707987845,1,-3.754927635,1,-0.214551732,1,-0.173388526,1,-0.690882683,1,0.486050725,1,-0.037260611,1,-0.489479661,1,-9.245025635,1,3.857526302,1,4.886545181,1
1.779992819,-9.460199356,1,-0.753519058,1,-3.522672176,1,-0.251375824,1,-0.233996451,1,-0.656261206,1,0.485227078,1,-0.036724567,1,-0.492248029,1,-9.101107597,1,3.804965019,1,5.122726917,1
1.783994317,-9.250306129,1,-0.771804631,1,-3.317194462,1,-0.292039573,1,-0.300863922,1,-0.610874951,1,0.48424834,1,-0.036481537,1,-0.494985998,1,-8.893589973,1,3.778256178,1,5.332739353,1
1.78799212,-8.928401947,1,-0.90028882,1,-3.035287619,1,-0.331917226,1,-0.373832703,1,-0.558011711,1,0.483095825,1,-0.036586296,1,-0.497695833,1,-8.570661545,1,3.639782667,1,5.619852066,1
1.79199183,-8.755606651,1,-1.012267232,1,-2.826411009,1,-0.374722719,1,-0.457719475,1,-0.501136303,1,0.481776804,1,-0.037083697,1,-0.50034976,1,-8.393005371,1,3.516300678,1,5.83454895,1
1.795993328,-8.546665192,1,-1.217048168,1,-2.610284328,1,-0.422752827,1,-0.545157135,1,-0.441377193,1,0.480280429,1,-0.03798103,1,-0.502948821,1,-8.175293922,1,3.29840374,1,6.057154179,1
1.799990773,-8.400568962,1,-1.483437777,1,-2.531615973,1,-0.460236013,1,-0.63269192,1,-0.373285562,1,0.478624582,1,-0.039322782,1,-0.505475283,1,-8.016084671,1,3.017421961,1,6.142835617,1
1.803990245,-8.311367989,1,-1.748172641,1,-2.601246357,1,-0.49059546,1,-0.728869259,1,-0.308336139,1,0.476810664,1,-0.041113038,1,-0.507937849,1,-7.909389019,1,2.736621857,1,6.080729961,1
1.807991862,-8.349959373,1,-1.738391638,1,-2.582413912,1,-0.512611091,1,-0.811098874,1,-0.251816809,1,0.474894494,1,-0.043338511,1,-0.510342658,1,-7.926234245,1,2.729338884,1,6.1073246,1
1.811995149,-8.483057976,1,-1.810649991,1,-2.681260824,1,-0.514120817,1,-0.8771227,1,-0.204064667,1,0.472952813,1,-0.045928109,1,-0.512699723,1,-8.034030914,1,2.639683247,1,6.016126633,1
1.815994859,-8.713610649,1,-2.014068842,1,-2.848794937,1,-0.499346465,1,-0.933005691,1,-0.177982152,1,0.471037745,1,-0.048810184,1,-0.515035212,1,-8.236428261,1,2.418994665,1,5.855909348,1
1.819996357,-9.058150291,1,-2.225683689,1,-3.020571232,1,-0.47874862,1,-0.961229205,1,-0.163009778,1,0.46919024,1,-0.051878981,1,-0.517361045,1,-8.550992966,1,2.190607071,1,5.690962315,1
1.82399416,-9.407532692,1,-2.462957859,1,-3.216103554,1,-0.458345085,1,-0.968080938,1,-0.155290097,1,0.467437744,1,-0.055037595,1,-0.519668221,1,-8.869527817,1,1.937315464,1,5.501682281,1
1.827993631,-9.693195343,1,-2.576827765,1,-3.294152975,1,-0.430467427,1,-0.953736424,1,-0.154595852,1,0.465795875,1,-0.058187574,1,-0.521956861,1,-9.124432564,1,1.808342695,1,5.429286957,1
1.831994891,-9.806789398,1,-2.655937195,1,-3.249681473,1,-0.391846448,1,-0.924463451,1,-0.157767326,1,0.464285493,1,-0.061268345,1,-0.524206579,1,-9.207949638,1,1.715248108,1,5.478765488,1
1.835992575,-9.702684402,1,-2.664815664,1,-3.141820431,1,-0.351571321,1,-0.896407425,1,-0.14867577,1,0.462928385,1,-0.064260028,1,-0.526391268,1,-9.074643135,1,1.693700075,1,5.590907574,1
1.839992046,-9.606184006,1,-2.576855421,1,-3.025885105,1,-0.303836882,1,-0.883334816,1,-0.129863769,1,0.461715668,1,-0.067143641,1,-0.528617084,1,-8.950001717,1,1.770242929,1,5.710465908,1
1.843993306,10.68882465,1,1.508561254,1,-11.87007618,1,0.137908265,1,-1.009148717,1,0.140057236,1,0.461205393,1,-0.07036183,1,-0.530418873,1,11.37640762,1,5.850238323,1,-3.133444786,1
1.84799099,6.783592701,1,-0.427170098,1,-12.38362312,1,0.659459651,1,-1.867493272,1,0.324936301,1,0.46332556,1,-0.075969912,1,-0.53200686,1,7.525876522,1,3.931227922,1,-3.659804344,1
1.851990223,2.591134071,1,-5.940773964,1,-8.874053955,1,-0.051765162,1,-2.026948929,1,0.404447138,1,0.464710683,1,-0.08385589,1,-0.534323096,1,3.410297632,1,-1.573055267,1,-0.161783218,1
1.85599184,17.55759048,1,-10.39789391,1,-8.784168243,1,-0.007117028,1,-2.133102179,1,0.438404948,1,0.46455282,1,-0.091774806,1,-0.536518931,1,18.4539032,1,-6.034594536,1,-0.077281952,1
1.859989285,10.7269516,1,-10.05184174,1,-9.695195198,1,0.114566311,1,-2.641490459,1,0.817437828,1,0.465101331,1,-0.101504296,1,-0.538593292,1,11.71797657,1,-5.687884808,1,-0.99890995,1
1.863988757,10.7187376,1,-8.628520012,1,-12.08530998,1,-0.001479283,1,-2.871527195,1,1.14581728,1,0.465469658,1,-0.113110863,1,-0.540004551,1,11.82262325,1,-4.266815662,1,-3.401494026,1
1.867990255,7.665081501,1,-5.976590633,1,-13.53579521,1,0.040378712,1,-3.135145426,1,1.414494634,1,0.465568811,1,-0.126163617,1,-0.540808916,1,8.895711899,1,-1.620866299,1,-4.866026878,1
1.8719877,3.535169125,1,-4.781591415,1,-12.66370869,1,0.104179665,1,-3.345415592,1,1.546192527,1,0.465937108,1,-0.1404365,1,-0.541334331,1,4.904150963,1,-0.431008339,1,-4.01211834,1
1.875986934,0.740709186,1,-4.627963543,1,-12.91383743,1,0.176364914,1,-3.591755152,1,1.606834769,1,0.466624171,1,-0.155662805,1,-0.541900098,1,2.256976366,1,-0.281320095,1,-4.28485775,1
1.879988432,-4.677956104,1,-5.174780369,1,-12.2976675,1,0.23811993,1,-3.773920774,1,1.616369128,1,0.467612714,1,-0.171771809,1,-0.542819023,1,-3.006248474,1,-0.83118391,1,-3.695911407,1
1.883985877,-9.840330124,1,-3.95420599,1,-11.89892578,1,0.247409567,1,-3.781084776,1,1.542906523,1,0.468814611,1,-0.188140303,1,-0.544021606,1,-8.011122704,1,0.386779308,1,-3.327958107,1
1.887985706,-11.92079258,1,-2.288204432,1,-11.14723492,1,0.269572556,1,-3.724483013,1,1.498579383,1,0.470118105,1,-0.204292074,1,-0.545424461,1,-9.93665123,1,2.049999475,1,-2.609387398,1
1.891993046,-11.12361717,1,-0.417124778,1,-11.99642658,1,0.364275068,1,-3.660419941,1,1.448343992,1,0.4716537,1,-0.220135123,1,-0.546912074,1,-8.988005638,1,3.919355869,1,-3.494324684,1
1.89599669,-11.07167816,1,-0.686334908,1,-13.52641106,1,0.513195336,1,-3.685856104,1,1.37749064,1,0.473804325,1,-0.235751763,1,-0.548592269,1,-8.787285805,1,3.65267396,1,-5.06436348,1
1.8999964,-13.70759773,1,-1.965597868,1,-13.88690948,1,0.618108392,1,-3.545785666,1,1.242742538,1,0.47651127,1,-0.251069576,1,-0.550625443,1,-11.277812,1,2.379739523,1,-5.468724251,1
1.903997898,-12.20026779,1,-0.960962296,1,-14.06264496,1,0.828128517,1,-3.379184484,1,1.105522037,1,0.479996324,1,-0.265504748,1,-0.552892148,1,-9.63398838,1,3.397035122,1,-5.691638947,1
1.907995343,-13.57390499,1,-1.849157929,1,-14.31364059,1,0.928475142,1,-3.2114501,1,1.030695558,1,0.484206825,1,-0.279191017,1,-0.555333257,1,-10.87870598,1,2.527285576,1,-5.992925644,1
1.911994934,-14.32267857,1,-3.920380354,1,-14.12574577,1,0.894149005,1,-2.948618889,1,1.060583234,1,0.488446593,1,-0.29204303,1,-0.557528913,1,-11.5068779,1,0.474683046,1,-5.854933739,1
1.915996432,-13.72029018,1,-4.863733768,1,-13.0896883,1,0.899552107,1,-2.630046368,1,1.084790945,1,0.49248907,1,-0.303898305,1,-0.559040666,1,-10.79365253,1,-0.451366901,1,-4.866705894,1
1.919994116,-11.40135002,1,-4.902944088,1,-11.99502373,1,0.920679331,1,-2.370990515,1,1.082845807,1,0.49641037,1,-0.314738095,1,-0.560001552,1,-8.373729706,1,-0.473736286,1,-3.817782402,1
1.923993587,-10.35357666,1,-5.641659737,1,-11.08465004,1,0.880091429,1,-2.212206602,1,1.110076189,1,0.500218451,1,-0.324858695,1,-0.560563445,1,-7.231993675,1,-1.196269989,1,-2.951641083,1
1.927995086,-9.69135952,1,-6.975869179,1,-9.718851089,1,0.834703982,1,-2.04893589,1,1.118587255,1,0.503711045,1,-0.334484339,1,-0.560735881,1,-6.480706215,1,-2.516808987,1,-1.628105164,1
1.931992888,-8.612074852,1,-8.117082596,1,-8.492051125,1,0.775099158,1,-1.91861403,1,1.095904827,1,0.506926775,1,-0.343558311,1,-0.560706258,1,-5.317728043,1,-3.646356583,1,-0.441488266,1
1.93599236,-7.4672122,1,-8.374710083,1,-7.772739887,1,0.668697357,1,-1.847935081,1,1.070882082,1,0.509764493,1,-0.352216542,1,-0.560544848,1,-4.093259335,1,-3.895244598,1,0.239904881,1
1.93999362,-8.039666176,1,-10.30685329,1,-7.407351494,1,0.500934303,1,-1.775018334,1,1.012409091,1,0.512056589,1,-0.360567957,1,-0.560459256,1,-4.589168072,1,-5.82299757,1,0.570160389,1
1.943991303,-7.394486904,1,-10.84083939,1,-6.387716293,1,0.343628794,1,-1.66377759,1,0.91583848,1,0.51373142,1,-0.368454278,1,-0.560444832,1,-3.871927023,1,-6.357140064,1,1.558330536,1
1.947990775,-6.290701866,1,-10.50725555,1,-5.76076746,1,0.21240136,1,-1.620976686,1,0.811339378,1,0.514937341,1,-0.375850618,1,-0.560678244,1,-2.700756311,1,-6.026930332,1,2.156975269,1
1.951992631,-5.789642811,1,-10.14542007,1,-5.551788807,1,0.065902054,1,-1.595481038,1,0.716949522,1,0.515707493,1,-0.382941186,1,-0.561224937,1,-2.13528204,1,-5.671665192,1,2.340157032,1
1.955990314,-6.260488987,1,-10.18648529,1,-5.586193085,1,-0.137369514,1,-1.56992054,1,0.702670693,1,0.515837967,1,-0.389846385,1,-0.561957061,1,-2.543573141,1,-5.724253178,1,2.283032417,1
1.959989786,-5.641525745,1,-9.438363075,1,-5.628984928,1,-0.286757767,1,-1.53155899,1,0.634807289,1,0.515268505,1,-0.396553427,1,-0.56273514,1,-1.864020348,1,-4.993000031,1,2.220907211,1
1.963991284,-5.360636711,1,-8.192511559,1,-6.265739441,1,-0.393220007,1,-1.494864225,1,0.600999355,1,0.51427263,1,-0.403022647,1,-0.563648164,1,-1.52485013,1,-3.76707983,1,1.567137241,1
1.967988729,-6.673872948,1,-7.531875134,1,-6.846556664,1,-0.543055177,1,-1.429455757,1,0.63083595,1,0.512702227,1,-0.409341335,1,-0.564462304,1,-2.781316757,1,-3.130728722,1,0.971980572,1
1.9719944,-6.355659962,1,-6.150436401,1,-7.335668564,1,-0.609807193,1,-1.3337816,1,0.641945958,1,0.510595024,1,-0.415406168,1,-0.564986408,1,-2.408760786,1,-1.777391434,1,0.471386433,1
1.975996137,-6.294077396,1,-4.332792759,1,-7.9483881,1,-0.614461064,1,-1.257503867,1,0.644975245,1,0.508268714,1,-0.421178371,1,-0.565299869,1,-2.295592785,1,0.010920048,1,-0.151212215,1
1.97999382,-7.002567768,1,-3.916148424,1,-8.785110474,1,-0.614138842,1,-1.174360514,1,0.666857123,1,0.505869627,1,-0.426698029,1,-0.56539923,1,-2.954878807,1,0.398084402,1,-0.99696207,1
1.983993649,-8.094839096,1,-3.448383331,1,-8.933026314,1,-0.60278672,1,-1.043232441,1,0.682124734,1,0.503315032,1,-0.431911975,1,-0.565143228,1,-4.000784397,1,0.835702896,1,-1.15247488,1
1.987995148,-7.661112309,1,-3.273009777,1,-8.876480103,1,-0.542026997,1,-0.92599839,1,0.624185085,1,0.500822842,1,-0.436618567,1,-0.564695299,1,-3.525298595,1,0.982373714,1,-1.102264404,1
1.991992593,-7.983213902,1,-3.461279154,1,-8.826869011,1,-0.5060004,1,-0.821589231,1,0.586575985,1,0.498526663,1,-0.440854579,1,-0.564187288,1,-3.809895039,1,0.767827272,1,-1.058359623,1
1.995992064,-7.305296421,1,-3.759722233,1,-8.603286743,1,-0.475634634,1,-0.72386384,1,0.557461441,1,0.496302664,1,-0.444642067,1,-0.563584387,1,-3.098507404,1,0.444539547,1,-0.839346886,1
1.999993563,-6.167053223,1,-3.761591434,1,-8.362249374,1,-0.448006332,1,-0.667056799,1,0.539125323,1,0.494168699,1,-0.448125094,1,-0.562912941,1,-1.929537773,1,0.419117928,1,-0.602301121,1
2.003991127,-5.64604044,1,-4.202406883,1,-8.303059578,1,-0.435461402,1,-0.643185735,1,0.51876241,1,0.492106438,1,-0.451436371,1,-0.562221527,1,-1.379361153,1,-0.044363499,1,-0.546918869,1
2.007990837,-5.575659752,1,-4.530025005,1,-8.393426895,1,-0.441038579,1,-0.609228134,1,0.516108334,1,0.49003309,1,-0.454614937,1,-0.56150353,1,-1.281029224,1,-0.39447546,1,-0.640685558,1
2.011992216,-6.071971893,1,-4.57528162,1,-8.371608734,1,-0.433515042,1,-0.567575991,1,0.495702535,1,0.487958819,1,-0.457645059,1,-0.560733318,1,-1.750736237,1,-0.461940765,1,-0.621833801,1
2.015990019,-5.827469826,1,-4.526093006,1,-8.277773857,1,-0.427548885,1,-0.510967493,1,0.480014652,1,0.485877275,1,-0.460454792,1,-0.559944987,1,-1.481599331,1,-0.434578419,1,-0.530220509,1
2.019989491,-5.726530075,1,-4.293079376,1,-8.097605705,1,-0.432510048,1,-0.466666341,1,0.479679078,1,0.483773023,1,-0.463067144,1,-0.559072435,1,-1.357786179,1,-0.22317028,1,-0.35153532,1
2.023991108,-6.056192398,1,-4.200115204,1,-8.216207504,1,-0.441284537,1,-0.421367943,1,0.481665671,1,0.481604338,1,-0.465538621,1,-0.558104157,1,-1.665835381,1,-0.152029037,1,-0.470923424,1
2.027988911,-5.938465118,1,-4.118443489,1,-7.996366978,1,-0.451179415,1,-0.369978786,1,0.47668463,1,0.479313582,1,-0.467820972,1,-0.557004988,1,-1.528173923,1,-0.09274292,1,-0.250742912,1
2.031988382,-5.188994884,1,-4.133927345,1,-7.9157691,1,-0.442611873,1,-0.349377126,1,0.453422099,1,0.477034777,1,-0.469942838,1,-0.555891991,1,-0.760190964,1,-0.130193233,1,-0.169320583,1
2.035989761,-4.91810894,1,-4.080729961,1,-7.802839756,1,-0.443107903,1,-0.350250393,1,0.448800176,1,0.474778146,1,-0.472017288,1,-0.554814517,1,-0.471225262,1,-0.098695278,1,-0.055564404,1
2.039987087,-4.521859646,1,-4.030681133,1,-7.838703156,1,-0.450051367,1,-0.349365413,1,0.440264761,1,0.472513258,1,-0.474066645,1,-0.553744733,1,-0.057134151,1,-0.070361137,1,-0.090563297,1
2.04398632,-4.47314167,1,-3.992309093,1,-7.91006422,1,-0.448370904,1,-0.358406395,1,0.436433583,1,0.470245987,1,-0.476125658,1,-0.552713931,1,0.009490967,1,-0.053739071,1,-0.161174774,1
2.047994137,-4.918309689,1,-3.998896837,1,-8.103066444,1,-0.455300957,1,-0.34447512,1,0.44127956,1,0.467963696,1,-0.478182644,1,-0.55167222,1,-0.417806149,1,-0.08218956,1,-0.353453159,1
2.0519979,-5.749830246,1,-3.969689131,1,-8.239660263,1,-0.458745331,1,-0.309654593,1,0.435622483,1,0.46562919,1,-0.480148196,1,-0.550573766,1,-1.232268333,1,-0.07506299,1,-0.488843441,1
2.05599761,-5.34701395,1,-3.601879597,1,-8.175693512,1,-0.442761213,1,-0.270693094,1,0.429867029,1,0.463292658,1,-0.481942356,1,-0.549419463,1,-0.813896179,1,0.270998001,1,-0.423060417,1
2.059999228,-5.01767683,1,-3.458132744,1,-8.063261032,1,-0.426194906,1,-0.255892187,1,0.41133821,1,0.461019874,1,-0.483631551,1,-0.548254013,1,-0.469926834,1,0.393701553,1,-0.308716774,1
2.063996553,-4.397641659,1,-3.352009058,1,-7.995685101,1,-0.408691674,1,-0.264710158,1,0.402730525,1,0.458826393,1,-0.485295206,1,-0.547122657,1,0.164506912,1,0.47945118,1,-0.239502907,1
2.067995787,-3.879946947,1,-3.517040968,1,-7.959986687,1,-0.393843591,1,-0.292767227,1,0.403199643,1,0.456719518,1,-0.487003416,1,-0.546047091,1,0.696972132,1,0.294627905,1,-0.202754021,1
2.071997404,-3.662615776,1,-3.689861298,1,-8.087100029,1,-0.38256228,1,-0.325763673,1,0.406147718,1,0.454690576,1,-0.488817364,1,-0.545021296,1,0.929974556,1,0.102408648,1,-0.329619884,1
2.075995207,-3.942013025,1,-3.692394733,1,-8.364499092,1,-0.381361902,1,-0.331182927,1,0.40515849,1,0.452679664,1,-0.490712792,1,-0.544014335,1,0.666935205,1,0.080452442,1,-0.607254028,1
2.079994678,-4.387291431,1,-3.574025393,1,-8.278893471,1,-0.3530038,1,-0.345590264,1,0.41325134,1,0.450740993,1,-0.492649555,1,-0.543018699,1,0.23835516,1,0.179881096,1,-0.522396564,1
2.083996058,-4.493556976,1,-3.379925728,1,-8.207079887,1,-0.344507217,1,-0.342657477,1,0.421199143,1,0.448862642,1,-0.494610041,1,-0.541989148,1,0.148974419,1,0.355461597,1,-0.451732159,1
2.087993622,-5.016512871,1,-3.207528591,1,-8.181627274,1,-0.321666867,1,-0.335155696,1,0.417877108,1,0.447093129,1,-0.498995215,1,-0.543291569,1,-0.336278439,1,0.505292654,1,-0.438111782,1
2.091993093,-4.883429527,1,-3.055719376,1,-8.100255966,1,-0.303329051,1,-0.33594656,1,0.405250877,1,0.445315897,1,-0.500859439,1,-0.541991115,1,-0.187193871,1,0.639567852,1,-0.358045101,1
2.095994711,-5.218669891,1,-2.864940405,1,-8.338744164,1,-0.273153037,1,-0.3197487,1,0.378795892,1,0.443690091,1,-0.502717435,1,-0.541011691,1,-0.506503582,1,0.814003706,1,-0.598427296,1
2.099992037,-4.840463638,1,-2.706955194,1,-8.279283524,1,-0.238267794,1,-0.306012779,1,0.371614605,1,0.442230701,1,-0.504494071,1,-0.540094018,1,-0.113078117,1,0.957098961,1,-0.541187286,1
2.103991508,-4.683194637,1,-2.672638416,1,-8.376521111,1,-0.21419616,1,-0.312095314,1,0.363561362,1,0.440896243,1,-0.506232321,1,-0.539179921,1,0.059066296,1,0.977575302,1,-0.640983105,1
2.107993126,-5.061600685,1,-2.968057156,1,-8.294050217,1,-0.19634822,1,-0.292590052,1,0.35534054,1,0.439644933,1,-0.50795114,1,-0.538277686,1,-0.304645538,1,0.668999434,1,-0.561337948,1
2.11199069,-5.817391396,1,-3.277441502,1,-8.265817642,1,-0.17822285,1,-0.271083623,1,0.340770006,1,0.438466311,1,-0.509566605,1,-0.537390411,1,-1.046637058,1,0.347233057,1,-0.535788536,1
2.115990162,-5.606211662,1,-3.302163124,1,-8.234619141,1,-0.149034202,1,-0.231591567,1,0.3101798,1,0.437375337,1,-0.511001348,1,-0.536514282,1,-0.823212624,1,0.311172009,1,-0.506850719,1
2.119991779,-5.30261898,1,-3.367097139,1,-7.884608269,1,-0.124281831,1,-0.212376654,1,0.296325892,1,0.436430275,1,-0.512320757,1,-0.535681009,1,-0.508368969,1,0.236262798,1,-0.159153938,1
2.12398982,-5.22890234,1,-3.482162237,1,-7.924262047,1,-0.123723164,1,-0.217804059,1,0.283068061,1,0.435555041,1,-0.513608515,1,-0.534900904,1,-0.423678875,1,0.111826897,1,-0.201261044,1
2.127995491,-5.041561604,1,-3.412176847,1,-8.153287888,1,-0.103158809,1,-0.2086294,1,0.262984067,1,0.434745371,1,-0.514825761,1,-0.534164071,1,-0.225973129,1,0.173091412,1,-0.432690144,1
2.13199687,-5.358929634,1,-3.533212185,1,-7.783862114,1,-0.093032375,1,-0.187612206,1,0.265547872,1,0.434005082,1,-0.515997708,1,-0.533453822,1,-0.533368111,1,0.043963909,1,-0.065738678,1
2.135994673,-5.163910866,1,-3.453481913,1,-7.897631645,1,-0.091324404,1,-0.183245897,1,0.247753203,1,0.433275998,1,-0.517097533,1,-0.532729924,1,-0.328996181,1,0.115837097,1,-0.181720734,1
2.139993906,-5.516044617,1,-3.497579813,1,-7.774383068,1,-0.08590699,1,-0.15731658,1,0.245656431,1,0.432582915,1,-0.518128753,1,-0.532031715,1,-0.672365665,1,0.064296484,1,-0.060535908,1
2.143995285,-4.885826111,1,-3.647399426,1,-7.642650127,1,-0.079770058,1,-0.155652449,1,0.230187178,1,0.43190068,1,-0.519088387,1,-0.531344533,1,-0.033996105,1,-0.092732668,1,0.069403172,1
2.147993088,-4.530575752,1,-3.752040863,1,-7.699043274,1,-0.072234571,1,-0.151915058,1,0.237871423,1,0.431242526,1,-0.52003783,1,-0.530645311,1,0.329314709,1,-0.204378843,1,0.011157513,1
2.151992559,-4.839123726,1,-3.976316929,1,-7.844033241,1,-0.069936946,1,-0.179927021,1,0.231596693,1,0.430646151,1,-0.521045804,1,-0.529996276,1,0.029319286,1,-0.435300827,1,-0.136173248,1
2.155994177,-5.078953266,1,-3.767628908,1,-7.732940674,1,-0.072080344,1,-0.170492083,1,0.250223309,1,0.430024683,1,-0.522089779,1,-0.529338419,1,-0.201657772,1,-0.233524799,1,-0.027506351,1
2.159991503,-4.280890942,1,-3.635789394,1,-8.099239349,1,-0.072436772,1,-0.19689475,1,0.25978756,1,0.429390311,1,-0.523152351,1,-0.528613865,1,0.605409622,1,-0.108731985,1,-0.396277905,1
2.163990736,-4.857615471,1,-3.810081959,1,-7.920259953,1,-0.087356173,1,-0.190937713,1,0.276124418,1,0.428677797,1,-0.524310946,1,-0.527867317,1,0.038497448,1,-0.290869713,1,-0.219941616,1
2.167992353,-4.539721489,1,-4.352442741,1,-7.932454109,1,-0.105430797,1,-0.16891177,1,0.291325837,1,0.427853227,1,-0.525447667,1,-0.52699393,1,0.366012096,1,-0.841892481,1,-0.234305382,1
2.171989918,-4.896935463,1,-3.281510353,1,-7.567765236,1,-0.117551245,1,-0.208678663,1,0.277326494,1,0.426972777,1,-0.526616514,1,-0.526147902,1,0.018684387,1,0.21988225,1,0.128243923,1
2.175989389,-5.305479527,1,-3.932364941,1,-7.800187588,1,-0.120070621,1,-0.196614251,1,0.289893508,1,0.426137686,1,-0.527868271,1,-0.52538681,1,-0.379280567,1,-0.439944744,1,-0.106862545,1
2.179991007,-4.821125984,1,-3.465598822,1,-8.323581696,1,-0.112926811,1,-0.228291079,1,0.280970037,1,0.425271958,1,-0.529097199,1,-0.524593651,1,0.115453243,1,0.017657518,1,-0.632760048,1
2.183988571,-5.684117317,1,-3.387309551,1,-8.273604393,1,-0.105338849,1,-0.205652058,1,0.286243021,1,0.424449682,1,-0.530358076,1,-0.523825765,1,-0.736896992,1,0.087055683,1,-0.585599422,1
2.187988043,-4.490198135,1,-3.303090572,1,-8.057471275,1,-0.102973901,1,-0.197117776,1,0.276931822,1,0.423603296,1,-0.531516731,1,-0.522973478,1,0.466794491,1,0.162408113,1,-0.371758461,1
2.191989422,-5.156545162,1,-3.901529789,1,-7.761711597,1,-0.117007747,1,-0.210814878,1,0.271767348,1,0.422773272,1,-0.532730162,1,-0.522211075,1,-0.189325809,1,-0.444881916,1,-0.078615665,1
2.195987225,-4.671868801,1,-3.786100388,1,-7.788132668,1,-0.127630845,1,-0.181909099,1,0.266817749,1,0.421871603,1,-0.53388983,1,-0.521412551,1,0.30511713,1,-0.338742495,1,-0.107183933,1
2.199986696,-5.39263773,1,-3.854487658,1,-7.606165886,1,-0.147961766,1,-0.198445544,1,0.260633856,1,0.420940816,1,-0.535039604,1,-0.520664513,1,-0.405974865,1,-0.41662097,1,0.072760582,1
2.203988075,-5.026215076,1,-3.691011667,1,-7.448225021,1,-0.155411825,1,-0.166025028,1,0.259314537,1,0.419929594,1,-0.536130548,1,-0.519885838,1,-0.030376911,1,-0.263131857,1,0.229202271,1
2.207991838,-5.360101223,1,-3.701727629,1,-7.574698448,1,-0.167926088,1,-0.184581771,1,0.238416359,1,0.418932796,1,-0.537179708,1,-0.519179285,1,-0.355444908,1,-0.283636332,1,0.101349354,1
2.211991787,-5.020647049,1,-3.616757154,1,-7.602300167,1,-0.16980511,1,-0.148479909,1,0.243576527,1,0.417879641,1,-0.538186193,1,-0.518454373,1,-0.007535458,1,-0.20879674,1,0.072738171,1
2.215993166,-5.4686656,1,-3.656880617,1,-7.610778332,1,-0.15804702,1,-0.15677014,1,0.234752163,1,0.416863561,1,-0.539144695,1,-0.517757475,1,-0.447507381,1,-0.258668423,1,0.063319683,1
2.21999073,-5.11157608,1,-3.666744232,1,-7.470615387,1,-0.144746929,1,-0.112739801,1,0.24273257,1,0.4158445,1,-0.540023923,1,-0.516977251,1,-0.083040714,1,-0.278138638,1,0.202900887,1
2.223989964,-5.475690842,1,-3.591945887,1,-7.481927872,1,-0.123778827,1,-0.127489731,1,0.237487197,1,0.414904684,1,-0.540857315,1,-0.516191006,1,-0.440166473,1,-0.212244511,1,0.190930367,1
2.227991343,-5.532450199,1,-3.46665144,1,-7.355054379,1,-0.108304091,1,-0.076361343,1,0.245438039,1,0.414006531,1,-0.541629016,1,-0.515346706,1,-0.490457535,1,-0.095406055,1,0.317278385,1
2.231988668,-5.207355022,1,-3.117838621,1,-7.62432909,1,-0.089611217,1,-0.109226011,1,0.218137726,1,0.413210332,1,-0.542343378,1,-0.514549732,1,-0.159376621,1,0.245848894,1,0.047382355,1
2.23598814,-5.667134285,1,-3.224761248,1,-7.675797462,1,-0.084746853,1,-0.092564017,1,0.22391127,1,0.412488312,1,-0.543074429,1,-0.513807297,1,-0.613033772,1,0.131906986,1,-0.005039692,1
2.239989758,-4.777490616,1,-2.902677059,1,-7.901120663,1,-0.062493045,1,-0.104983971,1,0.197617412,1,0.411818117,1,-0.543739438,1,-0.513067901,1,0.282176971,1,0.447502136,1,-0.231199265,1
2.24398756,-5.280537128,1,-3.136496067,1,-7.667107582,1,-0.053128287,1,-0.104567081,1,0.190090314,1,0.411260635,1,-0.544448614,1,-0.512440681,1,-0.214935303,1,0.207972288,1,0.001391411,1
2.247987032,-5.422574043,1,-3.231548548,1,-7.542418957,1,-0.04640463,1,-0.080033302,1,0.199255854,1,0.41071409,1,-0.545121253,1,-0.511769712,1,-0.351346016,1,0.107367992,1,0.124783039,1
2.251988411,-5.115202427,1,-3.336365938,1,-7.812797546,1,-0.0396768,1,-0.1166417,1,0.179913908,1,0.410231084,1,-0.545771062,1,-0.511154652,1,-0.03854084,1,-0.00246954,1,-0.14701128,1
2.255985975,-5.079712391,1,-3.147951365,1,-7.769016743,1,-0.029420428,1,-0.113342777,1,0.177313954,1,0.409802765,1,-0.546477377,1,-0.510607958,1,0.002851963,1,0.181232214,1,-0.105092049,1
2.259985447,-4.277197361,1,-2.872068882,1,-7.937045574,1,-0.011448659,1,-0.103391446,1,0.167581931,1,0.409405649,1,-0.547151864,1,-0.510019302,1,0.811001778,1,0.452704191,1,-0.274948597,1
2.263986826,-5.082670212,1,-2.934454203,1,-7.912591457,1,-0.003258697,1,-0.137224853,1,0.15822418,1,0.409148365,1,-0.547869503,1,-0.509563088,1,0.011521339,1,0.386894941,1,-0.252990246,1
2.267984629,-5.03202343,1,-3.091857195,1,-7.949769974,1,0.015711507,1,-0.143015459,1,0.154480085,1,0.408969462,1,-0.548627555,1,-0.509157896,1,0.06849575,1,0.226586103,1,-0.293118477,1
2.2719841,-4.259318829,1,-3.050325871,1,-7.701301098,1,0.027971717,1,-0.132614732,1,0.142689601,1,0.408826113,1,-0.549392641,1,-0.508733511,1,0.847583294,1,0.265465736,1,-0.047759533,1
2.275985718,-5.295632362,1,-3.224659681,1,-7.797599792,1,0.037287891,1,-0.170232892,1,0.130335897,1,0.408809602,1,-0.550183833,1,-0.508443832,1,-0.182132244,1,0.089398384,1,-0.147714138,1
2.279983044,-5.136454582,1,-3.332048655,1,-7.781071186,1,0.044617612,1,-0.163551047,1,0.120652542,1,0.408854842,1,-0.550991416,1,-0.508226275,1,-0.016223431,1,-0.019286156,1,-0.135124683,1
2.283988714,-4.748896122,1,-3.200703859,1,-7.550359726,1,0.048360057,1,-0.149153337,1,0.117955096,1,0.408909917,1,-0.551779091,1,-0.507983327,1,0.377896786,1,0.110876083,1,0.091703892,1
2.28799057,-5.269500256,1,-3.2593472,1,-7.752144814,1,0.057934433,1,-0.185982615,1,0.097179614,1,0.409058571,1,-0.55257684,1,-0.507861674,1,-0.136065483,1,0.051739454,1,-0.114331722,1
2.291988134,-5.154148579,1,-3.317295551,1,-7.737570286,1,0.056866884,1,-0.172677323,1,0.089088738,1,0.409254372,1,-0.553380489,1,-0.507794201,1,-0.014024734,1,-0.006356239,1,-0.104192734,1
2.295987606,-5.696833134,1,-3.380843878,1,-7.772853374,1,0.059062399,1,-0.17841804,1,0.097106166,1,0.409459293,1,-0.554170489,1,-0.507744133,1,-0.550137997,1,-0.069957733,1,-0.143880844,1
2.299988985,-4.609270573,1,-3.200098038,1,-7.940044403,1,0.068991877,1,-0.180651218,1,0.065451898,1,0.409692198,1,-0.554920197,1,-0.507696569,1,0.543658733,1,0.111026049,1,-0.315386772,1
2.303986788,-5.341045856,1,-3.250143528,1,-7.627315044,1,0.074085526,1,-0.189099848,1,0.056181215,1,0.410030365,1,-0.555716574,1,-0.507783651,1,-0.181498528,1,0.06192255,1,-0.007542133,1
2.307986259,-5.256887913,1,-3.254344225,1,-7.647091389,1,0.084338725,1,-0.186660975,1,0.05200018,1,0.410402358,1,-0.556485236,1,-0.507898211,1,-0.090956211,1,0.058974028,1,-0.032186985,1
2.311987638,-5.367212296,1,-3.337278843,1,-7.603400707,1,0.092142843,1,-0.187615186,1,0.045211874,1,0.410831124,1,-0.557248235,1,-0.508052588,1,-0.194945335,1,-0.02227211,1,0.006464005,1
2.315985441,-4.242639065,1,-3.343420744,1,-7.541265965,1,0.096832819,1,-0.173874259,1,0.028849503,1,0.411262304,1,-0.557966769,1,-0.508186519,1,0.935590267,1,-0.026619434,1,0.063760281,1
2.319984913,-5.392329693,1,-3.43087244,1,-7.466610432,1,0.094824173,1,-0.194352373,1,0.023723116,1,0.411776483,1,-0.558698118,1,-0.508434832,1,-0.208033562,1,-0.11167717,1,0.133238316,1
2.323986292,-5.381851673,1,-3.459988117,1,-7.497411251,1,0.095480405,1,-0.179214388,1,0.020421024,1,0.412293166,1,-0.55940932,1,-0.508701205,1,-0.191658497,1,-0.13834548,1,0.097340107,1
2.327983618,-5.299784184,1,-3.551030874,1,-7.490123749,1,0.081761859,1,-0.175857037,1,0.017556725,1,0.412794113,1,-0.560091913,1,-0.508958042,1,-0.103934288,1,-0.227006674,1,0.099714279,1
2.331983089,-6.109530449,1,-3.77575779,1,-7.427773476,1,0.061664265,1,-0.150577143,1,0.055022236,1,0.413179874,1,-0.560758293,1,-0.509129345,1,-0.908159733,1,-0.450196981,1,0.157609463,1
2.335984707,-5.045359135,1,-3.703930616,1,-7.653639317,1,0.057793513,1,-0.169626132,1,0.03479445,1,0.413475752,1,-0.561380029,1,-0.50924629,1,0.161159992,1,-0.377425432,1,-0.072203159,1
2.339982271,-5.258472443,1,-3.927336454,1,-7.443499565,1,0.034608569,1,-0.154517382,1,0.043097042,1,0.413473904,1,-0.562146962,1,-0.508707404,1,-0.045605659,1,-0.602450848,1,0.134283543,1
2.343981743,-5.166179657,1,-3.893167019,1,-7.462350368,1,0.02496299,1,-0.151489347,1,0.057834323,1,0.413623333,1,-0.562787056,1,-0.50877583,1,0.051983356,1,-0.56848979,1,0.111880779,1
2.34798336,-4.58332777,1,-3.871296167,1,-7.286465168,1,0.002930657,1,-0.125371024,1,0.070478573,1,0.413639426,1,-0.563418627,1,-0.508729279,1,0.640058041,1,-0.547823429,1,0.284690857,1
2.351980686,-5.282660007,1,-3.822875023,1,-7.540468693,1,-0.012082146,1,-0.155305699,1,0.065301545,1,0.413633823,1,-0.564057231,1,-0.508724511,1,-0.053994656,1,-0.500785828,1,0.027650833,1
2.355980396,-5.293104172,1,-3.718003273,1,-7.573044777,1,-0.019166961,1,-0.145747378,1,0.075593866,1,0.413562179,1,-0.564710498,1,-0.508708537,1,-0.059041023,1,-0.397829056,1,-0.007814407,1
2.359982014,-4.309074879,1,-3.542301893,1,-7.610492706,1,-0.025507715,1,-0.136515543,1,0.072156511,1,0.413416684,1,-0.565337896,1,-0.508621514,1,0.930170536,1,-0.224550009,1,-0.047792435,1
2.3639853,-5.227195263,1,-3.546103239,1,-7.654305935,1,-0.030184438,1,-0.154537067,1,0.067437679,1,0.413308561,1,-0.565998077,1,-0.508610487,1,0.017501354,1,-0.230557919,1,-0.09441328,1
2.367985249,-5.706825733,1,-3.668070316,1,-7.70089817,1,-0.041526943,1,-0.146087974,1,0.088663727,1,0.413149983,1,-0.566666842,1,-0.508579373,1,-0.456609726,1,-0.355132341,1,-0.14369297,1
2.371986628,-4.752872467,1,-3.416141272,1,-7.881237984,1,-0.038208116,1,-0.162161723,1,0.068351366,1,0.412961781,1,-0.567328274,1,-0.508520007,1,0.502799988,1,-0.106019497,1,-0.326591015,1
2.375984192,-5.295803547,1,-3.553289413,1,-7.621090889,1,-0.052253287,1,-0.162521929,1,0.072489679,1,0.412791967,1,-0.568048835,1,-0.508535743,1,-0.034188747,1,-0.245972633,1,-0.069357395,1
2.379983664,-4.617587566,1,-3.471470833,1,-7.545982361,1,-0.055860687,1,-0.146339238,1,0.080735676,1,0.412532091,1,-0.568736792,1,-0.508464456,1,0.649697781,1,-0.167567968,1,0.003294468,1
2.383985043,-5.273383617,1,-3.618923426,1,-7.572834015,1,-0.073906563,1,-0.171135366,1,0.079955645,1,0.41226697,1,-0.569446862,1,-0.508437395,1,-0.000248432,1,-0.318521261,1,-0.026109219,1
2.387982607,-5.305833817,1,-3.848156691,1,-7.42842865,1,-0.102414638,1,-0.148447081,1,0.097075813,1,0.411869854,1,-0.570182621,1,-0.508361399,1,-0.026639938,1,-0.55230689,1,0.116046906,1
2.391982079,-5.282987595,1,-3.884238005,1,-7.450649738,1,-0.118932873,1,-0.169924304,1,0.09342014,1,0.411375135,1,-0.570920348,1,-0.508260965,1,0.002278805,1,-0.593678474,1,0.09188509,1
2.395983458,-5.254470825,1,-3.926726341,1,-7.251247883,1,-0.145705491,1,-0.145865753,1,0.114305697,1,0.410749644,1,-0.57167834,1,-0.508102953,1,0.037030697,1,-0.642484665,1,0.289670944,1
2.399980783,-5.462483883,1,-3.786199808,1,-7.29142189,1,-0.163445964,1,-0.146027192,1,0.117078841,1,0.410027504,1,-0.572390974,1,-0.507893085,1,-0.165122032,1,-0.508910656,1,0.248402119,1
2.403980255,-5.270008087,1,-3.630731344,1,-7.30117321,1,-0.175355196,1,-0.118660308,1,0.115773343,1,0.409193575,1,-0.573067904,1,-0.507616818,1,0.032917976,1,-0.361157179,1,0.238092422,1
2.407981634,-5.537894249,1,-3.333273172,1,-7.319991589,1,-0.180228993,1,-0.112796694,1,0.122874036,1,0.408312589,1,-0.573687375,1,-0.507317603,1,-0.229878426,1,-0.071648121,1,0.219133377,1
2.411979198,-5.122720242,1,-3.152701855,1,-7.542236805,1,-0.179642454,1,-0.100792862,1,0.114935167,1,0.407406092,1,-0.574260116,1,-0.506978631,1,0.18999958,1,0.100883722,1,-0.002948284,1
2.41597867,-5.516260147,1,-2.987341166,1,-7.492286205,1,-0.168374091,1,-0.097279914,1,0.117308505,1,0.406541497,1,-0.574810445,1,-0.50666976,1,-0.19902277,1,0.258568525,1,0.047126293,1
2.419980049,-5.210459232,1,-2.927016973,1,-7.619107246,1,-0.15403074,1,-0.086566009,1,0.108811051,1,0.405716419,1,-0.575318933,1,-0.50633049,1,0.110952377,1,0.311602354,1,-0.079506874,1
2.423977375,-5.504296303,1,-3.012925386,1,-7.584828854,1,-0.143787682,1,-0.086479619,1,0.107606694,1,0.404950917,1,-0.575819075,1,-0.506030202,1,-0.178781509,1,0.218873262,1,-0.04519701,1
2.427976608,-5.071909904,1,-2.984835863,1,-7.648683071,1,-0.13129577,1,-0.089395046,1,0.098935813,1,0.404237211,1,-0.576301992,1,-0.505728364,1,0.257565498,1,0.240567923,1,-0.10911417,1
2.431978226,-5.410274506,1,-3.164633512,1,-7.604266644,1,-0.112089433,1,-0.089783184,1,0.096562639,1,0.403618187,1,-0.576785445,1,-0.505473495,1,-0.076835632,1,0.055091143,1,-0.065070629,1
2.43597579,-4.872391224,1,-3.03700614,1,-7.704143047,1,-0.096462965,1,-0.092264406,1,0.09316352,1,0.403049171,1,-0.577260613,1,-0.505203724,1,0.464942455,1,0.177433729,1,-0.165447712,1
2.439975262,-5.264201164,1,-3.103016376,1,-7.72928524,1,-0.083230786,1,-0.107135907,1,0.092725188,1,0.402572095,1,-0.577785075,1,-0.504990757,1,0.077429771,1,0.106728554,1,-0.191636086,1
2.443982601,-5.458364487,1,-3.356262445,1,-7.563517094,1,-0.080043621,1,-0.093093842,1,0.107012771,1,0.402114093,1,-0.578319967,1,-0.504738152,1,-0.112351894,1,-0.151088715,1,-0.027029037,1
2.447985888,-5.185999393,1,-3.482024193,1,-7.620578766,1,-0.072009675,1,-0.113489948,1,0.096888706,1,0.401694864,1,-0.578854203,1,-0.504500329,1,0.16438818,1,-0.281127214,1,-0.08537674,1
2.451985359,-5.471101284,1,-3.533440828,1,-7.574723244,1,-0.078513622,1,-0.109589554,1,0.110579044,1,0.401258111,1,-0.579432845,1,-0.504258275,1,-0.115977764,1,-0.337043762,1,-0.040973663,1
2.455986977,-4.702030659,1,-3.363216639,1,-7.514574051,1,-0.074648902,1,-0.097319447,1,0.114475936,1,0.400767297,1,-0.579978466,1,-0.503918409,1,0.657557487,1,-0.171659708,1,0.018048763,1
2.459984541,-5.373591423,1,-3.346538067,1,-7.498692036,1,-0.071460955,1,-0.107094504,1,0.112153515,1,0.400310516,1,-0.580543995,1,-0.503619671,1,-0.009377956,1,-0.159603119,1,0.032597065,1
2.463984013,-5.742650986,1,-3.276641846,1,-7.59803915,1,-0.073664382,1,-0.103912108,1,0.127029672,1,0.399838835,1,-0.581118107,1,-0.503305256,1,-0.37374258,1,-0.094458818,1,-0.06808567,1
2.46798563,-4.578215122,1,-2.964522362,1,-7.727623463,1,-0.065553002,1,-0.093896955,1,0.1130924,1,0.399340868,1,-0.581636846,1,-0.502916098,1,0.794932365,1,0.212825537,1,-0.198656559,1
2.471983194,-5.53078413,1,-2.844972372,1,-7.654517174,1,-0.057980251,1,-0.109817356,1,0.104485802,1,0.398945779,1,-0.582188547,1,-0.502642989,1,-0.153128624,1,0.328249931,1,-0.127026081,1
2.475982666,-5.332543373,1,-2.742328167,1,-7.564860821,1,-0.0418658,1,-0.088827737,1,0.110198937,1,0.398571849,1,-0.582730293,1,-0.502337277,1,0.049536705,1,0.426949263,1,-0.03886652,1
2.479984045,-5.357470512,1,-2.758844852,1,-7.812427044,1,-0.026768701,1,-0.121370569,1,0.091138609,1,0.398302019,1,-0.583269298,1,-0.502097845,1,0.029010773,1,0.407274485,1,-0.288256168,1
2.483981609,-5.196054935,1,-3.015659332,1,-7.829485893,1,-0.017970914,1,-0.128570035,1,0.090585731,1,0.398115218,1,-0.583868861,1,-0.501934826,1,0.195319176,1,0.14780283,1,-0.30769968,1
2.487981081,-4.926700592,1,-3.081594467,1,-7.527237415,1,-0.014744921,1,-0.116629101,1,0.110514611,1,0.397906601,1,-0.584496915,1,-0.501703918,1,0.469797611,1,0.078985929,1,-0.007914066,1
2.491982698,-5.214420795,1,-3.195881605,1,-7.798928261,1,-0.003494389,1,-0.155796885,1,0.092279024,1,0.397792816,1,-0.585163236,1,-0.501535773,1,0.187511444,1,-0.03755188,1,-0.282565117,1
2.495980263,-5.201776505,1,-3.442121744,1,-7.807535648,1,0.006115682,1,-0.160109341,1,0.102995224,1,0.397717774,1,-0.585908651,1,-0.501392305,1,0.206231117,1,-0.285916328,1,-0.294649601,1
2.499979734,-5.075127125,1,-3.474145651,1,-7.465632439,1,0.006824634,1,-0.154410258,1,0.138905868,1,0.397586226,1,-0.586698472,1,-0.501131535,1,0.339314938,1,-0.32058239,1,0.043729782,1
2.503981352,-5.255728245,1,-3.426797867,1,-7.778220177,1,0.019520059,1,-0.19377026,1,0.128259435,1,0.397516429,1,-0.587543786,1,-0.500891149,1,0.165596485,1,-0.275532961,1,-0.272863388,1
2.507979155,-5.152010918,1,-3.491399527,1,-7.762234211,1,0.019103041,1,-0.202696264,1,0.142942846,1,0.397473186,1,-0.588489056,1,-0.500674725,1,0.277006149,1,-0.342443228,1,-0.261467457,1
2.511978865,-5.958527565,1,-3.505006313,1,-7.913017273,1,0.022800637,1,-0.209749743,1,0.182961956,1,0.397390217,1,-0.589494586,1,-0.500355482,1,-0.521333694,1,-0.358785868,1,-0.417024136,1
2.515980005,-4.64305687,1,-3.275173426,1,-7.957630634,1,0.041292094,1,-0.221479028,1,0.158256531,1,0.397305727,1,-0.590524018,1,-0.499983221,1,0.802503586,1,-0.131754398,1,-0.466538906,1
2.519983292,-5.267745972,1,-3.396527767,1,-7.868176937,1,0.037732694,1,-0.25151816,1,0.169755951,1,0.397312462,1,-0.591659188,1,-0.499706507,1,0.1870327,1,-0.255453587,1,-0.382813931,1
2.523982763,-5.256924152,1,-3.317770004,1,-7.76737833,1,0.05346971,1,-0.260800332,1,0.177198142,1,0.397328198,1,-0.592862368,1,-0.499413073,1,0.20761776,1,-0.179118156,1,-0.288117886,1
2.527984619,-4.373737335,1,-3.226793051,1,-7.669427395,1,0.060251787,1,-0.255186975,1,0.184849381,1,0.397330701,1,-0.594117343,1,-0.499042541,1,1.100979328,1,-0.090778828,1,-0.196504593,1
2.531982422,-5.323354244,1,-3.135455847,1,-7.8971138,1,0.075795546,1,-0.298823476,1,0.181302235,1,0.397449553,1,-0.595425367,1,-0.498754561,1,0.161958694,1,-0.001327991,1,-0.431173325,1
2.535981894,-5.154595375,1,-3.214054585,1,-7.917122364,1,0.082911268,1,-0.306665778,1,0.185817465,1,0.397614151,1,-0.596824408,1,-0.498491913,1,0.342040062,1,-0.081674099,1,-0.458783627,1
2.539983273,-5.267220497,1,-3.034483194,1,-7.919730186,1,0.095384434,1,-0.329374433,1,0.191351816,1,0.397826731,1,-0.598293066,1,-0.498245686,1,0.241289616,1,0.096351624,1,-0.469508171,1
2.543981075,-6.177599907,1,-2.994901419,1,-8.094609261,1,0.105533361,1,-0.336914569,1,0.215709507,1,0.39808321,1,-0.599833131,1,-0.49797982,1,-0.656650543,1,0.134552956,1,-0.653017521,1
