Time,inertial-6253.76535:scaledAccelX,inertial-6253.76535:scaledAccelY,inertial-6253.76535:scaledAccelZ,inertial-6253.76535:scaledGyroX,inertial-6253.76535:scaledGyroY,inertial-6253.76535:scaledGyroZ,inertial-6253.76535:scaledMagX,inertial-6253.76535:scaledMagY,inertial-6253.76535:scaledMagZ,inertial-6253.76535:roll,inertial-6253.76535:pitch,inertial-6253.76535:yaw
0,-0.531055808,-0.268214941,-0.805006266,0.00232858,-0.001313694,0.005280786,0.430275172,0.11037489,0.23146984,0.316875666,-0.568020642,-0.153480262
0.005003264,-0.532822967,-0.266575009,-0.804327726,0.000140347,-0.00151568,0.003730823,0.430293024,0.110365815,0.231654137,0.316868097,-0.568025112,-0.153433651
0.010001664,-0.531988382,-0.266602904,-0.804987252,-0.000676005,0.000304245,0.004949543,0.430471331,0.110355355,0.231259018,0.316857994,-0.568013251,-0.153382331
0.015001088,-0.532629728,-0.265487999,-0.806949615,0.000738308,0.001216275,0.004865022,0.430782825,0.110339768,0.230493695,0.316836923,-0.568004251,-0.153333619
0.020001279,-0.530647159,-0.264150262,-0.806101561,-0.000528226,0.00174659,0.007063467,0.43088612,0.110334598,0.230239928,0.316805214,-0.568001211,-0.153272986
0.025008639,-0.532694638,-0.260913372,-0.80577141,0.000375178,0.002146827,0.005933282,0.430965602,0.110330626,0.230044663,0.316784143,-0.567988753,-0.153233185
0.030010881,-0.531205416,-0.262065053,-0.803669333,0.000766223,0.004621546,0.006489305,0.430991948,0.110329315,0.229979917,0.316762805,-0.567964911,-0.153169617
0.035008512,-0.529585779,-0.261735052,-0.804814219,0.002292671,0.002432459,0.005365627,0.430345029,0.11034064,0.229880586,0.31675756,-0.567944884,-0.153131828
0.040006656,-0.528117239,-0.264674455,-0.807020664,0.001658518,0.001271125,0.005720569,0.430130541,0.110344395,0.229847655,0.316745192,-0.567924857,-0.153079689
0.045006081,-0.530449688,-0.265234947,-0.808332264,0.001611587,0.00075106,0.005289478,0.429965466,0.110347286,0.229822308,0.316739559,-0.567917049,-0.153037995
0.05000627,-0.529953063,-0.266442895,-0.808571339,0.001815587,-0.000277107,0.003390341,0.429910749,0.11034824,0.229813904,0.316744506,-0.56790489,-0.153000727
0.055007745,-0.529308915,-0.266817033,-0.808727324,0.001901408,-0.001900202,0.003937536,0.429970056,0.110101186,0.230746672,0.31674701,-0.567896843,-0.152952835
0.060004354,-0.52834022,-0.26540333,-0.808692753,0.003673113,-0.000650626,0.004535655,0.430014819,0.109957956,0.231288373,0.31675303,-0.567891657,-0.152907446
0.065001726,-0.530339539,-0.266456902,-0.809749246,0.001399604,-0.004066476,0.005428368,0.43004927,0.109847754,0.231705174,0.316748798,-0.567899227,-0.152856693
0.070000127,-0.528691113,-0.268015414,-0.809268177,0.001522698,-0.004333992,0.006389848,0.430060655,0.109811217,0.231843382,0.316753566,-0.567909062,-0.152795106
0.074999295,-0.531283319,-0.266702741,-0.8068645,0.001762936,-0.005573987,0.005912744,0.430070817,0.10980615,0.231309965,0.316751242,-0.567928731,-0.152748093
0.079999745,-0.530099571,-0.265224993,-0.807187378,0.001965439,-0.006749311,0.007727547,0.430075556,0.10982772,0.230487943,0.316745341,-0.567959666,-0.152698964
0.085006848,-0.530716658,-0.265567034,-0.806422353,0.001465814,-0.006951098,0.007025856,0.430079192,0.109844305,0.229855463,0.31674093,-0.567989349,-0.152654231
0.090009347,-0.532648444,-0.263769865,-0.806217134,0.001017516,-0.007655446,0.006845607,0.430080414,0.109849803,0.229645744,0.31673336,-0.568025351,-0.152611554
0.095006973,-0.532803595,-0.264462054,-0.805181146,-0.001008317,-0.00592293,0.008081456,0.430081338,0.109854043,0.229484379,0.316701502,-0.568049669,-0.152554527
0.100005373,-0.532194376,-0.264235079,-0.80554992,0.000357432,-0.006050535,0.00641203,0.430475593,0.110213295,0.230451405,0.31669274,-0.568080842,-0.152516067
0.105004542,-0.532041609,-0.262064755,-0.803670943,0.001407038,-0.004889758,0.007917172,0.43077895,0.110489719,0.231195465,0.316678733,-0.568110287,-0.152467385
0.110011138,-0.529316545,-0.26242128,-0.805815101,0.001281605,-0.005904045,0.006299149,0.430879533,0.110581376,0.231442183,0.316664845,-0.568126857,-0.152433947
0.115012862,-0.529045641,-0.263254881,-0.806475997,0.001581722,-0.005628425,0.007737785,0.43095693,0.110651895,0.231632009,0.31665343,-0.568150043,-0.152379364
0.120009728,-0.529040277,-0.261091024,-0.805502295,0.001425615,-0.003962834,0.006423041,0.430785745,0.110559657,0.231273785,0.3166399,-0.568157256,-0.152348861
0.125007108,-0.529863417,-0.260810912,-0.807321012,0.002905563,-0.005499445,0.004508735,0.430454969,0.110371783,0.230572268,0.316643119,-0.568176866,-0.152327627
0.130004987,-0.530596435,-0.259717673,-0.806068242,0.00357195,-0.00526674,0.00490414,0.430345297,0.110309489,0.230339661,0.31663841,-0.568200707,-0.152297914
0.135004163,-0.530816495,-0.26038447,-0.804394901,0.005122098,-0.005758494,0.00552874,0.430260897,0.110261552,0.230160683,0.316651344,-0.568229079,-0.152266338
0.140004352,-0.531451702,-0.261884451,-0.805757105,0.004463952,-0.006208436,0.003844753,0.430232912,0.110245652,0.230101332,0.316661239,-0.568248689,-0.152248874
0.145011708,-0.531796455,-0.264052868,-0.806857049,0.00458525,-0.006106505,0.003818349,0.430278063,0.110296905,0.229741901,0.316683054,-0.56826061,-0.15222466
0.150013953,-0.530714452,-0.265128076,-0.808033586,0.005718189,-0.004837783,0.002494141,0.430293024,0.1103139,0.229622722,0.316709101,-0.568268657,-0.152202338
0.155011579,-0.530627906,-0.264604032,-0.806017756,0.004501741,-0.003118452,0.002401125,0.430304557,0.110326976,0.22953102,0.316726476,-0.568274319,-0.152176455
0.160009727,-0.53102082,-0.263591021,-0.80505842,0.005751187,-0.004702297,0.00169733,0.430308372,0.110331304,0.229500622,0.31676209,-0.568284929,-0.152170569
0.165008903,-0.532761335,-0.26259464,-0.805024326,0.003171769,-0.004754665,0.003887866,0.430110872,0.110288501,0.229575485,0.316767335,-0.568304956,-0.152139232
0.170009091,-0.533601761,-0.264597178,-0.805729926,0.003001562,-0.003878468,0.002237714,0.429995775,0.110262893,0.229624629,0.31678918,-0.568311393,-0.152124196
0.175010562,-0.531823099,-0.263839751,-0.806180596,0.00306402,-0.003753214,0.002598114,0.429907233,0.110243186,0.229662433,0.316796005,-0.568321824,-0.152100533
0.180007175,-0.533898413,-0.263646185,-0.803398788,0.004104765,-0.002042338,0.002023397,0.429877847,0.110236652,0.22967498,0.316817015,-0.568328857,-0.152081653
0.185004547,-0.532954395,-0.262336165,-0.80460155,0.004733012,0.000156406,0.00111509,0.429882109,0.110346906,0.229709446,0.316831499,-0.568313897,-0.152063519
0.190002695,-0.532547474,-0.26124841,-0.805786371,0.004189477,-0.000567749,0.002072118,0.42991057,0.110499702,0.229745895,0.316839039,-0.568310857,-0.152043968
0.195002109,-0.53182447,-0.262587696,-0.805297017,0.005160326,0.002597233,-7.91E-05,0.429932475,0.110617273,0.229773939,0.31686461,-0.568281174,-0.152023584
0.200002298,-0.533413947,-0.264436781,-0.805520356,0.006701493,0.001552124,-0.000846895,0.429939717,0.110656254,0.229783252,0.31689766,-0.568263352,-0.152019396
0.205003783,-0.532398939,-0.267089784,-0.80599755,0.005271149,0.001992583,-0.000795148,0.42994529,0.110686243,0.229790404,0.31693536,-0.568239033,-0.15200834
0.210006267,-0.532846749,-0.266993016,-0.805249572,0.004387565,0.001840798,-0.000504958,0.430450886,0.110633016,0.229502186,0.316959739,-0.568220496,-0.151987046
0.215003908,-0.532572329,-0.262922972,-0.805548847,0.004124786,0.002901404,-0.000668262,0.430839896,0.11059206,0.229280427,0.316973329,-0.56819433,-0.15197739
0.220002308,-0.530765057,-0.260424495,-0.806483209,0.004819203,0.003266794,-0.00095653,0.430968881,0.110578477,0.229206905,0.316991866,-0.568164349,-0.151972488
0.225001469,-0.531568468,-0.26312238,-0.805301547,0.00654274,0.003465777,-0.001643376,0.431068122,0.110568032,0.229150325,0.317025959,-0.568132281,-0.151965261
0.230001926,-0.530226469,-0.262827486,-0.807153106,0.007596096,0.002459947,-0.001586958,0.430787265,0.110488094,0.229591489,0.317062616,-0.568100631,-0.15195705
0.235003397,-0.531468749,-0.260205507,-0.805507421,0.008334864,0.001966387,-0.001769829,0.430253893,0.110349253,0.230395973,0.317104876,-0.568073571,-0.151956409
0.240000263,-0.530021667,-0.263519645,-0.808050931,0.010164045,-0.000114359,-0.002825883,0.430077046,0.110303216,0.230662733,0.317165822,-0.568041682,-0.151956365
0.244997382,-0.53043288,-0.263952851,-0.808001697,0.010717362,-3.73E-06,-0.0037087,0.429940969,0.110267796,0.230867967,0.317228913,-0.568013251,-0.151969567
0.249995783,-0.529305458,-0.263827175,-0.808705866,0.010414737,-0.002901711,-0.00402467,0.429895848,0.110256054,0.230936036,0.317290246,-0.568001926,-0.151975229
0.254995197,-0.531131804,-0.264481008,-0.807051718,0.014173375,-0.002905094,-0.005320461,0.429795504,0.110309079,0.230240792,0.317381859,-0.567989111,-0.152000993
0.259995639,-0.531081915,-0.264733732,-0.806034863,0.012681795,-0.001663988,-0.00417904,0.429762244,0.110326663,0.230010271,0.317455262,-0.567976058,-0.152010694
0.265002996,-0.530703008,-0.262290806,-0.804968655,0.012443717,-0.001930382,-0.002866332,0.429736644,0.110340185,0.229832888,0.317527622,-0.567972243,-0.152024448
0.270005763,-0.529635727,-0.261681139,-0.806017518,0.012850055,-0.000219423,-0.004491145,0.42972815,0.110344671,0.229774073,0.317596138,-0.567950726,-0.152037233
0.275003642,-0.530845761,-0.264218807,-0.807128727,0.014146834,-0.002885282,-0.003476096,0.429871261,0.110445686,0.229584038,0.317678809,-0.567943394,-0.152048245
0.280002058,-0.530716538,-0.266305953,-0.807543337,0.013408296,-0.00155856,-0.004590363,0.429955751,0.110503323,0.229485214,0.317764819,-0.567932606,-0.152060255
0.285001487,-0.531068444,-0.268534273,-0.80933249,0.013227294,-0.00195478,-0.003170693,0.43002075,0.110547677,0.229409158,0.317840695,-0.567923844,-0.152052969
0.290001661,-0.531393409,-0.270129055,-0.807047129,0.010527398,-0.002955073,-0.000528326,0.430042297,0.110562384,0.229383945,0.317909926,-0.567918777,-0.152035758
0.295003146,-0.530694783,-0.270657152,-0.807618618,0.009509049,-0.004762096,0.002082875,0.430030435,0.110574007,0.229338452,0.317955911,-0.567928851,-0.15200527
0.299999744,-0.531625569,-0.269849658,-0.806682885,0.006149835,-0.005429536,0.002732467,0.429997802,0.110578172,0.229297042,0.31799224,-0.567944705,-0.151976734
0.304997385,-0.531002343,-0.268586904,-0.808017671,0.005722588,-0.004338744,0.003029939,0.429972708,0.110581376,0.229265183,0.318022847,-0.567949831,-0.151951715
0.310001671,-0.529463351,-0.266936362,-0.806675851,0.004993567,-0.00519638,0.00328114,0.429964393,0.110582441,0.229254618,0.318040252,-0.567967236,-0.151919976
0.315001339,-0.529386759,-0.264517248,-0.804179132,0.00360585,-0.005954074,0.005295931,0.429957986,0.110583261,0.229246497,0.318043113,-0.567992032,-0.15188852
0.320001781,-0.530398786,-0.266503036,-0.806338906,0.003332384,-0.007933806,0.005111009,0.429854631,0.110588051,0.229527235,0.318062484,-0.568020105,-0.151864544
0.325009406,-0.530250609,-0.265181959,-0.804991305,0.003098833,-0.008416663,0.004786387,0.429775119,0.110591732,0.229743242,0.318071634,-0.568051219,-0.151846752
0.330012172,-0.532211006,-0.264846683,-0.805481374,0.001247715,-0.008116911,0.005050982,0.429748774,0.110592954,0.229814872,0.318076074,-0.568088174,-0.151818112
0.33501029,-0.531798601,-0.263878107,-0.804270089,0.002460347,-0.006802198,0.006441427,0.429728448,0.110593893,0.229869992,0.318077922,-0.568121314,-0.15178141
0.340008706,-0.533147573,-0.26336053,-0.804388523,0.001614645,-0.006230848,0.004850545,0.429833859,0.110681117,0.230151549,0.318071544,-0.568149447,-0.151760042
0.345008373,-0.534479141,-0.261743337,-0.804639876,0.003425052,-0.005796095,0.003952321,0.430028349,0.110836118,0.230634406,0.318077326,-0.568170786,-0.151739195
0.350008845,-0.535631359,-0.261303395,-0.804241776,0.003907845,-0.004405112,0.002595973,0.430092841,0.110887513,0.230794519,0.318085432,-0.568183422,-0.151726469
0.355010301,-0.533406556,-0.262897015,-0.804274976,0.005244556,-0.002323665,0.001730546,0.430142432,0.110927053,0.230917707,0.318109453,-0.568185031,-0.151713833
0.360006899,-0.530540586,-0.263792247,-0.804276288,0.006098387,-0.000155445,0.000343168,0.430158883,0.110940166,0.230958566,0.318134725,-0.568169057,-0.151701048
0.365004539,-0.531514466,-0.26207158,-0.805254042,0.007053547,0.000189419,-0.000148916,0.430036843,0.110956825,0.231428966,0.318167627,-0.568158031,-0.151697502
0.370002955,-0.531241238,-0.262151867,-0.804257035,0.008725357,0.00071153,-9.44E-05,0.429996371,0.110962354,0.231584936,0.31820479,-0.568136692,-0.151687443
0.375002354,-0.531005323,-0.260647774,-0.802916467,0.009101811,-2.86E-05,-0.002916422,0.429965258,0.110966608,0.23170495,0.318251073,-0.568119466,-0.15170534
0.380002826,-0.532468736,-0.261753291,-0.803352952,0.009755094,3.66E-05,-0.004082516,0.429954916,0.110968016,0.231744751,0.318305671,-0.568102658,-0.151712254
0.385010183,-0.530573726,-0.262448132,-0.805056572,0.011503708,-0.000340172,-0.004112932,0.429949045,0.110962234,0.231024683,0.318380833,-0.568083704,-0.151740476
0.39001292,-0.529243231,-0.267694682,-0.804818392,0.013116562,-0.000593385,-0.003517738,0.429947615,0.110958621,0.230600178,0.318462044,-0.568062127,-0.151737973
0.395010829,-0.527870297,-0.269671917,-0.805597663,0.012445867,-0.001510647,-0.003833834,0.429946512,0.110955842,0.230273545,0.318550378,-0.568043351,-0.151744679
0.400009483,-0.529248655,-0.271446735,-0.807337105,0.011014875,-0.003193118,-0.001751638,0.429946154,0.110954918,0.230165228,0.318625122,-0.568034887,-0.151734859
0.405008882,-0.530843318,-0.273207128,-0.807282686,0.009958481,-0.002253544,0.000505379,0.430030853,0.111009613,0.229999676,0.318684042,-0.568028808,-0.151707739
0.410009354,-0.530303538,-0.270696759,-0.807095349,0.006972043,-0.005094941,0.00089745,0.430144638,0.111083627,0.229861885,0.318730056,-0.568037391,-0.15170221
0.415011078,-0.531107247,-0.271137834,-0.807804167,0.006707379,-0.005101062,0.002544711,0.430232197,0.111140564,0.229755849,0.318773419,-0.56804502,-0.151677668
0.420007944,-0.532105088,-0.269107193,-0.808693647,0.00609098,-0.006174556,0.003879043,0.430261225,0.111159444,0.229720697,0.318801671,-0.568068624,-0.151652724
0.425005555,-0.528518975,-0.27106294,-0.807092905,0.005847461,-0.006690498,0.004664227,0.430283576,0.11117398,0.229693651,0.318839967,-0.568087101,-0.151620448
0.430004209,-0.52962333,-0.272384822,-0.806068182,0.004491777,-0.008198177,0.004695308,0.430195183,0.110874146,0.229549229,0.318869472,-0.56811434,-0.151583597
0.435003638,-0.529524863,-0.268282771,-0.808781624,0.001926485,-0.009800181,0.00505019,0.430127174,0.110643454,0.229438111,0.31887722,-0.568151236,-0.151562274
0.44000411,-0.529867053,-0.266348541,-0.806794405,0.003769722,-0.010309979,0.004851713,0.430104613,0.110566959,0.229401276,0.318890423,-0.56818819,-0.151532933
0.445011467,-0.533039629,-0.267471224,-0.809983909,0.003009088,-0.010531628,0.004367568,0.430087268,0.110508099,0.229372919,0.318903238,-0.568233013,-0.151512221
0.450013965,-0.528470159,-0.268426806,-0.806451619,0.002628776,-0.00995348,0.006224173,0.430163592,0.110636279,0.229893148,0.318914473,-0.568270862,-0.151473343
0.455011576,-0.532402933,-0.270398438,-0.807121336,0.002167589,-0.010762353,0.008320298,0.430305302,0.110884249,0.230828956,0.318921596,-0.56832546,-0.151424959
0.460009992,-0.526353478,-0.264004081,-0.804277778,0.002925356,-0.011300636,0.006070018,0.430352271,0.110966466,0.231139258,0.31891942,-0.568371177,-0.151401252
0.465009421,-0.533176005,-0.266729027,-0.807392657,0.003456163,-0.011682391,0.008182995,0.430388421,0.111029729,0.231378004,0.318929076,-0.56843245,-0.151360244
0.470009863,-0.530653536,-0.266722202,-0.804190338,0.00235816,-0.012852275,0.005206355,0.430400431,0.11105071,0.231457174,0.318942606,-0.56848824,-0.151344582
0.475011319,-0.53068465,-0.264208496,-0.805558026,0.002699927,-0.013661725,0.006728554,0.430344164,0.110999383,0.231395438,0.318945169,-0.568553269,-0.15131712
0.480007946,-0.53033793,-0.263961494,-0.80471915,0.001754155,-0.011484363,0.007201538,0.430325538,0.110982366,0.231374964,0.318940043,-0.568604827,-0.15128538
0.485005319,-0.531739593,-0.268006831,-0.804249108,0.002839748,-0.01228259,0.007703942,0.430311173,0.110969268,0.231359199,0.318956316,-0.568662822,-0.151244998
0.490003705,-0.536574841,-0.265753478,-0.80214709,0.005749477,-0.009688845,0.008116388,0.430306405,0.110964924,0.231353983,0.318979204,-0.568714499,-0.151208609
0.495003134,-0.528383315,-0.266934723,-0.804903746,0.000683276,-0.009163401,0.007776062,0.430302382,0.110962875,0.231490716,0.318964243,-0.568746567,-0.151154742
0.500003576,-0.529548883,-0.267507464,-0.801707029,0.003227351,-0.00763138,0.008767046,0.430300951,0.11096251,0.231570885,0.318967104,-0.568781555,-0.151100516
0.505010962,-0.531361938,-0.267435849,-0.807724953,0.002447217,-0.007932552,0.008165966,0.430299848,0.110962234,0.23163256,0.318963319,-0.568819523,-0.151053071
0.510013461,-0.531275749,-0.264437765,-0.803969622,0.000149304,-0.006764825,0.007522294,0.430299491,0.110962145,0.23165302,0.318938792,-0.568851709,-0.1510102
0.515016973,-0.532802463,-0.263900042,-0.804197669,0.002041534,-0.007291606,0.007707007,0.430184573,0.110993668,0.23172392,0.318929493,-0.568894923,-0.150969803
0.520015597,-0.53166151,-0.25989759,-0.804923058,0.003269606,-0.006133573,0.005393796,0.430030882,0.111035973,0.23180306,0.318924606,-0.568914592,-0.15095064
0.525015056,-0.53476727,-0.259270489,-0.805194438,0.005600444,-0.008511077,0.003801267,0.429912627,0.111068524,0.231863946,0.318936497,-0.56895566,-0.1509424
0.530015767,-0.533006728,-0.259775102,-0.804198027,0.007386034,-0.005820763,0.001638638,0.429873407,0.11107932,0.231884122,0.318967521,-0.568974137,-0.15094392
0.535017192,-0.530583084,-0.259946585,-0.804325163,0.010360063,-0.007669406,-0.001014446,0.429843217,0.11108762,0.231899664,0.319016337,-0.568996012,-0.150967002
0.540014088,-0.533638716,-0.262876838,-0.804731905,0.013777163,-0.006988888,0.000288917,0.429987967,0.111025423,0.230682626,0.319094956,-0.569016457,-0.150975496
0.545011461,-0.525973439,-0.267026216,-0.808837593,0.012568684,-0.008953634,-0.002152288,0.430099338,0.110977568,0.229746208,0.319179922,-0.569023192,-0.150995478
0.550009847,-0.528385282,-0.27013132,-0.80534339,0.012779463,-0.013770521,0.000902006,0.430136263,0.110961698,0.229435712,0.319261193,-0.569072485,-0.150993705
0.555009007,-0.531612754,-0.26686579,-0.808419883,0.011668227,-0.015689826,0.00088897,0.430164695,0.110949486,0.229196802,0.319333315,-0.569128156,-0.151005387
0.56000948,-0.529284894,-0.264266253,-0.80673331,0.01170588,-0.017669549,0.002046719,0.43023017,0.110920064,0.22962302,0.319388747,-0.569199502,-0.151012644
0.565016568,-0.529123485,-0.266013324,-0.807197034,0.011979471,-0.018997123,0.001309866,0.43033722,0.110871769,0.230462059,0.319466054,-0.569273829,-0.15102756
0.570019066,-0.529818118,-0.269273996,-0.806788146,0.011435122,-0.017916299,0.002550087,0.430372685,0.110855766,0.230740264,0.319537759,-0.569342971,-0.151020065
0.575016975,-0.530004025,-0.271441817,-0.806153417,0.011297226,-0.018455585,0.00277566,0.430400014,0.110843442,0.230954334,0.319610417,-0.569422841,-0.151015505
0.580015361,-0.534567893,-0.272060692,-0.805054784,0.01228648,-0.017849607,0.004990517,0.430409044,0.110839359,0.231025308,0.31968838,-0.569501162,-0.151003107
0.58501476,-0.52883482,-0.272713125,-0.808557928,0.008137574,-0.018983047,0.006944384,0.429882139,0.111104466,0.229715601,0.319734335,-0.569569647,-0.150976568
0.590015233,-0.532453239,-0.277378559,-0.804365039,0.007198594,-0.02261229,0.007364354,0.429707438,0.111192368,0.229281321,0.31979394,-0.569683075,-0.150947124
0.595016718,-0.535230637,-0.278464854,-0.80548352,0.004365559,-0.022881467,0.009654758,0.429572999,0.111259997,0.228947178,0.31983602,-0.569792926,-0.150903702
0.600013316,-0.529548883,-0.275161207,-0.805109441,0.001483794,-0.024009557,0.013057368,0.429528445,0.111282423,0.228836387,0.319844007,-0.569897413,-0.15085493
0.605010927,-0.539883733,-0.275718004,-0.807358503,0.001318266,-0.022864018,0.013874657,0.429847389,0.111190259,0.228651673,0.319845736,-0.570017338,-0.150791973
0.610009372,-0.53379482,-0.275753528,-0.804806709,-0.001645712,-0.02349039,0.017104782,0.430040568,0.111132622,0.228565812,0.319815606,-0.570135236,-0.150710732
0.615014911,-0.532878637,-0.273255616,-0.803206503,-0.005345793,-0.023365233,0.018732347,0.430189192,0.111088276,0.22849974,0.319762647,-0.570262671,-0.15062429
0.620015621,-0.533980429,-0.272144705,-0.802661598,-0.008162941,-0.023428082,0.020856373,0.430238485,0.111073568,0.228477836,0.319689929,-0.570397913,-0.150532573
0.625022948,-0.536967814,-0.272608787,-0.803205609,-0.008936127,-0.020293463,0.020289885,0.430161715,0.111011297,0.228970036,0.319618374,-0.570510507,-0.150432944
0.630025744,-0.530261099,-0.270995349,-0.804235995,-0.012862281,-0.0201449,0.01935374,0.430020601,0.110939264,0.229646578,0.319517076,-0.570610881,-0.150341168
0.635023892,-0.530752242,-0.267824173,-0.807849348,-0.011867276,-0.02429764,0.020504601,0.429912031,0.110883839,0.230167121,0.319422215,-0.570735812,-0.150251433
0.640022278,-0.530689001,-0.264464736,-0.811101198,-0.010387765,-0.024564894,0.018931407,0.429876029,0.110865459,0.230339721,0.319333196,-0.570855319,-0.150186732
0.645021677,-0.530132174,-0.265920222,-0.809745908,-0.010570019,-0.027882595,0.016988646,0.429848343,0.110851318,0.230472535,0.319250822,-0.570994556,-0.150133222
0.650022149,-0.532074332,-0.266928345,-0.810263991,-0.006614074,-0.029912952,0.018668154,0.430194885,0.110632002,0.23004289,0.319188088,-0.571146667,-0.150065243
0.655023634,-0.530921459,-0.270415783,-0.812645733,-0.010852377,-0.033829555,0.01973699,0.430461496,0.110463262,0.229712307,0.319109142,-0.571315408,-0.149997413
0.660020232,-0.529334128,-0.270716697,-0.809711039,-0.010179438,-0.038516045,0.020119155,0.43054992,0.110407308,0.229602695,0.319040537,-0.571508169,-0.149932817
0.665017843,-0.535445333,-0.270989001,-0.813282192,-0.010478141,-0.038131386,0.022317557,0.430617929,0.110364258,0.229518354,0.318961918,-0.571698785,-0.149851695
0.670016229,-0.532812238,-0.275099725,-0.809036195,-0.014760187,-0.042133331,0.026148256,0.430698633,0.11034523,0.229089648,0.318863213,-0.571920872,-0.149749935
0.675015688,-0.534608006,-0.276778907,-0.808016777,-0.018408861,-0.045439143,0.028045097,0.430819541,0.110325776,0.228354558,0.318752468,-0.572162092,-0.149649143
0.6800161,-0.536298335,-0.274412513,-0.809153676,-0.020937044,-0.047881644,0.0300666,0.430859625,0.110319324,0.22811082,0.318612099,-0.57241708,-0.149540007
0.685023487,-0.536180735,-0.270698041,-0.806268334,-0.023663916,-0.047643036,0.032207236,0.430890471,0.110314354,0.227923289,0.318447828,-0.572682738,-0.149428725
0.690026224,-0.537141979,-0.268977761,-0.805663407,-0.024290267,-0.048598062,0.033133011,0.430900693,0.110312715,0.227861106,0.318280756,-0.57295239,-0.149321705
0.695024133,-0.537380934,-0.264086604,-0.801605046,-0.025853937,-0.047653072,0.034165822,0.430977643,0.110109016,0.228001252,0.318088084,-0.573223114,-0.149201706
0.700022757,-0.538108587,-0.258042216,-0.801136315,-0.024798207,-0.046061069,0.034624539,0.431003153,0.110041477,0.228047729,0.317892224,-0.573483288,-0.149094611
0.705021977,-0.536070883,-0.251991481,-0.801492035,-0.02191858,-0.042739,0.031635944,0.431022793,0.109989509,0.228083491,0.317704946,-0.573723793,-0.14901343
0.71002239,-0.538821876,-0.247510821,-0.803705454,-0.016767133,-0.042033091,0.029900668,0.43102929,0.109972283,0.228095353,0.31753841,-0.57396102,-0.148942694
0.715029776,-0.538661301,-0.246058956,-0.802567482,-0.012787595,-0.040625062,0.026996922,0.431136757,0.109901905,0.227633938,0.317409098,-0.574196279,-0.148905858
0.720032513,-0.534883499,-0.246871352,-0.800345063,-0.008693598,-0.040363856,0.022798898,0.431197733,0.109864436,0.227364495,0.317309052,-0.574410856,-0.148876935
0.725030422,-0.540733635,-0.249605313,-0.80350405,-0.004374951,-0.037998833,0.019764014,0.431244671,0.10983561,0.227157176,0.317252338,-0.574617326,-0.148867041
0.730028808,-0.537524462,-0.250701934,-0.80255717,-0.002461536,-0.038208891,0.019688589,0.431260228,0.109826051,0.227088436,0.317200661,-0.574817717,-0.148845986
0.735028207,-0.540027618,-0.255051374,-0.79574424,0.000232721,-0.035822626,0.016473111,0.431301057,0.109734379,0.227355674,0.317183673,-0.575015366,-0.148829803
0.740028679,-0.546202421,-0.256662488,-0.797919512,0.005806564,-0.034499079,0.015950112,0.431343675,0.109618962,0.22776711,0.317202032,-0.575206637,-0.148812488
0.745036006,-0.539195299,-0.258245558,-0.795631647,0.003480954,-0.029283747,0.012717437,0.431376457,0.109530151,0.228083685,0.317207754,-0.575352192,-0.148796514
0.750038266,-0.54334861,-0.264539063,-0.797972679,0.002935716,-0.026207561,0.014402948,0.431387335,0.109500699,0.228188649,0.317213327,-0.575498641,-0.148743495
0.755035877,-0.539433122,-0.264245182,-0.79769671,0.00033415,-0.019967755,0.014048861,0.43139571,0.109478042,0.228269413,0.317195475,-0.575603068,-0.148686603
0.760034323,-0.541033626,-0.265435547,-0.79638052,2.00E-05,-0.015945464,0.013679486,0.431652188,0.109262995,0.22838746,0.317174137,-0.57569778,-0.148617774
0.765033722,-0.539986849,-0.268232733,-0.795620859,-0.003233978,-0.014706718,0.013244855,0.431849539,0.109097533,0.228478283,0.317149699,-0.575784028,-0.148540631
0.770033896,-0.544807076,-0.267184317,-0.797480464,-0.001765525,-0.011298421,0.014000387,0.431914985,0.109042667,0.228508398,0.317109585,-0.575853705,-0.148463652
0.775035381,-0.540676713,-0.268751293,-0.798855841,-0.006709362,-0.008523512,0.015365004,0.431965321,0.109000452,0.228531584,0.317051649,-0.575908422,-0.148361966
0.780031979,-0.538466096,-0.269266009,-0.797719181,-0.008745428,-0.007300485,0.016979916,0.432038754,0.109096549,0.22805731,0.316977143,-0.575954199,-0.148260996
0.785029352,-0.539801717,-0.26467675,-0.79939127,-0.008333692,-0.004165656,0.01716445,0.432152659,0.109281816,0.227205053,0.316879272,-0.575991392,-0.148156598
0.790027797,-0.539916694,-0.268256396,-0.802280962,-0.014278035,-0.00330527,0.017121829,0.432190448,0.109343246,0.226922467,0.316767216,-0.576021016,-0.148038104
0.795027435,-0.537017882,-0.269141853,-0.798813581,-0.016297625,-0.002025485,0.018380711,0.432219505,0.109390512,0.22670503,0.316643983,-0.576041937,-0.1479121
0.800027907,-0.532853842,-0.25800249,-0.800361037,-0.011527784,-0.000822974,0.015693212,0.432229161,0.109406188,0.226632938,0.316513836,-0.576046109,-0.147820711
0.805035293,-0.538695157,-0.256265759,-0.802963555,-0.013511321,0.000751972,0.018198002,0.432035387,0.109231815,0.227955148,0.316376805,-0.576060772,-0.147719532
0.810037732,-0.534369588,-0.255855203,-0.802047312,-0.010695464,-0.000261347,0.015078659,0.431971133,0.109173998,0.22839357,0.316266835,-0.57606554,-0.147639304
0.815035641,-0.537362158,-0.258847475,-0.803796113,-0.010496082,-0.001216774,0.013477495,0.431921721,0.109129503,0.228730902,0.316169262,-0.576072037,-0.147559911
0.820040166,-0.535604477,-0.258266389,-0.802698016,-0.009490317,0.00068478,0.011203328,0.431905329,0.109114751,0.22884275,0.316076159,-0.576072454,-0.147489876
0.825040102,-0.540171862,-0.25895533,-0.802744269,-0.003754585,0.000798389,0.008846444,0.431795448,0.108852208,0.229074299,0.316030204,-0.576075733,-0.147443458
0.830040574,-0.533955753,-0.259964436,-0.801238,-0.005713368,0.002237546,0.008104468,0.43173492,0.108702995,0.229187086,0.315970182,-0.576057315,-0.147374451
0.835042059,-0.538012922,-0.262936324,-0.800593555,-0.003448877,0.000722546,0.008026999,0.431688339,0.108588189,0.229273871,0.31593895,-0.576055467,-0.147322536
0.840038657,-0.538360536,-0.260978252,-0.80035764,-0.003986146,0.003084655,0.00646417,0.431672901,0.108550124,0.229302645,0.315883517,-0.576032102,-0.147264406
0.845035791,-0.538604021,-0.26419282,-0.802301824,-0.005797437,0.001907129,0.007574834,0.431663036,0.108514257,0.228605404,0.315835774,-0.576024532,-0.147204906
0.850034177,-0.538275898,-0.260560095,-0.801657617,-0.00334219,0.004720865,0.007528137,0.431661785,0.108495735,0.22764881,0.315784752,-0.575997233,-0.147142068
0.855033338,-0.540392041,-0.262752175,-0.799662292,-0.004025854,0.007517915,0.006876613,0.431660801,0.108481482,0.226912767,0.315735757,-0.575964332,-0.147076324
0.86003381,-0.542636573,-0.264902562,-0.796986997,-0.003701665,0.008854716,0.007859678,0.431660473,0.108476758,0.226668715,0.315697849,-0.575925887,-0.14700073
0.865041137,-0.535190046,-0.261934608,-0.792890787,-0.004788582,0.014997981,0.006165412,0.431660235,0.108473115,0.226480931,0.315641999,-0.575856984,-0.146923006
0.870043635,-0.546449006,-0.265156209,-0.799044311,-0.006482332,0.017359316,0.008709443,0.43175754,0.108528569,0.227260679,0.315580696,-0.575787663,-0.146829367
0.875041306,-0.53904283,-0.264572918,-0.796855271,-0.008175463,0.018397676,0.00853303,0.431832433,0.108571231,0.227860644,0.315494776,-0.575699806,-0.14672929
0.88003993,-0.539075971,-0.264282912,-0.797449291,-0.009822379,0.018631518,0.010298453,0.431857258,0.108585387,0.228059575,0.315399587,-0.575620115,-0.146613047
0.885039389,-0.537563801,-0.262192428,-0.799994409,-0.010617427,0.019241538,0.009728874,0.431876332,0.108596273,0.228212655,0.315287054,-0.575528741,-0.146503404
0.890039802,-0.536150336,-0.264606297,-0.802211225,-0.011323866,0.019698195,0.011214678,0.43185544,0.108568616,0.227944553,0.315180868,-0.575435042,-0.14638859
0.895041287,-0.535086513,-0.263183087,-0.801624179,-0.010715279,0.020672306,0.009614462,0.43181181,0.108515717,0.227415875,0.315078318,-0.575333595,-0.146277398
0.900038123,-0.538127303,-0.262230188,-0.805606723,-0.007904708,0.01969141,0.009338149,0.431797326,0.108498178,0.227240562,0.314995259,-0.575238645,-0.146189913
0.905035496,-0.535779715,-0.257310539,-0.809758663,-0.005397823,0.020101372,0.009597925,0.431786209,0.108484685,0.227105677,0.314900011,-0.575130165,-0.146100923
0.910033643,-0.532272458,-0.253879905,-0.806158304,-0.007347024,0.018426964,0.00865902,0.431782514,0.108480215,0.227060959,0.314793974,-0.575036585,-0.146023512
0.915033102,-0.533356905,-0.251684666,-0.806561172,-0.002562513,0.014302557,0.00696148,0.432511389,0.108470552,0.227885276,0.314722121,-0.574962974,-0.145962611
0.920039654,-0.534357488,-0.248091295,-0.805218875,0.000320524,0.013380175,0.002858907,0.432753056,0.108467348,0.228158593,0.314671457,-0.574894488,-0.145935327
0.925041914,-0.535569191,-0.246536449,-0.805109382,0.004761172,0.012858091,0.001231092,0.432939023,0.108464874,0.228368893,0.314649612,-0.574824393,-0.145920575
0.930039048,-0.531276286,-0.244613513,-0.801896214,0.011386523,0.013135093,-0.00242383,0.433000684,0.108464062,0.228438631,0.314675272,-0.574742436,-0.145938978
0.935036421,-0.540802419,-0.25106746,-0.808230102,0.013434057,0.011442125,-0.004113154,0.432393909,0.108480349,0.228974,0.314734459,-0.574672043,-0.145955488
0.940034568,-0.534499049,-0.253097951,-0.802665114,0.016196977,0.010338532,-0.005946889,0.432030827,0.108489938,0.229270726,0.314802408,-0.57459259,-0.145969704
0.945033967,-0.537579715,-0.258504838,-0.802217007,0.01853192,0.010896638,-0.007838315,0.43175146,0.108497314,0.229499027,0.314916015,-0.574518442,-0.145993844
0.95003444,-0.534909785,-0.262076706,-0.801301777,0.019608658,0.009927014,-0.008148441,0.431658834,0.108499758,0.229574725,0.315034628,-0.574442148,-0.146006182
0.955035925,-0.534311473,-0.26491493,-0.802959144,0.021240242,0.010716209,-0.00853482,0.431445003,0.108531833,0.229475543,0.315163732,-0.574360013,-0.14602083
0.960032523,-0.534099281,-0.266816795,-0.803227246,0.018744068,0.011487407,-0.008662669,0.431230307,0.108572915,0.229283884,0.315281928,-0.574279547,-0.146029174
0.965029895,-0.535208285,-0.267707407,-0.801491141,0.017285511,0.012125444,-0.007024296,0.431065172,0.108604528,0.229136422,0.315391541,-0.574190676,-0.146027401
0.970028281,-0.537078321,-0.269811302,-0.800436318,0.016969381,0.012794482,-0.005653975,0.431010395,0.108615011,0.229087532,0.315497756,-0.574108601,-0.146010682
0.97502774,-0.536592603,-0.270580918,-0.799672723,0.014764993,0.015425179,-0.005246229,0.430968255,0.10862308,0.229049906,0.315582871,-0.574017167,-0.145984635
0.980028152,-0.536009014,-0.270403206,-0.799670041,0.013014437,0.014195593,-0.002774786,0.43100512,0.108768426,0.228049502,0.315665543,-0.573928475,-0.14595452
0.985035777,-0.532702863,-0.268290579,-0.808310986,0.0112584,0.012962973,-0.002699296,0.431033462,0.108880252,0.227279767,0.315723121,-0.573834956,-0.145932361
0.990038514,-0.533082545,-0.265572727,-0.810294151,0.013039612,0.009523588,-0.001631068,0.43104288,0.108917333,0.22702454,0.31577906,-0.57376188,-0.145910144
0.995036423,-0.53293395,-0.268607676,-0.812741101,0.010928837,0.004892481,0.001852419,0.431050122,0.108945869,0.226828158,0.315826237,-0.573713779,-0.145879284
1.000034809,-0.531481266,-0.274744898,-0.814932942,0.010562508,-0.003498832,0.002243533,0.431420386,0.108985335,0.227661476,0.315893918,-0.573704422,-0.145843148
1.00503397,-0.530647874,-0.278571397,-0.814638495,0.006975785,-0.010567889,0.006260266,0.432077229,0.109046035,0.229211107,0.315938562,-0.57373035,-0.145778045
1.010034442,-0.531699598,-0.2817837,-0.81241101,0.002882591,-0.016027953,0.009623854,0.432295024,0.109066166,0.229724944,0.315969288,-0.573792398,-0.145697266
1.015035629,-0.532450199,-0.279264033,-0.809555292,0.000415644,-0.019619403,0.013851637,0.432462573,0.109081648,0.230120286,0.315966487,-0.573883414,-0.145609736
1.020038128,-0.53120631,-0.276822239,-0.803586245,-0.001401245,-0.023113905,0.01803611,0.432518154,0.109086789,0.230251387,0.315939158,-0.574003339,-0.145508558
1.025035739,-0.53154695,-0.275663823,-0.808413029,-0.011096139,-0.027027043,0.022925586,0.431628257,0.109103121,0.229746744,0.315852463,-0.574141026,-0.145403892
1.030034184,-0.537820935,-0.274774939,-0.804160953,-0.011473368,-0.027725125,0.026380377,0.431333214,0.109108537,0.229579419,0.315766245,-0.574310422,-0.145280436
1.035033584,-0.534726083,-0.267656207,-0.807173431,-0.013257282,-0.031009337,0.027222611,0.43110618,0.109112702,0.229450673,0.315649867,-0.574468613,-0.145174399
1.040034056,-0.535397828,-0.26209414,-0.80488193,-0.017438708,-0.031687785,0.030492114,0.431030869,0.109114081,0.229407981,0.315491498,-0.574655652,-0.145053193
1.045041442,-0.535185039,-0.260302663,-0.803419352,-0.014606506,-0.030924762,0.030894909,0.431024879,0.109011546,0.22928147,0.315356731,-0.574835777,-0.144946292
1.050044179,-0.538502455,-0.261771291,-0.800765872,-0.016468979,-0.030961279,0.02836304,0.431035757,0.108951911,0.229216337,0.315218508,-0.575018227,-0.144831493
1.05504179,-0.538506091,-0.257935166,-0.802063942,-0.013996813,-0.030117106,0.028155711,0.431044102,0.108906023,0.22916624,0.315090716,-0.575190306,-0.144731641
1.060040712,-0.537631035,-0.25689432,-0.799146175,-0.014010916,-0.026926866,0.02708219,0.431046873,0.108890809,0.229149625,0.314951986,-0.575354278,-0.144627795
1.065040112,-0.537715673,-0.253603905,-0.800192058,-0.013417934,-0.025156008,0.025959384,0.43110764,0.108845204,0.228709757,0.31482476,-0.575501204,-0.144541532
1.070040584,-0.539927423,-0.248103619,-0.801657975,-0.009864688,-0.022528687,0.02245217,0.431186885,0.108795904,0.228133246,0.314706564,-0.575633049,-0.144484445
1.075042009,-0.539453328,-0.250530541,-0.797962308,-0.005723431,-0.021800928,0.018455828,0.43124789,0.108757973,0.227689669,0.314626336,-0.575762749,-0.14443633
1.080038428,-0.543255448,-0.250920206,-0.798867822,-0.002977298,-0.017830543,0.015379238,0.431268096,0.108745396,0.227542594,0.314567745,-0.575870752,-0.144407749
1.085035801,-0.541291952,-0.251584768,-0.798811436,-0.001871711,-0.017597962,0.013099039,0.431283653,0.108735718,0.22742942,0.314533263,-0.575966358,-0.144389391
1.090033889,-0.540448606,-0.254248619,-0.797414899,0.001084641,-0.015296594,0.008218034,0.431441754,0.10847947,0.227860987,0.31452328,-0.57604295,-0.144374177
1.095033288,-0.535852492,-0.256381154,-0.79898715,0.004911563,-0.01161445,0.005441018,0.431563377,0.108282298,0.228193045,0.3145459,-0.576081336,-0.144367367
1.10003376,-0.530638993,-0.248280644,-0.794480324,0.020136576,-0.00474564,-0.0023395,0.43160373,0.108216919,0.228303149,0.314641058,-0.576075375,-0.14440231
1.105041385,-0.553630769,-0.266026765,-0.82028079,0.008187382,-0.009649478,0.002354461,0.431634784,0.108166613,0.228387877,0.314706892,-0.576120555,-0.144410685
1.110044122,-0.531013727,-0.271141827,-0.801422179,-0.000739314,-0.0128515,0.007346977,0.431758851,0.108148701,0.228520349,0.314687878,-0.576164365,-0.144341141
1.115042329,-0.538343549,-0.274693847,-0.803723097,-0.003316724,-0.014509025,0.007997753,0.431969374,0.108133674,0.228727832,0.314690411,-0.576234519,-0.144281849
1.120046377,-0.535379529,-0.268543959,-0.803612292,-0.003965368,-0.013020399,0.009535264,0.432039171,0.108128689,0.228796631,0.314663172,-0.57628274,-0.144231111
1.125046015,-0.5367378,-0.269795597,-0.802774906,-0.005080408,-0.011963899,0.014640778,0.432092875,0.10812486,0.22884956,0.314608753,-0.576352119,-0.144136369
1.130046487,-0.544186234,-0.27335453,-0.803634048,-0.007493452,-0.012999715,0.015469913,0.432110667,0.108123586,0.228867114,0.314562857,-0.576424837,-0.144040108
1.135048151,-0.542952895,-0.275221586,-0.800118923,-0.010951243,-0.010177646,0.019784166,0.431658208,0.108064026,0.228890345,0.314477861,-0.576498389,-0.143905878
1.140045285,-0.536048293,-0.270289034,-0.803403258,-0.014407182,-0.007888119,0.023394791,0.431508154,0.108044282,0.228898033,0.314353764,-0.576545477,-0.143753648
1.145042658,-0.525235057,-0.268660069,-0.787696242,-0.015376672,-0.003798511,0.024188749,0.431392699,0.108029082,0.228903949,0.31421414,-0.576590657,-0.14358066
1.150041103,-0.546299338,-0.269826323,-0.802576303,-0.011227451,-0.00232054,0.023316009,0.431354433,0.108024046,0.228905916,0.314123631,-0.576621354,-0.143444166
1.155040503,-0.551618755,-0.274014324,-0.812286615,-0.029968344,-0.00814905,0.029577836,0.431777984,0.10795968,0.228805482,0.313898206,-0.576705217,-0.143270507
1.160040975,-0.534250319,-0.271300554,-0.798202097,-0.036128975,-0.008423576,0.033365499,0.432030499,0.107923366,0.228746951,0.31362173,-0.576779485,-0.14304921
1.165048361,-0.536187768,-0.272929549,-0.803443611,-0.037062861,-0.004356612,0.035651539,0.43222478,0.107895434,0.228701904,0.313361466,-0.576831222,-0.142827794
1.170050859,-0.531757593,-0.270999521,-0.805747807,-0.039421517,-0.003547969,0.037514392,0.432289213,0.107886173,0.228686973,0.3130669,-0.576871037,-0.142578021
1.17504847,-0.532345414,-0.263469189,-0.804145038,-0.036684338,-0.004455821,0.039474804,0.432314098,0.1077016,0.228171736,0.31276843,-0.576927543,-0.142341301
1.180046797,-0.541879714,-0.270610958,-0.80584079,-0.047424145,-0.005314898,0.044470232,0.432297438,0.10746146,0.227492899,0.31241399,-0.57701385,-0.142062604
1.185046315,-0.536480248,-0.259664804,-0.802590013,-0.047658809,-0.008800067,0.045356017,0.432284623,0.107276686,0.226970583,0.312033892,-0.577105403,-0.141826302
1.190046668,-0.538826644,-0.253567696,-0.806455553,-0.04577636,-0.00694707,0.044250622,0.432280362,0.107215419,0.226797402,0.311663449,-0.577193141,-0.141598925
1.195048213,-0.538121641,-0.249866307,-0.802968681,-0.043836772,-0.007171956,0.04243505,0.432277083,0.107168272,0.226664141,0.311300039,-0.577279985,-0.141394049
1.200045109,-0.537677884,-0.247546881,-0.80996722,-0.042278904,-0.008436914,0.040654022,0.432372808,0.107259758,0.227414489,0.310958564,-0.577363789,-0.141212791
1.205042481,-0.535658062,-0.247900173,-0.805421114,-0.040742379,-0.011462247,0.037688006,0.43244648,0.107330151,0.227991834,0.310628563,-0.577458084,-0.141039073
1.210040808,-0.537762702,-0.250742704,-0.80249095,-0.034863837,-0.008917506,0.035680108,0.432470888,0.107353494,0.22818327,0.310339272,-0.577544928,-0.14086619
1.215040207,-0.533987343,-0.246440887,-0.799824476,-0.021113399,-0.007852465,0.030464519,0.432489693,0.107371449,0.228330567,0.310137212,-0.5776034,-0.140738711
1.220040679,-0.527326643,-0.236863807,-0.797386467,-0.002498355,0.001491927,0.02057744,0.432556331,0.107117213,0.22848776,0.310032547,-0.577589929,-0.14064835
1.225048304,-0.558548093,-0.253148198,-0.81952405,-0.007253851,-0.002266628,0.021791011,0.432668656,0.106658503,0.228718281,0.309956282,-0.577634096,-0.140554726
1.230051041,-0.548613012,-0.273391813,-0.811657906,-0.033103324,-0.01308605,0.032772508,0.432705909,0.1065064,0.228794724,0.309707522,-0.577748716,-0.140343711
1.235049248,-0.542816222,-0.270237565,-0.796619177,-0.036496632,-0.014191487,0.032676812,0.432734549,0.106389366,0.228853539,0.309455752,-0.577866495,-0.140140474
1.240047336,-0.542931855,-0.261965901,-0.804168403,-0.036755882,-0.012202386,0.033716727,0.432744056,0.106350563,0.228873029,0.309183478,-0.577967584,-0.139961541
1.245046735,-0.539597273,-0.248319387,-0.805677056,-0.03628305,-0.011441515,0.032188009,0.43249017,0.106113337,0.227835551,0.308886945,-0.578053176,-0.139820173
1.250047207,-0.543122113,-0.246135905,-0.806023896,-0.031832922,-0.012404047,0.028858311,0.432405978,0.106034681,0.227491543,0.308630615,-0.578147411,-0.139698505
1.255048752,-0.543207169,-0.243703321,-0.808230877,-0.024826823,-0.011836722,0.023158727,0.432341188,0.105974153,0.227226853,0.308420122,-0.578222156,-0.139613912
1.26004529,-0.535303056,-0.238550916,-0.80670476,-0.018214386,-0.011882812,0.018191829,0.432319731,0.105954088,0.227139086,0.308252513,-0.578289151,-0.13955906
1.265042901,-0.540091574,-0.244780406,-0.815146148,-0.015012473,-0.018539581,0.014202517,0.432206333,0.105589122,0.227593511,0.308129847,-0.578376532,-0.139536321
1.270041108,-0.541307032,-0.23835209,-0.811403632,-0.007115051,-0.023713654,0.01276207,0.432144761,0.105381615,0.22787334,0.308043808,-0.57850486,-0.139539078
1.275040746,-0.541972935,-0.234647289,-0.811984003,-0.001553196,-0.025873236,0.007962196,0.432097405,0.10522195,0.228088662,0.307994723,-0.578622937,-0.139588222
1.280041218,-0.542109549,-0.233946025,-0.80919826,0.00061406,-0.033418786,0.003754141,0.43208167,0.105169013,0.228160053,0.307972193,-0.57878387,-0.139658913
1.285048604,-0.537533581,-0.229562059,-0.81261456,0.011963933,-0.038197342,-0.002939167,0.432125151,0.105187155,0.22845304,0.308037639,-0.578943372,-0.139802888
1.290051103,-0.536683023,-0.235712931,-0.820321023,0.020255413,-0.046189949,-0.008119569,0.432195574,0.105252542,0.228790253,0.308174253,-0.579119742,-0.139970869
1.295048714,-0.529730916,-0.239931688,-0.824162662,0.028758233,-0.057092495,-0.011105576,0.432249784,0.105302855,0.229049712,0.308374912,-0.579330683,-0.140162259
1.300047159,-0.526696801,-0.248443842,-0.826946616,0.034030683,-0.069901265,-0.012800784,0.432267785,0.105319537,0.229135737,0.308635533,-0.579598248,-0.140369251
1.30504632,-0.525006056,-0.258469433,-0.827597439,0.03963149,-0.082435675,-0.011719345,0.432281613,0.105332367,0.229201928,0.308958799,-0.579919815,-0.140575573
1.310046673,-0.521879256,-0.270988524,-0.824526787,0.041703831,-0.100103945,-0.010060317,0.432938784,0.105373591,0.229070023,0.309319347,-0.580317974,-0.14076297
1.315047979,-0.521512091,-0.278542727,-0.822646797,0.039255027,-0.115563907,-0.001651571,0.433444411,0.105405323,0.228968531,0.30966872,-0.580818474,-0.140929401
1.320044518,-0.507965028,-0.27967909,-0.82506144,0.040153194,-0.136716411,0.004514397,0.433612078,0.105415843,0.228934884,0.310032666,-0.581390381,-0.14109309
1.325047851,-0.510487974,-0.284888417,-0.838665068,0.042175405,-0.158414334,0.013828431,0.433741093,0.105423935,0.228908986,0.310387433,-0.58208102,-0.141231388
1.330046773,-0.505541146,-0.276573777,-0.845868587,0.046617445,-0.177927673,0.022568146,0.433355123,0.105658509,0.228080109,0.31073001,-0.58285898,-0.14138332
1.335046172,-0.501496017,-0.279886663,-0.852777898,0.05209269,-0.20676358,0.035336655,0.432624608,0.106073476,0.226612911,0.311109155,-0.58378911,-0.141521022
1.340046644,-0.507852912,-0.274615198,-0.854554474,0.063034892,-0.236632362,0.043366179,0.432382375,0.106211066,0.226126418,0.311521977,-0.584889412,-0.141684905
1.345053911,-0.503631711,-0.271300972,-0.866392612,0.077764727,-0.272297114,0.056970876,0.432195991,0.106316939,0.2257521,0.311997771,-0.586154401,-0.141840413
1.350056648,-0.49589175,-0.269565195,-0.880586386,0.093550071,-0.315789133,0.067300841,0.432134181,0.106352046,0.225627989,0.312570274,-0.58762002,-0.142025128
1.355054617,-0.480436683,-0.270654261,-0.898607969,0.105311394,-0.366820604,0.081648961,0.43315962,0.106083378,0.225016221,0.313181281,-0.589315653,-0.142219946
1.360053301,-0.471809059,-0.264595389,-0.909604192,0.114090517,-0.434121102,0.097224586,0.433499634,0.105994292,0.224813357,0.313822567,-0.591338634,-0.14246136
1.3650527,-0.469873786,-0.266718388,-0.920479298,0.142879233,-0.501170397,0.119443938,0.433761269,0.105925739,0.224657282,0.314628124,-0.59371078,-0.142710388
1.370053172,-0.453491122,-0.308217645,-0.937939346,0.16558899,-0.575062871,0.149926409,0.433848023,0.105903015,0.224605531,0.315628588,-0.596421003,-0.142837882
1.375054598,-0.421547323,-0.347276717,-0.95994705,0.20865874,-0.673371434,0.211497143,0.434672713,0.105807208,0.223144278,0.316765398,-0.599614859,-0.142695367
1.380051255,-0.385340571,-0.368067026,-0.993485272,0.276977807,-0.790679455,0.283617496,0.435133755,0.105756067,0.222308025,0.318202943,-0.603404105,-0.142313689
1.385048628,-0.348307401,-0.429382384,-1.003726125,0.269438267,-0.924623549,0.366965175,0.435488462,0.105716713,0.221664578,0.319591224,-0.607886851,-0.141624391
1.390046716,-0.361553282,-0.503802657,-1.009165883,0.247724473,-1.065949559,0.48508957,0.435606062,0.105703659,0.221451223,0.320699602,-0.613249421,-0.140336052
1.395046115,-0.411240488,-0.534088135,-1.027719021,0.286750168,-1.176700473,0.601194024,0.43647787,0.105311029,0.218984768,0.321755558,-0.619389057,-0.138553068
1.400046349,-0.426791638,-0.504757464,-1.086706161,0.346294731,-1.307351947,0.672476888,0.437554777,0.104795031,0.215845317,0.322939813,-0.626141608,-0.136729315
1.405053735,-0.510584235,-0.47453925,-1.101583719,0.41548121,-1.458930373,0.718956292,0.438383371,0.104398005,0.213429734,0.324459791,-0.633886278,-0.135088786
1.410056233,-0.53928566,-0.4447366,-1.123310208,0.505078256,-1.574216008,0.73244369,0.438658118,0.10426636,0.212628767,0.3264184,-0.642119527,-0.133740738
1.415054083,-0.58148253,-0.488271207,-1.095428705,0.552763343,-1.686157942,0.79626143,0.438869506,0.10416507,0.212012485,0.328739107,-0.65108645,-0.132139683
1.420052171,-0.609204412,-0.542783856,-1.087718248,0.528162479,-1.754797935,0.838220119,0.44124198,0.102104008,0.206296787,0.330871761,-0.660410047,-0.130292475
1.425057769,-0.631790996,-0.545950532,-1.091650963,0.49116689,-1.817243695,0.84772259,0.443067461,0.10051816,0.201898932,0.332805395,-0.670028806,-0.128569201
1.430058479,-0.739114583,-0.58900702,-1.157089353,0.4170596,-1.86494875,0.885771275,0.443672746,0.09999232,0.20044069,0.33436957,-0.679985464,-0.12677215
1.435060024,-0.773570061,-0.606446445,-1.178212285,0.31496048,-1.840617776,0.899576724,0.444138467,0.099587724,0.199318662,0.335242927,-0.689833045,-0.124746047
1.440056562,-0.711955249,-0.510831416,-1.167016864,0.256397098,-1.805352092,0.875758111,0.446118712,0.098138057,0.194742858,0.335656762,-0.699309945,-0.12301445
1.445054173,-0.734992623,-0.404881299,-1.179960728,0.268309325,-1.771217585,0.875581205,0.44948858,0.095692456,0.186971396,0.335868597,-0.70870626,-0.121452607
1.450052619,-0.77017349,-0.373016983,-1.241748452,0.32010138,-1.656516433,0.882842004,0.450605959,0.094881535,0.184394538,0.336045176,-0.717570424,-0.119534917
1.455052257,-0.861574233,-0.557308137,-1.252313137,0.384538054,-1.482736826,0.783439398,0.451465696,0.094257586,0.182411805,0.337153971,-0.725327611,-0.117562518
1.460052729,-1.11769855,-0.822653234,-1.269461513,0.381587803,-1.277603388,0.692336261,0.451750785,0.094050698,0.18175438,0.339133859,-0.732214212,-0.115457237
1.465059876,-1.141674757,-1.022688866,-1.366543174,0.196175396,-0.92859143,0.581969082,0.455383927,0.090090826,0.171935454,0.340228021,-0.73703593,-0.112931482
1.470062375,-0.911628306,-1.071286082,-1.39095962,-0.097445026,-0.514746785,0.449489385,0.456588596,0.08877781,0.168679684,0.339678347,-0.739069939,-0.110230036
1.475059986,-0.60213536,-0.908986509,-1.301873207,-0.366656393,-0.240942806,0.376956731,0.457515508,0.087767534,0.166174605,0.337238729,-0.739475489,-0.107585832
1.480058312,-0.323244333,-0.675939798,-1.209615111,-0.514620483,-0.120318837,0.398512721,0.457822889,0.087432541,0.16534397,0.333349586,-0.739379942,-0.104821555
1.485057592,-0.1259799,-0.483286351,-1.150063872,-0.513438642,-0.093953699,0.471226424,0.459302366,0.085183159,0.160902768,0.328836322,-0.739294529,-0.101700842
1.490057945,-0.008139186,-0.360681802,-1.108451486,-0.39703241,-0.107224494,0.569028199,0.460100532,0.08394447,0.158489317,0.324419916,-0.739438534,-0.098085083
1.49505949,0.041708477,-0.32610929,-1.087814569,-0.231059402,-0.12815471,0.68634057,0.460714638,0.082991377,0.156632334,0.320426196,-0.739876091,-0.093760133
1.500056267,0.041965585,-0.370782495,-1.085413337,-0.087754935,-0.122212619,0.799527645,0.460918278,0.082675353,0.156016588,0.316789895,-0.740446985,-0.088594228
1.505053639,0.02493421,-0.441218257,-1.096304417,-0.002888554,-0.068340391,0.887776315,0.460924208,0.081100456,0.154921383,0.313254654,-0.740849853,-0.082636081
1.510052085,0.007074696,-0.503829241,-1.110582232,0.019741124,0.028708423,0.947129905,0.460774183,0.079235338,0.153931558,0.30952239,-0.740800321,-0.076016925
1.515051484,0.009809144,-0.528426945,-1.122147083,0.005979756,0.159499496,0.979455054,0.460658729,0.077800244,0.153169975,0.305382013,-0.740096211,-0.06892594
1.520051956,0.042245872,-0.523413002,-1.123827219,-0.012319079,0.315299362,0.981583774,0.460620463,0.077324398,0.152917445,0.300923705,-0.738572598,-0.061576664
1.525053144,0.095644258,-0.492751896,-1.116150498,-0.002991586,0.468316138,0.95822525,0.460590988,0.076958269,0.152723134,0.296383083,-0.736182451,-0.05417892
1.530055881,0.156950682,-0.464255631,-1.098818898,0.028789654,0.609611928,0.92626822,0.459083438,0.073031843,0.150666475,0.291975051,-0.733007193,-0.046761181
1.535053849,0.22182256,-0.443002433,-1.067966819,0.083900616,0.737051785,0.891040206,0.457923502,0.070010722,0.149084017,0.287898421,-0.729117215,-0.039408654
1.540052176,0.293218493,-0.428202361,-1.031476617,0.14919728,0.845156968,0.849586308,0.457538873,0.069008976,0.148559302,0.284252614,-0.724594176,-0.032186296
1.545051694,0.351673692,-0.420609146,-0.994917333,0.204278335,0.934476972,0.807100892,0.457242936,0.068238199,0.14815557,0.281033814,-0.719559491,-0.025143223
1.550051808,0.399906605,-0.41732353,-0.961822808,0.243354872,1.005371928,0.763504922,0.455146641,0.065893739,0.149203271,0.278194308,-0.714098334,-0.018288525
1.555053353,0.44028306,-0.413195342,-0.931927502,0.263886988,1.055670142,0.717323065,0.451513261,0.061977662,0.151204169,0.275656283,-0.708323717,-0.011676562
1.560049891,0.471157163,-0.413856506,-0.905590355,0.262421936,1.093813419,0.673179448,0.450308502,0.060679164,0.151867628,0.273307145,-0.70229578,-0.005343411
1.565047264,0.494181454,-0.411762625,-0.893850148,0.248305291,1.113866687,0.635848224,0.4493815,0.059680056,0.152378112,0.271074265,-0.696098804,0.000712845
1.570045471,0.503135026,-0.399414301,-0.89184773,0.233730465,1.125048757,0.600279212,0.449074119,0.059348773,0.152547389,0.26890108,-0.689818263,0.006501937
1.57504487,0.493071795,-0.380612642,-0.905112445,0.234972879,1.130386114,0.559591293,0.441413254,0.054751564,0.157609537,0.266903788,-0.683463335,0.011993727
1.580045104,0.460856616,-0.359834075,-0.934189558,0.254678488,1.139834046,0.511102915,0.438873053,0.053227216,0.159288049,0.265185326,-0.677018285,0.017086247
1.585052371,0.404844791,-0.350928962,-0.978123188,0.303221464,1.167603254,0.446750343,0.436918527,0.052054334,0.160579547,0.263965189,-0.670378506,0.021751298
1.59005487,0.329163551,-0.350206167,-1.025123,0.37160182,1.222466707,0.359903693,0.436270446,0.051665429,0.161007792,0.263407916,-0.663414538,0.025894666
1.595052838,0.244457394,-0.35118854,-1.067762613,0.447200447,1.310106039,0.245368704,0.429464638,0.049089514,0.166224524,0.263614625,-0.655926824,0.029466929
1.600051165,0.187888116,-0.347002029,-1.098310828,0.521062195,1.420258522,0.103812814,0.425647229,0.047672018,0.169163644,0.264610231,-0.647742093,0.032308221
1.605050683,0.149610937,-0.353753775,-1.116761804,0.591670513,1.537986279,-0.052868627,0.422710001,0.04658135,0.171425089,0.266459793,-0.638806999,0.034367535
1.610051036,0.125864521,-0.366381407,-1.126232505,0.653127909,1.652988553,-0.215562433,0.421736091,0.046219703,0.172174945,0.269098729,-0.629128993,0.035671979
1.615052581,0.111671284,-0.37114048,-1.124256611,0.704930902,1.756988645,-0.376168281,0.416455269,0.045108493,0.176446423,0.272462904,-0.618774712,0.036224313
1.620049119,0.104026191,-0.3645733,-1.116341472,0.748999238,1.84666419,-0.536121428,0.410134763,0.043900091,0.181588307,0.276453495,-0.60781461,0.036039531
1.625046492,0.093401715,-0.35520196,-1.112794876,0.788222194,1.918039322,-0.68751359,0.40527153,0.042970307,0.185544625,0.281004757,-0.596348166,0.035121076
1.630051017,0.069996484,-0.348123699,-1.111013889,0.822119892,1.982324481,-0.829190612,0.403658986,0.04266201,0.186856464,0.286048055,-0.584445,0.033568211
1.635050774,0.035784241,-0.341024488,-1.111138582,0.855692804,2.039277554,-0.9582932,0.402418226,0.042424794,0.187865838,0.291525155,-0.572152674,0.03144554
1.640051246,-0.010571122,-0.336364239,-1.112538815,0.881932259,2.101471424,-1.069987178,0.392975152,0.043870624,0.196945012,0.297313273,-0.559485972,0.028926646
1.645058513,-0.06019669,-0.33730939,-1.114450097,0.897396266,2.173231602,-1.161870003,0.385709345,0.044983096,0.20393081,0.303281724,-0.54642272,0.026133519
1.650061011,-0.10056664,-0.333390623,-1.114020944,0.90098995,2.245449305,-1.2330513,0.383300155,0.045351971,0.206247181,0.309280783,-0.532968462,0.023198361
1.655058742,-0.138903037,-0.318404347,-1.108884692,0.902680933,2.315412045,-1.28285718,0.381446421,0.045635793,0.208029449,0.315217823,-0.519176066,0.020221412
1.660057068,-0.169764683,-0.302502096,-1.097502708,0.898828626,2.383312464,-1.313755393,0.375009507,0.047354802,0.213004902,0.321011662,-0.505084097,0.017309288
1.665056229,-0.193075091,-0.284227699,-1.087025404,0.895643771,2.439919233,-1.328023791,0.364169508,0.050320487,0.221266583,0.326648712,-0.490772009,0.014517409
1.670056701,-0.215611488,-0.271687984,-1.075256467,0.892574489,2.474275112,-1.324835658,0.36057514,0.051303852,0.224005997,0.332117319,-0.476369143,0.011919973
1.675058126,-0.232579008,-0.262577653,-1.060883522,0.890264452,2.492026806,-1.305849433,0.357809544,0.052060485,0.226113796,0.337432414,-0.46197632,0.009553821
1.680054784,-0.245693758,-0.256699204,-1.040521145,0.884421885,2.487940311,-1.275112867,0.356892526,0.052311368,0.226812705,0.34256357,-0.447716534,0.007451046
1.685052156,-0.260252535,-0.250497192,-1.019098282,0.87444365,2.469424009,-1.232810736,0.341221094,0.056355819,0.240191832,0.347498178,-0.433686763,0.005630264
1.690050602,-0.273160189,-0.250688791,-1.000332355,0.853520334,2.434170961,-1.177282929,0.336024731,0.057696879,0.244628087,0.352174222,-0.419979364,0.004134506
1.695049763,-0.283409685,-0.263511181,-0.98051244,0.824432135,2.380443573,-1.10422349,0.332026511,0.058728736,0.248041496,0.356559992,-0.406709433,0.003034171
1.700049877,-0.304899395,-0.283734679,-0.974953651,0.801554382,2.310575008,-1.008665323,0.330700755,0.059070881,0.249173313,0.360685527,-0.393997014,0.002412438
1.705057263,-0.349260777,-0.283914775,-0.996738851,0.800277054,2.235668421,-0.913023889,0.318079412,0.061760332,0.257420748,0.364628047,-0.38190645,0.00217925
1.710059762,-0.434787512,-0.270670712,-1.023431063,0.818868876,2.186702728,-0.840560913,0.311023653,0.063252471,0.261980802,0.368501991,-0.370332181,0.002181265
1.715057611,-0.543078125,-0.278872192,-1.057341576,0.853632033,2.173261881,-0.784085512,0.305594712,0.064400576,0.265489459,0.372433066,-0.359066844,0.002499474
1.720056057,-0.666707516,-0.299840182,-1.088262558,0.89966315,2.210587025,-0.768963516,0.303794593,0.064781263,0.266652852,0.376573563,-0.347835362,0.00302922
1.725055456,-0.781250179,-0.323591709,-1.119630933,0.938023508,2.299788952,-0.794842303,0.296264052,0.065485261,0.271206468,0.380908072,-0.336272776,0.003662658
1.730061769,-0.852485836,-0.352330834,-1.137665033,0.95669663,2.422951698,-0.85036099,0.287570029,0.066133223,0.276405543,0.385352969,-0.324098945,0.004372272
1.735063791,-0.881615579,-0.37196821,-1.137541056,0.956280828,2.56438303,-0.92498368,0.280880541,0.066631787,0.280405879,0.389824331,-0.31116125,0.005072007
1.740060687,-0.863710523,-0.377454311,-1.119639516,0.942223489,2.691645384,-1.006808758,0.278662413,0.0667971,0.281732321,0.3942478,-0.29745692,0.005708915
1.74505806,-0.806453943,-0.36161992,-1.078137994,0.91985184,2.779147387,-1.081706882,0.276955724,0.066924296,0.282752901,0.39858678,-0.283164829,0.006202859
1.750056148,-0.739238739,-0.331728637,-1.026038408,0.904534638,2.820133686,-1.143901467,0.265806317,0.068407305,0.290553182,0.402860224,-0.268537909,0.006546593
1.755055666,-0.666562915,-0.296161085,-0.971789777,0.896667659,2.810818672,-1.186426282,0.2572276,0.069548376,0.296554953,0.407127142,-0.253854185,0.006696982
1.76005578,-0.612195849,-0.25767085,-0.925440907,0.900910854,2.747727156,-1.209723592,0.254383057,0.069926731,0.298545003,0.411422998,-0.239412308,0.006624363
1.765063167,-0.582319319,-0.223523363,-0.884408772,0.913917005,2.651553869,-1.216124415,0.252194375,0.070217855,0.300076216,0.415803075,-0.225446045,0.006351839
1.770065427,-0.574483991,-0.204253078,-0.853307486,0.934835196,2.537077904,-1.212467074,0.244693369,0.071076073,0.303344756,0.420308769,-0.21206677,0.005909632
1.775062799,-0.587739289,-0.204905182,-0.82807225,0.947365046,2.418651581,-1.197527528,0.232071027,0.072506599,0.308651298,0.42492038,-0.19932884,0.005402927
1.780060887,-0.610558867,-0.227860078,-0.808809221,0.940247416,2.305177927,-1.171446443,0.227885693,0.07298094,0.310410827,0.429540485,-0.187220529,0.004926611
1.785060048,-0.631957233,-0.249472395,-0.792324185,0.900073349,2.201390266,-1.141167641,0.224665359,0.073345907,0.311764687,0.433982551,-0.175698698,0.004503517
1.79006052,-0.64035964,-0.258982927,-0.783732355,0.835519493,2.099971771,-1.103662252,0.223597571,0.073466927,0.3122136,0.438071311,-0.164733186,0.004123189
1.795061707,-0.643298149,-0.252416283,-0.769546807,0.762106836,1.999419093,-1.066487551,0.207908526,0.076209411,0.319800735,0.441765189,-0.1543248,0.003736385
1.800058365,-0.647095382,-0.243111044,-0.752472401,0.686719477,1.897712469,-1.025252342,0.202706352,0.077118762,0.322316498,0.445055544,-0.144486874,0.003353222
1.805055499,-0.646682978,-0.238541245,-0.730810702,0.616416395,1.792355299,-0.976143956,0.198703617,0.077818453,0.324252218,0.447999239,-0.135248721,0.00301656
1.810053945,-0.649175465,-0.24159272,-0.708386481,0.554585695,1.684486747,-0.919093549,0.197376385,0.078050457,0.324894041,0.450635582,-0.126646817,0.002770792
1.815053344,-0.661674619,-0.239965171,-0.686371624,0.500449359,1.576811075,-0.85621506,0.187298313,0.079041049,0.328463674,0.453012377,-0.118709445,0.002638374
1.820053816,-0.679908931,-0.230221465,-0.668541968,0.460139096,1.469101548,-0.792472005,0.181715474,0.079570457,0.330408394,0.455168247,-0.111438923,0.002575248
1.825055003,-0.699870825,-0.211463004,-0.651407778,0.435643405,1.362452745,-0.733436763,0.177419856,0.079977803,0.331904709,0.457189083,-0.104826882,0.002525021
1.830051541,-0.72777909,-0.202155411,-0.63592124,0.428629965,1.259170532,-0.677357554,0.175995514,0.080112875,0.332400858,0.459172368,-0.098859221,0.002505719
1.835048914,-0.776837349,-0.206405878,-0.633978844,0.446561754,1.169173717,-0.623919189,0.170508817,0.080021337,0.3338027,0.46126017,-0.09349978,0.002583208
1.840047598,-0.851587117,-0.214266136,-0.638611913,0.478410333,1.10554266,-0.590718091,0.164261907,0.079793885,0.335296184,0.463530421,-0.088632882,0.002687232
1.845046997,-0.93652904,-0.210824624,-0.652720332,0.525550365,1.073838711,-0.577810466,0.159455344,0.079618871,0.336445302,0.466025859,-0.084066913,0.002774321
1.850047469,-1.026237369,-0.193456396,-0.66984427,0.588956892,1.081570983,-0.591537058,0.157861575,0.079560839,0.336826324,0.468801171,-0.079556786,0.002761947
1.855048656,-1.087202311,-0.176312253,-0.676402926,0.655756414,1.123447418,-0.634584665,0.156635284,0.079516187,0.33711949,0.471885562,-0.074826643,0.002598748
1.860045075,-1.096512914,-0.171156615,-0.65678072,0.71648711,1.177505374,-0.691557348,0.150647774,0.079483598,0.340281278,0.475298703,-0.069693111,0.002371487
1.865042448,-1.059359908,-0.188533679,-0.610794663,0.745795548,1.218443036,-0.741321862,0.146040782,0.079458527,0.342714071,0.47893548,-0.064189538,0.002163721
1.870040536,-0.98097074,-0.194551572,-0.550171435,0.740418553,1.214545012,-0.769206226,0.14451319,0.079450212,0.343520731,0.48258394,-0.058509964,0.001949584
1.875040054,-0.885191679,-0.195154086,-0.481811762,0.68576771,1.157400846,-0.770469785,0.143337816,0.079443812,0.344141394,0.485970736,-0.052948736,0.001711892
1.880040169,-0.790238142,-0.190019473,-0.417680204,0.598505855,1.03751266,-0.743666589,0.139836118,0.079650208,0.344831586,0.488931477,-0.047887672,0.00140189
1.885047555,-0.731096447,-0.191755056,-0.369772017,0.488309532,0.870566845,-0.695709407,0.133995086,0.080019861,0.345852464,0.491360366,-0.043645583,0.001007586
1.890050054,-0.698165596,-0.189752817,-0.346049458,0.367692947,0.683860123,-0.635165572,0.132058308,0.080142431,0.346190959,0.493179023,-0.040361118,0.000466755
1.895047903,-0.695360124,-0.177986935,-0.341589481,0.253705412,0.491754383,-0.575442135,0.130568102,0.080236733,0.346451432,0.494402677,-0.038096506,-0.00029868
1.900046349,-0.714240789,-0.159994662,-0.354039401,0.161037624,0.314893126,-0.520952284,0.130073979,0.08026801,0.346537799,0.495127618,-0.036780614,-0.001308187
1.905045748,-0.748242557,-0.144489735,-0.374234527,0.092799842,0.164523751,-0.484194845,0.12353798,0.080850169,0.350396037,0.495498508,-0.036255151,-0.002574534
1.91004622,-0.785776079,-0.137264565,-0.388711751,0.038734268,0.038769294,-0.457838088,0.121370763,0.081043199,0.351675361,0.495605111,-0.036384974,-0.004065495
1.915047646,-0.811184764,-0.139416501,-0.396984845,-0.001254797,-0.063363187,-0.43323943,0.119703233,0.081191726,0.352659702,0.495532095,-0.037041608,-0.005675277
1.920044303,-0.833388746,-0.138265043,-0.391458124,-0.041976079,-0.152200669,-0.406345427,0.119150318,0.081240967,0.352986097,0.495269865,-0.038187623,-0.007377432
1.925041914,-0.855004311,-0.133810952,-0.376959115,-0.082809769,-0.23884289,-0.36958611,0.117026858,0.080503762,0.353935868,0.494810283,-0.039826926,-0.009090172
1.930040359,-0.885864675,-0.12742804,-0.351714283,-0.123902954,-0.326766163,-0.326402128,0.115902573,0.080067515,0.354423672,0.494168848,-0.042017572,-0.010786696
1.935045838,-0.926145256,-0.114663564,-0.321851909,-0.164321646,-0.416522205,-0.282054842,0.115037516,0.079731859,0.354799032,0.49333325,-0.044778097,-0.012498356
1.940046549,-0.973643601,-0.094421752,-0.293697298,-0.203797922,-0.517945766,-0.235182226,0.114750683,0.079620562,0.354923487,0.49229753,-0.048195068,-0.014262362
1.945053697,-1.026635647,-0.077722408,-0.271657616,-0.23417227,-0.622660637,-0.195625007,0.114510998,0.078622013,0.356255621,0.491111189,-0.052260634,-0.016113658
1.950056195,-1.086298108,-0.068265714,-0.253711998,-0.261100709,-0.725211501,-0.164598137,0.114412382,0.077370338,0.357944071,0.489820123,-0.056968097,-0.018046571
1.955053806,-1.139859676,-0.074216761,-0.240865633,-0.288877249,-0.816065788,-0.146416098,0.114336506,0.076407261,0.359243214,0.488439769,-0.062203135,-0.020088723
1.960052252,-1.179100037,-0.095161848,-0.230495214,-0.325671732,-0.898566127,-0.130638748,0.114311345,0.076087922,0.359674007,0.486933202,-0.067893296,-0.022183852
1.965051413,-1.196915507,-0.123988889,-0.223945603,-0.372913718,-0.974690557,-0.118470117,0.114291988,0.075842217,0.360005468,0.485257357,-0.073964566,-0.024310451
1.970051885,0.510624409,-0.235406816,-0.779732406,-0.304034293,-1.350914359,0.13944304,0.116806604,0.074369177,0.363460392,0.483393192,-0.078682683,-0.026496461
1.975053072,-0.12389487,-0.219760358,-0.886228442,-0.191813603,-1.989564538,0.401418,0.11874143,0.07323578,0.366118729,0.482826889,-0.089364864,-0.029488849
1.98004961,0.726708174,-0.797688484,-0.933529675,-0.483638167,-1.959399343,0.406689852,0.119382985,0.072859958,0.367000192,0.480834752,-0.097844072,-0.03021488
1.985046983,1.235715151,-1.249384642,-0.936256111,-0.469588161,-2.283770561,0.555463016,0.119876616,0.072570793,0.367678374,0.480301559,-0.106281042,-0.029701017
1.99004519,0.633582592,-1.313307285,-1.135434031,-0.721434712,-2.463671446,0.861596406,0.122848444,0.071302675,0.368821204,0.477891058,-0.118542857,-0.028760504
1.995044589,0.569249928,-1.185127378,-1.138948441,-1.003963947,-2.553682089,1.15653491,0.127974555,0.069141634,0.370628715,0.473644793,-0.131415054,-0.026907291
2.000045061,0.772914827,-0.787825167,-1.093582153,-1.145743608,-2.782646656,1.461891532,0.129674271,0.068425074,0.371228039,0.467775702,-0.145553753,-0.025275484
2.005052328,0.308993846,-0.515281618,-1.050544381,-1.205473542,-3.156523466,1.623886108,0.130982086,0.067873731,0.3716892,0.461510479,-0.16297181,-0.024346028
2.010054827,-0.085455276,-0.328893423,-1.043357491,-1.122525811,-3.453225374,1.632669926,0.13141574,0.067690916,0.371842116,0.455593199,-0.182328165,-0.024519809
2.015052557,-0.566588461,-0.084541917,-1.062438846,-1.004624248,-3.678260088,1.555038929,0.145120651,0.060803965,0.371963561,0.450108051,-0.203280911,-0.026143644
2.020051003,-1.003382087,0.035310853,-1.143297434,-0.873925686,-3.735871077,1.41645968,0.149664938,0.05852038,0.372003824,0.445263594,-0.22477752,-0.02887731
2.025050163,-1.176495194,0.131691426,-1.274790764,-0.705382347,-3.637807369,1.291416049,0.153161451,0.056763321,0.372034788,0.441065252,-0.24547793,-0.032192469
2.030050278,-1.27141428,0.203932241,-1.427822113,-0.421804398,-3.461805582,1.166325212,0.154320836,0.056180712,0.37204507,0.438206673,-0.265158236,-0.035927139
2.035058022,-1.235931993,0.264930636,-1.557567954,-0.109486058,-3.241378307,1.023716927,0.168507352,0.049758632,0.369751096,0.436950862,-0.283224046,-0.040083464
2.04006052,-1.159384847,0.175425276,-1.546924949,0.11075446,-3.003671169,0.986365318,0.17650108,0.046150956,0.36842081,0.436881185,-0.299880087,-0.043471359
2.04505825,-1.117305756,0.039107416,-1.460181355,0.283401281,-2.743095875,1.056743741,0.182651713,0.043375093,0.367397249,0.437664807,-0.315492332,-0.045316391
2.050056458,-1.021588445,-0.070808627,-1.364082575,0.39142561,-2.507378817,1.14662981,0.184691146,0.042454671,0.36705786,0.438898325,-0.330057561,-0.045774523
2.055055857,-0.946341813,-0.183736518,-1.241858602,0.462269783,-2.320878267,1.214896917,0.193072453,0.040267684,0.364682794,0.440434217,-0.343845159,-0.045068964
2.060055971,-0.88511312,-0.334971935,-1.114893794,0.522174895,-2.16919589,1.219069242,0.202720851,0.038051318,0.361763597,0.442526519,-0.356853306,-0.04349884
2.065063477,-0.87369436,-0.559198678,-1.014705062,0.49032563,-2.047639847,1.20270288,0.210144639,0.036345974,0.359517485,0.444848299,-0.369232684,-0.041160304
2.070065737,-0.868020594,-0.766689122,-0.875943601,0.393204331,-1.917187572,1.146961451,0.212606221,0.035780516,0.358772725,0.446999252,-0.380962372,-0.03812148
2.075063229,-0.784326613,-0.885404885,-0.777742565,0.270050406,-1.83463347,1.040982723,0.214500248,0.035345435,0.358199686,0.448933452,-0.391858608,-0.035156541
2.080061674,-0.830662906,-0.971708715,-0.690731645,0.076738641,-1.772999883,0.949659467,0.223289713,0.033553131,0.356227636,0.450128436,-0.402498722,-0.032247707
2.085061073,-0.757080376,-1.033271432,-0.650155187,-0.112799391,-1.723288417,0.819668591,0.23005259,0.032174077,0.354710251,0.45071283,-0.412377745,-0.029707395
2.090061665,-0.793106258,-0.987243474,-0.638936996,-0.314588606,-1.685198069,0.717683375,0.232295036,0.031716809,0.354207128,0.450309038,-0.422047436,-0.027781751
2.095062733,-0.732213199,-0.878846169,-0.673341095,-0.483040571,-1.630277038,0.63129425,0.234020457,0.03136497,0.353819996,0.448988259,-0.431095302,-0.02645237
2.100059509,-0.777085483,-0.713013887,-0.754117072,-0.639476538,-1.546037197,0.622908175,0.238435343,0.029892489,0.35248661,0.446438491,-0.439856082,-0.025449682
2.105056763,-0.805183947,-0.50211072,-0.837193668,-0.712319911,-1.397884369,0.644421995,0.245717943,0.027388571,0.350242227,0.442858577,-0.448013186,-0.024438927
2.110055208,-0.820596635,-0.334202021,-0.912829638,-0.70954144,-1.230202794,0.667685449,0.248132721,0.026558319,0.349498004,0.438819945,-0.455439955,-0.023339877
2.115054607,-0.797270954,-0.254581571,-0.935889482,-0.68112421,-1.052548885,0.696125805,0.249990717,0.025919497,0.348925412,0.434574574,-0.462052077,-0.021760356
2.12005496,-0.733568847,-0.260149151,-0.91475451,-0.639006555,-0.904509544,0.707897365,0.250606805,0.025707677,0.348735541,0.430425942,-0.467910975,-0.019627184
2.125062466,-0.697623968,-0.342697382,-0.87665683,-0.622840464,-0.791453898,0.712386668,0.258020639,0.021196201,0.345947683,0.426454097,-0.473204941,-0.016902296
2.130064964,-0.667781115,-0.466697395,-0.821889102,-0.647047043,-0.691627622,0.703634918,0.260478914,0.019700281,0.345023274,0.422517031,-0.478009224,-0.013597757
2.135068178,-0.626052141,-0.544681191,-0.778854311,-0.694190681,-0.615696073,0.680627227,0.262370378,0.018549271,0.344312012,0.41842708,-0.482327193,-0.010004194
2.140066862,-0.59399277,-0.558748186,-0.773449957,-0.749034464,-0.570701838,0.651705086,0.262997568,0.018167619,0.344076157,0.414084911,-0.486341178,-0.006486563
2.145066023,-0.575228155,-0.488762081,-0.796098948,-0.809853077,-0.521226883,0.643710613,0.266696721,0.014339367,0.342417777,0.40920347,-0.490101635,-0.00307633
2.150066376,-0.537975967,-0.387850195,-0.827026129,-0.840881586,-0.485331297,0.655410409,0.268719226,0.012195345,0.341502428,0.403858751,-0.493646592,0.000255216
2.155067682,-0.527341664,-0.31409502,-0.851814628,-0.846461952,-0.452699691,0.671218157,0.270275384,0.010545666,0.34079814,0.398286402,-0.49707374,0.003582537
2.16006422,-0.545619607,-0.277802408,-0.87163794,-0.843782723,-0.42239967,0.681487381,0.270791382,0.009998664,0.340564609,0.392625213,-0.50039202,0.00697444
2.165061712,-0.616414666,-0.254838437,-0.891879201,-0.823452234,-0.36903441,0.666893661,0.272362381,0.007269056,0.339961946,0.386971116,-0.503541887,0.010417183
2.170059919,-0.569307089,-0.237968355,-0.882566214,-0.78614223,-0.314988673,0.638320625,0.274067163,0.004035859,0.33933562,0.381533206,-0.506225288,0.013830496
2.175059557,-0.52287358,-0.217199817,-0.870919049,-0.752890408,-0.29455024,0.61515981,0.275378853,0.001548134,0.338853717,0.3762784,-0.508719265,0.017141238
2.18005991,-0.505216539,-0.229522094,-0.873531461,-0.735120893,-0.279665202,0.600653529,0.275813788,0.000723251,0.338693917,0.37114507,-0.511122525,0.020459989
2.185067177,-0.56149745,-0.246338129,-0.89751339,-0.7162444,-0.255684048,0.577497482,0.276148468,8.86E-05,0.338570952,0.366176009,-0.513409197,0.023707647
2.190069437,-0.555778921,-0.23252663,-0.909505606,-0.681339324,-0.225626335,0.546384394,0.277417839,-0.003814182,0.337751895,0.361367524,-0.515420318,0.026880305
2.195067167,-0.496033579,-0.216424748,-0.887966573,-0.642839193,-0.212316573,0.519901574,0.27839455,-0.006817077,0.337121695,0.356791258,-0.517239153,0.029952627
2.200065613,-0.488725722,-0.220284626,-0.887515604,-0.610434353,-0.219529733,0.487645805,0.278718412,-0.00781278,0.336912721,0.352478683,-0.519088984,0.032866057
2.205065012,-0.518823743,-0.216208175,-0.884242654,-0.572064817,-0.217789128,0.453619659,0.278967589,-0.008578906,0.336751968,0.348484755,-0.520915389,0.035531722
2.210065365,-0.538367987,-0.206972986,-0.900414884,-0.532611191,-0.219703063,0.416193217,0.279791951,-0.01073299,0.335826516,0.344742835,-0.522633374,0.038016658
2.21506691,-0.573562503,-0.199713618,-0.914524138,-0.487311006,-0.190708861,0.379197359,0.281176269,-0.014311659,0.334232539,0.341263503,-0.524188042,0.040352359
2.22006321,-0.582574606,-0.170934334,-0.919016778,-0.426681668,-0.153257787,0.336210608,0.281635314,-0.015498279,0.333704025,0.338090688,-0.52552706,0.042508215
2.225060701,-0.534832835,-0.166054592,-0.887248516,-0.375601947,-0.129392698,0.301400632,0.281988502,-0.016411301,0.333297372,0.335307002,-0.526632309,0.044542309
2.23005867,-0.547990143,-0.198683903,-0.862851679,-0.333458424,-0.140281737,0.274382293,0.282105595,-0.016714042,0.333162546,0.332917929,-0.527799666,0.046482224
2.23506403,-0.537079036,-0.216377646,-0.874103725,-0.283671975,-0.134368405,0.232699692,0.282906383,-0.020004859,0.33283025,0.330882549,-0.52878207,0.048278499
2.240064621,-0.502407074,-0.228570908,-0.851947725,-0.252734691,-0.121970452,0.219912037,0.283171892,-0.02109603,0.332720071,0.329058588,-0.529698551,0.050097287
2.245071888,-0.521785855,-0.249244198,-0.852799654,-0.22891584,-0.133572087,0.213847682,0.283376187,-0.021935614,0.332635283,0.327424943,-0.53067857,0.051861294
2.250074387,-0.474268794,-0.258447826,-0.858348489,-0.204513147,-0.137005687,0.2047012,0.283443928,-0.022214005,0.33260718,0.325905085,-0.531534553,0.053634215
2.25507164,-0.497101784,-0.274325103,-0.844888806,-0.19508335,-0.132034868,0.216045722,0.283820152,-0.023916524,0.331845433,0.324474096,-0.532508075,0.055540387
2.260070086,-0.493961126,-0.275686353,-0.848625422,-0.185432345,-0.144547194,0.213190883,0.284025073,-0.024849337,0.331409693,0.323087871,-0.533456147,0.057387125
2.265069246,-0.490514189,-0.283876806,-0.835666358,-0.180855155,-0.134566218,0.223635077,0.284182757,-0.025567072,0.331074417,0.321679056,-0.534445465,0.05940216
2.270069838,-0.510735869,-0.286592543,-0.836531878,-0.178954825,-0.140990615,0.228122354,0.28423503,-0.025805058,0.330963254,0.320307106,-0.5354653,0.061380763
2.275070906,-0.488729775,-0.290946871,-0.835455835,-0.177973494,-0.12488389,0.241421595,0.28454265,-0.026717478,0.330667615,0.31885457,-0.536396325,0.06355226
2.280067682,-0.525340974,-0.288733989,-0.844555676,-0.175768703,-0.122878782,0.250651032,0.284914315,-0.02775545,0.33035776,0.317403853,-0.537383318,0.065711915
2.285064936,-0.516794145,-0.272386134,-0.84832871,-0.162875697,-0.0997869,0.260151446,0.285200268,-0.028554099,0.330119312,0.315900505,-0.538242817,0.067993551
2.290063381,-0.518266499,-0.267205149,-0.836267889,-0.162251651,-0.104693122,0.257963896,0.285295099,-0.028818917,0.330040276,0.314453125,-0.539142668,0.070190586
2.295062542,-0.509180307,-0.263688296,-0.844736159,-0.154770419,-0.093666695,0.255847424,0.285368055,-0.029022673,0.32997945,0.312990785,-0.539960444,0.072433665
2.300062895,-0.518494129,-0.257493407,-0.832778811,-0.146799326,-0.105694585,0.238468081,0.285906136,-0.029914947,0.32986483,0.311661065,-0.540849984,0.074507229
2.3050704,-0.522592962,-0.245242715,-0.82641685,-0.14198108,-0.097265266,0.237026989,0.28632015,-0.030601492,0.329776645,0.310329139,-0.54171598,0.076589949
2.310072899,-0.514618218,-0.238787696,-0.839526772,-0.129956022,-0.114386231,0.21732825,0.286457419,-0.030829137,0.329747409,0.309130788,-0.542547524,0.078457698
2.315070391,-0.550479174,-0.248920232,-0.847707808,-0.12514028,-0.114000842,0.213167116,0.286563039,-0.031004295,0.329724878,0.307981789,-0.543433905,0.080333464
2.320068836,-0.499981046,-0.226871893,-0.844937623,-0.109986305,-0.118284449,0.191351429,0.286348253,-0.03160375,0.330021501,0.306893587,-0.544193625,0.082082532
2.325067997,-0.525279582,-0.227579355,-0.83955878,-0.099133633,-0.125285983,0.173030451,0.285930395,-0.032612402,0.330557197,0.305966735,-0.54508543,0.083714865
2.330068111,-0.535120845,-0.222195655,-0.826931536,-0.091164932,-0.115002356,0.164614558,0.285791844,-0.032946851,0.330734819,0.30507791,-0.545938313,0.08534947
2.335069418,-0.525283277,-0.215426639,-0.832606375,-0.069247223,-0.134702235,0.135937631,0.285685241,-0.03320419,0.330871493,0.304414093,-0.546759725,0.086700566
2.340071678,-0.556868613,-0.21906139,-0.84345758,-0.055240925,-0.13786386,0.131233662,0.285649866,-0.033289518,0.330916792,0.303828567,-0.547644436,0.088038199
2.34506917,-0.501496434,-0.206019968,-0.845409274,-0.03193365,-0.145251885,0.107473396,0.286643803,-0.034795027,0.330885828,0.303370357,-0.548399806,0.089234538
2.350067139,-0.521352291,-0.219385728,-0.838964283,-0.014834276,-0.152639627,0.093951412,0.286973387,-0.035294224,0.330875546,0.303116351,-0.549285054,0.090388447
2.355066299,-0.524648666,-0.231436372,-0.834717989,-0.00120128,-0.156977549,0.09001743,0.287226945,-0.035678323,0.330867618,0.302972078,-0.550150156,0.091522671
2.360066652,-0.486211717,-0.239443868,-0.829047084,0.003722766,-0.152109906,0.091316752,0.287311018,-0.035805684,0.330864996,0.302797705,-0.550969124,0.092785791
2.365073919,-0.517689943,-0.253913134,-0.827136517,0.005429462,-0.161064044,0.093131587,0.287687659,-0.036381185,0.329360902,0.302718937,-0.551885843,0.093993522
2.370076418,-0.524559379,-0.264114171,-0.8215729,0.003167934,-0.158425435,0.099452354,0.287889719,-0.036690168,0.328490466,0.302605808,-0.552781403,0.095301405
2.375074387,-0.572099388,-0.278767735,-0.819988906,-0.001818998,-0.154541433,0.118285537,0.288045198,-0.036927912,0.327820748,0.302444398,-0.553749502,0.09673728
2.380072355,-0.50525099,-0.259470522,-0.813076019,-0.002921403,-0.145826548,0.112013161,0.288096756,-0.037006743,0.327598691,0.302189648,-0.554534912,0.098161124
2.385071754,-0.53172034,-0.265746117,-0.812186182,-0.003610645,-0.14338319,0.107837841,0.288364023,-0.037097543,0.327770144,0.302021861,-0.555413544,0.099533901
2.390072107,-0.529930592,-0.267776221,-0.806710899,-0.003447162,-0.136166945,0.108169064,0.288682163,-0.037158046,0.328172147,0.301840544,-0.556227505,0.100951821
2.395073652,-0.55405277,-0.274051666,-0.809347332,-0.00706661,-0.124941677,0.116269261,0.288926929,-0.037204601,0.328481466,0.301630437,-0.557014346,0.10242819
2.40007019,-0.508532941,-0.25709036,-0.807081223,-0.008442415,-0.114437446,0.114505328,0.289008111,-0.037220038,0.328584045,0.30131346,-0.557681978,0.103927366
2.405067444,-0.527742922,-0.25862962,-0.806015849,-0.004990289,-0.11467088,0.106798418,0.289070576,-0.037231918,0.328662962,0.301104486,-0.558408797,0.105327167
2.410065651,-0.525705576,-0.264284402,-0.807248056,-0.003067633,-0.109329507,0.110006697,0.289654046,-0.037814412,0.32779327,0.300894558,-0.55907917,0.106787488
2.415064812,-0.552094936,-0.270605773,-0.81335181,-0.01623131,-0.094718955,0.131768122,0.290102988,-0.038262602,0.327124089,0.30055809,-0.559762239,0.108419187
2.420065165,-0.504722178,-0.282549709,-0.80995214,-0.022160059,-0.098629341,0.129983991,0.290251821,-0.038411211,0.326902211,0.300203979,-0.560322881,0.110051945
2.42507267,-0.52380532,-0.306655198,-0.808031976,-0.037856545,-0.090947196,0.144321576,0.290366381,-0.038525559,0.326731503,0.29978466,-0.560953677,0.111842059
2.430075407,-0.506592989,-0.313492835,-0.805207968,-0.057181209,-0.07494884,0.162482113,0.290351719,-0.038824867,0.326412439,0.299165189,-0.561508954,0.113829948
2.435073376,-0.524104655,-0.310562998,-0.806895554,-0.067541264,-0.076500215,0.171428025,0.290287167,-0.039319474,0.325901538,0.298492491,-0.56212014,0.115790345
2.440077782,-0.511302888,-0.298734307,-0.81175375,-0.077539295,-0.072120592,0.179306179,0.290265769,-0.039483476,0.325732142,0.29769361,-0.562670588,0.11779166
2.445077419,-0.520881653,-0.287192076,-0.817133129,-0.089813776,-0.074572198,0.187718034,0.290249288,-0.039609663,0.325601816,0.296813518,-0.563273191,0.119788267
2.450078011,-0.50790143,-0.279948682,-0.823217988,-0.10156934,-0.082081318,0.187430114,0.290243834,-0.039651506,0.325558573,0.295856535,-0.563873649,0.121753559
2.455079079,-0.508464694,-0.273171276,-0.82610929,-0.108966976,-0.091503739,0.190293446,0.290717036,-0.040435936,0.325586915,0.294848114,-0.564532578,0.123710804
2.460076094,-0.515226364,-0.263499945,-0.826630235,-0.120273948,-0.101655163,0.192433521,0.290873945,-0.04069604,0.325596333,0.293766618,-0.565264225,0.125641927
2.465073347,-0.52005744,-0.2628465,-0.820292652,-0.130569249,-0.108107865,0.194075137,0.290994674,-0.04089617,0.325603575,0.292646825,-0.566033602,0.127572224
2.470071793,-0.52317369,-0.256206095,-0.814055681,-0.131824493,-0.110188827,0.194047689,0.291034698,-0.040962528,0.325605989,0.291512728,-0.56681937,0.129491702
2.475071192,-0.524503291,-0.249933317,-0.813764989,-0.130657926,-0.105271108,0.192140132,0.29137668,-0.041828413,0.326174051,0.290377378,-0.56757915,0.131413177
2.480071783,-0.527934074,-0.237615779,-0.811522305,-0.125862643,-0.099241845,0.190532699,0.291567087,-0.042317152,0.326502532,0.289244086,-0.568301678,0.13331379
2.48507905,-0.534514666,-0.229242325,-0.810395896,-0.115750238,-0.089174576,0.184013709,0.291713566,-0.042693205,0.326755285,0.288164616,-0.568985522,0.135178804
2.49008131,-0.539388597,-0.222323537,-0.808925092,-0.104990587,-0.084903717,0.179510534,0.291762143,-0.042817898,0.326839089,0.287132919,-0.569648743,0.137010068
2.495078802,-0.538316429,-0.219099343,-0.809346676,-0.09249904,-0.076403573,0.173021883,0.291835397,-0.04332453,0.32629472,0.286174625,-0.570255876,0.138816074
2.500077009,-0.533152223,-0.215379313,-0.813338816,-0.081575826,-0.069541901,0.167636663,0.291895866,-0.043906663,0.32550022,0.285274476,-0.570801675,0.140595362
2.50507617,-0.531629622,-0.211571559,-0.816044748,-0.067562789,-0.067632936,0.166366577,0.291942388,-0.044354573,0.324888885,0.28444016,-0.571346819,0.142346978
2.510076523,-0.535826147,-0.228314847,-0.811284006,-0.060051769,-0.064637288,0.166771322,0.291957825,-0.044503093,0.324686199,0.28369081,-0.571881115,0.144167721
2.515077829,-0.537967384,-0.251381606,-0.803851545,-0.061849095,-0.054900892,0.170455143,0.291969687,-0.044617366,0.324530214,0.282947361,-0.572376907,0.146101385
2.520074129,-0.536172271,-0.26272276,-0.80038321,-0.06934613,-0.045618042,0.177485675,0.292184383,-0.045468137,0.325046659,0.282151163,-0.572827339,0.148120835
2.525071621,-0.535135567,-0.267779708,-0.799470246,-0.081459612,-0.037385818,0.188702375,0.292349547,-0.046122748,0.325444013,0.281256855,-0.573251009,0.150224313
2.530069828,-0.538089037,-0.264707983,-0.797827482,-0.091314286,-0.027892556,0.198189169,0.292404324,-0.046339806,0.325575799,0.280262232,-0.573646903,0.152408004
2.535069227,-0.534589946,-0.256628573,-0.802511215,-0.099894002,-0.022238398,0.207943678,0.292446464,-0.046506815,0.325677186,0.27916199,-0.574012578,0.154624909
2.540075541,-0.530457258,-0.246924222,-0.8056072,-0.10224995,-0.017666386,0.219324261,0.292523831,-0.046942592,0.325314194,0.27799952,-0.574371755,0.15687874
2.545077085,-0.520336807,-0.247155398,-0.81175679,-0.098823816,-0.023299767,0.229344368,0.292647481,-0.047662534,0.324633896,0.276833862,-0.574757159,0.159182891
2.550073624,-0.515516222,-0.253468812,-0.819427729,-0.098049812,-0.029087013,0.23862879,0.292688489,-0.047901254,0.324408323,0.275664389,-0.575165689,0.161539018
2.555071115,-0.514796436,-0.2503483,-0.824781954,-0.094910458,-0.036401093,0.252504855,0.29272005,-0.048084933,0.324234754,0.274459481,-0.575631618,0.163943589
2.560069799,-0.512091339,-0.251069933,-0.826943874,-0.091358393,-0.048498627,0.264036626,0.29273051,-0.048145838,0.324177206,0.273260117,-0.576156497,0.166396603
2.565069199,-0.516604602,-0.234140486,-0.835491419,-0.087926149,-0.063990995,0.272631407,0.292754292,-0.049469985,0.324957639,0.272007108,-0.576780915,0.16884461
2.57007575,-0.515101373,-0.220225841,-0.843309164,-0.075516336,-0.079246044,0.282237589,0.29276219,-0.049909048,0.325216413,0.27077651,-0.577481389,0.171270117
2.575077295,-0.512626886,-0.215146676,-0.844520986,-0.064076096,-0.099022016,0.286466002,0.29276824,-0.050246876,0.325415522,0.269612491,-0.578279793,0.173677891
2.580074549,-0.51074934,-0.216880858,-0.847186506,-0.04935997,-0.124133982,0.288548529,0.292770237,-0.050358891,0.325481534,0.268544465,-0.579192162,0.176055193
2.585071802,-0.500995278,-0.223888129,-0.838856697,-0.035681643,-0.144039243,0.287575841,0.292580694,-0.051104397,0.325355858,0.267574281,-0.580189824,0.178440183
2.590070248,-0.50957346,-0.229340389,-0.841073573,-0.017595703,-0.16290997,0.289697975,0.292470545,-0.051514741,0.325270504,0.26673907,-0.581282973,0.180809096
2.595069408,-0.518785894,-0.233691096,-0.840629399,-0.012124134,-0.175894439,0.299150676,0.292385787,-0.051830471,0.325204849,0.265890568,-0.582470059,0.183248892
2.60007,-0.507518589,-0.239708528,-0.84042716,-0.009813207,-0.195761815,0.309019476,0.292357713,-0.051935162,0.325183064,0.265060574,-0.583728611,0.185709655
2.605065584,-0.502582252,-0.241598159,-0.842695117,-0.006980027,-0.21730268,0.312900215,0.292656332,-0.052456681,0.325005203,0.264242738,-0.585091114,0.188159376
2.610062122,-0.507468283,-0.234088242,-0.847792447,0.000369856,-0.245052189,0.312395275,0.293078274,-0.053074274,0.324783772,0.263463736,-0.58659935,0.190546796
2.615059376,-0.513334453,-0.228331774,-0.855221629,0.017176922,-0.268684775,0.314686507,0.29340294,-0.053549469,0.324613392,0.262779087,-0.588214755,0.192887217
2.620057821,-0.505637109,-0.216405809,-0.860959053,0.029877769,-0.302094221,0.317840517,0.293510586,-0.053707033,0.324556917,0.262133211,-0.589976728,0.195158124
2.625056982,-0.516448081,-0.220114619,-0.862098277,0.047754288,-0.326641262,0.326118857,0.293593436,-0.053828269,0.324513465,0.261606276,-0.591891706,0.19744654
2.630063295,-0.511477649,-0.260603219,-0.862475097,0.037494168,-0.354829729,0.331395119,0.293739617,-0.054901384,0.323053956,0.261087477,-0.593919218,0.199866429
2.635065079,-0.50063616,-0.270951152,-0.863990307,-0.005862593,-0.406440943,0.337612808,0.293852091,-0.055727068,0.321930975,0.260389119,-0.596193552,0.202241048
2.640062094,-0.515369654,-0.219856441,-0.87167269,-0.005961018,-0.449406058,0.344428182,0.293889403,-0.056000851,0.321558625,0.259546667,-0.598724127,0.204425946
2.645065784,-0.512109756,-0.225143701,-0.874148905,0.002808369,-0.489455521,0.353760332,0.293918073,-0.056211509,0.321272105,0.25880605,-0.601418376,0.206644446
2.650064707,-0.520371735,-0.253164798,-0.871093571,-0.005636211,-0.530940473,0.361306906,0.294502527,-0.056555379,0.320849299,0.258111417,-0.604338765,0.208941728
2.655064106,-0.51636076,-0.262346298,-0.878797889,-0.015286493,-0.57467258,0.376262456,0.295533597,-0.05709704,0.320192516,0.257334292,-0.607456207,0.211251006
2.660064459,-0.513835847,-0.273688585,-0.878171086,-0.031634547,-0.623530447,0.396070421,0.29587549,-0.057276644,0.31997472,0.256472528,-0.610829771,0.213646233
2.665060282,-0.529240727,-0.260690778,-0.883125186,-0.036370516,-0.681351542,0.422026783,0.296138555,-0.057414837,0.319807172,0.255502373,-0.61454922,0.216056466
2.67005682,-0.519112468,-0.295367956,-0.889174759,-0.045269363,-0.734578967,0.452005446,0.296225786,-0.057460658,0.31975159,0.254518062,-0.618509293,0.218654662
2.675054073,-0.517611742,-0.315129846,-0.890237331,-0.083267398,-0.811307132,0.486859649,0.297992259,-0.059242513,0.317077041,0.25330168,-0.62287271,0.22141476
2.680052519,-0.524348676,-0.284856081,-0.903661847,-0.094557561,-0.883789301,0.524092257,0.298577994,-0.05983334,0.316190213,0.251847059,-0.627658367,0.224185154
2.685051918,-0.521995544,-0.278812468,-0.921420515,-0.095947415,-0.967036664,0.560304582,0.299028695,-0.060287941,0.315507829,0.250326335,-0.632845402,0.227027416
2.690058231,-0.521650374,-0.261076182,-0.936570168,-0.101855472,-1.059724808,0.590773523,0.299178123,-0.060438678,0.31528157,0.248694018,-0.638510823,0.229878396
2.695060015,-0.518612385,-0.20504272,-0.967149556,-0.08296299,-1.164286256,0.613819003,0.301230639,-0.062337492,0.313354015,0.247004986,-0.644665182,0.232558697
2.700056791,-0.5343104,-0.204095304,-0.996912062,-0.077151224,-1.278032064,0.636421502,0.302390665,-0.06340827,0.312280953,0.245387435,-0.651396215,0.235197634
2.705054283,-0.507937431,-0.18199414,-1.011864662,-0.0848445,-1.424772978,0.648903549,0.303283215,-0.064232163,0.311455339,0.243710846,-0.658792377,0.237643734
2.71005249,-0.498333454,-0.14147906,-1.051629305,-0.067103326,-1.580340981,0.653283834,0.303579181,-0.064505346,0.311181575,0.24213241,-0.666921079,0.239714384
2.715052128,-0.485485733,-0.165821791,-1.077212453,-0.044533029,-1.742194295,0.664875448,0.305424839,-0.065834582,0.308873922,0.240832701,-0.675777674,0.241692424
2.720052481,-0.469063997,-0.201810122,-1.097451568,-0.024881732,-1.923124313,0.690546155,0.307668298,-0.067403764,0.305994123,0.239747733,-0.685469627,0.243609846
2.725048304,-0.488214642,-0.217734307,-1.139907241,0.003481283,-2.106122255,0.723070681,0.309394509,-0.068611138,0.303778321,0.238835424,-0.696080327,0.245483235
2.730044842,-0.441645265,-0.257572293,-1.148076057,0.026833309,-2.308353186,0.783275604,0.309966862,-0.06901148,0.303043604,0.238058403,-0.707627356,0.247496456
2.735042334,-0.404554456,-0.312688291,-1.160525799,0.017651416,-2.551008463,0.848677695,0.310407281,-0.069319516,0.302478254,0.237277985,-0.720364928,0.249670669
2.740040779,-0.417894691,-0.371492982,-1.17247045,-0.032323085,-2.792830229,0.930074394,0.315117151,-0.071691677,0.297254384,0.236218229,-0.734376073,0.252090305
2.745046377,-0.445139349,-0.483988762,-1.194128275,-0.131950006,-3.036016464,1.03978312,0.318741083,-0.07351689,0.293234974,0.234620452,-0.749636352,0.255089253
2.750047207,-0.471722931,-0.57553488,-1.1983248,-0.289839506,-3.273488998,1.176634312,0.319942713,-0.074122094,0.291902244,0.231908023,-0.766198814,0.258948982
2.755043268,-0.428028196,-0.646084309,-1.207457304,-0.440601498,-3.511341095,1.310436368,0.32086727,-0.074587762,0.290876746,0.2280754,-0.783907056,0.263453454
2.760040045,-0.431670517,-0.643831074,-1.228765845,-0.546057224,-3.771812677,1.452922702,0.324579865,-0.076842725,0.285938114,0.223085001,-0.803027511,0.268624425
2.765037298,-0.495755583,-0.649118483,-1.240570784,-0.640836239,-4.037849426,1.617116213,0.330880463,-0.080701746,0.277488261,0.216888994,-0.823662162,0.27483356
2.770035744,-0.595039666,-0.688216329,-1.243727446,-0.712867081,-4.288913727,1.779052734,0.332969636,-0.081981324,0.274686456,0.209689602,-0.845694959,0.282151759
2.775035143,-0.632133186,-0.79979521,-1.191967964,-0.819014013,-4.522975445,2.010668755,0.334577084,-0.082965866,0.272530675,0.200841352,-0.869130969,0.291510612
2.780035734,-0.579819262,-0.832236588,-1.134710908,-0.940580368,-4.772678375,2.272396088,0.335110068,-0.083292328,0.271815836,0.189555645,-0.893918812,0.303215742
2.785031319,-0.5266397,-0.799877167,-1.095978737,-1.058102369,-5.072752476,2.540627003,0.345433176,-0.092932075,0.255904496,0.175452188,-0.920306802,0.317317903
2.790028095,-0.680178225,-0.715414762,-1.180458665,-1.128892541,-5.346912384,2.808794022,0.348856151,-0.096128434,0.250628561,0.15815793,-0.948265016,0.334223688
2.795025349,-0.932383716,-0.667467475,-1.278421521,-1.18160677,-5.443226337,2.997854471,0.351489872,-0.098587818,0.246569112,0.137695655,-0.976635456,0.354224861
2.800023794,-1.074989676,-0.618501604,-1.34599638,-1.253944039,-5.520027161,3.168311357,0.352363169,-0.099403307,0.245223075,0.113792911,-1.005145907,0.377378792
2.805023193,-1.255138516,-0.612616181,-1.350738764,-1.324227214,-5.499753475,3.325984955,0.35965848,-0.110746674,0.226632193,0.086071752,-1.033351302,0.404416233
2.810029507,-1.259162426,-0.610513449,-1.293673038,-1.454922318,-5.437931061,3.516474962,0.363716453,-0.117159605,0.216123745,0.053080287,-1.060836911,0.43642503
2.815031052,-1.293273568,-0.698642135,-1.251896381,-1.615657687,-5.39547348,3.684904099,0.366838783,-0.122093916,0.208038196,0.014653726,-1.087582469,0.473691553
2.82002759,-1.458527327,-0.822963715,-1.234719157,-1.765723825,-5.274616718,3.86631465,0.367874086,-0.123730041,0.205357179,-0.029728517,-1.113147259,0.517049074
2.825025082,-1.580533504,-0.911010325,-1.252294779,-1.91127646,-5.11736393,4.027667999,0.370693177,-0.132956415,0.192367747,-0.081037909,-1.136841416,0.567146301
2.830023527,-1.743231058,-1.014548063,-1.27936542,-1.980854988,-4.90459919,4.091430187,0.373667389,-0.144050077,0.17704238,-0.137671784,-1.158347249,0.622725129
2.835022926,-1.743709445,-1.146621346,-1.22284925,-2.023442507,-4.598921776,4.189702988,0.37595585,-0.152585894,0.16525057,-0.199601948,-1.176934719,0.684159338
2.840023279,-1.652014136,-1.150222301,-1.140092969,-2.167284012,-4.311141491,4.208662987,0.376714647,-0.155416206,0.161340624,-0.2672728,-1.192611933,0.750441909
2.845024824,-1.671565413,-1.016894102,-1.179753065,-2.371609688,-3.978498936,4.064524651,0.377298504,-0.157593951,0.158332184,-0.338505447,-1.205060005,0.818390071
2.850021362,-1.539317012,-0.844947338,-1.152281046,-2.478388071,-3.557510614,3.792022705,0.374944031,-0.173645258,0.13902463,-0.408883572,-1.214244485,0.883964539
2.855018854,-1.233705878,-0.741374433,-1.047115445,-2.564589739,-3.112443209,3.506572008,0.373132408,-0.185995638,0.124168776,-0.477011263,-1.220323682,0.94611448
2.860017061,-0.849710763,-0.485429287,-1.064124227,-2.511456966,-2.574509859,3.254223824,0.372531712,-0.19009079,0.119242854,-0.540911376,-1.222858906,1.002625465
2.86501646,-0.771339476,-0.303739756,-1.249958873,-2.124173403,-2.084177971,2.869948387,0.372069508,-0.19324173,0.115452699,-0.59509486,-1.222593427,1.050082088
2.870023012,-1.21631074,-0.294536203,-1.375625014,-1.718477488,-1.589415431,2.383252621,0.368301809,-0.201230556,0.105445571,-0.636503875,-1.221287966,1.087201834
2.875024557,-1.950595021,-0.10672275,-1.578095555,-1.138428926,-1.107788086,1.756120205,0.36174807,-0.214398891,0.088897757,-0.664304256,-1.219772458,1.112716317
2.880021572,-1.561845303,-0.30744344,-1.577797771,-0.540932357,-0.384286195,1.265224814,0.359574974,-0.218765259,0.083410814,-0.675697982,-1.216557026,1.124638081
2.885019064,-0.586974323,-0.714757442,-1.294840455,-0.24455376,0.159862831,0.892117739,0.357902914,-0.222124889,0.079188988,-0.676312208,-1.212356567,1.127247691
2.890017271,-0.358247817,-0.953462183,-1.037444949,-0.215337187,0.417319804,0.605956495,0.357348502,-0.223238885,0.077789105,-0.672535658,-1.208730817,1.125880241
2.89501667,-0.482412517,-0.984841406,-0.956586063,-0.387622297,0.636636615,0.445806026,0.348965406,-0.230845302,0.068588458,-0.667180359,-1.205026507,1.121981382
2.9000175,-0.352146506,-0.906161189,-0.886495888,-0.624071181,0.855432034,0.3380934,0.346185744,-0.233367458,0.065537691,-0.661054254,-1.200515389,1.115291476
2.905013323,-0.168939799,-0.763823688,-0.817121923,-0.773401678,0.999756515,0.214652568,0.34404695,-0.235308081,0.063190334,-0.654382944,-1.195619941,1.106503606
2.910009861,-0.027869942,-0.580244482,-0.780701637,-0.780426621,1.092281103,0.076013803,0.343337774,-0.235951543,0.062411997,-0.646609545,-1.190593004,1.095820308
2.915007591,0.060770307,-0.413821191,-0.756482244,-0.664490521,1.148903012,-0.054936528,0.340539694,-0.2367194,0.060640056,-0.637354136,-1.185550332,1.083659887
2.920005798,0.147636265,-0.27101633,-0.730175972,-0.419347674,1.16597867,-0.190162599,0.339054555,-0.237041488,0.059762232,-0.626153767,-1.180658221,1.070309639
2.925005198,0.209865481,-0.190784812,-0.699756801,-0.113386028,1.165742159,-0.327568531,0.337911844,-0.23728931,0.059086807,-0.61266917,-1.176073313,1.055942655
2.930011749,0.273300171,-0.187494293,-0.66375041,0.185148031,1.146388531,-0.444332957,0.337532938,-0.237371489,0.05886285,-0.59700501,-1.171845794,1.040872216
2.935013294,0.316825926,-0.224600732,-0.623825788,0.44112733,1.133121848,-0.537303865,0.337519079,-0.237029597,0.059346661,-0.579538763,-1.167900205,1.025337815
2.940010548,0.329933912,-0.268917799,-0.59698683,0.650518537,1.138712525,-0.609556794,0.337794513,-0.236507729,0.060168721,-0.560558915,-1.16405952,1.009408236
2.945007801,0.337297261,-0.309971809,-0.579015911,0.807441473,1.158216953,-0.676240265,0.338006437,-0.236106187,0.060801242,-0.540265262,-1.160221457,0.992955804
2.950006247,0.336032599,-0.309531271,-0.604479611,0.907634199,1.175670147,-0.750463128,0.338076711,-0.235973045,0.061010972,-0.518946171,-1.156269908,0.975827277
2.955005646,0.307874441,-0.310625851,-0.616949975,0.961165726,1.207955837,-0.822254896,0.338130772,-0.2358706,0.061172344,-0.496917129,-1.152233243,0.958132744
2.960006237,0.277381748,-0.312203765,-0.634611368,0.995898902,1.263808131,-0.897350848,0.340274602,-0.234117046,0.064590208,-0.474015772,-1.147931933,0.939615667
2.965001822,0.23012425,-0.30778721,-0.66429776,1.018367767,1.343140244,-0.970775604,0.341924131,-0.232767805,0.067220017,-0.450279802,-1.143230081,0.920253813
2.96999836,0.190999761,-0.292792499,-0.696753621,1.034494877,1.443885803,-1.055064678,0.342471063,-0.232320428,0.068092011,-0.42563796,-1.137998223,0.89987433
2.974995613,0.155539542,-0.268693209,-0.727091968,1.05333972,1.555171251,-1.145436525,0.342891902,-0.231976211,0.068762958,-0.400121212,-1.132186651,0.878481269
2.979994297,0.116035789,-0.250876367,-0.756735265,1.080261588,1.677722931,-1.236393213,0.345006794,-0.230976686,0.072027802,-0.373746723,-1.125710607,0.856172919
2.984993458,0.072252147,-0.229227006,-0.782669127,1.122750998,1.810185075,-1.325244546,0.348631442,-0.229312345,0.077616192,-0.346574038,-1.11849606,0.833091795
2.989999771,0.024528718,-0.207224473,-0.805713356,1.171186805,1.954484463,-1.413153529,0.34983328,-0.228760481,0.079469196,-0.318690062,-1.11045599,0.809351087
2.995001316,0.00306366,-0.182635695,-0.821109354,1.233600378,2.099616051,-1.508559942,0.350758016,-0.228335857,0.080894955,-0.290153205,-1.101528287,0.785029888
2.999997854,-0.029343585,-0.159523651,-0.839854419,1.303308725,2.245312214,-1.598912477,0.351064652,-0.228195056,0.081367709,-0.261098832,-1.091713071,0.760341704
3.004995346,-0.048594836,-0.148372024,-0.850921333,1.375785828,2.382663488,-1.687654257,0.356497854,-0.224587813,0.090880677,-0.231689602,-1.081020594,0.735488534
3.009993792,-0.071532808,-0.145176306,-0.856945693,1.437188268,2.511752605,-1.762037516,0.358299404,-0.223391712,0.094035,-0.202253222,-1.069455504,0.710799515
3.014993191,-0.066291146,-0.135020569,-0.858145952,1.497505784,2.62687993,-1.83442235,0.3596856,-0.222471401,0.096462034,-0.172991306,-1.057032466,0.686407804
3.019993544,-0.088320069,-0.133763,-0.868167818,1.54876101,2.725663662,-1.899917006,0.360145211,-0.222166255,0.097266793,-0.144084603,-1.043877244,0.662546337
3.024989367,-0.117020026,-0.126517713,-0.880921841,1.591687322,2.822528362,-1.959165335,0.364988625,-0.218162701,0.107796885,-0.115703754,-1.029955864,0.639312029
3.029985905,-0.152957335,-0.111517899,-0.904027104,1.62920177,2.911046028,-2.027106524,0.367705613,-0.215902612,0.113740936,-0.087884076,-1.015316129,0.616657853
3.034983397,-0.204867989,-0.100176834,-0.922465503,1.665344596,3.004061937,-2.098981857,0.369796157,-0.214163631,0.118314482,-0.060599037,-0.999962449,0.594602585
3.039981842,-0.264717489,-0.093291797,-0.945559025,1.699269891,3.10720706,-2.178639889,0.370489359,-0.213587016,0.119830988,-0.033808667,-0.983834147,0.573099971
3.044981241,-0.319826007,-0.086296119,-0.972217321,1.729699016,3.212131739,-2.272403479,0.373612791,-0.209984884,0.127492949,-0.007484448,-0.966909707,0.552061439
3.049987793,-0.367918611,-0.075662665,-0.995931566,1.754457355,3.32102704,-2.376269102,0.377260268,-0.205605492,0.136583149,0.018349716,-0.949160576,0.531428516
3.054989815,-0.400204867,-0.061785903,-1.017835021,1.776022911,3.426508665,-2.485955,0.380066752,-0.202235863,0.143577442,0.04369387,-0.930596828,0.511186957
3.059986591,-0.418432325,-0.047036704,-1.036064386,1.793627501,3.519138098,-2.605141878,0.38099733,-0.201118559,0.145896614,0.068537287,-0.911262631,0.49128136
3.064984322,-0.429402947,-0.032520078,-1.048726439,1.80228734,3.59507513,-2.716181517,0.381713361,-0.200258881,0.147681057,0.092765637,-0.891254365,0.471804947
3.069982767,-0.443129927,-0.020146025,-1.057748437,1.804590106,3.65264082,-2.818577051,0.386379212,-0.192605466,0.16227296,0.116301708,-0.870676577,0.4528023
3.074982166,-0.455839992,-0.009631505,-1.066366911,1.803208828,3.690313578,-2.911316156,0.38996926,-0.186716676,0.173500419,0.139110997,-0.84963721,0.434336305
3.079982519,-0.473381937,0.001132916,-1.077594638,1.798849702,3.712136745,-2.986729622,0.391159654,-0.184764072,0.177223235,0.161103725,-0.828226089,0.416510701
3.084978342,-0.499911755,0.014371749,-1.092225671,1.793967843,3.725436211,-3.048206806,0.392075568,-0.183261678,0.1800877,0.182237297,-0.806513965,0.399363518
3.08997488,-0.53055495,0.021071063,-1.113229036,1.789381504,3.739439249,-3.093631268,0.394267797,-0.176492959,0.188336939,0.202506945,-0.784518838,0.382925987
3.094972134,-0.566350222,0.027364334,-1.136724949,1.782877326,3.7543962,-3.127444744,0.397864163,-0.164944381,0.202065066,0.221877679,-0.762258232,0.367242008
3.099970579,-0.60559386,0.024347244,-1.16516149,1.77229178,3.778419018,-3.149844885,0.399056673,-0.161115095,0.206617057,0.24035801,-0.739706755,0.352371424
3.104969978,-0.648676693,0.016129235,-1.196761727,1.758527875,3.808358431,-3.164571762,0.399974197,-0.158168718,0.210119501,0.257949114,-0.716868997,0.338338673
3.109976292,-0.703081191,0.004708707,-1.23309803,1.735806108,3.853418112,-3.172779083,0.400278419,-0.157191753,0.211280838,0.274606913,-0.693703294,0.325140595
3.114977837,-0.756033182,-0.010300852,-1.270524979,1.697158575,3.91545248,-3.176873207,0.403345585,-0.138279915,0.230243787,0.290282011,-0.670145512,0.312722236
3.119974375,-0.797118664,-0.02337979,-1.306534529,1.654757023,3.983182192,-3.174755335,0.404362589,-0.132009104,0.236531541,0.304984272,-0.646198809,0.30112648
3.124971867,-0.830757797,-0.030667095,-1.338657498,1.61591351,4.056498051,-3.172265053,0.405145109,-0.127184138,0.241369545,0.318751514,-0.621838152,0.290346503
3.129970074,-0.881446421,-0.030463386,-1.377048373,1.585529923,4.134644985,-3.179103136,0.405404568,-0.125584275,0.242973745,0.331692159,-0.597090006,0.280237854
3.134969711,-0.929273009,-0.037591241,-1.405531406,1.565752029,4.223747253,-3.189483643,0.405251741,-0.108911425,0.257599652,0.343967378,-0.571899831,0.270704061
3.139970303,-0.95078373,-0.052363869,-1.418800473,1.531853318,4.297702312,-3.200830698,0.405113816,-0.099561892,0.265763104,0.355546892,-0.546318173,0.261776567
3.144965887,-0.967371345,-0.080043986,-1.431839108,1.47173667,4.357407093,-3.21949482,0.40500769,-0.092368066,0.272044331,0.366400748,-0.520433128,0.253362119
3.149968386,-0.979437828,-0.10798572,-1.436195135,1.390218377,4.393095016,-3.235207558,0.404972523,-0.089982726,0.274127066,0.3764714,-0.494364262,0.245414495
3.154966116,-0.984322846,-0.121109828,-1.437515616,1.291312456,4.398997784,-3.245072603,0.402763963,-0.078358971,0.28322807,0.385682911,-0.468277901,0.23777999
3.159964561,-1.005687594,-0.139023751,-1.443156719,1.184600592,4.383912086,-3.24232316,0.399831802,-0.064634182,0.293807238,0.394037187,-0.442330867,0.230415002
3.164963722,-1.040189266,-0.172924936,-1.444373131,1.07717979,4.362439156,-3.227121353,0.397575706,-0.054073881,0.301947176,0.401576072,-0.416596919,0.223488182
3.169970512,-1.085032582,-0.228014186,-1.444886327,0.961537421,4.341332912,-3.192061186,0.396827638,-0.050572284,0.304646224,0.40830639,-0.391123176,0.217119753
3.174971819,-1.146813512,-0.302874178,-1.444996715,0.833782315,4.324603558,-3.142637253,0.396252036,-0.047878046,0.306722969,0.414174139,-0.365941286,0.211403519
3.179968834,-1.223810554,-0.378685325,-1.428135514,0.698376954,4.33206892,-3.072257042,0.388149828,-0.029323716,0.319517285,0.419128656,-0.341032386,0.206351921
3.184966087,-1.3216784,-0.423755825,-1.407307982,0.575903416,4.353926659,-2.99005127,0.381915718,-0.015047417,0.329361618,0.423214346,-0.316385806,0.202107042
3.189964533,-1.426820278,-0.411389261,-1.389203906,0.489634603,4.380660057,-2.89830327,0.379848629,-0.010313667,0.332625836,0.426529497,-0.292034149,0.198542565
3.19496417,-1.529494405,-0.352441728,-1.366453767,0.463165849,4.400823116,-2.79682374,0.378258139,-0.006671368,0.335137427,0.429361999,-0.268035501,0.195531145
3.199964762,-1.617381215,-0.259705991,-1.345683932,0.533269823,4.406985283,-2.675851583,0.371310562,0.00381979,0.342544287,0.43217063,-0.244493887,0.19296895
3.204960585,-1.701063395,-0.194003791,-1.281741142,0.709568977,4.406554699,-2.538373232,0.35947302,0.021279035,0.354890734,0.435670972,-0.221470267,0.191088378
3.209956884,-1.734997869,-0.135163009,-1.203371286,0.941006124,4.372987747,-2.375490189,0.355547935,0.02706819,0.35898459,0.440145493,-0.199080005,0.189999297
3.214954615,-1.751272321,-0.10095644,-1.097436428,1.191185832,4.298016071,-2.20558548,0.352527857,0.03152255,0.362134546,0.445775956,-0.177511424,0.189721912
3.21995306,-1.787305832,-0.087780692,-0.981794298,1.4113518,4.176709175,-2.034445524,0.351526439,0.03299953,0.363178998,0.452465802,-0.157016739,0.190215111
3.224952459,-1.827931643,-0.080767304,-0.856816709,1.570609808,4.022657871,-1.858417153,0.329502672,0.053773936,0.374834359,0.459903657,-0.13776502,0.191427961
3.229959011,-1.863654256,-0.049181942,-0.731784761,1.667256594,3.827689409,-1.687048316,0.3222,0.060662337,0.378699064,0.467762291,-0.119922988,0.193224862
3.234960556,-1.882231355,0.014320998,-0.620224357,1.719366789,3.601247549,-1.530105591,0.3165811,0.065962493,0.38167271,0.475782573,-0.103538424,0.195344433
3.239957333,-1.886337519,0.108660355,-0.524722874,1.744187474,3.344707966,-1.383517146,0.314717978,0.067719921,0.38265872,0.483812213,-0.08869341,0.197535068
3.244954824,-1.894902945,0.222118422,-0.435792953,1.76059854,3.0687747,-1.250638723,0.296343952,0.083600543,0.39005667,0.491813302,-0.075468466,0.199536622
3.24995923,-1.906671643,0.323892027,-0.343548477,1.771046758,2.786240578,-1.134467602,0.286059529,0.092461348,0.394152582,0.49981308,-0.06383314,0.201356277
3.254958868,-1.9131248,0.396150678,-0.252525568,1.762647748,2.509238005,-1.028079987,0.278146356,0.099279135,0.397304147,0.507769167,-0.053685714,0.20306316
3.259959221,-1.917456031,0.415730596,-0.165962368,1.699752688,2.23518014,-0.925992131,0.2755225,0.101539783,0.398349136,0.51549226,-0.045018241,0.204766363
3.264955044,-1.940060019,0.366215199,-0.083353959,1.53787291,1.967479587,-0.802486479,0.265190125,0.110298321,0.400540709,0.522527337,-0.037876833,0.206736937
3.269951582,-1.964629054,0.317214578,-0.005353258,1.281434178,1.708470106,-0.665543199,0.253380805,0.120280527,0.402666569,0.528351724,-0.032252833,0.20898287
3.274949074,-1.977007031,0.28302294,0.060724154,0.957389951,1.448590994,-0.502447307,0.24429433,0.127961159,0.404302239,0.532586634,-0.028215867,0.2115722
3.279947519,-1.968724251,0.290937334,0.108290881,0.611184001,1.185854435,-0.32150352,0.24128142,0.130507916,0.404844612,0.535056233,-0.025760952,0.214352623
3.284946918,-1.947587729,0.331020504,0.131804273,0.304854453,0.922798932,-0.137761682,0.238963202,0.132467479,0.405261934,0.535920739,-0.024893969,0.217180446
3.28995347,-1.922601461,0.37268278,0.125603601,0.061732035,0.661364436,0.038265862,0.228388384,0.141491443,0.404885888,0.535526454,-0.025559645,0.219841421
3.294955015,-1.90856266,0.374374211,0.097308137,-0.112614423,0.415036321,0.19053334,0.220251769,0.148434773,0.404596537,0.534291923,-0.02764992,0.22248584
3.299951792,-1.894554496,0.331693292,0.062686615,-0.240711883,0.198624164,0.312551826,0.217553824,0.150737047,0.404500604,0.532494962,-0.030958205,0.225209042
3.304949284,-1.853608847,0.25441882,0.029872619,-0.357585192,0.000276614,0.399095356,0.215477929,0.152508497,0.404426783,0.530253768,-0.035211802,0.227952614
3.309947729,-1.799486399,0.145262107,0.003956428,-0.492708653,-0.169447899,0.461712927,0.212412119,0.153864548,0.404493093,0.527481139,-0.040240671,0.230801657
3.314947128,-1.720723033,0.040297993,-0.020065682,-0.649431467,-0.328350008,0.504003227,0.207649171,0.155685186,0.404635847,0.524042606,-0.045888133,0.233669549
3.31994772,-1.623624086,-0.048088677,-0.042270388,-0.803373456,-0.4749282,0.532946765,0.206069857,0.156288877,0.404683203,0.519909024,-0.052050047,0.236452758
3.324943542,-1.535545945,-0.111637399,-0.075378388,-0.925267041,-0.620490134,0.553422809,0.204854697,0.156753376,0.404719621,0.515245974,-0.058736511,0.239011034
3.329940319,-1.453391671,-0.13776505,-0.107974775,-1.000652432,-0.748281121,0.554878891,0.20445177,0.156907395,0.404731691,0.51023227,-0.065832123,0.241238624
3.334937572,-1.098588109,-0.214075193,-0.332409739,-1.016990781,-0.904333949,0.576358676,0.203307942,0.154286996,0.406596363,0.505106747,-0.072973102,0.24277842
3.339936256,-0.135822028,0.120998248,-0.607781053,-0.330333352,-1.701544523,1.015719533,0.202928677,0.153418109,0.407214642,0.502486706,-0.082154863,0.241254315
3.344935656,-0.503983855,-0.446258008,-0.45697695,-0.376093358,-1.809403896,1.046910405,0.202636868,0.152749568,0.407690376,0.501743615,-0.09489575,0.242938206
3.349936485,0.928131282,-1.203686357,-0.50155735,-0.553629398,-1.83760047,1.008396506,0.2025401,0.152527899,0.40784812,0.500299931,-0.102404863,0.245395318
3.35493803,0.291844666,-1.586116314,-0.600973308,-0.886677504,-2.206621885,1.109981298,0.206735671,0.148757875,0.407176644,0.498034388,-0.114579476,0.248884529
3.359935045,0.415715158,-1.576570511,-0.874440432,-1.240919828,-2.329971075,1.262089372,0.209183455,0.146617129,0.406757802,0.493086725,-0.126921922,0.251860976
3.364932299,0.64659822,-1.3551507,-1.016506433,-1.517944574,-2.567716837,1.371061563,0.211066872,0.144969955,0.406435519,0.486300588,-0.140157297,0.253594369
3.369930983,0.680940568,-1.106167793,-0.888874292,-1.642497301,-2.93846488,1.411107183,0.21169138,0.144423798,0.406328648,0.479019254,-0.155060217,0.254126996
3.374930382,0.538926363,-0.863941967,-0.773703694,-1.730457664,-3.45208621,1.439032555,0.217265412,0.140945137,0.4047167,0.4711456,-0.172838941,0.253312677
3.379930973,0.286811471,-0.565952003,-0.803591013,-1.77596724,-4.076468945,1.517937899,0.224249929,0.136707574,0.402639627,0.462836653,-0.19409208,0.250815481
3.384926796,-0.303791165,-0.256562859,-1.131789923,-1.740562677,-4.513906956,1.548534989,0.229624048,0.133447066,0.401041448,0.454071283,-0.218593508,0.24679783
3.389923096,-1.101908565,0.164435446,-1.462159276,-1.449788094,-4.582272053,1.46587956,0.231405988,0.132365942,0.400511503,0.446169376,-0.244307935,0.241317913
3.394920588,-1.531855822,0.450396746,-1.753757715,-1.135080218,-4.327369213,1.308990955,0.232777089,0.131534085,0.400103778,0.43943581,-0.268731326,0.235053852
3.399919033,-1.69819665,0.467835218,-1.843095064,-0.918697596,-3.995746136,1.262895703,0.247733891,0.122419335,0.392842919,0.433674037,-0.291321635,0.229603201
3.404918432,-1.877486587,0.454696327,-1.823877573,-0.678560913,-3.531834602,1.327064991,0.259242147,0.115406156,0.387256205,0.428755492,-0.312331766,0.226064876
3.409924746,-1.721884966,0.384449214,-1.742155433,-0.440587699,-3.048058033,1.419674516,0.263058066,0.113080718,0.385403752,0.424788445,-0.330693632,0.224315703
3.414926529,-1.518719554,0.147598982,-1.573152661,-0.255566031,-2.612873316,1.514805913,0.265994161,0.111291453,0.383978397,0.421746641,-0.347062647,0.224966243
3.419923544,-1.228973985,-0.126291618,-1.350701928,-0.121864483,-2.31211853,1.542205811,0.274950564,0.107334837,0.379951656,0.419727504,-0.36154449,0.227324992
3.424921036,-1.047102451,-0.457740337,-1.140763164,-0.123551525,-2.121409655,1.506360173,0.289913803,0.100889631,0.373259634,0.418254077,-0.374929428,0.230988532
3.429919481,-0.85339433,-0.692060947,-0.93003422,-0.176531613,-2.012409449,1.385662198,0.294875324,0.098752521,0.371040672,0.417037487,-0.387367219,0.23504366
3.434919119,-0.686699688,-0.810959637,-0.800606608,-0.266224384,-2.005143881,1.201435804,0.298692882,0.09710817,0.369333327,0.415969074,-0.399180114,0.238323227
3.43991971,-0.707544684,-0.864633024,-0.703446984,-0.42551443,-2.027302027,1.05346024,0.299958706,0.096562929,0.368767202,0.414455831,-0.411011696,0.24107556
3.444915533,-0.702684164,-0.845059633,-0.67940706,-0.562282622,-2.01654458,0.918012917,0.31311357,0.090158239,0.360307008,0.412448168,-0.422460377,0.243089437
3.449911833,-0.775370181,-0.735058069,-0.687104523,-0.721143544,-1.959139585,0.864837468,0.317475468,0.088034563,0.357501775,0.409450531,-0.433726907,0.24472627
3.454915524,-0.772796869,-0.546123385,-0.736501992,-0.828641653,-1.848487735,0.864059508,0.320831686,0.086400539,0.355343342,0.405354083,-0.444376349,0.246094272
3.459914207,-0.858501434,-0.404807031,-0.822976947,-0.903674781,-1.705762148,0.912522376,0.321944535,0.085858725,0.354627669,0.400355101,-0.454589248,0.247663543
3.464913368,-0.884192824,-0.284697592,-0.881916165,-0.92510736,-1.528127313,0.947469175,0.329750776,0.081003189,0.350567132,0.394696295,-0.464021772,0.249643162
3.469919682,-0.828505456,-0.269761413,-0.908397079,-0.909620881,-1.377006769,0.929367006,0.33405897,0.078294829,0.348352224,0.389085233,-0.472573996,0.251772553
3.474921227,-0.727809191,-0.244886428,-0.91999954,-0.892383218,-1.268085599,0.912713051,0.337373823,0.076210931,0.346647978,0.383458793,-0.480343521,0.253890365
3.479918003,-0.70907104,-0.24492234,-0.932055593,-0.881320477,-1.179181099,0.887804091,0.338472962,0.075519949,0.346082896,0.377791047,-0.487723082,0.256122679
3.484915495,-0.660008073,-0.253212154,-0.940770388,-0.846411169,-1.108539224,0.846702635,0.342276186,0.071823366,0.343788058,0.372357488,-0.494523108,0.258290946
3.48991394,-0.676060438,-0.291991353,-0.957095504,-0.838194311,-1.043463111,0.818569362,0.346519619,0.067406148,0.341151446,0.367037982,-0.501015425,0.260586619
3.49491334,-0.682956219,-0.336836517,-0.918304622,-0.846075892,-0.937327504,0.788943768,0.349784672,0.064007401,0.339122772,0.361683011,-0.506949961,0.263263464
3.499913931,-0.709901989,-0.357985586,-0.909729958,-0.865026295,-0.855764866,0.740433156,0.350867301,0.062880442,0.338450074,0.356304049,-0.512423992,0.265941739
3.504909754,-0.770787537,-0.351027638,-0.947930753,-0.889441967,-0.724186063,0.67176795,0.351700306,0.062013324,0.337932497,0.350764155,-0.517243803,0.268459558
3.50990653,-0.67307204,-0.277410567,-0.915300488,-0.884854972,-0.609840989,0.63821274,0.355925173,0.056480434,0.334318489,0.345075727,-0.521229625,0.270867765
3.514903784,-0.682249904,-0.236159846,-0.950631559,-0.862307906,-0.528735876,0.579670787,0.359175891,0.05222325,0.331537753,0.33948797,-0.524795949,0.272974283
3.519902468,-0.664935172,-0.18348138,-0.947737753,-0.806481123,-0.434921563,0.528553247,0.360253781,0.050811648,0.330615729,0.334172964,-0.527792394,0.274866402
3.524901867,-0.752106905,-0.1605912,-0.989109278,-0.722998798,-0.350240409,0.453333586,0.36108315,0.049725518,0.329906285,0.329327226,-0.530407369,0.276491582
3.529908419,-0.684857547,-0.150749192,-0.917875469,-0.629583776,-0.268113375,0.390696198,0.362249911,0.046804298,0.329496264,0.325140834,-0.532402873,0.278056026
3.534910202,-0.613108039,-0.199831232,-0.909821153,-0.558131933,-0.252457023,0.315644264,0.364049345,0.041966967,0.329004019,0.321626484,-0.534130037,0.279344499
3.539907217,-0.565123022,-0.198415264,-0.911636889,-0.485488176,-0.244437724,0.253208369,0.364645988,0.040362999,0.328840792,0.318609297,-0.535656512,0.280156851
3.544904709,-0.525250077,-0.193909913,-0.908458769,-0.419795185,-0.243651763,0.227460518,0.365105063,0.039128855,0.328715205,0.315974742,-0.537098765,0.280825287
3.549902916,-0.503387451,-0.207432956,-0.903020978,-0.364497095,-0.252904952,0.207047582,0.365257293,0.038719635,0.328673571,0.313699901,-0.538537323,0.28143099
3.554908514,-0.490384638,-0.221305698,-0.903562784,-0.316727161,-0.265411794,0.185020283,0.366832823,0.034513898,0.32759738,0.311756551,-0.539997995,0.281990528
3.559909105,-0.529163659,-0.225396737,-0.909846425,-0.272960216,-0.28457737,0.166962132,0.367355227,0.033119354,0.327240527,0.310106277,-0.541574717,0.282387823
3.564905167,-0.505229414,-0.203875616,-0.90468514,-0.228240505,-0.288013667,0.151214615,0.367757171,0.032046348,0.326965958,0.308657885,-0.543097734,0.282663465
3.569901466,-0.547472596,-0.219718829,-0.909578443,-0.200042233,-0.296142042,0.15757069,0.367890477,0.03169056,0.326874912,0.307403535,-0.544733644,0.282993287
3.574899197,-0.545288444,-0.190900311,-0.902923524,-0.156057045,-0.28553617,0.145913363,0.368923038,0.02980906,0.325397462,0.306280702,-0.54628551,0.283289999
3.579897642,-0.551189601,-0.203552917,-0.872175574,-0.130576536,-0.28598097,0.140381038,0.369495541,0.028787347,0.324559301,0.305386066,-0.547872186,0.283632547
3.58489728,-0.534029901,-0.210049599,-0.86230582,-0.105399452,-0.272578716,0.143680677,0.369936079,0.028001208,0.323914379,0.304572135,-0.549406648,0.284130275
3.589903593,-0.539916098,-0.207529739,-0.846813798,-0.078169771,-0.280966401,0.129044756,0.37008214,0.02774054,0.323700517,0.303994477,-0.550968051,0.28442359
3.594905376,-0.533669651,-0.197181344,-0.849778473,-0.050559524,-0.280151755,0.120455429,0.370401233,0.027126944,0.323030412,0.30353111,-0.552476406,0.284650564
3.599901915,-0.557930887,-0.199995279,-0.844650328,-0.025942767,-0.275196761,0.128111914,0.370715499,0.02650699,0.322298378,0.303190291,-0.554028213,0.284955919
3.604899645,-0.503569245,-0.192946225,-0.857617438,0.0165259,-0.290663213,0.107870057,0.370957285,0.026029978,0.321735144,0.303119361,-0.555440664,0.284980774
3.60989809,-0.508965552,-0.214656442,-0.850057781,0.043359734,-0.301422894,0.102523163,0.371037483,0.02587181,0.321548373,0.303250402,-0.557000279,0.285111994
3.614897728,-0.514229596,-0.236271292,-0.841782808,0.05954824,-0.310881823,0.101596609,0.371099174,0.02575011,0.321404696,0.303514838,-0.558602512,0.285293728
3.619898319,-0.511950731,-0.247790352,-0.839029491,0.075219944,-0.316821307,0.103445053,0.372178584,0.02538405,0.321340144,0.303875059,-0.560216606,0.285497427
3.624894381,-0.505248606,-0.255089343,-0.837438703,0.085755885,-0.318348646,0.110906057,0.373009145,0.025102392,0.321290493,0.304266691,-0.561838627,0.285748303
3.629891157,-0.507422447,-0.264167309,-0.830858648,0.090668134,-0.327589989,0.122925214,0.373284549,0.025009001,0.321274012,0.304671556,-0.563533425,0.286098927
3.634888649,-0.518725514,-0.282384634,-0.827085316,0.090628356,-0.333986521,0.133693531,0.373496413,0.02493714,0.321261376,0.305085927,-0.565289974,0.28655389
3.639887094,-0.533190727,-0.30160591,-0.814757884,0.08533933,-0.333893776,0.151339635,0.374197811,0.02472366,0.320794106,0.305448413,-0.567112327,0.287195116
3.644886255,-0.527572393,-0.290684521,-0.815413952,0.082524046,-0.337334752,0.155225545,0.375375658,0.024367634,0.319966346,0.305754781,-0.568908453,0.287782162
3.649886608,-0.546693981,-0.285542905,-0.812501073,0.075966164,-0.330804169,0.161732763,0.375766218,0.024249583,0.319691867,0.306018054,-0.570745111,0.288429439
3.654888153,-0.541001678,-0.289084405,-0.806717992,0.066902734,-0.327458203,0.169601649,0.376066715,0.024158752,0.319480687,0.306200862,-0.572541296,0.289145231
3.659884691,-0.539115489,-0.289989054,-0.800267994,0.059092931,-0.321625501,0.178076535,0.376166373,0.024128633,0.319410652,0.306322336,-0.574322402,0.289940596
3.664882183,-0.546198964,-0.277315736,-0.802457333,0.05686377,-0.313349038,0.183425054,0.37738362,0.023934603,0.317840189,0.30637303,-0.57608968,0.290731847
3.669880629,-0.538533211,-0.260256737,-0.808151543,0.055355042,-0.308309555,0.183839098,0.377787262,0.023870265,0.317319483,0.306380332,-0.577805936,0.291465193
3.674880028,-0.541192114,-0.245539889,-0.812904418,0.061461166,-0.303059459,0.176479086,0.378097832,0.023820762,0.31691879,0.306408882,-0.579497516,0.292117298
3.679880857,-0.536717832,-0.250653833,-0.808554769,0.064901523,-0.302276164,0.164567858,0.378200799,0.023804348,0.316785961,0.306514502,-0.581156254,0.292728007
3.684877157,-0.547041655,-0.262521058,-0.802016318,0.069360219,-0.299812436,0.154420003,0.379243433,0.023403348,0.315167964,0.306700736,-0.582816541,0.293325871
3.689873695,-0.551816583,-0.274329603,-0.793038189,0.068059817,-0.290476769,0.147723228,0.379827589,0.023174282,0.3142564,0.306924462,-0.584418476,0.29393822
3.694870949,-0.551141322,-0.279066712,-0.791841865,0.065453522,-0.274927318,0.146712527,0.380277038,0.022998031,0.313555002,0.307122707,-0.585928679,0.294593751
3.699869633,-0.539445221,-0.294624954,-0.790303171,0.053821854,-0.264223456,0.15114823,0.380426079,0.022939589,0.313322455,0.307259262,-0.587368786,0.29533112
3.704869032,-0.548968613,-0.298793435,-0.784081995,0.042372614,-0.250780076,0.154376462,0.380886078,0.022657322,0.313192785,0.307321608,-0.588784933,0.296125621
3.709875822,-0.565496266,-0.295364767,-0.785106599,0.034389455,-0.236203402,0.162211463,0.381386846,0.022324437,0.313199461,0.307305187,-0.59014684,0.296992958
3.714877367,-0.522651255,-0.278628767,-0.774592876,0.028220372,-0.212563574,0.172603428,0.381772131,0.022068305,0.313204616,0.307105839,-0.591391742,0.298013479
