Time,inertial-6253.76535:scaledAccelX,inertial-6253.76535:scaledAccelY,inertial-6253.76535:scaledAccelZ,inertial-6253.76535:scaledGyroX,inertial-6253.76535:scaledGyroY,inertial-6253.76535:scaledGyroZ,inertial-6253.76535:scaledMagX,inertial-6253.76535:scaledMagY,inertial-6253.76535:scaledMagZ,inertial-6253.76535:roll,inertial-6253.76535:pitch,inertial-6253.76535:yaw
0,-0.629016817,-0.049635876,-0.777072489,-8.35E-05,-0.01188988,0.007496911,0.366511673,-0.048213728,0.279246718,0.059352275,-0.687383413,0.579670191
0.0060271,-0.630298972,-0.049876973,-0.775049865,0.000837069,-0.011611485,0.008031718,0.36651203,-0.048231997,0.279259384,0.059334956,-0.687432528,0.57964468
0.0121034,-0.630301595,-0.050985593,-0.774760127,0.000162416,-0.01089898,0.007918256,0.366637766,-0.047913231,0.279049128,0.059321001,-0.687482953,0.579621553
0.0121591,-0.629275203,-0.051978704,-0.774115622,0.000234137,-0.009615318,0.009365255,0.36667946,-0.04780753,0.278979421,0.059305184,-0.687521458,0.579596937
0.017968999,-0.629423976,-0.052134141,-0.775878727,-0.000533608,-0.008991631,0.01082457,0.366711527,-0.047726203,0.278925776,0.0592767,-0.687559605,0.579581499
0.023968499,-0.630244136,-0.053774208,-0.778283834,-0.000814782,-0.010329496,0.011093818,0.366722167,-0.047699235,0.278907984,0.059249524,-0.687595606,0.579577327
0.029980101,-0.631442368,-0.053862084,-0.779508114,-0.000197048,-0.009340263,0.0119966,0.366539776,-0.047931481,0.278579116,0.059217121,-0.687627435,0.579589844
0.036142301,-0.630065084,-0.054635033,-0.778081834,-0.001598481,-0.00816003,0.011872803,0.36643213,-0.04807109,0.278392076,0.059178542,-0.687660098,0.579595029
0.048250899,-0.629189134,-0.053501517,-0.778887808,-0.005611807,-0.007445627,0.011875174,0.36634931,-0.048178513,0.278248161,0.059112441,-0.687684894,0.579603612
0.0483119,-0.625750542,-0.052026991,-0.778176844,-0.004740187,-0.010239517,0.014302685,0.366321862,-0.048214134,0.278200448,0.059055392,-0.68772006,0.579597652
0.048337098,-0.631762803,-0.044838645,-0.778937817,-0.003975724,-0.011482637,0.013342555,0.366271824,-0.048181955,0.278315902,0.058980703,-0.687773883,0.579573929
0.053997502,-0.629663348,-0.04300968,-0.776616693,-0.002856263,-0.008942572,0.013290634,0.366226077,-0.0481112,0.27850762,0.058912821,-0.687806368,0.579553068
0.059966698,-0.627961874,-0.046001669,-0.778437793,-0.002850849,-0.01067051,0.010142456,0.366190881,-0.048056763,0.278655112,0.058859769,-0.687846065,0.579515517
0.066001303,-0.630104363,-0.043972995,-0.776326418,-0.000583549,-0.010475353,0.010357354,0.366179198,-0.04803871,0.278704017,0.05882328,-0.687891841,0.579476416
0.072104499,-0.629889011,-0.044501826,-0.77576071,0.001144635,-0.009837816,0.008101445,0.366170198,-0.048024818,0.278741628,0.058792152,-0.687932372,0.579432964
0.072137699,-0.629886329,-0.048749242,-0.776121855,0.001746104,-0.010378473,0.008998437,0.366412014,-0.048076674,0.278642744,0.058770638,-0.687973738,0.579416394
0.078037299,-0.629991055,-0.049979094,-0.776669681,-0.000534865,-0.009791034,0.008544987,0.36659807,-0.048116572,0.278566658,0.058745857,-0.68800658,0.579381645
0.084195904,-0.628850996,-0.047338091,-0.774703681,0.000812316,-0.011301642,0.00813825,0.36665976,-0.048129804,0.278541416,0.058720145,-0.688055158,0.579347849
0.090119399,-0.628864706,-0.048109166,-0.775833666,0.000660269,-0.009581949,0.010137802,0.366707236,-0.048139986,0.278522015,0.058687005,-0.688092649,0.579325914
0.096002199,-0.628865123,-0.045785598,-0.775511444,0.000453154,-0.009597741,0.007735899,0.366722167,-0.048085701,0.278514922,0.058657829,-0.688129723,0.579281628
0.102039598,-0.628534138,-0.047767121,-0.773919523,0.001336662,-0.010466979,0.008345538,0.366732836,-0.047985636,0.278508872,0.058646448,-0.68817687,0.579241157
0.102090597,-0.628748417,-0.046722431,-0.77532053,0.0004585,-0.010807903,0.008475689,0.366736352,-0.047952455,0.278506875,0.058619525,-0.68821907,0.579202473
0.108002998,-0.629491925,-0.04967805,-0.776731014,-0.000971058,-0.009766049,0.008107419,0.366739094,-0.047926925,0.278505325,0.058599219,-0.68825376,0.579166174
0.114551298,-0.630785406,-0.048331615,-0.774849653,9.21E-05,-0.008430741,0.009436266,0.366739988,-0.047918461,0.278504789,0.05856853,-0.688290536,0.579150259
0.120074704,-0.630499065,-0.046518251,-0.773575068,0.001992202,-0.008362483,0.009755163,0.366288453,-0.048036139,0.278728336,0.058543101,-0.688327134,0.579131365
0.126026705,-0.63126421,-0.046197288,-0.774024248,0.001381314,-0.007502093,0.00914632,0.366138726,-0.048075158,0.278802484,0.058512989,-0.688360155,0.57910943
0.1321771,-0.631968558,-0.048375461,-0.775493145,0.000320093,-0.006977944,0.009628823,0.36602354,-0.04810518,0.278859526,0.058480028,-0.688387096,0.579101324
0.132241696,-0.629998207,-0.048705436,-0.775576591,0.00123843,-0.005829034,0.008555729,0.365985334,-0.048115138,0.278878421,0.058453228,-0.688402593,0.579089046
0.137999505,-0.632699847,-0.048309464,-0.776016772,-0.000779695,-0.003942593,0.008457213,0.36600402,-0.048024662,0.278622806,0.058424324,-0.688418269,0.579058707
0.143975511,-0.632265508,-0.045661639,-0.777644336,0.001833994,-0.005210842,0.008708335,0.36602211,-0.047970377,0.278471202,0.058398247,-0.688432217,0.579021275
0.149986401,-0.631285191,-0.045277115,-0.77558887,0.002434062,-0.004051129,0.007660185,0.366036057,-0.047928609,0.278354526,0.058377579,-0.688450754,0.578980505
0.156000003,-0.629207492,-0.045842014,-0.774736345,0.001589402,-0.004721199,0.007782938,0.366040677,-0.047914758,0.278315842,0.058357757,-0.688465774,0.578939319
0.162078306,-0.630010247,-0.04655664,-0.776414871,0.003840178,-0.004655084,0.007397702,0.366208255,-0.047900356,0.279044151,0.05835481,-0.688474178,0.578901649
0.162144601,-0.629958868,-0.048535857,-0.776802957,0.004428565,-0.006313142,0.006723945,0.36642921,-0.047891803,0.280050129,0.058350082,-0.688494861,0.578876555
0.168102711,-0.628693223,-0.046886679,-0.77608943,0.004917362,-0.006303388,0.006830436,0.366599202,-0.047885224,0.280824155,0.058353193,-0.688514292,0.578843057
0.174104497,-0.629710674,-0.046900362,-0.776690423,0.005483722,-0.005895856,0.006145907,0.366655558,-0.047883041,0.281080782,0.058366574,-0.688532114,0.578798592
0.179974586,-0.62651217,-0.048822008,-0.777059436,0.003344951,-0.006862653,0.005513445,0.366698921,-0.047881361,0.281278282,0.058367968,-0.688550234,0.578752041
0.186026499,-0.628436685,-0.050360482,-0.775949895,0.003708437,-0.008567606,0.005171078,0.366572917,-0.048042521,0.28000769,0.05837911,-0.688580275,0.578711867
0.192071006,-0.629588783,-0.051347617,-0.776783168,0.001175627,-0.009362308,0.008406267,0.36647594,-0.048166525,0.279030025,0.058365658,-0.68861419,0.578692436
0.192120001,-0.63081485,-0.049305882,-0.775752366,-9.27E-05,-0.008601082,0.008206857,0.366443783,-0.048207641,0.278705865,0.05834214,-0.688652635,0.578667521
0.197989404,-0.629771173,-0.046850458,-0.776736915,0.001605425,-0.009729469,0.007715748,0.366419047,-0.04823928,0.27845642,0.058327932,-0.688686609,0.578632414
0.210152492,-0.629594803,-0.046323128,-0.776915014,0.002537244,-0.01065999,0.006754741,0.366434991,-0.04812859,0.279072285,0.058314361,-0.688725829,0.578583956
0.21022369,-0.629269063,-0.047985405,-0.776454508,0.002032095,-0.010167287,0.005938279,0.366471618,-0.04792089,0.280252516,0.058313422,-0.688764989,0.578545988
0.216435805,-0.630502462,-0.048961163,-0.775771737,0.001299294,-0.011078365,0.006228819,0.366483778,-0.047852021,0.28064388,0.058306668,-0.688812375,0.57851845
0.222110093,-0.632137895,-0.050458573,-0.775408745,0.000701036,-0.011321178,0.007241205,0.366493136,-0.047799028,0.280945003,0.058288671,-0.688864172,0.578508377
0.222210407,-0.630426347,-0.052168053,-0.7770136,-0.001159359,-0.008514429,0.007879028,0.366496235,-0.04778146,0.281044841,0.058270738,-0.688894689,0.578486085
0.228004396,-0.630855143,-0.051351592,-0.775135219,-0.00027885,-0.008249478,0.008365836,0.366701514,-0.048057165,0.279410779,0.058241449,-0.688925862,0.578470886
0.233979911,-0.63163954,-0.051132999,-0.774369121,-0.001338837,-0.00841077,0.008659655,0.366769582,-0.048148584,0.278868973,0.058212567,-0.688962102,0.578469396
0.240018204,-0.631378412,-0.050455995,-0.776600838,-0.003330962,-0.00692689,0.011155754,0.366821945,-0.048218921,0.278452069,0.058162369,-0.688985944,0.578460753
0.246043995,-0.631119251,-0.047591932,-0.776100814,-0.002865521,-0.005415056,0.01053708,0.366839319,-0.048242245,0.278313845,0.058110151,-0.689004958,0.578443766
0.252148509,-0.632419169,-0.047649086,-0.773856401,-0.002752426,-0.006907473,0.009234197,0.366850108,-0.048300177,0.279387742,0.058060195,-0.689041078,0.578445077
0.252268791,-0.631687224,-0.045112044,-0.77664572,0.000362469,-0.007706511,0.009000067,0.366853058,-0.048329279,0.280035883,0.058019128,-0.689065456,0.578429878
0.258311689,-0.631166101,-0.045898721,-0.776992083,0.000865894,-0.005779312,0.00826489,0.366855353,-0.048351672,0.280534595,0.058001377,-0.689077854,0.578400135
0.264002711,-0.629518449,-0.046893779,-0.777869523,0.000893155,-0.006699421,0.008516878,0.366856098,-0.048359096,0.280699968,0.057974454,-0.689103544,0.578381479
0.270029306,-0.630726635,-0.045479193,-0.778625309,0.000530678,-0.005831841,0.007546001,0.366745114,-0.048277572,0.280676097,0.057948314,-0.689120173,0.578348041
0.276084006,-0.630644858,-0.045440223,-0.777547836,0.000892949,-0.008138074,0.006372344,0.366595864,-0.048162568,0.28051582,0.05793019,-0.689152002,0.578304231
0.282059193,-0.631508768,-0.04441217,-0.778403342,0.002128906,-0.006963101,0.004535767,0.366481006,-0.048074085,0.280392498,0.057926092,-0.689178407,0.578243792
0.282124996,-0.630028188,-0.04412894,-0.776023567,0.004745906,-0.0093055,0.005936223,0.366442919,-0.048044745,0.280351609,0.057920806,-0.689216495,0.578200459
0.288016498,-0.630869865,-0.045432866,-0.777678668,0.005767408,-0.010815858,0.005216162,0.366413623,-0.04802217,0.280320168,0.057932559,-0.689256251,0.578143656
0.294139892,-0.630629838,-0.046231855,-0.777911723,0.00608588,-0.011146448,0.005062167,0.366308779,-0.048020642,0.279453665,0.057948235,-0.689296603,0.57808125
0.300008804,-0.630544007,-0.048476513,-0.774768114,0.00495029,-0.012031511,0.004516521,0.366228104,-0.048019465,0.278786927,0.05796317,-0.689347684,0.578031659
0.306080788,-0.630293131,-0.051168911,-0.776076376,0.005213755,-0.014281652,0.005145627,0.366201341,-0.048019074,0.278565824,0.057987124,-0.689404845,0.577986181
0.312067598,-0.62910533,-0.054835837,-0.777171195,0.003774242,-0.011344247,0.006291176,0.366180778,-0.048018776,0.278395742,0.058009878,-0.689446449,0.577953815
0.312134385,-0.6286093,-0.056431819,-0.7773996,0.001813003,-0.011787925,0.007800093,0.366393507,-0.047906533,0.278455615,0.058022324,-0.689494431,0.577930808
0.318000197,-0.629757583,-0.054708913,-0.776267707,-9.36E-05,-0.013207668,0.007829729,0.366779149,-0.047706775,0.278619289,0.058007646,-0.689548731,0.577913463
0.324088275,-0.631608129,-0.050130963,-0.775318265,-0.00088425,-0.011967627,0.008823063,0.36690703,-0.04764054,0.27867353,0.057978038,-0.689598441,0.577888131
0.329993695,-0.63140291,-0.046150252,-0.775562346,-0.00058101,-0.012164373,0.007518075,0.367005438,-0.047589578,0.278715283,0.057944596,-0.689646959,0.577836812
0.336109877,-0.630218148,-0.042856909,-0.776773989,0.00034427,-0.010550297,0.006541421,0.367038071,-0.04757268,0.278729141,0.057911471,-0.689687192,0.577774405
0.342150778,-0.630537748,-0.043137915,-0.77616024,0.003453606,-0.011905652,0.005423291,0.367131472,-0.047958512,0.2795268,0.057901129,-0.689738274,0.577720702
0.342236102,-0.629924655,-0.044531725,-0.776624024,0.002154465,-0.013457946,0.004944833,0.367162436,-0.048086446,0.279791296,0.057902738,-0.689790845,0.577655017
0.3481749,-0.627700329,-0.048401527,-0.777097523,0.004241838,-0.014593448,0.006525006,0.367186278,-0.048184883,0.279994816,0.057912916,-0.689849019,0.577609062
0.354124188,-0.630986512,-0.050052051,-0.775780439,0.003476873,-0.014850815,0.005180867,0.367194176,-0.04821752,0.280062288,0.057930894,-0.68991071,0.57757324
0.360001326,-0.63101995,-0.050821468,-0.774770796,0.003599601,-0.014510368,0.00453079,0.367203057,-0.048300263,0.279364049,0.0579498,-0.689973772,0.577522159
0.366005182,-0.631960392,-0.049819894,-0.774837494,0.00306086,-0.015653277,0.006495139,0.367206693,-0.04834196,0.278946877,0.057941854,-0.69004643,0.577496171
0.378139198,-0.632524192,-0.046045255,-0.773043334,0.003734572,-0.014539707,0.004978216,0.367209464,-0.048374046,0.278625906,0.057948787,-0.690114617,0.577444911
0.3781991,-0.631216168,-0.046679366,-0.774092138,0.003760518,-0.014573751,0.004684374,0.367210388,-0.048384685,0.278519481,0.057953376,-0.690177262,0.57739073
0.378226995,-0.628727615,-0.048058476,-0.775046289,0.004233075,-0.015538436,0.005136193,0.367264062,-0.048330996,0.279014468,0.05796545,-0.690241396,0.577342153
0.384038687,-0.630424261,-0.049446039,-0.775163889,0.002725085,-0.015704988,0.006102567,0.36733523,-0.048250802,0.279760301,0.05796881,-0.69030869,0.577315211
0.389994293,-0.633279383,-0.049884599,-0.776473641,0.002420243,-0.01721864,0.005779859,0.367390037,-0.048189096,0.280334175,0.057972256,-0.690382898,0.577290475
0.396001399,-0.633179247,-0.051616468,-0.773623586,0.001067602,-0.014288387,0.00853829,0.367408186,-0.048168637,0.280524462,0.057960764,-0.690448761,0.577295899
0.402118027,-0.633889973,-0.052041143,-0.772421241,0.00120045,-0.013536132,0.009007144,0.367422163,-0.048152894,0.280670911,0.057948023,-0.690509439,0.577305615
0.402164191,-0.632097781,-0.050367732,-0.772718489,-0.002149303,-0.013470449,0.008753765,0.367233694,-0.048198584,0.280294776,0.057915244,-0.69056493,0.577294111
0.407989413,-0.632816017,-0.049821854,-0.772318065,-0.003010938,-0.01157544,0.008992383,0.367088675,-0.04823374,0.280005366,0.057868678,-0.690610826,0.577303827
0.414018482,-0.633754075,-0.0505923,-0.770870209,-0.004667848,-0.01004539,0.011043464,0.367040604,-0.048245396,0.279909402,0.057817798,-0.690657318,0.577330828
0.420021594,-0.632220626,-0.049065817,-0.771781504,-0.005389189,-0.008020316,0.011662729,0.36700359,-0.048254367,0.279835552,0.057754297,-0.690688908,0.577346265
0.426071495,-0.63251251,-0.047341771,-0.77107054,-0.003908688,-0.007143375,0.012662781,0.367132723,-0.048379786,0.279322475,0.05768726,-0.690721989,0.577362835
0.432063013,-0.633338153,-0.047855198,-0.773835599,-0.006036876,-0.005181518,0.013419596,0.367375046,-0.048600104,0.278433651,0.057614699,-0.690736651,0.577369273
0.432131916,-0.631365299,-0.046819784,-0.771668911,-0.004336363,-0.004415483,0.011804268,0.367455393,-0.048673157,0.278138936,0.0575433,-0.690754831,0.577370226
0.438023001,-0.632461548,-0.045327391,-0.772647858,-0.004032579,-0.00401755,0.012313881,0.367517233,-0.048729368,0.27791217,0.057471637,-0.690766394,0.577371001
0.4440009,-0.634265244,-0.045226999,-0.773514509,-0.002032077,-0.003089427,0.012656658,0.367537737,-0.048748005,0.277836978,0.057408754,-0.690776348,0.577377558
0.450017095,-0.632100701,-0.046312783,-0.77429986,-0.002504793,-0.002863656,0.011841843,0.367229372,-0.048755426,0.277856588,0.057355154,-0.690780997,0.577379584
0.455979109,-0.632880569,-0.044360928,-0.773686826,-0.002710287,-0.001361251,0.011230779,0.36712712,-0.048757885,0.277863085,0.057302937,-0.690786362,0.577360034
0.462281406,-0.632774472,-0.047121186,-0.774863124,-0.000590404,-0.000215553,0.009465473,0.367048472,-0.048759777,0.277868092,0.057264503,-0.690774679,0.577352524
0.462348104,-0.633216739,-0.048448335,-0.774898469,-0.001039993,6.42E-05,0.009644529,0.367022395,-0.048760407,0.277869761,0.057233136,-0.690771401,0.577350557
0.46802339,-0.632532835,-0.047987435,-0.774370551,-0.000296117,-0.000163381,0.008659207,0.366417527,-0.04875055,0.277775019,0.057199277,-0.690762222,0.577344656
0.473971188,-0.632448912,-0.048925146,-0.774920046,-0.001116099,-0.000233943,0.009353191,0.366072267,-0.048744723,0.277719855,0.057168689,-0.690748334,0.577344418
0.479977608,-0.631866217,-0.047404837,-0.77463907,-1.26E-05,0.002465378,0.01019709,0.36580658,-0.048740242,0.277677417,0.05713331,-0.690724909,0.577333808
0.486000389,-0.630587399,-0.04865827,-0.774603069,-0.001885287,0.001545206,0.009468284,0.365718514,-0.048738755,0.27766335,0.057090152,-0.690710425,0.577334642
0.492092013,-0.63148272,-0.04654289,-0.774720132,-0.000758913,0.001429575,0.009315061,0.366007358,-0.048623692,0.278253376,0.057058491,-0.690693259,0.577316523
0.492141306,-0.632190168,-0.046384521,-0.773378491,-0.000743211,0.002402327,0.008348732,0.366462767,-0.048470665,0.27905488,0.057030752,-0.690672636,0.57729733
0.498051196,-0.631166101,-0.045055751,-0.772859156,-0.002091553,0.003827883,0.008389561,0.366813183,-0.048352923,0.27967158,0.056987502,-0.690648556,0.577285886
0.504051208,-0.632137179,-0.044751093,-0.772227764,-0.000303384,0.002934675,0.009340878,0.366929382,-0.048313878,0.279876053,0.056951214,-0.690630198,0.577266157
0.510168612,-0.633166075,-0.046354763,-0.773357272,-0.001102609,0.003477665,0.008071319,0.367018759,-0.048283841,0.28003338,0.056914572,-0.690596342,0.577258289
0.516010106,-0.632834733,-0.047643363,-0.773994982,-0.000403741,0.003316743,0.010095357,0.367292613,-0.048328385,0.280188709,0.056879256,-0.690573156,0.577262282
0.522203386,-0.632464647,-0.046293903,-0.771786213,-0.000812774,0.005752386,0.008974094,0.367503315,-0.048362654,0.280308217,0.056843501,-0.690540314,0.577249527
0.522256017,-0.632299423,-0.047283601,-0.772868931,-0.0014645,0.004696655,0.009127925,0.367573172,-0.048374016,0.280347824,0.056805752,-0.690508246,0.577253699
0.527974129,-0.633386791,-0.048885874,-0.774010003,-0.001753947,0.00798368,0.010953691,0.367626935,-0.048382759,0.280378312,0.056761201,-0.690459728,0.577266872
0.540057242,-0.633723497,-0.049819868,-0.774872839,-0.002035473,0.007257045,0.010444208,0.367534548,-0.048357747,0.280055285,0.056721795,-0.690422297,0.577275991
0.540087461,-0.632799745,-0.04748702,-0.774000406,-0.002139522,0.008898403,0.011915105,0.367351979,-0.048310284,0.279469848,0.056668784,-0.690371811,0.57728523
0.546372592,-0.630714059,-0.044526808,-0.773057401,-0.001795459,0.009048058,0.008627001,0.367291451,-0.048294544,0.279275715,0.05662499,-0.690314353,0.577254295
0.552127123,-0.63391459,-0.041064747,-0.773102283,-0.001449549,0.010429472,0.008868674,0.367244869,-0.048282437,0.279126346,0.05656708,-0.690260947,0.577230752
0.55218935,-0.633104086,-0.039807901,-0.772076786,0.00139809,0.010310153,0.007466049,0.367229432,-0.048278421,0.279076815,0.056529257,-0.690198779,0.577194691
0.558122516,-0.630648494,-0.041745353,-0.77451247,0.003400548,0.00992984,0.006439193,0.366831511,-0.048341133,0.278405607,0.056521624,-0.690137386,0.577135742
0.564025223,-0.628757417,-0.043243174,-0.776263654,0.005230063,0.008141595,0.00458831,0.366699576,-0.048361927,0.278183043,0.056531113,-0.690084338,0.577066123
0.56998831,-0.62854439,-0.045942683,-0.777812481,0.006970001,0.005005296,0.001631098,0.36659807,-0.048377927,0.278011799,0.056561623,-0.690035105,0.576987028
0.57596904,-0.630304217,-0.048856344,-0.77916652,0.006034608,0.005516822,4.18E-06,0.366564423,-0.048383228,0.277955025,0.056605451,-0.689992607,0.576906264
0.582054377,-0.630895495,-0.050468296,-0.778570116,0.005568956,0.006152512,-0.001502116,0.366730034,-0.048331004,0.278925866,0.056648362,-0.689947128,0.576839268
0.582122505,-0.629237652,-0.052335389,-0.77721864,0.004640518,0.003998126,0.000589075,0.366832316,-0.048299756,0.279498845,0.05668715,-0.689917207,0.576788247
0.588197172,-0.630567372,-0.052537188,-0.776362717,0.003778159,0.003751706,0.001641438,0.366911054,-0.048275713,0.279939681,0.056714874,-0.689882517,0.576743245
0.594102204,-0.631603122,-0.051418394,-0.77687335,0.003070694,0.005731116,0.003852767,0.366937131,-0.048267741,0.280085862,0.056725003,-0.689841151,0.576715708
0.600139737,-0.63020426,-0.0476663,-0.774475932,0.002684873,0.004617794,0.003684466,0.366767675,-0.048436955,0.279534042,0.056730535,-0.689807415,0.576667547
0.606003881,-0.631398141,-0.043210395,-0.773269892,0.004147636,0.005429297,0.004761335,0.366520345,-0.048669878,0.278681189,0.05672504,-0.689774752,0.576618016
0.612071514,-0.633196354,-0.041550409,-0.773672819,0.006674704,0.003488159,0.001865974,0.366330057,-0.048849102,0.278025001,0.056736134,-0.689744115,0.576562285
0.612118959,-0.630746245,-0.03440534,-0.772503138,0.012592303,0.002962422,7.48E-05,0.366266966,-0.048908528,0.277807415,0.056768291,-0.689723611,0.576452494
0.618001401,-0.631725788,-0.026038583,-0.775484085,0.021202374,-0.000759515,-0.007318825,0.366218418,-0.048954248,0.277639985,0.056873344,-0.689710796,0.57624954
0.623968005,-0.632728457,-0.019809991,-0.773880303,0.032290071,-0.003264839,-0.018461458,0.366832435,-0.048775669,0.277891785,0.057064883,-0.689715266,0.575962186
0.630052984,-0.630248368,-0.01524665,-0.77577883,0.045089532,-0.004440929,-0.028361926,0.367304862,-0.048638266,0.27808556,0.057352781,-0.689716578,0.575582623
0.636018515,-0.630322933,-0.014916173,-0.777787387,0.058723029,-0.008506781,-0.034141619,0.367461503,-0.048592705,0.278149813,0.057740726,-0.689741373,0.575153291
0.642096519,-0.630369365,-0.023760615,-0.776963651,0.068597138,-0.009542661,-0.042512905,0.367582023,-0.048557647,0.278199226,0.058232371,-0.689761639,0.574715078
0.642151117,-0.630225301,-0.030163132,-0.776054263,0.071738213,-0.010673267,-0.050132003,0.367425799,-0.048451893,0.278644711,0.058781233,-0.68978852,0.574251056
0.6480093,-0.633300424,-0.033884667,-0.774679303,0.073806487,-0.010961032,-0.054440092,0.367107153,-0.04827534,0.279421359,0.059368715,-0.689816415,0.573782921
0.6539765,-0.632097125,-0.038433369,-0.772403479,0.076929554,-0.008443335,-0.058027595,0.367001504,-0.048216797,0.279678881,0.059993379,-0.68983084,0.573317766
0.659963548,-0.632422447,-0.042114716,-0.771005809,0.07786876,-0.006565616,-0.061480124,0.366920203,-0.048171755,0.279877007,0.060642276,-0.689836144,0.57284075
0.666047096,-0.632444263,-0.044319909,-0.768018782,0.079052903,-0.003472511,-0.063450858,0.366893262,-0.04815682,0.279942721,0.061289176,-0.68983084,0.572378039
0.672070503,-0.635550141,-0.047138065,-0.772976398,0.087008215,0.000225974,-0.063139148,0.366999567,-0.047817707,0.279203236,0.061976645,-0.689803362,0.571909904
0.672120869,-0.636608183,-0.04786323,-0.775972843,0.109009296,-0.000131035,-0.058323707,0.367034823,-0.047705263,0.278958052,0.062773809,-0.689780831,0.571468115
0.678067684,-0.636690021,-0.049238935,-0.776825368,0.140267432,-0.003546328,-0.055856042,0.367061943,-0.047618747,0.278769374,0.063721888,-0.689770758,0.57104975
0.684031785,-0.635787487,-0.046820454,-0.768834233,0.161585093,-0.001631017,-0.051390737,0.367070913,-0.047590058,0.278706819,0.064749345,-0.689757168,0.570676029
0.690009713,-0.641103625,-0.03341078,-0.760878444,0.174989522,0.006555188,-0.057281286,0.366971642,-0.046956424,0.278707445,0.065826505,-0.689726114,0.570229888
0.69601953,-0.639677942,-0.018171122,-0.760486484,0.18417269,0.0177867,-0.074384719,0.366912454,-0.046594992,0.278719723,0.066986814,-0.689618587,0.569607437
0.708136916,-0.635925531,-0.007800951,-0.761756718,0.190858796,0.024043182,-0.094399549,0.366866916,-0.046316892,0.278729141,0.068240479,-0.689465046,0.568795502
0.708185732,-0.63423872,-0.016613608,-0.763573647,0.196244791,0.027407812,-0.109477833,0.366851807,-0.04622468,0.27873227,0.069602601,-0.689293265,0.567936063
0.708209753,-0.633692384,-0.039605729,-0.768479049,0.200642645,0.027718555,-0.120096527,0.367055923,-0.045809012,0.279061556,0.071094297,-0.689108551,0.567078829
0.714005113,-0.630257666,-0.058637593,-0.773255169,0.195150658,0.030526161,-0.123804361,0.367341161,-0.045323573,0.279500395,0.07259234,-0.688902617,0.566245675
0.72016263,-0.632481754,-0.07038255,-0.777231038,0.184527397,0.032249015,-0.12220531,0.367560625,-0.044950061,0.279837996,0.074041307,-0.688680887,0.565462649
0.726060808,-0.628916204,-0.080001742,-0.777750552,0.174637839,0.030310662,-0.115910165,0.367633402,-0.04482621,0.279949933,0.075419247,-0.688471973,0.564734697
0.732064009,-0.629999995,-0.093489334,-0.775239646,0.159893602,0.030867441,-0.106567673,0.367689401,-0.044730917,0.280036062,0.076709591,-0.68826133,0.564139307
0.732103109,-0.63201052,-0.096788451,-0.77176553,0.143983766,0.031554528,-0.096714839,0.367310315,-0.044230964,0.280496061,0.077885188,-0.688059866,0.563625991
0.738000691,-0.631314993,-0.096198879,-0.771165371,0.126945063,0.035811201,-0.086899608,0.36701861,-0.043846283,0.280849993,0.078929789,-0.687837839,0.563173473
0.743999004,-0.633452594,-0.093614437,-0.770149648,0.111117803,0.039928634,-0.075760968,0.366921902,-0.043718729,0.280967355,0.079828374,-0.687607169,0.562789619
0.750002861,-0.630556703,-0.09001632,-0.768047154,0.098564707,0.042888083,-0.068502069,0.366847485,-0.043620586,0.281057656,0.080636092,-0.687357545,0.562440097
0.756078005,-0.626321375,-0.087664589,-0.771329582,0.088114671,0.043412711,-0.061169438,0.366870403,-0.043068532,0.2812635,0.081355214,-0.687099159,0.562082291
0.762112916,-0.62631017,-0.088465147,-0.775923193,0.07972905,0.043069102,-0.055678479,0.366936177,-0.04211846,0.28159976,0.082010366,-0.686839283,0.561763763
0.762175441,-0.625459492,-0.080774985,-0.776943505,0.070062108,0.041211389,-0.049605154,0.366957963,-0.041803434,0.28171128,0.082563728,-0.686595798,0.561460257
0.76809603,-0.623832703,-0.078079507,-0.781126976,0.062905461,0.039318245,-0.043898057,0.366974741,-0.041561045,0.281797051,0.083062068,-0.686356425,0.561161399
0.774035335,-0.62513268,-0.072833724,-0.782691956,0.056336772,0.039366797,-0.039655853,0.366980314,-0.041480672,0.281825483,0.083499528,-0.686120093,0.560872555
0.780041933,-0.625583291,-0.065810658,-0.783213496,0.051981527,0.036941532,-0.037683997,0.36665678,-0.041013673,0.28120783,0.08389584,-0.685894489,0.560561419
0.786006272,-0.627062023,-0.061167244,-0.780557811,0.051425066,0.035761353,-0.037101373,0.366549492,-0.040858824,0.281002998,0.084272154,-0.685683966,0.560254097
0.792075753,-0.62672931,-0.059968498,-0.780513108,0.04956999,0.03293087,-0.039415576,0.366466939,-0.040739682,0.280845433,0.084654495,-0.68549335,0.559926271
0.792127252,-0.626145959,-0.064799488,-0.781549513,0.050694965,0.03016647,-0.039820381,0.366439581,-0.040700175,0.28079316,0.085059606,-0.685308218,0.55960542
0.798099756,-0.621619463,-0.072730698,-0.783165157,0.047114521,0.02510239,-0.03773167,0.366557688,-0.040164955,0.280744553,0.085454084,-0.685138345,0.559299529
0.804102898,-0.619947255,-0.080577485,-0.783014774,0.043502454,0.022872999,-0.033146262,0.366631299,-0.039862569,0.280726343,0.085834801,-0.684982896,0.559040964
0.80995667,-0.619334042,-0.088234916,-0.785784483,0.037424542,0.017927257,-0.029032629,0.366687924,-0.039629903,0.280712336,0.086181767,-0.684853971,0.558819592
0.816016316,-0.6187163,-0.092140801,-0.787940979,0.029448133,0.013575461,-0.024273839,0.366706699,-0.039552756,0.280707687,0.086474881,-0.684744179,0.558636844
0.82206732,-0.621479154,-0.094705924,-0.786366105,0.022354661,0.009443065,-0.018534854,0.36677736,-0.039524686,0.280551106,0.086704701,-0.684651375,0.558511972
0.822115183,-0.623952091,-0.099595532,-0.78680861,0.008484662,0.005416428,-0.0104825,0.366857439,-0.039546929,0.280344903,0.08684437,-0.684597611,0.558450699
0.827982187,-0.624086499,-0.100874886,-0.785163999,-0.003469148,0.004079412,-0.003314688,0.36691907,-0.039564047,0.280186236,0.08689478,-0.684553146,0.558447957
0.834010184,-0.624693215,-0.099459,-0.785187364,-0.011497897,-0.000464495,0.004025889,0.366945565,-0.039570063,0.280113995,0.086877123,-0.684533954,0.558487415
0.840391695,-0.621288121,-0.099327579,-0.783993125,-0.023672696,-0.003292149,0.012531558,0.36696595,-0.03957469,0.280058414,0.086766057,-0.684529126,0.558568001
0.846205294,-0.623399436,-0.101200752,-0.782511771,-0.033175878,-0.006052781,0.020658765,0.366629511,-0.039514937,0.280474901,0.086575426,-0.684544265,0.558728516
0.852117479,-0.622828364,-0.100967295,-0.783061385,-0.04276308,-0.007416615,0.029041888,0.366370678,-0.039468959,0.280795366,0.086309209,-0.684572339,0.558927834
0.852202117,-0.62436384,-0.098234773,-0.784740567,-0.053050574,-0.00947915,0.034195937,0.366284817,-0.039453715,0.280901611,0.085959077,-0.684609652,0.559158444
0.85800904,-0.623953581,-0.089695312,-0.783885002,-0.062421873,-0.009467475,0.041949615,0.366218776,-0.039441984,0.280983359,0.085515194,-0.684653759,0.55939877
0.870130002,-0.624676466,-0.086634487,-0.783666313,-0.066663042,-0.013119712,0.045679819,0.366363108,-0.039551612,0.281556576,0.085030504,-0.684714437,0.559669733
0.870185614,-0.624862492,-0.086186595,-0.783158541,-0.072571225,-0.014682091,0.051733989,0.366642237,-0.039750751,0.282549828,0.084492028,-0.684788346,0.559986115
0.875986874,-0.625071585,-0.087168992,-0.782077491,-0.078656927,-0.016233701,0.055011012,0.366734803,-0.039816782,0.282879174,0.083931409,-0.684867859,0.560317755
0.882152915,-0.625151217,-0.087585576,-0.780217469,-0.08367984,-0.018076209,0.059802413,0.366806,-0.039867587,0.283132583,0.083322398,-0.684962034,0.560688317
0.882211685,-0.623358309,-0.086627327,-0.783888221,-0.088871561,-0.018898163,0.059259903,0.366829604,-0.039884433,0.283216596,0.082680479,-0.6850546,0.561038494
0.88822329,-0.621150851,-0.078361921,-0.79178828,-0.092737928,-0.024349146,0.060654569,0.366534412,-0.040312156,0.28151089,0.082003802,-0.685165167,0.561321616
0.894010127,-0.623535931,-0.076669998,-0.793125033,-0.094546676,-0.030568806,0.06061941,0.366436541,-0.040453982,0.280945301,0.081310332,-0.685315847,0.561616182
0.900008142,-0.625739872,-0.084356435,-0.793400705,-0.098278463,-0.035882138,0.06186565,0.36636126,-0.040563107,0.280510128,0.080619834,-0.685487747,0.561952174
0.906043768,-0.62516731,-0.096649483,-0.793207645,-0.107609414,-0.040893361,0.067289956,0.366336286,-0.04059929,0.280365825,0.079898909,-0.685675859,0.562358141
0.912075579,-0.626578033,-0.098481052,-0.791849136,-0.115141332,-0.045737695,0.073128127,0.366708428,-0.04092947,0.281322956,0.079109311,-0.685905099,0.562831581
0.912139714,-0.625553489,-0.094049737,-0.791256607,-0.12207254,-0.04851326,0.080766983,0.366928667,-0.041113768,0.281904638,0.078240842,-0.686147869,0.563328028
0.917999506,-0.629976213,-0.088281922,-0.790717363,-0.123825692,-0.053265013,0.087342262,0.367098123,-0.041255567,0.282352209,0.077326432,-0.686430991,0.563864052
0.924000204,-0.628446341,-0.080410056,-0.788494349,-0.123830326,-0.057166405,0.09295325,0.36715433,-0.041302588,0.282500625,0.076376446,-0.686725259,0.564392865
0.930066466,-0.630149305,-0.068930708,-0.784195364,-0.122318193,-0.060334489,0.100125343,0.36697939,-0.041427922,0.281858861,0.075382806,-0.687048435,0.564953804
0.936020315,-0.632538497,-0.056204353,-0.779594421,-0.119699523,-0.06030155,0.097080551,0.366701365,-0.041559387,0.280883759,0.074397407,-0.687382102,0.565447211
0.942065299,-0.635441363,-0.046268933,-0.776928484,-0.119697705,-0.061566442,0.095606677,0.366487443,-0.04166054,0.280133486,0.073390193,-0.687725782,0.565925658
0.942138374,-0.636702716,-0.035895746,-0.773436308,-0.114053041,-0.060177322,0.091600575,0.366416484,-0.041694082,0.279884726,0.072412886,-0.688060403,0.566344738
0.94799751,-0.636405945,-0.024440443,-0.769266188,-0.107360221,-0.055377554,0.083238438,0.366361916,-0.041719887,0.279693305,0.071496837,-0.688372612,0.566673994
0.954021156,-0.637632906,-0.016847001,-0.766769946,-0.097044133,-0.052972227,0.07576143,0.366547257,-0.042292599,0.279417843,0.070647456,-0.68867445,0.566943586
0.960005701,-0.637607753,-0.01528021,-0.76496309,-0.08660078,-0.047853116,0.064641908,0.366689861,-0.042733263,0.279205859,0.069891766,-0.688944221,0.567149162
0.966049969,-0.635257661,-0.022204265,-0.765619636,-0.076002106,-0.044987362,0.055625826,0.366737157,-0.042879377,0.279135585,0.069241561,-0.689196885,0.567326367
0.972300291,-0.634092093,-0.033229873,-0.764884055,-0.068215869,-0.040852938,0.051082902,0.366773546,-0.042991802,0.279081494,0.068681352,-0.689422727,0.567504704
0.972367108,-0.635606408,-0.043640215,-0.765294969,-0.064523123,-0.036974873,0.047258623,0.366789103,-0.043370571,0.279554516,0.068176195,-0.689619005,0.567724466
0.97802949,-0.637606561,-0.042279013,-0.764056325,-0.059915744,-0.0313012,0.042008545,0.3668046,-0.044007305,0.280414939,0.067693688,-0.689790964,0.56791544
0.983964264,-0.635541379,-0.039446857,-0.767018616,-0.056895003,-0.026523959,0.039469708,0.366809726,-0.044218432,0.280700237,0.067233287,-0.689937055,0.568065822
0.989965677,-0.636781633,-0.04030294,-0.771080196,-0.050793149,-0.021653205,0.036981028,0.366813689,-0.044380885,0.28091976,0.066816047,-0.690053225,0.568206429
0.996006548,-0.636429667,-0.047931626,-0.772719502,-0.048198916,-0.019623499,0.034944039,0.366815001,-0.044434749,0.280992538,0.066438422,-0.690154791,0.5683586
1.002000809,-0.634140134,-0.057064969,-0.773080409,-0.048896544,-0.017852364,0.03274294,0.366889179,-0.044955518,0.280411333,0.066082388,-0.6902408,0.568518758
1.002050638,-0.63393712,-0.060469106,-0.773575068,-0.051313803,-0.014552218,0.031155387,0.366913795,-0.045128196,0.280218631,0.065728232,-0.690317094,0.568679988
1.008006454,-0.633161008,-0.061745353,-0.772956729,-0.054721884,-0.013926893,0.032564245,0.36693272,-0.045261059,0.280070364,0.06535165,-0.690386534,0.568856478
1.014044404,-0.630170584,-0.061354246,-0.772886395,-0.055968266,-0.012699329,0.033025414,0.366939008,-0.045305114,0.280021191,0.064961076,-0.690446615,0.569030225
1.020094037,-0.632456779,-0.058194388,-0.774439573,-0.059818316,-0.011746733,0.035517272,0.366998374,-0.045552816,0.278912365,0.064527616,-0.690509439,0.569203019
1.026010156,-0.632084072,-0.054219585,-0.771256089,-0.06138929,-0.009322386,0.034117676,0.367031574,-0.045687854,0.278279662,0.064095221,-0.69055444,0.569345415
1.038120866,-0.628507733,-0.052326664,-0.770380735,-0.063124999,-0.008003399,0.034905475,0.367057115,-0.04579176,0.277792871,0.063634247,-0.690590858,0.569499969
1.038168073,-0.626733124,-0.052639883,-0.767442048,-0.063193612,-0.008388656,0.036449339,0.367065579,-0.045826215,0.277631462,0.063184828,-0.690633118,0.569657683
1.03821063,-0.625561953,-0.053703226,-0.769134283,-0.062822156,-0.007868322,0.034541018,0.367155552,-0.04588316,0.277505994,0.062745027,-0.690670013,0.569789648
1.043985963,-0.621117294,-0.051289812,-0.773743987,-0.062275946,-0.010392186,0.032279506,0.367269576,-0.045932733,0.277463108,0.062309001,-0.690700412,0.569890022
1.050054312,-0.624020755,-0.049693391,-0.775755405,-0.06235119,-0.012829648,0.031137224,0.367357314,-0.045970879,0.277430117,0.061879329,-0.69075352,0.569967449
1.056313038,-0.622851014,-0.044160299,-0.774506271,-0.060728792,-0.012784836,0.029060956,0.367386401,-0.045983527,0.27741915,0.061452687,-0.690805912,0.57002306
1.062069416,-0.629206777,-0.044116654,-0.772657037,-0.060004011,-0.013109636,0.029013537,0.367408782,-0.045993254,0.277410716,0.061027445,-0.690864563,0.570104301
1.062099695,-0.630485296,-0.046410847,-0.769214034,-0.060070239,-0.012181043,0.027985446,0.367327064,-0.046603289,0.277470171,0.060612671,-0.690925717,0.570212722
1.067996264,-0.630558252,-0.045980874,-0.768629134,-0.059333716,-0.010955976,0.027761705,0.367264181,-0.047072671,0.277515918,0.060210031,-0.69098103,0.570307195
1.074076295,-0.63144666,-0.04042194,-0.768680274,-0.055372413,-0.009791888,0.027315827,0.36724335,-0.04722831,0.277531087,0.059808966,-0.691033542,0.570392132
1.07999742,-0.630322695,-0.031608954,-0.768443346,-0.050139494,-0.009173981,0.026374768,0.367227316,-0.047348063,0.27754274,0.05941882,-0.691078305,0.570423663
1.085998297,-0.634013176,-0.026917953,-0.765785277,-0.046768367,-0.006055715,0.022256518,0.367306203,-0.04742071,0.27727133,0.059055038,-0.691117525,0.570438266
1.092155695,-0.634588778,-0.02487115,-0.762425005,-0.038022168,-0.006326401,0.016896077,0.367452115,-0.047509912,0.276784122,0.058758345,-0.691153526,0.570412099
1.092294455,-0.635864019,-0.024834299,-0.763430119,-0.031040961,-0.004369818,0.012731928,0.367500484,-0.047539491,0.276622564,0.058513884,-0.691183686,0.5703668
1.097970486,-0.635420024,-0.028906202,-0.765050411,-0.02173122,-0.001387024,0.007513714,0.367537707,-0.047562253,0.276498288,0.058354516,-0.691195786,0.570289493
1.104028583,-0.631527781,-0.033371262,-0.766753495,-0.01465123,-0.002378111,0.003013975,0.367550045,-0.047569796,0.276457042,0.058254063,-0.69119966,0.570194721
1.109977484,-0.632011652,-0.040952604,-0.767271638,-0.01002802,-0.001219193,0.001826627,0.367299408,-0.04756733,0.276786506,0.058199115,-0.691209555,0.570129871
1.115990162,-0.630345106,-0.043319877,-0.767127335,-0.008204058,-0.000936963,0.000952994,0.367216289,-0.047566514,0.276895761,0.058159009,-0.691202044,0.570056677
1.122104049,-0.631104946,-0.051361144,-0.768515527,-0.004299972,0.000924528,0.001239555,0.367152333,-0.047565885,0.276979804,0.058153626,-0.691192627,0.570014894
1.122142553,-0.633988321,-0.055022646,-0.768724144,-0.005136007,0.003265615,0.003910027,0.367131114,-0.047565676,0.277007669,0.058133647,-0.691172361,0.57001704
1.127963901,-0.635798216,-0.059989057,-0.769194901,-0.008040112,0.006565516,0.005325825,0.366919219,-0.047705218,0.27799964,0.05810592,-0.691140652,0.570055842
1.1340518,-0.631480396,-0.061933111,-0.773094893,-0.011358066,0.006729093,0.00874627,0.366800576,-0.047786057,0.278568685,0.05805346,-0.691099823,0.5700984
1.14010036,-0.627120614,-0.06541644,-0.777500391,-0.014975932,0.009922932,0.01231503,0.366709292,-0.047848262,0.279006571,0.057966582,-0.69101727,0.57016468
1.146055222,-0.6270172,-0.071964636,-0.776509702,-0.020403123,0.008857258,0.017057894,0.366679013,-0.047868885,0.279151738,0.057852987,-0.69095701,0.57028538
1.152069211,-0.626650512,-0.074170209,-0.777285337,-0.025330875,0.009348889,0.02449495,0.366658717,-0.047977082,0.278625041,0.057681091,-0.69088608,0.570456147
1.152116179,-0.629214346,-0.066799529,-0.775400698,-0.032453872,0.009351822,0.029618276,0.366654992,-0.048106063,0.27780661,0.057428502,-0.690832257,0.57064563
1.157959342,-0.629036605,-0.059975766,-0.774696946,-0.036409032,0.009971369,0.034063309,0.366652101,-0.048205305,0.277176887,0.057127625,-0.690774918,0.570823073
1.163982868,-0.629736841,-0.051399309,-0.774508238,-0.040374465,0.011116206,0.037872892,0.366651148,-0.04823821,0.276968062,0.056764454,-0.690719247,0.571009398
1.170061707,-0.632044196,-0.046221517,-0.773886323,-0.038558979,0.010115044,0.037875086,0.366650403,-0.048263531,0.276807398,0.056406453,-0.690670967,0.57118398
1.176102281,-0.633490801,-0.046163507,-0.770881116,-0.038894188,0.010904808,0.038667552,0.366846234,-0.048279133,0.276375085,0.056060169,-0.690620065,0.571371078
1.182372808,-0.635823071,-0.042154897,-0.770434141,-0.038271498,0.011549539,0.035349961,0.366996914,-0.048291136,0.276042432,0.055716187,-0.690569162,0.571520448
1.182412505,-0.632440746,-0.038632635,-0.772281408,-0.03122806,0.011933659,0.035319366,0.367046863,-0.048295118,0.275932133,0.055404175,-0.690512896,0.571642935
1.188100815,-0.630706906,-0.041913338,-0.774285793,-0.02915133,0.011761293,0.032690912,0.367085308,-0.048298176,0.275847256,0.055122312,-0.690446615,0.571750104
1.200164318,-0.630967975,-0.051134199,-0.774181366,-0.029320698,0.010964038,0.03383394,0.36704284,-0.048326116,0.275911838,0.054860085,-0.690386355,0.571908653
1.200201869,-0.632273495,-0.057099253,-0.773088038,-0.03034915,0.01079144,0.034567535,0.366954327,-0.048374835,0.276055306,0.054593947,-0.690337777,0.572103322
1.205987334,-0.635228813,-0.055116422,-0.771668196,-0.034855749,0.012103435,0.035379387,0.366924971,-0.048390992,0.276102901,0.054289654,-0.690282106,0.572307706
1.21202147,-0.6335181,-0.053699318,-0.774306178,-0.036577858,0.012337118,0.039950967,0.366902411,-0.04840342,0.276139498,0.053961325,-0.690218747,0.572520912
1.212076545,-0.630967557,-0.047103349,-0.777558744,-0.036018346,0.013067117,0.040268846,0.366894901,-0.04840754,0.276151627,0.053625308,-0.690145433,0.57269901
1.217982173,-0.628153205,-0.046348635,-0.780049384,-0.03945034,0.013345132,0.042376127,0.36682716,-0.048933499,0.277878046,0.053260561,-0.690063834,0.572898269
1.224129438,-0.624955237,-0.046025828,-0.780747592,-0.038420003,0.012669546,0.041897267,0.366804689,-0.049107894,0.278450489,0.052902203,-0.689985752,0.573073566
1.230249166,-0.624581397,-0.048377734,-0.783022046,-0.04087149,0.011314489,0.041541431,0.366787434,-0.049242083,0.278890938,0.052535441,-0.68990922,0.573266029
1.236005545,-0.624106944,-0.04718677,-0.78423804,-0.042467814,0.009627516,0.043319967,0.366781712,-0.049286578,0.279036999,0.052148193,-0.689839363,0.573463321
1.242071509,-0.628433168,-0.041774012,-0.781646073,-0.041877102,0.007279078,0.042368442,0.366832435,-0.049584888,0.278132558,0.051759895,-0.689796567,0.573633432
1.242120981,-0.630211651,-0.036100272,-0.777794838,-0.039857164,0.007078291,0.04116657,0.366862893,-0.049749151,0.277581036,0.051372714,-0.689763308,0.573794484
1.247984886,-0.630889654,-0.031381354,-0.778393507,-0.03925392,0.002743059,0.041951973,0.366886318,-0.049875539,0.277156711,0.050983287,-0.689750493,0.573939562
1.253991961,-0.632237732,-0.029252976,-0.77923888,-0.036554713,0.000906397,0.038913228,0.366894096,-0.049917448,0.277016014,0.050614849,-0.689746797,0.574062943
1.260020852,-0.632480502,-0.03382802,-0.7769683,-0.033827301,-0.001416763,0.039742086,0.366818458,-0.050035406,0.276818961,0.050276555,-0.689753056,0.574225724
1.266044855,-0.634131134,-0.036147345,-0.775451124,-0.030837383,-0.004220715,0.037095852,0.36671108,-0.050160952,0.276664078,0.049976278,-0.689775825,0.574367344
1.272104502,-0.635884523,-0.036235128,-0.774831951,-0.02832395,-0.002119065,0.035593104,0.366628468,-0.050257552,0.276544929,0.049679749,-0.689792395,0.574519098
1.272164702,-0.633963645,-0.034818683,-0.771959901,-0.02708804,-0.001103378,0.032826435,0.36660108,-0.050289582,0.276505411,0.04940987,-0.689799547,0.574634075
1.278137803,-0.633461177,-0.030988444,-0.772763252,-0.024092011,-0.003043887,0.030505842,0.366580009,-0.050314225,0.276475012,0.049152866,-0.689816654,0.574727356
1.284013391,-0.63625282,-0.028236194,-0.772949994,-0.019624896,-0.001989628,0.025977287,0.36656788,-0.050208617,0.277804166,0.048926219,-0.689833879,0.574795187
1.289959908,-0.638893962,-0.031202264,-0.773433149,-0.013425742,-0.001471292,0.022247678,0.366558552,-0.050127357,0.278826863,0.048760302,-0.68984431,0.574860811
1.295998454,-0.634782076,-0.04324919,-0.775441051,-0.009972312,-0.000638082,0.021300348,0.366555452,-0.050100416,0.279165953,0.048652679,-0.689843535,0.574939907
1.30208683,-0.629692912,-0.047756575,-0.780303299,-0.012162638,-0.004231942,0.02077692,0.366553068,-0.050079685,0.279426873,0.048534218,-0.689846039,0.575013757
1.302164912,-0.629513562,-0.045299958,-0.784600019,-0.015085797,-0.004665265,0.021059766,0.366668046,-0.050311424,0.278874457,0.048384167,-0.689850032,0.575064898
1.3080405,-0.62724334,-0.043753147,-0.781524241,-0.014592941,-0.005527579,0.020950966,0.366873592,-0.050731011,0.277803302,0.048236355,-0.689858496,0.575113893
1.314019442,-0.626144111,-0.039092854,-0.784505725,-0.017172001,-0.009602778,0.022535594,0.36694175,-0.050870139,0.277448148,0.048058521,-0.689879298,0.575138509
1.31996429,-0.631501913,-0.034104835,-0.784930527,-0.017035916,-0.010593959,0.020579055,0.366994172,-0.050977189,0.27717486,0.047886148,-0.689920366,0.575140655
1.325999141,-0.629943609,-0.035597205,-0.781735897,-0.014367157,-0.012865849,0.017279303,0.367011547,-0.051012684,0.277084261,0.047746081,-0.689970016,0.575146556
1.332049131,-0.629096508,-0.03265097,-0.785205543,-0.014157194,-0.016929597,0.016210074,0.366766393,-0.051230192,0.277805418,0.047605019,-0.690032125,0.575125158
1.332073689,-0.6316939,-0.030412152,-0.784096897,-0.011056749,-0.01913631,0.014246874,0.366685092,-0.051302314,0.278044552,0.047486626,-0.69011569,0.575090051
1.338028073,-0.631485283,-0.029890543,-0.786888659,-0.007265162,-0.024844486,0.010403865,0.366622567,-0.051357806,0.278228551,0.04739948,-0.690214276,0.575026989
1.344017625,-0.62982434,-0.027237335,-0.790331721,-0.00488703,-0.030182242,0.01071554,0.366601825,-0.051376209,0.278289586,0.047311518,-0.690343797,0.574947536
1.35042119,-0.627735674,-0.023100305,-0.794553161,0.003768111,-0.037029967,0.00821911,0.366732061,-0.051296074,0.277850062,0.04727158,-0.690499544,0.574803829
1.356051922,-0.624777496,-0.024384156,-0.805513978,0.013651696,-0.048971694,0.004051573,0.366811424,-0.05124617,0.277583927,0.047308929,-0.690689445,0.574615121
1.368178487,-0.619392395,-0.029216828,-0.820363641,0.02584981,-0.070327327,0.001123071,0.366872489,-0.05120777,0.277379185,0.047430538,-0.690966725,0.574356496
1.368214607,-0.616780341,-0.040872041,-0.84013468,0.036645677,-0.105440848,-0.002835772,0.366892755,-0.051195037,0.277311295,0.04767403,-0.691407084,0.57405287
1.368257046,-0.622163117,-0.064145491,-0.871041834,0.054064609,-0.142863095,-0.005951886,0.367072552,-0.05112718,0.277651042,0.048058651,-0.692016184,0.573752046
1.373988748,-0.642659366,-0.082551837,-0.887856305,0.088673837,-0.179120138,-0.008371949,0.367297798,-0.051046137,0.278158933,0.048679586,-0.69281584,0.5735026
1.379961371,-0.70523566,-0.07710728,-0.837129951,0.154230446,-0.184388518,-0.032298625,0.367471099,-0.050983775,0.278549731,0.04970707,-0.693800807,0.573385119
1.386075377,-0.770560086,-0.039984312,-0.819247305,0.220449731,-0.122869819,-0.091918141,0.367528558,-0.0509631,0.278679311,0.051283639,-0.69453764,0.5729357
1.39213264,-0.75493598,0.022774506,-0.799961388,0.269306451,-0.066411398,-0.175773218,0.367572755,-0.050947189,0.27877903,0.053281292,-0.69486326,0.571625829
1.392197013,-0.72826916,0.062283184,-0.810787916,0.320440412,-0.050332598,-0.252010942,0.367486119,-0.050346524,0.277091533,0.055764172,-0.695076406,0.569551528
1.398050189,-0.716732562,0.016722653,-0.81908834,0.34078595,-0.036961965,-0.303349853,0.367419481,-0.049884353,0.275793135,0.058694538,-0.695207357,0.567342997
1.404010296,-0.697125018,-0.018161964,-0.836861253,0.351221293,-0.021845283,-0.343051046,0.367397368,-0.049731106,0.275362611,0.061883599,-0.695189476,0.564932585
1.409962773,-0.70934689,-0.037015997,-0.863455117,0.344594479,-0.005063019,-0.376454681,0.367380351,-0.049613193,0.275031358,0.065172948,-0.695057094,0.562342465
1.416063309,-0.661659896,-0.076393232,-0.881859124,0.315628082,0.006156655,-0.398193002,0.367503643,-0.048912879,0.275002867,0.068479948,-0.694763422,0.559587836
1.422077656,-0.582027614,-0.082346641,-0.911090374,0.293366402,-0.037399787,-0.39499402,0.367728859,-0.047705445,0.275063187,0.071630791,-0.694527268,0.556592762
1.422143459,-0.549566269,-0.102233134,-0.970413983,0.279974729,-0.109497085,-0.383382767,0.367803544,-0.047305081,0.275083184,0.074725419,-0.694622993,0.553498924
1.428014755,-0.549222469,-0.08044339,-1.058998585,0.270873219,-0.188654169,-0.364791751,0.367861003,-0.046997029,0.275098592,0.077595107,-0.695017219,0.550242126
1.434286833,-0.544956207,-0.100306824,-1.119268417,0.257236183,-0.306789964,-0.344563872,0.367880046,-0.046894886,0.275103688,0.080442689,-0.695928216,0.547009468
1.440047979,-0.591451049,-0.146058321,-1.201054692,0.303387523,-0.505787969,-0.298823953,0.368507147,-0.044202518,0.274567366,0.083496928,-0.697862804,0.543896854
1.446005106,-0.774896502,-0.105796739,-1.169254422,0.338334233,-0.744390368,-0.18557407,0.368715078,-0.043309778,0.274389535,0.086221173,-0.701434016,0.542041183
1.452050447,-0.786162436,-0.144196719,-1.124608755,0.508057892,-0.994874239,-0.054028373,0.368875057,-0.042622879,0.274252713,0.089441583,-0.706327617,0.540904105
1.452115297,-0.81699276,-0.472878516,-1.118661046,0.558048069,-1.245073557,0.113140896,0.368928105,-0.042395115,0.274207324,0.093301043,-0.712573647,0.542118073
1.458076715,-1.001911283,-0.895303309,-1.217599392,0.335161209,-1.369906187,0.274668545,0.369971633,-0.040329702,0.272040427,0.096221656,-0.719606042,0.545862138
1.463999391,-1.200513363,-1.061735868,-1.371839046,-0.087059528,-1.332560062,0.444518238,0.370565802,-0.03917712,0.270794392,0.09629041,-0.726451993,0.551149726
1.470010757,-1.190066695,-0.918443322,-1.495293021,-0.538656712,-1.224385858,0.58561492,0.371022969,-0.038290288,0.269835621,0.09267699,-0.732480347,0.556384385
1.476169825,-1.045813203,-0.620773315,-1.539726853,-0.840588689,-1.125415206,0.678083658,0.371174574,-0.037996233,0.26951769,0.086345166,-0.73779583,0.56080085
1.482076526,-0.821210027,-0.342489898,-1.564660788,-0.92885077,-1.072746396,0.704431534,0.372437447,-0.038158197,0.267032534,0.078931771,-0.742537737,0.563980639
1.482125998,-0.614290416,-0.183065385,-1.568277121,-0.852818131,-1.084614754,0.704801142,0.374012083,-0.03860338,0.263949126,0.07180503,-0.747102737,0.566298962
1.48807323,-0.460464835,-0.156254783,-1.555822968,-0.726723313,-1.151502609,0.726060331,0.375223637,-0.038945921,0.261576623,0.065342776,-0.751878738,0.568531632
1.494001627,-0.353572875,-0.207576334,-1.537249207,-0.630488992,-1.232968688,0.778137982,0.375625372,-0.039059501,0.260789961,0.059254792,-0.756995916,0.57125628
1.499985814,-0.29995665,-0.274133801,-1.514801025,-0.594081938,-1.301602483,0.858346641,0.375934511,-0.039146893,0.260184646,0.053065576,-0.762434781,0.574784517
1.505967855,-0.25515765,-0.324367613,-1.505854726,-0.615692317,-1.331219554,0.952511311,0.378008813,-0.043124247,0.254146129,0.046289273,-0.767953753,0.579151273
1.51209116,-0.291363209,-0.313537598,-1.558277965,-0.671041369,-1.327602267,1.036180496,0.379604816,-0.046184555,0.249499902,0.038649671,-0.773365259,0.584103703
1.512141109,-0.286123395,-0.367560983,-1.500071168,-0.724334717,-1.31871295,1.104041576,0.380134016,-0.047199294,0.247959301,0.030542815,-0.778845787,0.589992344
1.518034577,-0.145546481,-0.29711026,-1.46298933,-0.771343827,-1.231207252,1.152818084,0.380541205,-0.047980066,0.246773914,0.021571564,-0.783546686,0.595742583
1.530059695,-0.123874076,-0.247175157,-1.498580813,-0.741491079,-1.137378335,1.165975451,0.381628722,-0.05039173,0.243037492,0.012528785,-0.787684798,0.601443648
1.530135036,-0.069882095,-0.228341728,-1.480017304,-0.690604985,-1.031193972,1.151806712,0.383428603,-0.054424133,0.236781895,0.003840378,-0.791186035,0.607010484
1.536016226,0.035857491,-0.207464606,-1.432278633,-0.613936245,-0.934683144,1.129511714,0.384025395,-0.055761199,0.234707668,-0.004473857,-0.794054985,0.612313509
1.542019963,0.12943092,-0.234228551,-1.391121626,-0.523496509,-0.84588033,1.097006083,0.384484619,-0.056789983,0.23311168,-0.012048592,-0.796409726,0.617412269
1.542069793,0.173704356,-0.268550575,-1.368564129,-0.454213232,-0.763783395,1.0604707,0.384636879,-0.057131104,0.23258248,-0.019024855,-0.798289657,0.622361958
1.547966003,0.194231704,-0.29191041,-1.347705483,-0.406663597,-0.678912699,1.015295386,0.385051936,-0.063593991,0.225898772,-0.025526408,-0.799740791,0.627122343
1.554050207,0.214898139,-0.298790485,-1.327579856,-0.372887641,-0.588149369,0.963935912,0.385189593,-0.065736964,0.223682582,-0.031580996,-0.800701737,0.631514668
1.560311198,0.212978214,-0.293942451,-1.318579078,-0.329999447,-0.48682943,0.896198511,0.38529548,-0.067385837,0.221977383,-0.037097905,-0.801164567,0.635435522
1.566081166,0.186245427,-0.278216988,-1.315048575,-0.281192273,-0.37034902,0.805995107,0.385330588,-0.067932576,0.221411958,-0.041893944,-0.801062822,0.638686895
1.572129488,0.155410916,-0.262235582,-1.306436777,-0.224302143,-0.230634153,0.69341749,0.384688497,-0.072369665,0.218837142,-0.04579372,-0.800311983,0.641193628
1.572189927,0.139188409,-0.258004457,-1.294680715,-0.163777605,-0.070938855,0.573160231,0.384310007,-0.074834794,0.217453897,-0.048714094,-0.798790693,0.642817497
1.577973247,0.133417755,-0.257411182,-1.283852816,-0.111593783,0.101074688,0.447590113,0.384018779,-0.07673154,0.216389582,-0.050651699,-0.796445131,0.643489242
1.583963633,0.13467741,-0.250956953,-1.270449758,-0.063016899,0.278267473,0.322262734,0.383922219,-0.077360466,0.216036677,-0.051678684,-0.793244243,0.643224061
1.589972734,0.139911726,-0.234370992,-1.251171112,-0.016850803,0.459392607,0.19421795,0.383344948,-0.079450272,0.215610415,-0.051800691,-0.7891891,0.641994774
1.59599638,0.155115783,-0.213403061,-1.225819826,0.025338598,0.636111975,0.069401816,0.382646322,-0.081762582,0.215313062,-0.051112808,-0.784304738,0.639835715
1.602059245,0.186224312,-0.190371513,-1.197164059,0.068644017,0.805099726,-0.049113706,0.382108778,-0.083541751,0.215084285,-0.049640998,-0.778601825,0.636731148
1.602096677,0.220587388,-0.172610596,-1.166394353,0.105279133,0.955561459,-0.161444411,0.38193056,-0.084131688,0.215008423,-0.047464751,-0.77217567,0.632785082
1.608144879,0.239002377,-0.162207484,-1.13483429,0.136816084,1.096927762,-0.264385641,0.38179341,-0.084585607,0.214950055,-0.044669751,-0.765103519,0.628161311
1.614005685,0.250078946,-0.153726682,-1.100111008,0.151468694,1.230177641,-0.358826846,0.380096912,-0.085694849,0.217654496,-0.041422095,-0.757419229,0.623020113
1.619983792,0.257370323,-0.148185343,-1.063561916,0.152083278,1.356739163,-0.440175235,0.3787916,-0.086548336,0.219735384,-0.037849136,-0.749160469,0.617407858
1.626004696,0.257871091,-0.138391137,-1.030126929,0.139855832,1.472158551,-0.516513228,0.378358781,-0.086831339,0.220425367,-0.034096137,-0.740378499,0.611393034
1.632061362,0.251613081,-0.119127914,-1.004269242,0.126970246,1.581990361,-0.587010741,0.37802574,-0.087049089,0.220956266,-0.030205809,-0.731088817,0.604989529
1.6321311,0.238237977,-0.096879229,-0.980612278,0.116106316,1.686942697,-0.652278602,0.375995934,-0.086917646,0.223633558,-0.026225055,-0.721333146,0.598313332
1.637980938,0.21627228,-0.081002519,-0.962602139,0.110998355,1.788646936,-0.715484858,0.372493327,-0.086610593,0.228222728,-0.022120392,-0.711123407,0.591375351
1.644106865,0.18711637,-0.073540397,-0.951986432,0.107637383,1.889266372,-0.773148715,0.37133193,-0.086508781,0.229744419,-0.01789104,-0.700453281,0.584224522
1.650121689,0.157475024,-0.073050044,-0.944161117,0.106425494,1.990760922,-0.825569928,0.370438308,-0.086430445,0.230915233,-0.013569442,-0.689323843,0.576942444
1.656013012,0.127944842,-0.075093031,-0.939752221,0.104963526,2.087030411,-0.872149646,0.370142013,-0.086404465,0.231303453,-0.009192842,-0.677747846,0.569596887
1.662052631,0.10374622,-0.076685175,-0.935537875,0.103977114,2.177325964,-0.912790954,0.365398288,-0.084798016,0.240791604,-0.004781233,-0.665747404,0.562216341
1.662117243,0.079157561,-0.079682276,-0.92628634,0.102990285,2.264960527,-0.948099971,0.363825351,-0.084265344,0.243937686,-0.000378539,-0.653349459,0.55483079
1.668020725,0.058280159,-0.082399189,-0.913537443,0.103783295,2.341938019,-0.978760242,0.362615079,-0.083855495,0.246358395,0.004001175,-0.640606284,0.547485411
1.674001336,0.040037803,-0.080718018,-0.902635932,0.114590853,2.41324544,-1.0055902,0.36221379,-0.083719596,0.247161061,0.00839079,-0.627534091,0.540150523
1.680011988,0.017850503,-0.077888504,-0.894657254,0.131313443,2.476632595,-1.022237778,0.357425988,-0.08218018,0.256588995,0.012770495,-0.614180565,0.533008754
1.686131001,-0.006274733,-0.07309901,-0.894385517,0.156859115,2.527952433,-1.034631133,0.354730099,-0.081314683,0.261895269,0.017155835,-0.600599706,0.525985062
1.698085189,-0.0477539,-0.064956211,-0.894477367,0.197520241,2.56930232,-1.045675397,0.352655798,-0.080648735,0.265978068,0.021609822,-0.5868752,0.519108236
1.69816494,-0.100137353,-0.051614001,-0.899531305,0.254827142,2.609825373,-1.062572479,0.35196799,-0.080427922,0.267331839,0.026241155,-0.573011339,0.512335956
1.69818902,-0.158189103,-0.04187952,-0.905610919,0.328235388,2.646811485,-1.08234477,0.348508686,-0.079549342,0.273568094,0.031149643,-0.559040606,0.505725205
1.703967333,-0.223201752,-0.038958389,-0.914343417,0.403722882,2.683794975,-1.10207963,0.344406962,-0.078543395,0.280874133,0.036351305,-0.544961929,0.499295861
1.709962845,-0.295009762,-0.041638814,-0.929823101,0.485127896,2.725161314,-1.121245623,0.341250956,-0.077769384,0.286495626,0.041875709,-0.530752301,0.4930363
1.716016293,-0.378586352,-0.039473325,-0.947721899,0.570779383,2.774609804,-1.138087511,0.340204507,-0.077512741,0.288359612,0.047703702,-0.516399145,0.486978561
1.722047091,-0.48039192,-0.035210717,-0.964871943,0.657463849,2.84861207,-1.146996021,0.339399308,-0.077315263,0.289793819,0.053827964,-0.501805902,0.481222332
1.722108603,-0.563527763,-0.033151317,-0.975782275,0.739402652,2.945997477,-1.151721597,0.333282679,-0.07538338,0.298994213,0.060187243,-0.486800045,0.475840747
1.728155255,-0.605692029,-0.02992096,-0.975333512,0.814242184,3.050469875,-1.143820524,0.328576356,-0.07389693,0.306073278,0.066715874,-0.471306622,0.470761776
1.733993888,-0.619131625,-0.022933848,-0.970589638,0.880794346,3.146291733,-1.122734666,0.327015817,-0.073404051,0.308420569,0.073322989,-0.455353081,0.466006309
1.739956856,-0.612469614,-0.009881946,-0.958183885,0.938230753,3.220154047,-1.089470744,0.325815082,-0.073024817,0.310226649,0.079954527,-0.439039588,0.461582184
1.745996118,-0.595603585,0.005364849,-0.937550008,0.992935359,3.26204133,-1.043441653,0.321226478,-0.071321353,0.317009062,0.086554706,-0.422553122,0.457606375
1.752115965,-0.577020288,0.021964485,-0.919018269,1.046718359,3.265410423,-0.988834679,0.313458592,-0.068415336,0.328480214,0.093142323,-0.406085193,0.454046756
1.752141476,-0.563794613,0.039310209,-0.898559511,1.105064511,3.240615129,-0.923578084,0.310882926,-0.06745176,0.332283825,0.099734664,-0.389793903,0.450911641
1.757983565,-0.571020424,0.048276212,-0.877729654,1.164301634,3.189221859,-0.854893982,0.308901101,-0.066710353,0.335210443,0.106379427,-0.373867571,0.44827795
1.764016151,-0.587507844,0.046648365,-0.854669333,1.222294211,3.119122267,-0.783704937,0.30824396,-0.066464514,0.336180866,0.113106266,-0.358394414,0.446229041
1.770011425,-0.619369328,0.028388176,-0.832275689,1.268757701,3.038696766,-0.708274603,0.296306431,-0.061951596,0.350708902,0.119907737,-0.343457609,0.44486016
1.776045918,-0.649777114,0.00288876,-0.816097856,1.298793316,2.946487665,-0.635129988,0.292348176,-0.060455196,0.355526119,0.126713738,-0.329092443,0.444123834
1.782098055,-0.690607369,-0.005498039,-0.821204603,1.317972302,2.849161863,-0.584501505,0.289302558,-0.05930382,0.359232634,0.133485541,-0.315330505,0.443770885
1.78215313,-0.778087735,0.006268629,-0.848152876,1.341304302,2.769166231,-0.56025511,0.288292676,-0.058922045,0.360461652,0.14025943,-0.302140087,0.443671077
1.787985444,-0.887953579,0.018958956,-0.878433108,1.355813861,2.722638369,-0.573134601,0.278669208,-0.055177461,0.370601326,0.147060335,-0.289345622,0.443761408
1.794043779,-0.986222267,0.014370453,-0.899950922,1.356634736,2.715052128,-0.61525929,0.273289204,-0.053081911,0.376238525,0.153905034,-0.276679367,0.443908215
1.800001025,-1.041095734,-0.01131867,-0.91742605,1.32640934,2.731815338,-0.672799528,0.269149631,-0.051469527,0.380575985,0.160658702,-0.263930172,0.444039971
1.806135535,-1.058614612,-0.043692961,-0.924894869,1.261270404,2.755144119,-0.727755547,0.267777026,-0.050934892,0.382014215,0.167133346,-0.251029909,0.444150329
1.812251687,-1.053161383,-0.064417206,-0.910528421,1.174860835,2.766000986,-0.768336475,0.262196332,-0.048520867,0.387783647,0.173186123,-0.238055661,0.444263458
1.812333107,-1.015093088,-0.044128541,-0.894750774,1.075275898,2.743026972,-0.802653432,0.255783319,-0.045700952,0.394398689,0.17868419,-0.225098193,0.444134653
1.818071723,-0.969004333,-0.004383072,-0.858661354,0.985821903,2.681484222,-0.814826548,0.250848949,-0.04353122,0.399488479,0.183633551,-0.21243535,0.443779796
1.82410121,-0.91790998,0.039756175,-0.802918851,0.929044306,2.581106663,-0.812976599,0.249212801,-0.042811777,0.401176184,0.188224018,-0.200238243,0.443200409
1.830000639,-0.897721231,0.05713284,-0.75476712,0.89384824,2.443388462,-0.788879812,0.247953892,-0.042258218,0.402474731,0.192629948,-0.188774571,0.44265157
1.835994363,-0.915259838,0.066950358,-0.701363444,0.871618629,2.288707018,-0.742910504,0.238776073,-0.038453735,0.408695191,0.196894377,-0.178214565,0.442399949
1.842070222,-0.966987491,0.093148969,-0.645376921,0.866948068,2.133634806,-0.684510648,0.231714368,-0.035526443,0.413481414,0.201063335,-0.16861549,0.442414105
1.842134833,-1.033759832,0.119388901,-0.586819649,0.88056314,1.985684395,-0.623881817,0.229372844,-0.034555811,0.415068418,0.205238208,-0.159932956,0.442764729
1.848011017,-1.085910797,0.142030478,-0.521960139,0.895819843,1.844782591,-0.566263735,0.227571204,-0.033808973,0.416289508,0.209445298,-0.152100191,0.443385541
1.860097885,-1.13085103,0.138195246,-0.458476067,0.896024585,1.709320068,-0.515868127,0.222816855,-0.031925198,0.419858158,0.213665813,-0.145067155,0.44439584
1.860163689,-1.169061303,0.118308954,-0.390511721,0.862455249,1.576847672,-0.460997075,0.214955375,-0.028821366,0.425803065,0.217736617,-0.138817668,0.445866227
1.86607945,-1.182841182,0.097055241,-0.31723693,0.801751316,1.434119821,-0.41062358,0.212348655,-0.027792195,0.42777428,0.22152479,-0.133341476,0.447656035
1.872258544,-1.187580585,0.080307305,-0.2548244,0.708290458,1.278580546,-0.363480747,0.210342959,-0.027000317,0.42929101,0.2248656,-0.12871249,0.449708641
1.872304916,-1.187597871,0.080672808,-0.197664052,0.586566746,1.102170229,-0.32413438,0.209677905,-0.026737746,0.429793924,0.227572992,-0.125001982,0.451863229
1.878008008,-1.190073848,0.106377624,-0.14767319,0.464492112,0.907105744,-0.294873059,0.201920614,-0.023459997,0.434200108,0.229627684,-0.122309916,0.453913301
1.884020686,-1.198422313,0.139307961,-0.107838005,0.35379988,0.692476928,-0.276691973,0.19934845,-0.022373158,0.435661107,0.231104866,-0.12072511,0.455747843
1.890037298,-1.214371562,0.168469861,-0.078148,0.256657064,0.468859494,-0.265632123,0.197369337,-0.021536909,0.436785281,0.232093304,-0.120290205,0.457355976
1.896031022,-1.234918356,0.190775439,-0.051835407,0.170986712,0.243897408,-0.249062255,0.196713105,-0.021259625,0.437158048,0.232651711,-0.121013664,0.458793819
1.902617097,-1.263788939,0.199492604,-0.032957371,0.094611079,0.02579331,-0.22663179,0.193162993,-0.020191524,0.441296041,0.232869804,-0.122884013,0.460229456
1.902775645,-1.29410398,0.197231978,-0.022520497,0.023654778,-0.179635942,-0.186670661,0.191232294,-0.019625852,0.443621129,0.232750103,-0.125847787,0.461769521
1.908035874,-1.330864906,0.189840212,-0.028886084,-0.053845845,-0.370628297,-0.129878655,0.189746752,-0.019190606,0.445410103,0.232246682,-0.129869521,0.463512123
1.913970828,-1.374261022,0.175911859,-0.037116975,-0.12642242,-0.537606776,-0.043934345,0.18925418,-0.019046286,0.446003288,0.231367499,-0.134872705,0.465719521
1.920031309,-1.423809886,0.171940938,-0.052834988,-0.186755866,-0.673812985,0.051510945,0.189242736,-0.019489408,0.446519703,0.230150819,-0.140724152,0.468408227
1.926018834,-1.457548618,0.178661793,-0.065200053,-0.234702617,-0.779525816,0.152255043,0.189609602,-0.020195158,0.446751386,0.228623167,-0.147216126,0.47156468
1.932091475,-1.453362823,0.166351378,-0.079175733,-0.264485329,-0.872845113,0.262905568,0.18989186,-0.020738184,0.446929634,0.226916134,-0.154255658,0.475248754
1.932141066,-1.427905202,0.127218381,-0.088154159,-0.29520911,-0.964147389,0.380385637,0.189985454,-0.020918241,0.446988732,0.225060984,-0.161805838,0.479584783
1.938068509,-1.398010015,0.067630969,-0.089285448,-0.332647383,-1.064223289,0.504806936,0.190057471,-0.021056782,0.44703424,0.223024398,-0.169919521,0.484716326
1.944085836,-0.327331722,0.376038462,-0.714048207,-0.031037092,-1.308449984,0.649454415,0.1930843,-0.02333395,0.448033631,0.22110492,-0.177177161,0.485237539
1.950083494,0.070215672,0.312589943,-1.16027236,0.757563591,-1.954230309,0.901066303,0.195413232,-0.025086073,0.44880262,0.224481344,-0.187249675,0.483422041
1.956001878,0.544743121,-0.583218753,-1.401511431,0.439589232,-1.974959731,1.196195602,0.19618547,-0.025667045,0.449057579,0.226692989,-0.197263628,0.488142371
1.962033391,0.843661189,-1.348343134,-1.727355003,0.120269671,-2.130883455,1.383312106,0.196779653,-0.026114063,0.449253768,0.228318006,-0.206705868,0.494618475
1.962103963,0.869527996,-1.287448049,-1.663514853,-0.424758106,-2.249795914,1.610883951,0.199706838,-0.027219344,0.448090762,0.226174846,-0.217582539,0.501854241
1.967980385,0.896480322,-0.992373407,-1.526335835,-0.793673277,-2.595375776,1.71079576,0.204719737,-0.029037518,0.445954114,0.22145772,-0.230091691,0.507408381
1.973960161,0.688728631,-0.916759849,-1.334190488,-0.998943031,-3.06727767,1.627324462,0.206381917,-0.029640391,0.445245624,0.216202468,-0.245483324,0.512885273
1.9800632,0.4040308,-0.953634441,-1.12749505,-1.184891462,-3.559928656,1.399570584,0.207660854,-0.030104259,0.444700509,0.210630104,-0.263595819,0.517964363
1.986401916,0.101438127,-0.807867348,-0.871732533,-1.387034059,-4.081936836,1.083379865,0.208084926,-0.030258069,0.444519758,0.204360977,-0.284497738,0.521254957
1.992057681,-0.282499611,-0.739994466,-0.64997375,-1.530713081,-4.568962574,0.782940924,0.220332414,-0.038353566,0.437835813,0.197911128,-0.308215678,0.523603737
1.992085218,-0.529849946,-0.668163538,-0.616013288,-1.610782027,-4.985537529,0.58608216,0.224393457,-0.04103788,0.435619563,0.19142431,-0.334116817,0.525035799
1.998018026,-0.824492037,-0.434390932,-0.746537745,-1.639260054,-5.245800018,0.497315496,0.227518156,-0.043103278,0.433914304,0.184564203,-0.361557126,0.525436103
2.00399518,-1.259657145,-0.047048565,-0.97113198,-1.594954491,-5.228919983,0.421625257,0.228554249,-0.043788124,0.433348864,0.177254096,-0.389323831,0.524784863
2.009997845,-1.759790063,0.232832432,-1.147682309,-1.529864669,-4.908758163,0.398097247,0.2453309,-0.051774226,0.422192991,0.169649944,-0.415967762,0.52455759
2.016019821,-2.209486246,0.46763438,-1.210105896,-1.353330135,-4.348830223,0.435373038,0.254847884,-0.056268059,0.415841043,0.162303999,-0.440282762,0.525438428
2.028103113,-2.37208724,0.717044592,-1.22523737,-1.090016961,-3.648151875,0.536395967,0.262170523,-0.059725754,0.410953641,0.155243278,-0.461145848,0.527047336
2.028162479,-2.182465315,0.800427854,-1.155104518,-0.812782884,-2.996119976,0.684371531,0.264598578,-0.06087226,0.40933308,0.148849219,-0.478424013,0.529630482
2.02818346,-1.75127387,0.789969683,-1.063013077,-0.520738959,-2.5073843,0.800984502,0.275530577,-0.065212749,0.401898235,0.14343214,-0.492672056,0.532401621
2.034024477,-1.485732317,0.553396881,-1.036052704,-0.263469368,-2.224089622,0.877783656,0.288295239,-0.070139341,0.393193126,0.139565095,-0.505284965,0.536124945
2.039968491,-1.364071131,0.200666577,-1.029280424,-0.113853261,-1.981993198,0.905794501,0.298116773,-0.073930018,0.386495113,0.136870891,-0.516713202,0.541549683
2.045993567,-1.356916428,-0.155071646,-1.044490218,-0.074972935,-1.729808927,0.850489676,0.301373422,-0.075186938,0.384274185,0.135026932,-0.526710689,0.548076749
2.052086592,-1.373231411,-0.450643361,-0.968857646,-0.132871509,-1.518570304,0.753949702,0.303879201,-0.076154046,0.382565349,0.133540019,-0.535737276,0.555535614
2.052146435,-1.187490106,-0.608622074,-0.888741672,-0.264519095,-1.317029357,0.595683396,0.312587172,-0.080402143,0.374179661,0.131999612,-0.543277919,0.562099695
2.058031559,-0.945347905,-0.627972186,-0.795194387,-0.400840133,-1.239588737,0.477237642,0.31928739,-0.083670758,0.367727429,0.130057812,-0.550135612,0.567483783
2.063975334,-0.694514453,-0.487439841,-0.796575665,-0.534540057,-1.215087891,0.416817486,0.321509033,-0.084754571,0.365588009,0.127239585,-0.556517065,0.571266472
2.070143223,-0.577661335,-0.237605363,-0.814674854,-0.608873248,-1.220052838,0.418757409,0.323218465,-0.085588492,0.363941878,0.1234385,-0.562844038,0.573830545
2.076017141,-0.63800174,-0.004064869,-0.886057556,-0.637059271,-1.224927545,0.477066666,0.326111972,-0.087458551,0.361057937,0.11885272,-0.569312036,0.576081455
2.082051516,-0.773112178,0.154919803,-0.888176918,-0.605179429,-1.144236326,0.549488425,0.33069098,-0.090508752,0.356474787,0.113834545,-0.575700164,0.578924894
2.08210659,-0.859005511,0.202564701,-0.866273224,-0.533833444,-1.014027238,0.582193553,0.332209289,-0.091520146,0.354955107,0.10901656,-0.581459403,0.582229674
2.087966442,-0.852500319,0.157294035,-0.836833179,-0.455905735,-0.896958768,0.577168047,0.33337751,-0.092298344,0.353785813,0.104721136,-0.586570919,0.585843205
2.09397459,-0.808233023,0.024334483,-0.833102703,-0.408137918,-0.818074465,0.546736419,0.333764881,-0.09255638,0.353398085,0.101040594,-0.591176271,0.589636624
2.099979401,-0.724107921,-0.124181487,-0.831103206,-0.411520898,-0.757733941,0.50551039,0.338606864,-0.096939102,0.347580194,0.097740285,-0.595329523,0.593552649
2.105973721,-0.67187494,-0.21290116,-0.841568649,-0.440509558,-0.733599186,0.465183258,0.340212375,-0.09839233,0.34565109,0.094528809,-0.599251986,0.597292185
2.112092733,-0.635021746,-0.237443492,-0.845220804,-0.483858854,-0.712842107,0.448758572,0.341447681,-0.099510491,0.344166785,0.091141276,-0.603031158,0.600954711
2.112161398,-0.621790767,-0.191300124,-0.857771814,-0.524320662,-0.705146432,0.442511797,0.341857284,-0.099881247,0.34367463,0.087399989,-0.606737792,0.604336739
2.118507385,-0.627398908,-0.133626804,-0.861427367,-0.555647612,-0.694111168,0.436969191,0.344170809,-0.103072159,0.340559244,0.083377123,-0.610411108,0.607550144
2.124050379,-0.660074115,-0.0746819,-0.860946238,-0.570059538,-0.679028332,0.430815816,0.345432431,-0.104849219,0.338849038,0.079173148,-0.614042282,0.61061728
2.130002975,-0.720357299,-0.0271411,-0.854511082,-0.580972373,-0.634953737,0.425963908,0.346403152,-0.106216542,0.337533146,0.074829675,-0.617536664,0.613776565
2.136011362,-0.760860324,0.041807886,-0.857274711,-0.563785315,-0.563710034,0.403243393,0.346725017,-0.106669918,0.33709681,0.070463136,-0.620695472,0.616725028
2.142074823,-0.75924176,0.108688489,-0.861479998,-0.527893126,-0.494921148,0.371150374,0.347941697,-0.108694427,0.335210502,0.066271119,-0.623430014,0.619211018
2.142139912,-0.692490935,0.144956946,-0.859513879,-0.473223954,-0.440432787,0.336229891,0.349322289,-0.111055449,0.333021402,0.062406026,-0.625760794,0.621216893
2.148010015,-0.643791735,0.13720496,-0.858638883,-0.413228244,-0.415362328,0.304699093,0.350384533,-0.112872086,0.331337035,0.059009586,-0.627906263,0.622995496
2.154322624,-0.610413611,0.108169809,-0.868327439,-0.360255778,-0.403602034,0.272661656,0.350736767,-0.113474451,0.330778539,0.05604627,-0.62994808,0.624592423
2.160034895,-0.643168211,0.079544872,-0.874117136,-0.314838082,-0.386027634,0.244527593,0.35100776,-0.113937929,0.330348819,0.053466875,-0.631960332,0.626249015
2.165996313,-0.639769852,0.050411828,-0.861120462,-0.283314526,-0.3522484,0.225048959,0.351914108,-0.116259471,0.327966124,0.051151045,-0.633760512,0.627919912
2.172147989,-0.628181398,0.038720932,-0.860565424,-0.247750551,-0.334928215,0.203840196,0.352611482,-0.118045732,0.326132804,0.049086258,-0.635458827,0.629475176
2.172225237,-0.591976285,0.025399335,-0.853577554,-0.218314037,-0.332096994,0.183535293,0.352842718,-0.118638024,0.325524896,0.047282949,-0.637092531,0.6308375
2.177990675,-0.574249804,0.025695767,-0.848081052,-0.194330648,-0.33775419,0.164110661,0.353020638,-0.119093753,0.325057149,0.045660824,-0.63874191,0.632040083
2.190036535,-0.588692725,0.029778302,-0.844699502,-0.168360099,-0.339238465,0.150217444,0.353702039,-0.120124586,0.32456547,0.04420463,-0.640428424,0.633223951
2.190101147,-0.603635728,0.046127897,-0.841884375,-0.141044304,-0.335812777,0.133010492,0.354855686,-0.121807277,0.323846817,0.0429084,-0.642112434,0.634297729
2.19615078,-0.618211627,0.053887825,-0.834311008,-0.107588202,-0.332995921,0.112206377,0.355238199,-0.122365221,0.323608518,0.04184477,-0.643800497,0.635272563
2.202130079,-0.61921829,0.045254916,-0.831687748,-0.071901798,-0.329724103,0.09417326,0.355532497,-0.122794524,0.323425174,0.041058373,-0.645464063,0.636173904
2.202211857,-0.61816746,0.019847257,-0.827605307,-0.044601317,-0.324163377,0.07561712,0.3556301,-0.122936875,0.323364377,0.040527478,-0.647086263,0.637062073
2.208034277,-0.603471637,0.005953863,-0.823074937,-0.021508249,-0.320775717,0.058289733,0.356637448,-0.12430425,0.320467651,0.040206976,-0.648667574,0.637834847
2.213965654,-0.597647965,0.011238341,-0.819255769,-0.000928497,-0.322921783,0.042852495,0.356971473,-0.124757648,0.319507152,0.040024664,-0.650253594,0.638473272
2.219967127,-0.597516,0.020792024,-0.816212952,0.021396203,-0.322966844,0.036280844,0.357228488,-0.125106499,0.318768114,0.039943542,-0.651850879,0.639054239
2.226002216,-0.610103369,0.040332574,-0.824499726,0.050949536,-0.320891261,0.025021518,0.357313722,-0.125222176,0.318523049,0.040015187,-0.653433859,0.639509916
2.232078552,-0.60874784,0.054050431,-0.817846119,0.086127259,-0.315203965,0.012649382,0.358068436,-0.125635847,0.317575127,0.040291153,-0.65498668,0.639850497
2.232126474,-0.595187485,0.066708259,-0.821060896,0.122489803,-0.32140854,-0.003816104,0.358489215,-0.125853345,0.317072928,0.0407851,-0.656535625,0.639974594
2.23803544,-0.590614796,0.07120055,-0.819957495,0.158457085,-0.330872476,-0.01332642,0.358812988,-0.1260207,0.316686541,0.041496374,-0.658139765,0.640039563
2.24401474,-0.586290479,0.055221565,-0.818232894,0.197072223,-0.343491584,-0.020565782,0.358920366,-0.126076192,0.316558421,0.042464681,-0.659794569,0.640104771
2.250029087,-0.587401271,0.015696522,-0.82024318,0.22661683,-0.360317677,-0.032052051,0.359417409,-0.125986114,0.316085368,0.043725956,-0.66153121,0.640228212
2.256014824,-0.58663094,-0.016009573,-0.818050027,0.248045206,-0.376962066,-0.040766515,0.360000193,-0.12582235,0.315550953,0.045203637,-0.663345337,0.640364647
2.262063503,-0.594673514,-0.036899317,-0.819551766,0.25847438,-0.393219709,-0.036639281,0.360448599,-0.125696346,0.315139741,0.046730708,-0.665257871,0.640602052
2.262089252,-0.604163051,-0.066768914,-0.810267687,0.262123615,-0.402220339,-0.034844328,0.360597283,-0.125654563,0.315003395,0.048346791,-0.667219698,0.640996397
2.268007517,-0.625172079,-0.107931063,-0.798385739,0.249309361,-0.406195074,-0.025280472,0.360711664,-0.125622422,0.314898491,0.049926922,-0.669249952,0.641670883
2.274009705,-0.625543475,-0.148591846,-0.789970279,0.222837448,-0.401643097,-0.013816233,0.361866564,-0.125084817,0.313765109,0.051416676,-0.671245456,0.642511666
2.280009031,-0.627239823,-0.16418007,-0.784890115,0.185793027,-0.392629623,0.004988821,0.362755179,-0.124671176,0.312893033,0.052648485,-0.673211157,0.64352262
2.286002636,-0.612661898,-0.169803351,-0.794018567,0.143817142,-0.381126434,0.027259132,0.363049805,-0.124534018,0.312603861,0.053585861,-0.675067186,0.644601285
2.292176962,-0.632866383,-0.151055336,-0.792523742,0.10103149,-0.371585816,0.050114911,0.363276541,-0.124428488,0.312381387,0.054138392,-0.676922798,0.645850301
2.292236805,-0.654945195,-0.129990026,-0.780178249,0.070207626,-0.356032699,0.069130026,0.363958716,-0.124122553,0.311684608,0.054414704,-0.678759933,0.647207022
2.297985315,-0.663446605,-0.108969718,-0.776727915,0.04824781,-0.342857629,0.070789196,0.365097374,-0.123613194,0.310518533,0.054543082,-0.680512309,0.648498356
2.30399704,-0.658002138,-0.103288956,-0.768718421,0.029935781,-0.323933423,0.074138023,0.36547491,-0.123444296,0.310131878,0.054579936,-0.682182312,0.64980787
2.309964895,-0.655546904,-0.088888243,-0.769177496,0.016815342,-0.307379037,0.078805335,0.365765423,-0.123314343,0.309834391,0.054487173,-0.683757246,0.651095212
2.3160007,-0.651180327,-0.082012743,-0.772747278,0.007238292,-0.290621579,0.081843279,0.365861744,-0.123271257,0.309735745,0.054327268,-0.685240269,0.652362764
2.322108984,-0.654927373,-0.076213203,-0.774726391,-0.000101204,-0.280639827,0.083871983,0.36658904,-0.12339595,0.308510512,0.054106064,-0.686680079,0.653627753
2.322172642,-0.644083321,-0.072504565,-0.772725344,-0.008747219,-0.266428232,0.091104083,0.36683017,-0.123437293,0.308104247,0.053803317,-0.688020587,0.65490818
2.328021288,-0.649012744,-0.067596987,-0.771816909,-0.015476101,-0.2568627,0.102688715,0.367015719,-0.123469114,0.30779165,0.053401683,-0.689354658,0.656274915
2.333989143,-0.641073942,-0.084771194,-0.767203331,-0.029167356,-0.245538339,0.115868255,0.367077231,-0.123479664,0.307687998,0.052924704,-0.690600097,0.657773376
2.340113878,-0.629194736,-0.104359873,-0.774205089,-0.053470317,-0.234714419,0.129966244,0.368010163,-0.123868935,0.306631535,0.052300561,-0.691772878,0.659404874
2.345974684,-0.635363579,-0.119241171,-0.768965721,-0.085867763,-0.234061733,0.148450941,0.368538648,-0.124092333,0.306039542,0.051460177,-0.692980886,0.661178231
2.358088732,-0.641216159,-0.112719461,-0.764534533,-0.11002405,-0.228074968,0.174173176,0.368945271,-0.124264225,0.305584043,0.050347999,-0.694163799,0.663150549
2.358136892,-0.655440152,-0.107595429,-0.753941655,-0.128010094,-0.212566718,0.199660704,0.369080096,-0.124321222,0.305433005,0.049032137,-0.695315301,0.665323257
2.358162165,-0.632961571,-0.088628113,-0.766185403,-0.141666114,-0.205609515,0.2136572,0.369439244,-0.124720015,0.304859757,0.047548991,-0.696343005,0.667384386
2.364130259,-0.636753201,-0.065699011,-0.768892109,-0.141504318,-0.199192122,0.225206971,0.369815856,-0.125210181,0.304208785,0.045967028,-0.697378993,0.669498563
2.370067358,-0.633611321,-0.054565631,-0.772536695,-0.131836176,-0.190548912,0.229914635,0.370105624,-0.125587329,0.303707927,0.044421997,-0.698350251,0.671598017
2.376041651,-0.63247335,-0.054762747,-0.77316767,-0.124585748,-0.187751755,0.231233135,0.370201707,-0.12571238,0.303541839,0.042916641,-0.699308753,0.67368108
2.382051468,-0.633024275,-0.050549831,-0.774639487,-0.120315447,-0.18232283,0.23199591,0.370275646,-0.125808597,0.303414077,0.041412614,-0.700243592,0.675780594
2.382117748,-0.62743783,-0.036891341,-0.7726385,-0.108166575,-0.174639881,0.234540105,0.370512277,-0.126868904,0.302361846,0.039915316,-0.701132596,0.677844942
2.387994528,-0.618144691,-0.030626157,-0.776554704,-0.101728491,-0.174661368,0.227373272,0.370694369,-0.127684742,0.301552266,0.038478449,-0.701989412,0.679792464
2.394080162,-0.622590482,-0.036530849,-0.778983176,-0.098502062,-0.176226005,0.218467072,0.370754749,-0.127955258,0.301283807,0.03711978,-0.702869833,0.681728125
2.400011539,-0.629550755,-0.037093841,-0.779317319,-0.096589811,-0.172955602,0.213679209,0.37080121,-0.128163412,0.301077247,0.035788555,-0.703730702,0.683640361
2.406143188,-0.62364316,-0.035677634,-0.782651305,-0.095609069,-0.167768925,0.208903551,0.370908618,-0.128813401,0.300709486,0.0344663,-0.704541922,0.685518682
2.412085772,-0.631986558,-0.035055865,-0.776482522,-0.095883638,-0.169327036,0.204339638,0.371084303,-0.129900992,0.3001239,0.033174612,-0.705388069,0.687385142
2.41214633,-0.64188087,-0.031165954,-0.766688406,-0.094622679,-0.163179234,0.201271415,0.371142566,-0.130261615,0.299929738,0.031873409,-0.706228256,0.689295173
2.418005228,-0.636329651,-0.024439074,-0.764337599,-0.08973702,-0.153766572,0.201820225,0.371187389,-0.130539075,0.299780369,0.030582642,-0.707004368,0.691201568
2.424115419,-0.643455505,-0.024843676,-0.758790791,-0.088288441,-0.152686104,0.199806288,0.37120223,-0.130631074,0.299730837,0.029318266,-0.707792521,0.693079829
2.429995537,-0.649314463,-0.029644625,-0.755774498,-0.08824271,-0.144069552,0.197703525,0.371748149,-0.131665438,0.298697114,0.028078889,-0.70854193,0.694988608
2.435985088,-0.644256115,-0.024885887,-0.759598374,-0.085816234,-0.133488625,0.197963238,0.371929169,-0.132008418,0.298354357,0.026824564,-0.709218442,0.696887732
2.44205761,-0.645308554,-0.010713107,-0.760929525,-0.08401113,-0.129408911,0.195857212,0.372068465,-0.132272303,0.298090607,0.025551606,-0.709872782,0.698687315
2.442121267,-0.654953539,-0.006332886,-0.752240062,-0.076497391,-0.122788437,0.197035566,0.372114658,-0.132359818,0.298003167,0.024309745,-0.710526407,0.700556755
2.448003769,-0.647656381,-0.010160908,-0.749455452,-0.066948891,-0.115369901,0.196645617,0.371975511,-0.133701339,0.296989888,0.023141002,-0.711127758,0.702446103
2.454073191,-0.636893332,-0.015639652,-0.756870806,-0.066549033,-0.118763737,0.196313456,0.371886164,-0.134461462,0.296419829,0.021968523,-0.711720169,0.704277813
2.460083723,-0.640445292,-0.022744289,-0.76013726,-0.06226214,-0.118978225,0.20245333,0.37181741,-0.135046318,0.295981199,0.020824619,-0.712314963,0.706180334
2.466011763,-0.633381307,-0.036630221,-0.768848062,-0.05651385,-0.120531015,0.206648856,0.371794611,-0.135240257,0.295835763,0.019708479,-0.712893367,0.708124995
2.472100258,-0.629231989,-0.046587896,-0.776656389,-0.063519984,-0.133184895,0.212550595,0.37155956,-0.135673478,0.295731306,0.018557291,-0.713522494,0.710087657
2.472173452,-0.620515347,-0.048627224,-0.783219099,-0.064132102,-0.142134875,0.225734964,0.371262252,-0.136103526,0.295704186,0.017344583,-0.714182615,0.712111771
2.47801733,-0.620366514,-0.057979327,-0.790641606,-0.066411085,-0.156479061,0.239395306,0.37103346,-0.136434421,0.295683324,0.016083984,-0.714908719,0.714238584
2.483996391,-0.618977726,-0.057425153,-0.794650018,-0.067171894,-0.174004212,0.254211545,0.370957613,-0.136544138,0.29567641,0.014747016,-0.71571213,0.716446877
2.490194082,-0.621615112,-0.052126031,-0.79876703,-0.063566722,-0.196313366,0.265511066,0.37089923,-0.136628553,0.295671105,0.013366699,-0.716629744,0.718700886
2.496068001,-0.626111686,-0.034462921,-0.799472332,-0.052492976,-0.218789399,0.279210776,0.371477813,-0.13738741,0.294702172,0.011933832,-0.717668056,0.720995307
2.502052307,-0.622781515,-0.027246648,-0.798735142,-0.043004621,-0.241850555,0.285899431,0.37192297,-0.137971282,0.293956667,0.010523262,-0.718811512,0.723309696
2.502106428,-0.632194221,-0.01250017,-0.796492696,-0.035088476,-0.268475205,0.289228678,0.372070581,-0.138164893,0.293709487,0.009090246,-0.720111489,0.725632012
2.507998466,-0.631392717,-0.009588718,-0.801835656,-0.040643211,-0.29652822,0.289226532,0.372184157,-0.13831386,0.293519288,0.007651688,-0.721534431,0.72794044
2.519980192,-0.632556438,0.030242626,-0.80530864,-0.024234874,-0.325208783,0.275643677,0.372315049,-0.139003277,0.293005556,0.00621613,-0.723101377,0.730008721
2.52002883,-0.632209837,0.034652665,-0.813462675,-0.003275677,-0.357737333,0.266123623,0.372510046,-0.140180901,0.292154551,0.004953144,-0.724810123,0.732015371
2.525959015,-0.622090816,0.030712422,-0.836085558,0.04702289,-0.396456301,0.24584052,0.372574687,-0.140571371,0.291872382,0.00402628,-0.726679504,0.733806968
2.532059431,-0.612679124,0.021482537,-0.837014675,0.052623473,-0.446754783,0.229975104,0.372624427,-0.140871823,0.291655272,0.003267769,-0.728787899,0.735497653
2.532119989,-0.613103211,0.017195527,-0.871845603,0.044845831,-0.507996023,0.223884076,0.372640908,-0.140971437,0.29158327,0.002471613,-0.731134176,0.737058997
2.538028479,-0.609987319,0.041148968,-0.878637075,0.067419268,-0.582704842,0.213535801,0.372997761,-0.142085776,0.289398372,0.001741341,-0.733882666,0.738432407
2.543991327,-0.60793674,-0.002100991,-0.872862101,0.081913814,-0.652044296,0.212222487,0.373116106,-0.142455265,0.288673908,0.001264136,-0.736966729,0.739992023
2.549982071,-0.613613605,-0.015517379,-0.882449329,0.074541323,-0.723928809,0.210682839,0.373207152,-0.142739564,0.288116485,0.000734301,-0.740401506,0.741559029
2.555991888,-0.607373357,0.002872277,-0.884602666,0.055013724,-0.798034191,0.205875531,0.373237342,-0.142833844,0.287931651,3.76E-05,-0.744192541,0.74303937
2.562152147,-0.614237249,0.042980514,-0.888494134,0.070772864,-0.867048621,0.185908824,0.374397814,-0.143656924,0.285794675,-0.000600397,-0.748337626,0.744195879
2.562194586,-0.620240688,-0.0116395,-0.885522544,0.040206347,-0.938562274,0.172869503,0.375064015,-0.144115552,0.284592479,-0.001113798,-0.752824485,0.745499253
2.567994356,-0.621617019,0.032322701,-0.882186651,0.018384648,-1.011361361,0.146390185,0.375576615,-0.144468442,0.283667475,-0.001834796,-0.757675886,0.746473193
2.574053049,-0.622930408,0.04270748,-0.883996665,0.026284127,-1.079406619,0.123590805,0.375746578,-0.144585446,0.283360779,-0.002389974,-0.762856841,0.7472682
2.58024931,-0.622935355,0.001567584,-0.877952754,0.013632411,-1.156184554,0.099689104,0.376799911,-0.144968748,0.28134656,-0.002756203,-0.768425703,0.748043001
2.586040497,-0.635446787,-0.001210269,-0.872834802,-0.010567926,-1.228704214,0.081640922,0.378079474,-0.145391569,0.278885514,-0.003212307,-0.774372756,0.748710513
2.592065096,-0.654915035,0.000427562,-0.882067621,-0.026050387,-1.303580403,0.077520803,0.379064023,-0.145716906,0.276991904,-0.003749331,-0.780685186,0.749358535
2.59211278,-0.649446487,-0.019238696,-0.883541584,-0.054824367,-1.386928916,0.082236804,0.379390478,-0.145824775,0.276364028,-0.004411421,-0.787406325,0.750133753
2.597990513,-0.618941844,-0.042026863,-0.882088363,-0.095516056,-1.479206204,0.078315608,0.379641682,-0.145907775,0.275880903,-0.005223532,-0.794534206,0.750811338
2.604049444,-0.641216695,-0.059300043,-0.901091278,-0.143898904,-1.574114323,0.091439158,0.382281244,-0.146534622,0.271019399,-0.006311713,-0.802138329,0.751575828
2.609979391,-0.633832872,-0.053857952,-0.9122594,-0.190623164,-1.680148005,0.110731341,0.384312212,-0.147016928,0.26727879,-0.00781705,-0.810231209,0.752450526
2.616083384,-0.650120914,-0.059390627,-0.932891071,-0.23111029,-1.794931054,0.139238283,0.384985656,-0.147176862,0.266038477,-0.009668203,-0.818888366,0.753584743
2.622174263,-0.655008197,-0.086679541,-0.9576177,-0.27706641,-1.919996738,0.175133735,0.385503799,-0.147299901,0.265084147,-0.011908665,-0.828132689,0.755042315
2.622234583,-0.636763334,-0.088687249,-0.989769042,-0.31772083,-2.060936451,0.206157953,0.387462795,-0.147752911,0.26124081,-0.014599064,-0.837986529,0.756557524
2.628013849,-0.660895765,-0.076081693,-1.036359668,-0.33959204,-2.214242697,0.233400956,0.39077726,-0.148518279,0.25471738,-0.017629771,-0.848580956,0.758207381
2.633972168,-0.620622873,-0.128129378,-1.055227637,-0.370658338,-2.399048567,0.274618119,0.391876251,-0.148772046,0.252554357,-0.020960396,-0.859997749,0.760235071
2.639956951,-0.650775194,-0.211494848,-1.091662169,-0.438768238,-2.608105898,0.349856913,0.392721862,-0.148967311,0.250890017,-0.024956796,-0.872435033,0.763140202
2.646001816,-0.583982944,-0.295874745,-1.106501102,-0.535548091,-2.864301205,0.465879768,0.393002272,-0.149032071,0.250338137,-0.030149313,-0.886041403,0.767078876
2.652059317,-0.533136129,-0.314884663,-1.138740301,-0.626560509,-3.15686655,0.601278067,0.398014098,-0.151445955,0.237395495,-0.036926165,-0.90097183,0.772085428
2.652129889,-0.482013911,-0.343370974,-1.178570628,-0.680654824,-3.474477768,0.764415145,0.399675936,-0.152246356,0.233103961,-0.045258287,-0.917313933,0.778595924
2.658042192,-0.464121789,-0.414171427,-1.239322901,-0.743996382,-3.817137957,0.966923952,0.400954574,-0.152862206,0.229801923,-0.055543449,-0.935195923,0.787318528
2.664289951,-0.441752404,-0.450890213,-1.242136359,-0.835832536,-4.161549568,1.188451886,0.401378572,-0.153066412,0.22870703,-0.068497352,-0.954614937,0.798751712
2.67004776,-0.639605701,-0.428774118,-1.25838685,-0.953955173,-4.454548836,1.365124583,0.40603444,-0.156785905,0.213631287,-0.084328242,-0.975520611,0.8129071
2.675991297,-0.85460192,-0.277337074,-1.250016093,-0.989477277,-4.653969288,1.462997079,0.408649623,-0.158900753,0.205110386,-0.102875307,-0.997353435,0.829455554
2.688113213,-0.879219115,-0.215986118,-1.228942156,-1.005305052,-4.810044765,1.493240237,0.410661817,-0.160527974,0.198554128,-0.123017669,-1.019626021,0.847533822
2.688162804,-0.888299942,-0.230971858,-1.272410512,-1.033224344,-4.989478111,1.53187418,0.411329031,-0.161067531,0.196380213,-0.145179585,-1.042428255,0.867423832
2.688189268,-1.078933716,-0.388626754,-1.35334754,-1.156646132,-5.104429245,1.651432276,0.413998723,-0.164972946,0.183120012,-0.170371547,-1.065599561,0.890880585
2.69397974,-1.020976901,-0.452656418,-1.296145201,-1.271597028,-5.151793003,1.739156485,0.417058319,-0.169787481,0.167038396,-0.199121132,-1.088269711,0.917380512
2.700135469,-1.236419916,-0.361999243,-1.400553703,-1.417322993,-5.281130314,1.902617455,0.419412494,-0.17349194,0.154664695,-0.23371464,-1.111245871,0.94883889
2.706224442,-1.696753144,-0.239909962,-1.500318408,-1.365332842,-5.191574574,1.984803796,0.420193076,-0.174720272,0.150561795,-0.272149742,-1.133079529,0.984543443
2.712075949,-1.562787771,-0.330670595,-1.427095532,-1.235380292,-5.117818832,2.070044041,0.420793712,-0.175665393,0.147404909,-0.313322097,-1.15361917,1.024202943
2.712134361,-1.482234716,-0.364309847,-1.395895958,-1.222053647,-5.151025295,2.179593086,0.422729969,-0.184047267,0.122320376,-0.359581292,-1.173496485,1.069085956
2.718006849,-1.472270966,-0.237635449,-1.411456585,-1.216597915,-5.183893681,2.225001574,0.424219757,-0.190496564,0.103019528,-0.411963105,-1.192362785,1.119197607
2.7239604,-1.49981916,-0.207172498,-1.461315632,-1.155169845,-5.21351099,2.237829447,0.424713761,-0.19263503,0.096619733,-0.468939543,-1.210197806,1.174062729
2.729960203,-1.588887572,-0.276896477,-1.472712755,-1.166450024,-5.185622692,2.325793266,0.425093859,-0.194280431,0.091695517,-0.531810284,-1.226516843,1.235393763
2.73600769,-1.646813869,-0.409346342,-1.476036668,-1.251872182,-5.102013111,2.344850063,0.423884094,-0.199624613,0.076216549,-0.599942088,-1.241031885,1.301817894
2.742109299,-1.569697976,-0.591683507,-1.348581672,-1.455208659,-4.968007088,2.430220366,0.421602517,-0.208588719,0.050305862,-0.673529506,-1.253488183,1.373718739
2.742212772,-1.381927252,-0.752431214,-1.170241475,-1.871047735,-4.857465744,2.566390991,0.420845985,-0.211561039,0.04171437,-0.755416632,-1.26344943,1.452432513
2.74817872,-1.475734591,-0.675900578,-1.100142479,-2.354115009,-4.709398746,2.664450169,0.420263886,-0.213848054,0.035103798,-0.844118476,-1.270598173,1.535295963
2.754016161,-1.409329653,-0.355680674,-1.02917707,-2.704526424,-4.505926609,2.750149727,0.420070857,-0.214606389,0.032911859,-0.937865376,-1.273878574,1.61977613
2.75999856,-1.322708368,-0.063785963,-1.02756989,-2.715510607,-4.247116089,2.722641706,0.412125558,-0.225991547,-0.001159725,-1.029270649,-1.274025083,1.700695515
2.766009569,-1.480871081,0.304113984,-1.328289628,-2.391642332,-3.812816858,2.567001343,0.409491062,-0.229766652,-0.012457216,-1.109505892,-1.270862579,1.769782186
2.772088528,-1.964624405,0.501579762,-1.384810686,-1.704086185,-3.33624649,2.154330969,0.407463968,-0.23267135,-0.02114987,-1.174238801,-1.267289042,1.826839447
2.772143602,-1.946034551,0.457329124,-1.527501941,-0.942775965,-2.863883495,1.834864974,0.406791836,-0.233634487,-0.024032189,-1.222780824,-1.263605833,1.871412396
2.777976513,-1.072483301,0.004259743,-1.327804804,-0.535628855,-2.545847178,1.67733705,0.397306234,-0.240850568,-0.048330795,-1.263164043,-1.259671926,1.910484195
2.78417778,-0.775080264,-0.365664899,-1.102122188,-0.359182686,-2.42272377,1.533370972,0.391941696,-0.244845539,-0.061851725,-1.300878286,-1.256441116,1.949131489
2.790076017,-0.865138888,-0.421895206,-1.095334172,-0.407696068,-2.319167852,1.494797945,0.387814075,-0.247919396,-0.072255164,-1.336633682,-1.252862573,1.985423803
2.796061277,-0.878502548,-0.418708473,-1.103125215,-0.520593822,-2.192080259,1.478245854,0.386445433,-0.248938635,-0.075704746,-1.370268822,-1.248693943,2.018558025
2.802117825,-0.989779115,-0.38702932,-1.151679993,-0.580151439,-1.973266721,1.439131618,0.381175369,-0.251779974,-0.085247405,-1.399804473,-1.244201303,2.047003508
2.802193403,-1.080985188,-0.318662941,-1.229387045,-0.585185528,-1.608003259,1.378298402,0.375175536,-0.254796475,-0.095357843,-1.422413826,-1.239409208,2.067847252
2.807999372,-1.159647107,-0.253033698,-1.292114258,-0.533160329,-1.128103614,1.300261736,0.370559096,-0.25711748,-0.103137136,-1.436575055,-1.234471083,2.079864502
2.813989162,-1.162967324,-0.228962645,-1.301813245,-0.420563638,-0.568883181,1.210030913,0.36902836,-0.257887065,-0.105716601,-1.441476583,-1.22955358,2.082697153
2.81999445,-1.016533136,-0.235595122,-1.266655564,-0.279189855,-0.023720495,1.116303205,0.367850572,-0.258479208,-0.107701331,-1.437895298,-1.224691153,2.077269554
2.826023579,-0.772347033,-0.234795719,-1.199698448,-0.134155855,0.437316418,1.022020102,0.362389058,-0.260679126,-0.116109394,-1.427656174,-1.219840288,2.06533885
2.832215309,-0.504834414,-0.23282817,-1.111448884,0.00377609,0.772935867,0.93734473,0.358186781,-0.262371778,-0.122578837,-1.413032055,-1.214985728,2.04927516
2.83227706,-0.263729125,-0.234445781,-1.019500971,0.136329696,0.992949426,0.853293359,0.356920272,-0.262940973,-0.124539435,-1.395758033,-1.210186005,2.030932903
2.838039398,-0.086065069,-0.239555106,-0.938259423,0.271427155,1.126459599,0.769145727,0.355945796,-0.263378978,-0.126047984,-1.376926064,-1.205528021,2.011561394
2.849977493,0.033458658,-0.23792769,-0.87531215,0.405866712,1.215192318,0.680777669,0.354355425,-0.264020711,-0.126760334,-1.356880188,-1.201041698,1.991548777
2.850010157,0.099643148,-0.226879433,-0.83164221,0.546507359,1.276705146,0.57895261,0.351850331,-0.265016526,-0.127522931,-1.335799217,-1.196830034,1.971105218
2.856010199,0.130904585,-0.225361526,-0.799164712,0.69000119,1.338146925,0.465619177,0.351019681,-0.265346736,-0.127775803,-1.313487053,-1.192954779,1.95008111
2.862046719,0.141900256,-0.229537755,-0.776305199,0.825602472,1.406004667,0.346993893,0.35038057,-0.265600771,-0.127970368,-1.289783955,-1.189413548,1.928291321
2.862092733,0.137041688,-0.245536551,-0.760224402,0.942708492,1.493922949,0.221646115,0.350168645,-0.265685022,-0.128034875,-1.264391184,-1.186194062,1.905373096
2.868154764,0.123222455,-0.258040786,-0.751503706,1.035627127,1.605551004,0.089495622,0.351555526,-0.266400784,-0.122222774,-1.237087131,-1.183254123,1.880940318
2.874378681,0.113450527,-0.264606565,-0.74530077,1.103024364,1.731001377,-0.045515157,0.352015406,-0.2666381,-0.120295592,-1.207809567,-1.180497169,1.854715109
2.880089045,0.106493779,-0.271983087,-0.739626229,1.151907325,1.863882661,-0.179005936,0.352369249,-0.266820729,-0.118812755,-1.176592827,-1.177834868,1.826627254
2.886020184,0.093812175,-0.281151712,-0.739598572,1.18191576,2.001030922,-0.308131069,0.352486551,-0.266881287,-0.118321076,-1.143461704,-1.175193787,1.796617627
2.892076254,0.078858823,-0.280774981,-0.740406811,1.197713017,2.143872976,-0.430452168,0.355871052,-0.266327769,-0.111984625,-1.108522654,-1.172413945,1.764716625
2.892126799,0.063431598,-0.271832705,-0.744260311,1.208218932,2.284497738,-0.548102438,0.357808471,-0.265995741,-0.108409218,-1.071905255,-1.169395089,1.730965376
2.897987604,0.043257467,-0.249598444,-0.752140343,1.228501678,2.414217472,-0.665397227,0.359299153,-0.265740246,-0.105658188,-1.033751845,-1.166059971,1.695530176
2.904004574,0.018575801,-0.223045439,-0.763819814,1.264002442,2.538074493,-0.783734441,0.359793454,-0.265655547,-0.104745999,-0.994117498,-1.162354589,1.658545732
2.90998292,-0.012274329,-0.192462593,-0.778729558,1.309766293,2.659432411,-0.908961892,0.363767445,-0.264050841,-0.09834443,-0.953039885,-1.158233404,1.620117068
2.916052341,-0.058113936,-0.15725787,-0.79661423,1.373437881,2.788624048,-1.041215658,0.368708938,-0.261966288,-0.09047424,-0.910412908,-1.153621435,1.580203056
2.922075987,-0.11638277,-0.123232849,-0.812792778,1.445913553,2.930352926,-1.174211979,0.372511119,-0.260362387,-0.084418662,-0.866225719,-1.14839077,1.538851023
2.92213726,-0.18026723,-0.10291642,-0.819634676,1.523646951,3.084824085,-1.314852715,0.373771846,-0.259830564,-0.082410745,-0.820441127,-1.142470479,1.496115804
2.928102493,-0.229211822,-0.094107486,-0.826511919,1.59497869,3.252251387,-1.452261209,0.374741852,-0.259421349,-0.080865793,-0.773247778,-1.135685444,1.452142835
2.933987379,-0.261032552,-0.087414242,-0.839219272,1.64645505,3.421607494,-1.582695842,0.381546855,-0.254315287,-0.067144103,-0.72500217,-1.127872944,1.407160521
2.94000411,-0.285183698,-0.078609541,-0.839950562,1.685290456,3.591144085,-1.704402328,0.386782825,-0.250386536,-0.056586191,-0.676223516,-1.118925571,1.361608028
2.945975304,-0.306366414,-0.059427492,-0.834173381,1.718300581,3.753599644,-1.814256787,0.388518959,-0.249083832,-0.053085387,-0.627426147,-1.108751893,1.315967321
2.952064991,-0.318189025,-0.040157381,-0.824949265,1.748822212,3.902580976,-1.915937901,0.389854819,-0.24808149,-0.050391752,-0.579041839,-1.097328901,1.270664454
2.952113152,-0.317442834,-0.025378197,-0.811133683,1.777263165,4.025626183,-2.005272388,0.394838244,-0.243447855,-0.039243273,-0.53156513,-1.084702253,1.226248384
2.958072901,-0.320497602,-0.010637644,-0.80439502,1.793553352,4.124220371,-2.079092741,0.403263837,-0.235533327,-0.020295542,-0.485407054,-1.070934415,1.183078766
2.964119911,-0.329326838,0.00200637,-0.796860814,1.800384641,4.204202652,-2.138061523,0.406057566,-0.232909009,-0.014012833,-0.44094187,-1.056097269,1.141519189
2.969989777,-0.33844167,0.021818142,-0.791422725,1.810333967,4.263924122,-2.188637257,0.408207178,-0.230889782,-0.009178715,-0.398356974,-1.04027307,1.101761699
2.975993633,-0.357176155,0.048036113,-0.795638859,1.821710348,4.31124115,-2.22862649,0.40891996,-0.230220243,-0.007575813,-0.357753813,-1.023553252,1.063928127
2.982042551,-0.38891685,0.080054253,-0.806453228,1.844851017,4.351229668,-2.265173912,0.41827333,-0.215520233,0.021826301,-0.319067836,-1.006005049,1.028016567
2.98208952,-0.436426193,0.114513278,-0.820860803,1.881901383,4.393901825,-2.299250603,0.421374738,-0.210645989,0.031575486,-0.282162577,-0.987658739,0.993966341
2.987985849,-0.498247564,0.144713625,-0.837611914,1.927583337,4.445729733,-2.329875708,0.42376107,-0.20689559,0.03907682,-0.246914148,-0.968526781,0.96175766
2.994068384,-0.554923356,0.165097103,-0.856966436,1.977598429,4.515068531,-2.355833292,0.424552321,-0.205652028,0.041564118,-0.213196442,-0.948547125,0.931296051
3.000100136,-0.603075027,0.177367285,-0.873414099,2.024654388,4.593021393,-2.372129202,0.428932369,-0.192725703,0.067064606,-0.181018934,-0.927711904,0.902628303
3.006328106,-0.636375964,0.181188911,-0.888703823,2.071155787,4.67891407,-2.379055738,0.431317896,-0.185477689,0.081356674,-0.150347307,-0.905993104,0.875718832
3.018079042,-0.662048995,0.187745005,-0.906674623,2.107107162,4.75987196,-2.372397184,0.433153421,-0.17990084,0.092353448,-0.12126679,-0.883454561,0.850576997
3.018108845,-0.675131142,0.204304859,-0.918560863,2.136231184,4.830941677,-2.358780861,0.433762044,-0.178051651,0.09599977,-0.093806408,-0.860181689,0.827165902
3.018241882,-0.68360889,0.221564829,-0.924587667,2.160197496,4.884572029,-2.331469774,0.434694141,-0.168871596,0.112797089,-0.067959726,-0.836313128,0.805536032
3.023957253,-0.689076364,0.233602479,-0.934071481,2.180813074,4.922433853,-2.297616482,0.435470909,-0.158005297,0.132475957,-0.043632329,-0.811966419,0.785586715
3.030028582,-0.693408489,0.240018308,-0.946043372,2.194627762,4.936802387,-2.265114069,0.436068565,-0.14964442,0.147617504,-0.020711694,-0.78729564,0.76718384
3.036013365,-0.702028453,0.244799569,-0.970574975,2.198765993,4.932229042,-2.232972383,0.43626672,-0.146872103,0.152638152,0.000892968,-0.762438536,0.750190794
3.042204618,-0.727980018,0.245595127,-1.003160119,2.193853855,4.911438465,-2.211860895,0.436419219,-0.144739002,0.156501189,0.021297449,-0.73751533,0.734448791
3.042267799,-0.776943624,0.252555072,-1.039903164,2.18466711,4.8881073,-2.201850891,0.431771874,-0.130366966,0.182474449,0.040634535,-0.712602794,0.719864249
3.04820013,-0.845859051,0.263212979,-1.080787182,2.177107096,4.874235153,-2.217806816,0.428196043,-0.119308643,0.202459112,0.059113547,-0.687673986,0.706133306
3.053959608,-0.924139738,0.275873244,-1.134553075,2.180770636,4.870545387,-2.256870031,0.427010357,-0.115641914,0.209085643,0.076949999,-0.662681162,0.693027735
3.060001135,-1.018223524,0.288560152,-1.193256617,2.188578844,4.887001038,-2.31683445,0.426098049,-0.112820618,0.214184314,0.094270408,-0.637549758,0.680409431
3.065979719,-1.126756072,0.304545194,-1.257207274,2.196352243,4.933718204,-2.39872241,0.421078324,-0.103982121,0.22863254,0.111175977,-0.612126291,0.668218613
3.072097301,-1.232245207,0.318614125,-1.312195063,2.200087786,5.009341717,-2.492349386,0.412446171,-0.089190319,0.252649397,0.127669007,-0.58627522,0.656364977
3.072151899,-1.325915217,0.321380973,-1.365812421,2.188263893,5.117935658,-2.585189581,0.409583896,-0.084285639,0.260612905,0.143689647,-0.55980742,0.64484787
3.077972412,-1.387808204,0.327483147,-1.409211278,2.158968687,5.236569881,-2.66845727,0.407381564,-0.080511823,0.266740322,0.159071758,-0.53265655,0.633697331
3.084096432,-1.433330774,0.324133635,-1.439406514,2.117379427,5.349790096,-2.740028858,0.406651318,-0.079260498,0.268772036,0.173780903,-0.504867733,0.623004973
3.090020657,-1.479872227,0.316897929,-1.460724711,2.060582161,5.441255093,-2.800786734,0.390251487,-0.059263047,0.297722608,0.187750608,-0.476599216,0.61282444
3.095998049,-1.528811812,0.298886985,-1.463137388,1.977798104,5.510061264,-2.849775076,0.384813637,-0.052632272,0.307322055,0.200874388,-0.44800061,0.60318625
3.102076769,-1.579548478,0.271339417,-1.446660519,1.859881639,5.543299198,-2.875727415,0.380629569,-0.047530342,0.314708203,0.212994039,-0.419314653,0.594196737
3.102134228,-1.647105694,0.260767609,-1.410142899,1.723063231,5.539168358,-2.880718946,0.379242212,-0.045838635,0.317157298,0.223995239,-0.390793473,0.585900545
3.107971907,-1.7558707,0.269670725,-1.354339242,1.585210681,5.502653599,-2.85601306,0.362740397,-0.029463978,0.336403817,0.233849317,-0.362729818,0.578479826
3.113939047,-1.908023834,0.320619524,-1.276947856,1.484460711,5.432404518,-2.798162937,0.353449464,-0.020304594,0.3470819,0.242689893,-0.335411906,0.571947396
3.119960546,-2.097186327,0.374905616,-1.159218073,1.461035609,5.340718746,-2.695197344,0.346300691,-0.01325707,0.355297953,0.250961035,-0.30908668,0.566592455
3.126041412,-2.294419527,0.36623019,-1.003499985,1.514950037,5.23236227,-2.543475628,0.343930304,-0.010920243,0.358022243,0.259231418,-0.283904791,0.56289345
3.13216877,-2.393975496,0.313187271,-0.837277532,1.593539119,5.081830978,-2.345230579,0.332196891,-0.0016495,0.36849761,0.267686814,-0.259927392,0.56090492
3.132265568,-2.471275091,0.227365196,-0.626419842,1.650652528,4.8817873,-2.106760979,0.318313569,0.008959956,0.380420595,0.276297212,-0.237457439,0.560904562
3.13799262,-2.482676983,0.164668679,-0.414259821,1.654333353,4.609169483,-1.838384867,0.307631314,0.017123211,0.389594495,0.284736425,-0.216794819,0.562620461
3.143991709,-2.464184999,0.202082187,-0.225602522,1.642694592,4.277415276,-1.582771897,0.304089278,0.019829992,0.392636389,0.292816818,-0.198180631,0.565404713
3.149991989,-2.382854223,0.355523705,-0.024076901,1.716215491,3.838991642,-1.337913394,0.301363915,0.021912675,0.394976914,0.300897986,-0.181970969,0.56847018
3.155991077,-2.354762554,0.543679595,0.115219131,1.888724327,3.36186409,-1.138940096,0.283358276,0.033056099,0.403916389,0.309594631,-0.168457121,0.571576238
3.162070036,-2.316507101,0.740109384,0.233796,2.141017914,2.884660244,-1.008075118,0.26950416,0.041630205,0.410794705,0.319363266,-0.157408848,0.574220836
3.1621387,-2.287699938,0.924072444,0.333860219,2.442517281,2.409696102,-0.946757436,0.2649104,0.044473216,0.413075447,0.330526352,-0.148680463,0.576077998
3.168085814,-2.307930708,0.998167753,0.423469633,2.706613302,1.956835151,-0.938538015,0.261375815,0.046660718,0.414830297,0.343117654,-0.142170861,0.577418447
3.180045128,-2.378017187,0.9629094,0.499388158,2.832407236,1.547867775,-0.954380333,0.253466815,0.05301623,0.418054551,0.356554508,-0.137649655,0.578718722
3.180081844,-2.494736195,0.840204656,0.568023741,2.736444235,1.192742825,-0.965756416,0.240569219,0.063599356,0.423207283,0.369771659,-0.134937569,0.580483615
3.185995579,-2.59292841,0.691352725,0.636275768,2.387825489,0.881216466,-0.945851028,0.23629263,0.067108519,0.42491582,0.381417185,-0.133818015,0.582935154
3.192066908,-2.625243664,0.567222118,0.710666418,1.826695681,0.596794307,-0.879429638,0.233002067,0.069808587,0.426230431,0.390333116,-0.13413237,0.58599025
3.192092419,-2.603650093,0.499192685,0.774443209,1.155170918,0.309014112,-0.750669956,0.231910989,0.070703872,0.426666319,0.395846367,-0.135962084,0.58948642
3.19801712,-2.548707724,0.463338435,0.82536155,0.477880359,0.006216854,-0.541076183,0.223863408,0.085580289,0.429107815,0.397933125,-0.13952136,0.593520224
3.203994274,-2.475651264,0.470371276,0.83862114,-0.112415217,-0.322278231,-0.25281316,0.221194983,0.090513036,0.429917365,0.396941006,-0.145072967,0.598216832
3.210013866,-2.425183535,0.506954014,0.808963299,-0.539878249,-0.65503782,0.082390532,0.219141811,0.094308443,0.430540264,0.393656403,-0.152789772,0.603668571
3.216016293,-2.393797874,0.543499053,0.72307384,-0.786629379,-0.972197413,0.433436751,0.218461022,0.095566928,0.430746824,0.388967097,-0.162621334,0.609959602
3.222113371,-1.365623355,0.175110728,-0.007138297,-0.969243407,-1.428438187,0.895405889,0.216630429,0.099686094,0.428547859,0.383495003,-0.173157439,0.614381075
3.222193956,-1.573833466,0.349062026,-0.193774477,-0.839197516,-2.342976093,1.564046264,0.215700075,0.101831615,0.427235246,0.377794206,-0.190189719,0.619730175
3.227966309,-0.362003744,-0.444843769,-0.482701182,-1.269516826,-2.37525034,1.968183756,0.214984238,0.10348244,0.426225275,0.371323109,-0.205856189,0.626486003
3.234018087,0.310568362,-1.402849674,-1.46706152,-1.750486374,-2.352142096,2.193272352,0.214746878,0.104029827,0.425890386,0.362457991,-0.21864289,0.632551014
3.240006447,0.248333827,-1.577112317,-1.909681797,-2.235209227,-2.240047216,2.455180168,0.217994496,0.10128402,0.423784077,0.350505024,-0.232473761,0.641453803
3.246109962,0.624973655,-1.737567306,-2.174140453,-2.756242275,-2.317400694,2.506145477,0.22253041,0.097179994,0.421221524,0.336119175,-0.245121703,0.648441374
3.252256155,1.03040576,-1.916733742,-1.742965698,-3.414671421,-2.580716133,2.426877975,0.226020485,0.094022222,0.419249833,0.318958044,-0.258642226,0.655670226
3.252302885,1.368869185,-1.762384415,-1.262591362,-3.999758244,-3.29498291,2.279837608,0.227177724,0.092975169,0.418596029,0.299318314,-0.274726987,0.660206616
3.258038282,0.96834904,-1.145522594,-1.022960305,-4.230870247,-4.340778351,2.049942255,0.228068143,0.092169538,0.418092996,0.277977407,-0.296991765,0.661996901
3.264100552,-0.179630429,-0.42822817,-0.90303129,-4.239511013,-5.080439568,1.640730739,0.238238931,0.077512033,0.41368258,0.25645262,-0.324642003,0.662845492
3.269986391,-1.283498287,0.268038481,-0.840742469,-4.051408291,-5.347160816,1.241627455,0.246064663,0.066234067,0.410289049,0.235356659,-0.354549706,0.663163662
3.27600646,-2.023000479,0.995874286,-0.976969659,-3.581673622,-5.229961395,0.880372703,0.248659521,0.062494513,0.409163833,0.215737954,-0.38413769,0.662115753
3.282062531,-2.614057779,1.563464522,-1.250286102,-2.925043583,-4.828323364,0.578279376,0.250656098,0.059617177,0.408298045,0.199068874,-0.411869049,0.659458697
3.282094955,-2.787720919,2.022908688,-1.322232008,-2.312552929,-4.16893959,0.514717698,0.260086656,0.049321134,0.400887072,0.18428275,-0.436185539,0.656755686
3.287985325,-2.580110312,2.131875992,-1.343629599,-1.622648001,-3.561412573,0.621070683,0.276209176,0.031952836,0.387981445,0.17220597,-0.456838429,0.654294252
3.294128418,-2.17532897,1.741351128,-1.27418685,-1.006721616,-3.09499383,0.912626982,0.281555116,0.026193835,0.383702159,0.163131863,-0.47492522,0.65496695
3.300005674,-1.621544123,1.205037117,-1.255574942,-0.532116294,-2.78407383,1.147355914,0.285668433,0.021762675,0.380409569,0.156564668,-0.490590066,0.65732187
3.305989265,-1.313580871,0.417962998,-1.141649246,-0.279153854,-2.634075165,1.201641083,0.287032336,0.020293387,0.37931782,0.152453989,-0.505400538,0.662351191
3.312062502,-1.115839124,-0.393037498,-1.028159022,-0.27398169,-2.552851677,1.038420439,0.304617018,0.008379431,0.36239782,0.150256738,-0.519284189,0.668438673
3.31210947,-0.981135368,-0.980290949,-0.883374155,-0.421967387,-2.514568806,0.725212693,0.310447782,0.004428988,0.356787473,0.149182573,-0.532737672,0.674321949
3.317985058,-0.937650621,-1.156560302,-0.806068659,-0.69762814,-2.503614187,0.449425519,0.314934164,0.001389391,0.352470696,0.147624388,-0.545849919,0.678653121
3.323999643,-0.927977204,-0.890761137,-0.745587528,-0.978892624,-2.425894737,0.303994358,0.316421747,0.000381518,0.35103935,0.144240588,-0.558648705,0.681418836
3.330011368,-0.946360946,-0.338362873,-0.737408161,-1.119471312,-2.285573959,0.340412885,0.325058848,-0.004311519,0.342420757,0.138654336,-0.570774436,0.682782531
3.336008787,-1.01273632,0.141324699,-0.774953365,-1.1239779,-2.12053895,0.546198726,0.329776794,-0.006837049,0.337702841,0.131360263,-0.5823192,0.684479773
3.348017216,-0.976499021,0.408956498,-0.815885723,-1.038396001,-1.923653603,0.769526243,0.333406955,-0.008780274,0.334072679,0.123108312,-0.592899323,0.687142372
3.348149776,-0.933859944,0.415535033,-0.834777951,-0.907373667,-1.762373805,0.870312929,0.334610641,-0.00942461,0.332868993,0.115214348,-0.602556884,0.690505147
3.348172188,-0.952861488,0.222224087,-0.842258573,-0.802800119,-1.654188275,0.82306236,0.338907003,-0.012356067,0.327966213,0.108499788,-0.61166048,0.694400489
3.353981256,-1.009289861,-0.071710899,-0.85744065,-0.779902279,-1.512378931,0.685605943,0.343730092,-0.015784215,0.322330534,0.10295631,-0.620046973,0.698556602
3.359957933,-0.979614794,-0.135127887,-0.893338323,-0.788891613,-1.347778082,0.570099056,0.347441137,-0.018421942,0.317994267,0.097714387,-0.627318323,0.701835692
3.3659935,-0.958866954,-0.009185035,-0.938803494,-0.807018876,-1.187966704,0.525587142,0.348671645,-0.019296564,0.316556454,0.091995582,-0.63372761,0.704506457
3.372039795,-0.830534279,0.164021924,-0.963583708,-0.768868446,-1.06821394,0.504866004,0.349618435,-0.019969525,0.315450132,0.086025074,-0.639267266,0.706120133
3.372095823,-0.790946782,0.248891309,-0.955749631,-0.695345998,-0.985348761,0.482447624,0.353767663,-0.024536844,0.308762342,0.080356702,-0.64442116,0.707450509
3.378173113,-0.862319469,0.241783202,-0.936840951,-0.596022964,-0.871358037,0.431323469,0.356960207,-0.028051088,0.303616554,0.075409614,-0.649134636,0.708975434
3.383984566,-0.834623516,0.145058498,-0.88029778,-0.488751888,-0.755872607,0.367933244,0.358018786,-0.029216344,0.301910281,0.071500801,-0.653172731,0.710481703
3.389992952,-0.759778261,0.060359985,-0.859060585,-0.418514639,-0.68001318,0.31095925,0.358833313,-0.030112928,0.300597429,0.06830442,-0.656721592,0.711731076
3.396089554,-0.707935393,0.029867584,-0.869796991,-0.36402905,-0.623577535,0.276652128,0.360296756,-0.032096062,0.297976583,0.065489873,-0.659893155,0.71262306
3.402027369,-0.685443401,0.037822813,-0.861633778,-0.315427482,-0.570041418,0.267031878,0.362629473,-0.0353266,0.293750077,0.062871382,-0.662796319,0.713465929
3.402092457,-0.64400059,0.042630766,-0.845964909,-0.265663892,-0.550896287,0.245051727,0.363402933,-0.036397781,0.292348653,0.06054721,-0.665553272,0.714104056
3.407992363,-0.664657593,0.05910676,-0.842074871,-0.211705685,-0.536928058,0.208401352,0.363998085,-0.037221983,0.291270375,0.058608469,-0.668301165,0.714554727
3.413995743,-0.692427397,0.088519745,-0.840231359,-0.148600638,-0.511342168,0.166297555,0.364195406,-0.037495274,0.290912837,0.057080165,-0.670937181,0.714725256
3.42007494,-0.699385226,0.07848306,-0.835093498,-0.080526799,-0.490880191,0.125718981,0.366653413,-0.039862253,0.288277775,0.056089204,-0.673466206,0.714734614
3.426060438,-0.657599866,0.027469318,-0.841866314,-0.029108731,-0.480843902,0.085691258,0.367468446,-0.040647101,0.287404031,0.055658922,-0.675838292,0.714473009
3.432073832,-0.652497232,-0.007810893,-0.853494287,0.008605536,-0.484351248,0.055100705,0.368095577,-0.041250985,0.28673175,0.055572681,-0.678215146,0.71407336
3.432132006,-0.683992147,-0.010208823,-0.844069779,0.041826505,-0.468741298,0.033372559,0.368303508,-0.041451223,0.286508828,0.055713993,-0.680582285,0.713703394
3.438140631,-0.657640636,-0.020446612,-0.828456461,0.070013419,-0.466121763,0.012383875,0.369254887,-0.042187162,0.285421491,0.056119338,-0.682883918,0.713143885
3.444022417,-0.651186824,-0.015244929,-0.824000716,0.09560848,-0.465479493,-0.008904525,0.369766206,-0.042575173,0.284834355,0.056703467,-0.685177803,0.712432265
3.450017691,-0.636441052,-0.016154045,-0.820868492,0.117782801,-0.467864364,-0.02491615,0.370159596,-0.042873718,0.284382582,0.057468362,-0.687451899,0.71156168
3.45599103,-0.642708242,-0.021922389,-0.808684647,0.137831584,-0.47004208,-0.034458339,0.370290041,-0.04297271,0.284232795,0.058385141,-0.689766347,0.710722864
3.462048769,-0.655420721,-0.028886236,-0.796360612,0.15709734,-0.468578845,-0.04689819,0.371114165,-0.043100242,0.283164799,0.059464213,-0.692093134,0.709874868
3.462119341,-0.661551237,-0.025230264,-0.783104777,0.174993053,-0.45973137,-0.055760361,0.372117281,-0.04319432,0.281849951,0.060650948,-0.694391489,0.708990455
3.468248606,-0.646548927,-0.015541147,-0.787841856,0.195578158,-0.455095917,-0.068854041,0.372889102,-0.043266706,0.280838281,0.061970677,-0.696615636,0.707917571
3.474058867,-0.62955308,0.005544906,-0.792855084,0.219688714,-0.452851951,-0.088063732,0.373145044,-0.043290708,0.280502826,0.06344787,-0.698797226,0.706580281
3.479960918,-0.625484645,0.014265285,-0.801407456,0.249343768,-0.460624814,-0.111751109,0.373341948,-0.043309178,0.280244738,0.065160543,-0.701000571,0.705014229
3.485960007,-0.626296997,0.014805224,-0.810808837,0.277781874,-0.472864419,-0.136794031,0.374232471,-0.042686459,0.27848202,0.06714467,-0.703248143,0.703220844
3.492091656,-0.622298419,-0.00062896,-0.808105886,0.302625895,-0.482770115,-0.157262251,0.374917656,-0.042207319,0.277125746,0.069392145,-0.705527782,0.701328754
3.492144346,-0.624963641,-0.029095199,-0.805052996,0.321636498,-0.491897047,-0.171153888,0.375144839,-0.042048447,0.276676029,0.071861684,-0.707854569,0.699444652
3.49797225,-0.639618158,-0.07127621,-0.795169711,0.328701496,-0.49543348,-0.17775619,0.37531969,-0.041926205,0.276329994,0.074489824,-0.710211754,0.697706699
3.503958225,-0.65194118,-0.119823627,-0.781033039,0.322387755,-0.488092005,-0.179193661,0.376120746,-0.041304942,0.27507323,0.077203989,-0.712555528,0.696113348
3.516138792,-0.656361282,-0.14628914,-0.771541715,0.305779815,-0.479725152,-0.167519405,0.377488524,-0.040239714,0.272951424,0.079818502,-0.714853764,0.694678366
3.516267061,-0.655329287,-0.136846989,-0.762878358,0.287991226,-0.471312374,-0.153954551,0.377942055,-0.039886504,0.272247881,0.082226254,-0.717111409,0.693294525
3.522155046,-0.649853945,-0.122053698,-0.765843034,0.273866326,-0.465539783,-0.137655929,0.378290981,-0.039614733,0.271706522,0.084471069,-0.719335079,0.691953421
3.522231817,-0.667339563,-0.109092735,-0.753496528,0.261092037,-0.455228686,-0.131022468,0.378406703,-0.039524619,0.271527022,0.086585291,-0.721556783,0.690695405
3.527953148,-0.667057872,-0.110827915,-0.74409008,0.252121806,-0.438411236,-0.120917149,0.379775822,-0.038072053,0.27042672,0.088650241,-0.723691583,0.689501524
3.533972979,-0.66730839,-0.11734689,-0.736789107,0.235338375,-0.423111737,-0.108983085,0.380229801,-0.037590411,0.27006188,0.090575367,-0.72575599,0.688433349
3.540043354,-0.658508718,-0.11206077,-0.735328436,0.222058922,-0.408100396,-0.093632795,0.380579114,-0.037219819,0.269781142,0.092337906,-0.727719903,0.68742609
3.54598403,-0.659071147,-0.107794173,-0.734452367,0.209002584,-0.393011063,-0.077653266,0.380694926,-0.037096936,0.26968804,0.09395425,-0.72963351,0.686537981
3.552211523,-0.655801237,-0.103271261,-0.742156923,0.199665293,-0.385011703,-0.060826406,0.381849736,-0.035978936,0.267183214,0.095434763,-0.731491089,0.685630023
3.552289963,-0.635860085,-0.064813696,-0.769826412,0.209116116,-0.396645188,-0.056389518,0.382496357,-0.035354972,0.265750557,0.096830525,-0.733349562,0.684511065
3.558017015,-0.633711874,-0.071224965,-0.760236681,0.217409015,-0.405932873,-0.052453585,0.382993877,-0.034874879,0.264648229,0.098369606,-0.735284567,0.683448792
3.564050674,-0.649541914,-0.066053331,-0.762704551,0.228860438,-0.413481474,-0.065912247,0.383158863,-0.034715686,0.264282703,0.099946961,-0.737276793,0.682314515
3.569986343,-0.646100342,-0.079450585,-0.759210825,0.245783299,-0.414023161,-0.076669335,0.38391754,-0.034118727,0.263620228,0.101752408,-0.739238143,0.681104958
3.575985193,-0.642451942,-0.085575826,-0.763534963,0.248200089,-0.419285864,-0.080086216,0.384806126,-0.03344233,0.263016135,0.103591122,-0.741213024,0.679850996
3.582046747,-0.637066782,-0.081536777,-0.765002966,0.257759213,-0.426196307,-0.086785533,0.385489851,-0.032921884,0.262551337,0.105490841,-0.743194699,0.678491235
3.582117558,-0.643426478,-0.082346283,-0.764955103,0.263201416,-0.435665935,-0.085736685,0.385716558,-0.032749318,0.2623972,0.107420348,-0.745239258,0.677168846
3.587955952,-0.647065878,-0.077225879,-0.759354174,0.270687789,-0.446833789,-0.08796443,0.38589099,-0.032616537,0.262278616,0.109384954,-0.747353792,0.675806344
3.594170332,-0.655296981,-0.094193853,-0.750081599,0.27714026,-0.452737153,-0.089088552,0.386818945,-0.031592637,0.260183871,0.111465022,-0.749506354,0.674484849
3.600070715,-0.660931647,-0.102209836,-0.740661144,0.280750245,-0.451579064,-0.086944759,0.387532949,-0.030804815,0.258572072,0.113562837,-0.751660645,0.673228264
3.606115103,-0.662210584,-0.107760541,-0.735489428,0.276381165,-0.450107425,-0.081264824,0.387769699,-0.030543588,0.258037627,0.115620926,-0.753811002,0.672034502
3.612055063,-0.664001882,-0.095848575,-0.73249948,0.271408886,-0.45022893,-0.076896168,0.387951881,-0.030342594,0.257626414,0.11758408,-0.755972624,0.670833647
3.612122059,-0.67724812,-0.097587988,-0.719088733,0.272961408,-0.44413355,-0.070593879,0.38850674,-0.02983067,0.256778568,0.119557962,-0.758131742,0.669725895
3.618008375,-0.676989377,-0.116301581,-0.708390176,0.27072078,-0.435142934,-0.057246659,0.389433622,-0.028986536,0.255406737,0.121503182,-0.760252416,0.668796122
3.623989582,-0.679063439,-0.148540944,-0.70392859,0.247520968,-0.423749447,-0.03633327,0.389740974,-0.028706636,0.254951864,0.123313077,-0.762326002,0.668109894
3.630040407,-0.6787709,-0.150346354,-0.698576033,0.223980159,-0.409621358,-0.01886303,0.389977455,-0.028491274,0.254601866,0.124871135,-0.764330387,0.667564631
3.636060715,-0.686405838,-0.140298501,-0.692850828,0.210947856,-0.390421987,0.004271452,0.390055865,-0.028419863,0.254485816,0.126229167,-0.766278625,0.66718322
3.642088175,-0.693818748,-0.131343335,-0.681294978,0.195132464,-0.370182991,0.024712097,0.391600132,-0.02765945,0.253508955,0.127379403,-0.768152475,0.666956007
3.642149448,-0.698298335,-0.144607484,-0.671378732,0.183399752,-0.348608822,0.048634142,0.392112195,-0.027407311,0.253185034,0.12839219,-0.76994431,0.666999698
3.648034811,-0.690276861,-0.17012845,-0.672450304,0.157690033,-0.319895208,0.07758224,0.392506182,-0.027213307,0.252935797,0.129178822,-0.771584213,0.667304337
3.654006004,-0.681253076,-0.186818585,-0.676646829,0.127237901,-0.291174293,0.109104633,0.392636806,-0.027148979,0.252853155,0.129656702,-0.77308327,0.667861342
3.660029173,-0.679247797,-0.198971227,-0.68216902,0.103302851,-0.268395156,0.138881505,0.393419534,-0.02667284,0.250904083,0.129889905,-0.774478555,0.668585896
3.665991068,-0.676569104,-0.205294788,-0.689519823,0.075966686,-0.24780865,0.16734761,0.393847883,-0.026409388,0.24979125,0.129840299,-0.775773764,0.669533551
3.6719594,-0.67778945,-0.20259288,-0.704421937,0.057539582,-0.236380994,0.200912043,0.394177467,-0.02620668,0.248935014,0.129521042,-0.77701354,0.670649648
3.678288221,-0.672405422,-0.198944509,-0.707543552,0.043708645,-0.228102356,0.232564852,0.394286752,-0.026139466,0.248651102,0.128960311,-0.778243124,0.671987057
3.678395987,-0.676212549,-0.204796717,-0.722402334,0.026252927,-0.223325014,0.265054494,0.394789368,-0.026242165,0.248183876,0.128158346,-0.779450893,0.673529148
3.684042931,-0.664503038,-0.182407424,-0.735528469,0.003703749,-0.222362638,0.292569876,0.395378083,-0.026431929,0.247778103,0.12703225,-0.780643046,0.675151587
3.690018892,-0.662178397,-0.148686975,-0.747959971,-0.000489506,-0.234862849,0.306023329,0.395831048,-0.026577942,0.247465879,0.12574476,-0.781885624,0.676675081
3.695991039,-0.681740165,-0.129541114,-0.749085784,-0.001746514,-0.2524212,0.318528324,0.395981252,-0.026626356,0.24736236,0.124389946,-0.783266425,0.67830044
3.70206213,-0.670426607,-0.105533242,-0.752248585,0.004117124,-0.269129187,0.322978795,0.396096796,-0.026663609,0.247282699,0.122980021,-0.784698606,0.679830194
3.702110052,-0.673888862,-0.097487845,-0.754262984,0.010190056,-0.290996373,0.329264522,0.396301478,-0.027809877,0.245718658,0.12158633,-0.786255181,0.681396902
3.70797801,-0.659395635,-0.09284135,-0.757998645,0.01684094,-0.314726591,0.336561292,0.396458954,-0.028691854,0.24451524,0.120174944,-0.787905931,0.682946801
