Time,inertial-6253.76535:scaledAccelX,inertial-6253.76535:scaledAccelY,inertial-6253.76535:scaledAccelZ,inertial-6253.76535:scaledGyroX,inertial-6253.76535:scaledGyroY,inertial-6253.76535:scaledGyroZ,inertial-6253.76535:scaledMagX,inertial-6253.76535:scaledMagY,inertial-6253.76535:scaledMagZ,inertial-6253.76535:roll,inertial-6253.76535:pitch,inertial-6253.76535:yaw
0,0.580411494,0.159624532,-0.801277399,0.003722398,-0.002670883,0.0052455,-0.108724631,0.225793049,0.354697555,-0.175657526,0.615398049,-1.260646462
0.00499712,0.581083655,0.16165936,-0.800693333,0.004526451,-0.001655738,0.006781149,-0.108642146,0.225810707,0.354662925,-0.175648123,0.615404069,-1.260632277
0.00999552,0.581355631,0.160588831,-0.799195468,0.005506267,-0.00117684,0.007992474,-0.108578674,0.225824296,0.354636282,-0.175622076,0.615409255,-1.260605931
0.014994688,0.581754982,0.158856615,-0.799945056,0.005492029,-0.000508087,0.006464881,-0.108557627,0.225828812,0.35462746,-0.175605744,0.615413427,-1.260595322
0.019994624,0.580104411,0.15897198,-0.799056232,0.005400352,-0.002970768,0.006840145,-0.108609229,0.2260378,0.354839385,-0.175586358,0.615410745,-1.260579348
0.024995839,0.579339802,0.157614857,-0.800361574,0.00394275,-0.002432316,0.006695905,-0.108626343,0.226107106,0.354909658,-0.175572991,0.615407586,-1.260569692
0.029997824,0.580452025,0.157319218,-0.799971342,0.004680679,-0.003036801,0.006176704,-0.108639508,0.226160407,0.35496372,-0.175552875,0.615410924,-1.260547996
0.034995198,0.580212414,0.157400683,-0.800294161,0.001559741,-0.000960249,0.004917161,-0.108643875,0.226178095,0.354981661,-0.175555423,0.61541754,-1.260544538
0.039993346,0.580959022,0.156857088,-0.800189555,0.001584381,-0.002781568,0.005132368,-0.108835362,0.225983411,0.35400939,-0.175552666,0.615415096,-1.260535479
0.04499251,0.581463158,0.157021716,-0.799779236,0.000641957,-0.00172917,0.005176794,-0.108945407,0.225867331,0.353442967,-0.175564766,0.615425289,-1.26053679
0.049992703,0.581376076,0.158010244,-0.79935056,0.000126452,-0.001418072,0.003284899,-0.109030083,0.225778013,0.353007168,-0.175592661,0.615423918,-1.260554314
0.05499392,0.581002057,0.158260211,-0.800423741,0.000653118,-0.002897492,0.003385153,-0.109058157,0.22574839,0.352862686,-0.175608978,0.615418255,-1.260568261
0.059996162,0.578109026,0.159983233,-0.800286055,-0.00181747,-0.002848727,0.002242358,-0.109027296,0.225787878,0.353375733,-0.175643712,0.615411639,-1.260587215
0.064993538,0.579301775,0.160987735,-0.800940216,-0.000722077,-0.002245621,0.002565384,-0.10896416,0.225863785,0.354175359,-0.175671458,0.615412652,-1.260607958
0.069991939,0.580450416,0.162087753,-0.800303161,0.001401277,-0.00193359,0.004992894,-0.10891559,0.225922197,0.354790598,-0.175681263,0.615410507,-1.260605693
0.074991107,0.582101345,0.160524562,-0.80008626,0.002275947,-0.001834831,0.004641707,-0.108899482,0.225941569,0.354994595,-0.175694734,0.615409613,-1.260607958
0.079991043,0.58116138,0.160759985,-0.801291645,0.003115537,-0.003396153,0.004445078,-0.108887084,0.225956455,0.355151564,-0.175698012,0.615398347,-1.26061523
0.084992513,0.581118405,0.161800951,-0.801861823,0.003351568,-0.002475409,0.003344045,-0.108928815,0.225808606,0.355040878,-0.175706133,0.615397215,-1.260621309
0.090000898,0.579528928,0.16066213,-0.801581562,0.003438705,-0.003285837,0.005630619,-0.108960927,0.225694835,0.354955733,-0.175698876,0.615384102,-1.260611653
0.095004164,0.581432104,0.16082947,-0.799700379,0.003938084,-0.003320587,0.006646968,-0.108971573,0.22565712,0.35492751,-0.175691575,0.615382791,-1.26060164
0.100002818,0.579597652,0.160362318,-0.799006522,0.004345152,-0.004444489,0.006166362,-0.108979769,0.225628093,0.354905814,-0.175684184,0.615374029,-1.260596395
0.105001725,0.581281364,0.159879461,-0.799632072,0.005400448,-0.002093326,0.004883501,-0.108982943,0.225674957,0.354772776,-0.17567879,0.615376174,-1.260601044
0.110001922,0.580361724,0.158237159,-0.800492048,0.005174381,-0.002650493,0.005404306,-0.108985856,0.225768119,0.354543179,-0.175658137,0.615371525,-1.260587335
0.115002878,0.580641389,0.159719765,-0.798927307,0.003291303,-0.003342918,0.005487297,-0.108986817,0.225799009,0.354467034,-0.17565763,0.615362406,-1.260578394
0.120005123,0.581108332,0.160263881,-0.80126214,0.003444729,-0.002623663,0.006613015,-0.108987562,0.225822791,0.354408473,-0.175655261,0.615360081,-1.260573983
0.125002235,0.58102417,0.160638168,-0.80057466,0.004267792,-0.003454792,0.005575686,-0.108987808,0.225830674,0.354389042,-0.175653562,0.615357637,-1.260573864
0.130000889,0.582293808,0.16024217,-0.799901187,0.002474194,-0.002915001,0.005873254,-0.109114073,0.225637615,0.354452014,-0.175647944,0.615356266,-1.260564208
0.135000318,0.58246696,0.159631208,-0.799657106,0.003680647,-0.00389833,0.004213863,-0.109155938,0.225573614,0.354472905,-0.175644934,0.615356743,-1.260561824
0.140000507,0.579952359,0.158333927,-0.799494088,0.003342337,-0.004056431,0.004609324,-0.109188154,0.225524351,0.354488969,-0.175641418,0.61534214,-1.260559559
0.145001471,0.579514205,0.159118295,-0.801020443,0.001911384,-0.003014263,0.004904412,-0.109198838,0.225508019,0.354494303,-0.17564927,0.615337789,-1.260558844
0.150003716,0.579743683,0.158819258,-0.801085353,0.002600717,-0.003421418,0.004044956,-0.108916566,0.225538552,0.354271829,-0.175644949,0.615323663,-1.260558248
0.155000836,0.580631077,0.159194976,-0.800203741,0.003590036,-0.002478588,0.004548977,-0.108751096,0.225559339,0.35414198,-0.175640985,0.615323126,-1.260556579
0.15999949,0.581819117,0.158933058,-0.799695194,0.002320627,-0.004074988,0.004685003,-0.108623773,0.225575343,0.354042053,-0.175638005,0.615311861,-1.260546446
0.164998651,0.582373679,0.158061758,-0.800015628,0.002186803,-0.003359281,0.005055343,-0.108581558,0.225580648,0.354008943,-0.175639123,0.615311682,-1.260544419
0.169998586,0.580856264,0.157173902,-0.800737917,0.001021477,-0.004852998,0.003683941,-0.108741306,0.225532547,0.354175568,-0.175650701,0.615296602,-1.260540366
0.174999803,0.579257667,0.160147682,-0.799686074,0.003908988,-0.003581982,0.005552576,-0.108988121,0.225463971,0.354424536,-0.175647527,0.615291953,-1.26053977
0.180001795,0.580107868,0.158162147,-0.799279332,0.003158886,-0.003900118,0.004282047,-0.109178029,0.225411206,0.354616135,-0.175655812,0.615285873,-1.260544777
0.184998915,0.581604898,0.157602504,-0.800551772,0.000292117,-0.005621512,0.004606545,-0.109241001,0.225393713,0.354679644,-0.175660118,0.615268588,-1.260536432
0.189997315,0.58089745,0.156534344,-0.800979972,0.000653994,-0.006287181,0.003118857,-0.109289452,0.225380242,0.35472852,-0.17566064,0.615248263,-1.260531664
0.194996476,0.581710696,0.156960651,-0.80014354,0.000311457,-0.004942551,0.005150781,-0.109065965,0.225524828,0.354903758,-0.175665736,0.615238369,-1.26051271
0.199996412,0.582251191,0.159798309,-0.799285829,0.000421077,-0.003713285,0.003924198,-0.108893998,0.22563608,0.355038583,-0.175678462,0.615240157,-1.260513067
0.204997629,0.582173705,0.159773901,-0.80080092,0.003188682,-0.004856611,0.003994887,-0.108836979,0.225672975,0.355083287,-0.175684437,0.615226269,-1.260512233
0.209999621,0.58055371,0.162239462,-0.800064147,0.00200794,-0.002645034,0.00387041,-0.108793102,0.225701347,0.355117679,-0.175701499,0.615218937,-1.260519505
0.214996994,0.580517828,0.161464334,-0.800561309,0.002264265,-0.003553881,0.003024097,-0.108832434,0.225625679,0.355162382,-0.175716475,0.61520642,-1.260528088
0.219995141,0.581318915,0.159690663,-0.800359726,0.002909648,-0.003341263,0.003345056,-0.108917184,0.225481406,0.355230451,-0.17571862,0.615200222,-1.260529876
0.225000188,0.580145478,0.159376696,-0.801724374,0.003126146,-0.004243271,0.005054854,-0.108945288,0.225433573,0.355253041,-0.175715044,0.615186214,-1.260520697
0.230000377,0.580618918,0.160735294,-0.800353825,0.000967282,-0.002007524,0.006041965,-0.108966909,0.225396767,0.355270416,-0.175728127,0.615190089,-1.26051414
0.235001594,0.579445422,0.159542993,-0.800113022,0.002730695,-0.003138495,0.005367455,-0.108974077,0.225384563,0.355276167,-0.175729394,0.615185916,-1.260509729
0.240003839,0.578380406,0.158904806,-0.801600218,0.00444371,-0.002978134,0.005301638,-0.108984724,0.225713626,0.355423331,-0.175718501,0.61517632,-1.260505438
0.245000958,0.579959273,0.158768564,-0.801730096,0.003557224,-0.002454528,0.005353522,-0.108988255,0.225822732,0.355472147,-0.175710395,0.615175903,-1.260497689
0.249999359,0.580433488,0.158432588,-0.801904142,0.003850373,-0.0011434,0.005664732,-0.108990967,0.225906685,0.355509698,-0.17570363,0.615175962,-1.260489464
0.254998267,0.57987839,0.1585861,-0.801690996,0.002779097,-0.000989828,0.005472544,-0.108991869,0.22593452,0.355522126,-0.175707325,0.615177035,-1.260487437
0.259998202,0.58157897,0.160581544,-0.801314056,0.002365079,-0.001537339,0.005688021,-0.108985737,0.225739881,0.354101002,-0.175704524,0.615187705,-1.260485172
0.264999181,0.579393089,0.160085395,-0.800536156,0.003625315,-0.001478367,0.00498694,-0.108982012,0.225621879,0.353275746,-0.175706431,0.61518985,-1.260495543
0.270001411,0.580050528,0.160402,-0.80202359,0.003614922,0.000506714,0.006052175,-0.108979151,0.225531086,0.352640808,-0.17570141,0.615200579,-1.260504842
0.274998516,0.581584394,0.159409836,-0.801716924,0.004238726,-0.001344437,0.006523946,-0.108978204,0.225500986,0.352430254,-0.17568703,0.615203202,-1.26049757
0.279996663,0.581032813,0.158889472,-0.80031997,0.004026632,-2.11E-05,0.005645684,-0.10898149,0.225628465,0.352986515,-0.17568551,0.615217209,-1.260498047
0.284995586,0.582535148,0.158404425,-0.801141918,0.002660633,-2.63E-05,0.006228991,-0.108986631,0.225822642,0.353895247,-0.175685927,0.615228832,-1.26048696
0.28999579,0.581995726,0.159526736,-0.800801337,0.003167449,-0.002267691,0.005878066,-0.10899058,0.225972056,0.354594469,-0.175686598,0.61523664,-1.260477543
0.294996738,0.58128792,0.158639088,-0.800570667,-0.000135121,-0.000498725,0.006498926,-0.108991891,0.226021603,0.354826301,-0.175690636,0.615241885,-1.260462523
0.299998969,0.581362307,0.159388125,-0.800940037,0.002016755,-0.000692296,0.006127823,-0.108992897,0.22605972,0.355004668,-0.175696656,0.615249932,-1.260456085
0.304996103,0.58191216,0.159924492,-0.802212775,0.000715183,-0.00090702,0.005183021,-0.109088771,0.226021484,0.354845762,-0.175710186,0.615252554,-1.260454774
0.309994251,0.581264019,0.157571882,-0.801459551,0.001428327,-0.001471839,0.005216409,-0.109162539,0.225992054,0.354723513,-0.175715327,0.61525768,-1.260455847
0.314993411,0.58083415,0.158536509,-0.801695347,-0.000146098,-0.001111541,0.004341615,-0.109186999,0.225982293,0.354682982,-0.175734818,0.615264356,-1.26046586
0.319993585,0.580919981,0.160844728,-0.801625907,0.000720499,-0.001321374,0.003624517,-0.10920582,0.225974783,0.354651809,-0.17574966,0.615268469,-1.260474205
0.324994564,0.579170823,0.161346242,-0.800022244,0.000843606,-0.000966557,0.004098969,-0.109128401,0.22591193,0.354515314,-0.175769076,0.615278006,-1.260483742
0.329996556,0.581343532,0.159044027,-0.800278902,0.002158848,0.000157035,0.006416025,-0.108984239,0.225802541,0.354282737,-0.175768644,0.615290642,-1.260470152
0.33499366,0.579766929,0.159338132,-0.801214337,-2.75E-05,-3.84E-05,0.004794282,-0.108936429,0.225766271,0.354205638,-0.175790057,0.615297496,-1.260477662
0.33999154,0.581513047,0.162156031,-0.801954865,0.000253802,0.000955539,0.007037384,-0.108899646,0.225738347,0.354146302,-0.175802127,0.615312278,-1.260475874
0.344990969,0.583308101,0.160491675,-0.800113082,0.000850921,-0.001280663,0.005125522,-0.108887456,0.225729093,0.354126632,-0.175813958,0.615323424,-1.260470986
0.349990904,0.579979837,0.160745546,-0.800296605,0.002593176,-0.001490587,0.006037361,-0.1088745,0.225452945,0.354187697,-0.1758205,0.615324736,-1.260468841
0.354991883,0.581222773,0.159965441,-0.798527479,0.002679698,-0.001538655,0.006010965,-0.108870201,0.225361377,0.354207963,-0.175814927,0.61533004,-1.26045239
0.360000014,0.58155489,0.159394249,-0.799718678,0.002249108,-0.001037761,0.003946227,-0.108866893,0.225290924,0.354223549,-0.175827757,0.615339577,-1.260460973
0.365003258,0.580885887,0.161859602,-0.799515724,0.003260374,-0.000414281,0.006150976,-0.108865798,0.225267574,0.354228705,-0.175832763,0.615346551,-1.260453939
0.370001405,0.580548227,0.160609558,-0.799131393,0.002994018,-0.000250739,0.00676031,-0.109063551,0.225559786,0.354453504,-0.175827101,0.615361929,-1.260449409
0.375000566,0.579125941,0.161189958,-0.799871981,0.00444736,-0.00066992,0.007626906,-0.109178267,0.225733444,0.354582667,-0.175818443,0.615362585,-1.260439873
0.380000502,0.580626786,0.161876693,-0.799261332,0.002816885,0.000547326,0.007166795,-0.109266534,0.225867063,0.354682058,-0.175820291,0.615383565,-1.260434508
0.385001719,0.580885768,0.158114001,-0.799455225,0.003666585,-0.000807379,0.007905314,-0.1092958,0.225911364,0.354715019,-0.175806046,0.615392923,-1.260415554
0.390004218,0.580850184,0.158097804,-0.799898863,0.004369677,-0.001025486,0.006184781,-0.109206811,0.225883409,0.354488552,-0.175792664,0.615400076,-1.260412216
0.395001858,0.579693913,0.156226069,-0.799680948,0.002633308,-0.000266953,0.007127605,-0.109064855,0.225811586,0.354159474,-0.175789908,0.61540699,-1.260399818
0.400000006,0.580938995,0.159090504,-0.800081849,0.003244084,0.00162209,0.006516475,-0.108955622,0.225756317,0.353906274,-0.175782174,0.61542505,-1.260392547
0.404999167,0.579331636,0.159397036,-0.799218893,0.002186381,1.45E-05,0.006283486,-0.108919404,0.225737989,0.353822321,-0.17579037,0.615435541,-1.260392547
0.409999102,0.581408381,0.159628272,-0.799820602,0.001450707,0.000182055,0.005553776,-0.108891539,0.225723892,0.353757739,-0.175789699,0.615446389,-1.260380626
0.415000051,0.580083489,0.159735456,-0.801626503,0.001195317,0.001454433,0.006320655,-0.10878443,0.225520432,0.354398042,-0.175796464,0.615464091,-1.260369658
0.42000255,0.580015957,0.160215423,-0.801639676,0.0003407,0.001145703,0.005881655,-0.108702019,0.22536388,0.354890734,-0.175806999,0.615473568,-1.260371327
0.424999923,0.580673158,0.162071869,-0.801919639,0.001947622,0.000634122,0.006278947,-0.10867469,0.22531198,0.35505411,-0.175811797,0.615488946,-1.260368705
0.42999807,0.581376731,0.161258027,-0.802165687,0.002429568,0.003201547,0.005768802,-0.108653665,0.22527203,0.355179787,-0.175823599,0.615514219,-1.260366678
0.434996992,0.580829978,0.159993589,-0.799378693,0.00314466,0.002686306,0.006183623,-0.108838692,0.225260794,0.355037361,-0.175827354,0.615539014,-1.260366797
0.439997196,0.582071602,0.157627925,-0.800167799,0.001170816,0.003894868,0.008254614,-0.10917519,0.225254178,0.354741663,-0.175822824,0.615571439,-1.260349393
0.444998145,0.582300246,0.15618059,-0.799481332,0.000736957,0.003569591,0.003950809,-0.109286778,0.225251973,0.354643613,-0.175836816,0.61559552,-1.260359049
0.450000376,0.58265847,0.156861097,-0.800315201,0.001156059,-0.000639386,0.00449446,-0.109372623,0.225250289,0.354568154,-0.17584683,0.615609467,-1.260353804
0.454997748,0.580972493,0.161032647,-0.80058527,0.000756041,-0.00058911,0.006002659,-0.109401092,0.225249738,0.35454312,-0.175863445,0.615615606,-1.260355115
0.459995896,0.580825806,0.161346003,-0.79995662,0.001764711,-0.000262926,0.005237027,-0.109360531,0.225382909,0.354521155,-0.175872624,0.615624785,-1.260353804
0.464995086,0.578999519,0.160617948,-0.800061882,0.001071751,0.000890684,0.004318126,-0.109347083,0.225427061,0.354513854,-0.175896674,0.615637183,-1.260370731
0.46999526,0.578369319,0.160023004,-0.800197184,0.001256305,0.000601319,0.005987062,-0.109336726,0.225461036,0.354508251,-0.175900459,0.615645826,-1.260373354
0.474996209,0.578191757,0.160199672,-0.800229609,0.000704715,0.000547508,0.006421973,-0.109333292,0.225472301,0.354506403,-0.175914496,0.615653455,-1.260373592
0.479998469,0.581246734,0.15780583,-0.797833025,0.001163846,0.000218566,0.005152606,-0.10918659,0.225482181,0.354943097,-0.175915316,0.615673184,-1.260355592
0.484995842,0.579119802,0.157706276,-0.800098896,0.003217387,9.20E-05,0.007928227,-0.109102294,0.225485772,0.355196297,-0.175906107,0.61568141,-1.260334134
0.489993721,0.580301344,0.163796768,-0.800470293,0.003839761,0.00089102,0.007597368,-0.109037437,0.225488529,0.355391145,-0.175907359,0.615693092,-1.260331035
0.494998783,0.581321061,0.160210013,-0.799859047,0.005252752,0.001215159,0.008050083,-0.109015934,0.225489438,0.355455756,-0.17588684,0.615715981,-1.260308027
0.499998987,0.582190931,0.15594855,-0.799907982,0.00324982,0.000886223,0.008159044,-0.109080471,0.225514531,0.354849458,-0.175869599,0.6157341,-1.260284066
0.504999936,0.583357096,0.157659024,-0.799467206,0.004553749,0.000452234,0.008436987,-0.109183632,0.225547463,0.353986949,-0.17584908,0.615756273,-1.260263681
0.510001898,0.582431257,0.159203336,-0.800993741,0.001889198,0.000602206,0.007454544,-0.10926301,0.22557281,0.353323281,-0.175857693,0.615766108,-1.260263085
0.51499927,0.581255317,0.158480704,-0.801168501,0.001280327,0.000544626,0.007449735,-0.109289333,0.225581214,0.35310322,-0.175860167,0.615773261,-1.260259628
0.519997418,0.580745161,0.157789662,-0.800004721,0.00302963,9.67E-05,0.006442862,-0.109309584,0.225587666,0.352933913,-0.175843522,0.615776658,-1.260251522
0.524996579,0.579581439,0.159300208,-0.799179554,0.002801997,-0.001537851,0.004958292,-0.109269001,0.225544184,0.353538752,-0.175847813,0.615780115,-1.260247469
0.529996514,0.579967916,0.160094589,-0.798404634,0.002077913,-0.00090258,0.005929167,-0.109237775,0.225510716,0.354004145,-0.175857574,0.615788221,-1.260254622
0.534997761,0.58140564,0.161443159,-0.79976058,0.002891355,-0.000593745,0.007553963,-0.109227419,0.225499615,0.354158461,-0.175850809,0.615795374,-1.260241032
0.540000021,0.579941213,0.16318512,-0.79932791,0.002329312,-0.001055143,0.006897624,-0.109219447,0.225491077,0.354277194,-0.175856933,0.615798056,-1.26023674
0.544997394,0.579691947,0.162958115,-0.797560394,0.006536045,-0.001868876,0.007631226,-0.109216049,0.225540727,0.353752583,-0.175836146,0.615805507,-1.260231614
0.549995542,0.581022024,0.161605999,-0.799559414,0.00401733,-0.000309943,0.009468571,-0.109212667,0.225632012,0.352778643,-0.175825357,0.615821838,-1.260217309
0.554994702,0.582356334,0.160734266,-0.800985634,0.008704543,-0.001291987,0.008711036,-0.109211542,0.225662276,0.352455705,-0.175786883,0.61582756,-1.260202885
0.559994638,0.582459807,0.159893066,-0.80117321,0.006065851,-4.65E-05,0.009158662,-0.109210677,0.225685567,0.352207243,-0.175755888,0.615840197,-1.260177493
0.564995825,0.581264138,0.160223559,-0.79964745,0.005713721,-0.002719831,0.009726346,-0.109210394,0.225693285,0.35212484,-0.175730988,0.615841627,-1.260165691
0.569998085,0.580722809,0.161181122,-0.800974309,0.005267831,-0.001001568,0.009866687,-0.109534778,0.225907713,0.352065355,-0.175703868,0.615857899,-1.260150552
0.57499522,0.580555141,0.158879712,-0.79981035,0.00556308,-0.000571046,0.007450404,-0.109642334,0.225978807,0.352045625,-0.175681442,0.615865409,-1.260140181
0.579993367,0.581595838,0.159141108,-0.800712228,0.006200645,-0.003073725,0.009162054,-0.109725095,0.226033509,0.352030486,-0.175645456,0.615862608,-1.260117412
0.58499223,0.583292425,0.158609718,-0.800861418,0.00742907,-0.001687313,0.007563187,-0.109752543,0.226051643,0.352025449,-0.175613701,0.615869522,-1.260111332
0.589992464,0.582301974,0.157680124,-0.799225152,0.004806102,-0.002565925,0.007547895,-0.109338,0.226009458,0.352344453,-0.175586939,0.615872622,-1.260087252
0.594993412,0.582709968,0.157152429,-0.800699234,0.004669348,-0.002741473,0.007233665,-0.109092735,0.225981593,0.352530122,-0.17556195,0.615866542,-1.260062814
0.599995673,0.583856523,0.157118022,-0.799757183,0.003051928,-0.00323862,0.007521163,-0.108904019,0.22596015,0.352672964,-0.175552636,0.615868151,-1.260046005
0.604992747,0.581617832,0.15856953,-0.800037563,0.003830631,-0.005557486,0.006499405,-0.108841449,0.225953028,0.35272035,-0.175543725,0.615850806,-1.260038614
0.609990895,0.582211018,0.160589278,-0.800975382,0.003136611,-0.003691905,0.005060298,-0.108902588,0.225892335,0.352790862,-0.175548717,0.615841627,-1.260041595
0.614989817,0.579576075,0.16051051,-0.802392662,0.002403829,-0.003120753,0.00584454,-0.109033071,0.225816533,0.35284856,-0.175549775,0.615828156,-1.260044456
0.619989991,0.579729438,0.159908712,-0.801905036,0.003801916,-0.00403381,0.006075361,-0.109133467,0.22575821,0.352892965,-0.175531596,0.615814626,-1.260036826
0.624991,0.581468046,0.158114403,-0.801796854,0.00323539,-0.004295136,0.006504478,-0.109166756,0.225738868,0.352907658,-0.175526366,0.615798712,-1.260027051
0.62999934,0.580986857,0.159557894,-0.800744891,0.003461437,-0.004447313,0.004427472,-0.109192371,0.225723982,0.352919012,-0.175528258,0.6157884,-1.260037184
0.635002613,0.582736135,0.159187883,-0.80054152,0.002706534,-0.005451623,0.004937659,-0.109394133,0.225721285,0.352761149,-0.175526172,0.615773082,-1.260032058
0.640001297,0.582248569,0.158958331,-0.799332857,0.003847328,-0.004229154,0.007586149,-0.109549373,0.225719228,0.352639675,-0.175518021,0.615766823,-1.260027289
0.645000458,0.581262589,0.156846523,-0.800315142,0.002852569,-0.005950854,0.004975143,-0.109600842,0.225718543,0.352599412,-0.175515503,0.615749657,-1.260028601
0.650000393,0.580026627,0.157392532,-0.800015688,0.001320608,-0.006654928,0.005621252,-0.109640449,0.225718006,0.352568448,-0.175515652,0.615729928,-1.260028005
0.655001581,0.580537796,0.157637447,-0.799660265,0.00020195,-0.004962032,0.006087895,-0.109463349,0.225776583,0.353085876,-0.17552495,0.61571902,-1.260022402
0.660003841,0.57877636,0.158246934,-0.800196886,0.002839369,-0.004877945,0.005172809,-0.109134719,0.225881085,0.354017615,-0.175533086,0.615695179,-1.260024071
0.665001214,0.581922114,0.160284758,-0.799874008,0.000481727,-0.003878393,0.004960274,-0.109025754,0.225915745,0.354326576,-0.175545081,0.615684152,-1.260018349
0.669999361,0.580952108,0.159060702,-0.800664306,0.003275421,-0.003680306,0.005758723,-0.108941913,0.225942403,0.354564309,-0.175541654,0.615672588,-1.260009766
0.674998522,0.5822317,0.161398605,-0.801253378,0.002081784,-0.002914181,0.006012237,-0.108914115,0.225951239,0.354643136,-0.175550327,0.615665734,-1.260012627
0.679998457,0.58206588,0.160745502,-0.799685001,0.001722171,-0.003441127,0.005027975,-0.109076396,0.225609258,0.353026778,-0.175557062,0.615658939,-1.260013461
0.684999704,0.58194685,0.161451146,-0.799910128,0.003414709,-0.004797112,0.006546655,-0.109130204,0.225495875,0.352490813,-0.175550953,0.615647912,-1.260005713
0.690001905,0.582000852,0.15909557,-0.801353395,0.004188213,-0.00383123,0.006250799,-0.109171607,0.225408629,0.352078438,-0.17554304,0.615646243,-1.260007143
0.694999278,0.581438959,0.159983188,-0.800108254,0.0033285,-0.004919526,0.007166028,-0.109185331,0.225379691,0.351941705,-0.175535664,0.615626693,-1.259998918
0.699997723,0.580557525,0.1622549,-0.800022364,0.00400931,-0.003559934,0.00758501,-0.109056346,0.225567147,0.35287863,-0.175525472,0.615628004,-1.259981632
0.704996884,0.582494676,0.159942865,-0.799814999,0.005887893,-0.00290439,0.007393098,-0.108979046,0.225681201,0.353447169,-0.175501809,0.615629554,-1.259972692
0.709996819,0.581905723,0.159215719,-0.800998867,0.003791661,-0.00444818,0.008065602,-0.108919576,0.225768954,0.353884608,-0.175487906,0.61561501,-1.259948015
0.714998543,0.580972314,0.155834764,-0.801047683,0.004713179,-0.003255969,0.007818732,-0.108899854,0.225798056,0.354029655,-0.175464034,0.615610301,-1.25992918
0.720000744,0.580086887,0.156745851,-0.801707864,0.002902384,-0.004637336,0.008292239,-0.108965404,0.22570622,0.354081511,-0.175448671,0.615599275,-1.25990355
0.724997878,0.581014276,0.157911792,-0.800735891,0.003396476,-0.003646669,0.006044596,-0.109068528,0.225560576,0.354038477,-0.175436184,0.615592003,-1.25988853
0.729996026,0.581086218,0.158346102,-0.801270485,0.00322215,-0.004586735,0.006458437,-0.109147884,0.225448504,0.354005367,-0.175425336,0.615576386,-1.259872079
0.734994948,0.58160013,0.157324538,-0.801641464,0.002726644,-0.004427094,0.007667334,-0.109174192,0.225411355,0.353994399,-0.175422192,0.615566969,-1.259854436
0.739994884,0.580937147,0.157928586,-0.801339924,0.001797765,-0.004235842,0.007041482,-0.109194435,0.22538276,0.353985965,-0.175420046,0.615558505,-1.259845734
0.744996369,0.580316722,0.157448947,-0.800047398,0.002655308,-0.004328556,0.005344096,-0.109053969,0.225412652,0.353042871,-0.175422505,0.615543067,-1.259848714
0.749998569,0.580706358,0.159723386,-0.80011642,0.003399066,-0.004779161,0.00532321,-0.108945891,0.225435644,0.352317244,-0.175427243,0.615537345,-1.259849191
0.754995704,0.581867874,0.159395173,-0.799190223,0.001138584,-0.00267448,0.005707125,-0.108910054,0.225443259,0.35207662,-0.175430596,0.615538716,-1.259846807
0.759993851,0.581021488,0.160716414,-0.79997015,0.001196487,-0.001134912,0.007422195,-0.108882479,0.22544913,0.351891488,-0.175435409,0.615542114,-1.2598387
0.764998913,0.580542088,0.160420313,-0.800765455,0.002707779,-0.001512439,0.005732891,-0.108849764,0.225600898,0.352516532,-0.175437376,0.615544319,-1.259842515
0.769999385,0.579618573,0.159582704,-0.80104059,0.003249555,-0.001075469,0.006927342,-0.108800754,0.225869179,0.353691518,-0.175433993,0.61554116,-1.259829283
0.775000811,0.579194367,0.159456313,-0.8015486,0.002571119,-0.000724721,0.005822913,-0.108784504,0.225958139,0.354081124,-0.175434977,0.615550697,-1.259831905
0.780003071,0.581287265,0.159997076,-0.800255358,0.003545324,0.001083532,0.006597333,-0.108772002,0.226026595,0.354380906,-0.175430685,0.615569055,-1.259820819
0.785000443,0.579691052,0.159529403,-0.799417853,0.003863288,0.001019744,0.006900299,-0.10876786,0.226049289,0.354480326,-0.175420672,0.615580559,-1.259809494
0.789998591,0.579841137,0.160270497,-0.800426185,0.004934956,0.000395117,0.006786211,-0.10882619,0.225865737,0.354560286,-0.175410002,0.615593374,-1.25980258
0.794997513,0.579673529,0.160737187,-0.801377654,0.003943237,-0.000257545,0.007448727,-0.108845532,0.225804865,0.35458678,-0.17540887,0.615600228,-1.259792328
0.799997926,0.580290794,0.160883889,-0.800123394,0.002964437,2.52E-05,0.008360538,-0.108860411,0.225758031,0.354607195,-0.175399438,0.615613818,-1.259774685
0.804999173,0.581377089,0.161737576,-0.800192058,0.006201127,0.000488983,0.009649653,-0.108865343,0.225742504,0.35461396,-0.175369635,0.615624189,-1.259754896
0.810001135,0.58235383,0.159327164,-0.79921329,0.005440325,0.000413265,0.010500994,-0.108579271,0.225775674,0.354613036,-0.175338522,0.6156497,-1.259711385
0.814998507,0.581989765,0.158282682,-0.800206363,0.006003786,-0.000248623,0.009531857,-0.108412683,0.225797847,0.354611188,-0.175307706,0.61566025,-1.259682417
0.819996417,0.579034269,0.158226684,-0.801437676,0.005628959,0.000320138,0.009549629,-0.108284511,0.225814894,0.354609787,-0.175284758,0.61567682,-1.259665608
0.824995577,0.578826547,0.156644627,-0.802611887,0.005835694,0.000222572,0.008901216,-0.108242013,0.225820541,0.354609311,-0.175254866,0.615681529,-1.259639263
0.829995513,0.578901768,0.158248842,-0.800353885,0.007691876,0.001320318,0.008730059,-0.10834685,0.225882605,0.354329288,-0.175220877,0.615699828,-1.259623766
0.834997237,0.580907404,0.157888919,-0.79984653,0.004420707,0.000764487,0.009608716,-0.108520299,0.225961372,0.353954434,-0.175196037,0.615720153,-1.259592891
0.839999259,0.579576612,0.157406598,-0.800238311,0.004330612,0.00087196,0.008510329,-0.108653761,0.22602199,0.353666008,-0.175180167,0.615739703,-1.259581327
0.844996631,0.582115054,0.158531055,-0.801287234,0.003663851,0.002598106,0.008097386,-0.108698018,0.226042092,0.353570342,-0.175166711,0.615768969,-1.259561777
0.849994779,0.580115676,0.158079043,-0.800919831,0.00334189,0.002206489,0.007202477,-0.108732067,0.226057559,0.35349676,-0.175161347,0.615792394,-1.259563565
0.854993939,0.579357207,0.157671556,-0.800323546,0.003309408,0.001928534,0.00771475,-0.108982712,0.225961357,0.352982104,-0.175149411,0.615815997,-1.259555817
0.859994113,0.580612361,0.158209011,-0.800709844,0.002910709,0.005591147,0.007550171,-0.109175555,0.225887343,0.35258612,-0.175147966,0.61585176,-1.259554505
0.864995301,0.582200348,0.158206955,-0.79964596,0.003836158,0.003163024,0.007604605,-0.109239504,0.225862801,0.352454811,-0.175137818,0.615883768,-1.259555101
0.869997561,0.581931591,0.159419879,-0.799316525,0.005496592,0.003660043,0.009032876,-0.1092887,0.225843921,0.352353781,-0.175125763,0.615917623,-1.259548903
0.874994934,0.58106941,0.158190727,-0.7983886,0.004311871,0.002495638,0.007761956,-0.10933163,0.225780264,0.352290154,-0.175110519,0.615939319,-1.259540677
0.879993081,0.581458092,0.15794532,-0.798939109,0.005651064,0.002443306,0.008599242,-0.109391563,0.225673258,0.35221073,-0.17508705,0.615972161,-1.25952661
0.884992242,0.581393778,0.15986976,-0.800735652,0.005656407,0.002575241,0.008245287,-0.109411433,0.225637779,0.352184385,-0.175067887,0.615996063,-1.259523869
0.889992714,0.579858422,0.161590323,-0.800064206,0.005072417,0.001786257,0.009335308,-0.109426722,0.225610495,0.352164149,-0.175044626,0.616013527,-1.25951004
0.894993901,0.581570745,0.161635607,-0.799490511,0.006071677,0.000808901,0.010711233,-0.109431796,0.22560145,0.352157414,-0.175023556,0.616036415,-1.259489179
0.900002062,0.580866814,0.161714107,-0.800367415,0.006181302,0.001919563,0.010629483,-0.108736783,0.225931972,0.353672862,-0.174990043,0.616060257,-1.259459019
0.905005336,0.579312563,0.161565229,-0.800510585,0.007162817,0.002223467,0.009838842,-0.108506329,0.22604157,0.354175359,-0.174964234,0.616078913,-1.259439111
0.910003722,0.580973566,0.158879206,-0.799623489,0.00697019,0.002332582,0.010202912,-0.108329013,0.226125881,0.354562014,-0.174926728,0.616105318,-1.259405375
0.915002644,0.581355214,0.157588452,-0.800350368,0.008004944,0.000633045,0.010387298,-0.108270213,0.226153851,0.354690224,-0.174871832,0.616118729,-1.25936234
0.920003355,0.580929577,0.157451496,-0.799629509,0.007269278,0.002170052,0.010093763,-0.108415991,0.226121828,0.354076654,-0.17483817,0.616145194,-1.259338856
0.925004542,0.581978142,0.15671286,-0.799086511,0.008469475,0.000445951,0.009546165,-0.108511597,0.226097956,0.353696972,-0.174787536,0.616161108,-1.259297371
0.930006802,0.581091106,0.157115832,-0.799787998,0.007752269,-0.000621262,0.010173983,-0.108585164,0.226079583,0.35340482,-0.174746469,0.616172373,-1.259269238
0.935003877,0.581068099,0.154931113,-0.799740791,0.005242307,0.001147245,0.009865807,-0.108609557,0.226073503,0.353307962,-0.174710304,0.616193235,-1.259231567
0.940002024,0.583570182,0.155758888,-0.799485803,0.004880185,-0.001538781,0.009740053,-0.108738162,0.225987941,0.353612065,-0.174688026,0.616195858,-1.259196043
0.945001245,0.581876099,0.156004295,-0.798973858,0.003287302,0.000595944,0.007171495,-0.108891577,0.225878015,0.354094714,-0.17467685,0.616214156,-1.259178519
0.950001419,0.581245124,0.156944513,-0.799613833,0.003928267,-0.000160827,0.007216478,-0.109009616,0.225793421,0.354466081,-0.174659938,0.616226792,-1.259162426
0.955002606,0.580611289,0.157436833,-0.79987222,0.003187787,-0.0012934,0.00647479,-0.109048754,0.225765377,0.354589254,-0.174649328,0.616225481,-1.25915122
0.960004866,0.582459927,0.157556385,-0.798985839,0.003000399,6.71E-06,0.007589977,-0.109078869,0.2257438,0.354683995,-0.174638465,0.616240978,-1.25913012
0.965002,0.581992388,0.157577306,-0.798755109,0.003433172,0.000246729,0.007771325,-0.109282061,0.225787103,0.35427767,-0.174631059,0.61625576,-1.25911963
0.970000148,0.582013965,0.158414215,-0.801229298,0.004069039,-0.000589426,0.007146862,-0.109438412,0.225820422,0.353965044,-0.17461063,0.616260171,-1.259105206
0.974999309,0.58035481,0.158452854,-0.801592588,0.003048183,-0.001380071,0.007883696,-0.109490253,0.225831464,0.353861392,-0.17461282,0.616266191,-1.259101033
0.979999483,0.580305994,0.159667164,-0.800303519,0.002486923,-0.000573066,0.008457041,-0.109530143,0.225839972,0.353781641,-0.174609348,0.616275251,-1.259089351
0.98500073,0.579392254,0.1601623,-0.80220902,0.003433167,0.000765854,0.009105365,-0.109406866,0.225870937,0.353971303,-0.174597293,0.616286159,-1.259077072
0.990002692,0.57884407,0.158198953,-0.802889407,0.003995353,0.002185279,0.008692075,-0.109173991,0.22592324,0.354335755,-0.174583346,0.616305411,-1.259066224
0.994999826,0.581434369,0.157007545,-0.801770806,0.003496648,0.003610796,0.008803296,-0.109096773,0.225940585,0.354456604,-0.174572691,0.616338789,-1.259046793
0.999997973,0.582122445,0.15836066,-0.799946487,0.00232377,0.002674571,0.007873485,-0.109037362,0.225953937,0.354549587,-0.174569339,0.61636591,-1.259036183
1.004997373,0.582891583,0.159377068,-0.800509155,0.003413619,0.004283244,0.008652174,-0.109017655,0.225958362,0.354580402,-0.174552396,0.616403937,-1.259012461
1.009997368,0.583348095,0.159126565,-0.801009953,0.002663927,0.001298594,0.008135826,-0.108616009,0.226081774,0.353789628,-0.174548849,0.6164276,-1.258998871
1.014998555,0.582861662,0.158096507,-0.801418304,0.004144398,0.002350369,0.006772723,-0.10848283,0.226122707,0.353527427,-0.17454958,0.616451204,-1.258995295
1.020000458,0.582407176,0.157913908,-0.799865484,0.00135239,0.003333311,0.00638347,-0.108380362,0.226154193,0.353325695,-0.174551174,0.616489589,-1.258981705
1.02499783,0.583244264,0.159166187,-0.799076796,0.000602584,0.002177059,0.007121691,-0.10834638,0.226164639,0.353258789,-0.174565107,0.616508543,-1.258978724
1.029996037,0.582519352,0.159454077,-0.801738918,0.000642396,0.003404211,0.005679289,-0.108658031,0.226175189,0.352772921,-0.174579412,0.616534114,-1.25898695
1.035001397,0.58110857,0.160629511,-0.800273299,0.001834633,0.004931584,0.005098349,-0.108844951,0.226179317,0.352504343,-0.174595043,0.616563678,-1.25900209
1.040001512,0.581643999,0.160693958,-0.798455596,0.00195629,0.00596557,0.007185833,-0.108988777,0.226182491,0.352297664,-0.174600795,0.61660248,-1.25900054
1.04500246,0.581181824,0.159958243,-0.799962759,0.003098499,0.004776562,0.007813909,-0.109036468,0.226183534,0.352229118,-0.174595788,0.616636038,-1.25900209
1.050004959,0.581032097,0.159643263,-0.800185859,0.003090144,0.005415523,0.009942573,-0.109046012,0.226102516,0.352740198,-0.17458427,0.616667747,-1.258984447
1.05500257,0.582374096,0.158997416,-0.800167799,0.003160253,0.004728212,0.010090156,-0.109021805,0.225993142,0.353478163,-0.174567237,0.616707563,-1.25895977
1.060000777,0.579843283,0.15834251,-0.799888968,0.00339478,0.007192738,0.009361979,-0.109003171,0.225908995,0.354045987,-0.174557999,0.616752863,-1.258946657
1.0649997,0.582133532,0.156797096,-0.799230874,0.004671361,0.004104719,0.006313095,-0.108996995,0.2258811,0.354234278,-0.174537912,0.616781056,-1.258933902
1.069999814,0.582293451,0.156758904,-0.799256444,0.004789098,0.004371968,0.008794741,-0.108992241,0.225859627,0.354379147,-0.174521357,0.616819561,-1.258908987
1.075000882,0.583824039,0.154966325,-0.800011277,0.003813219,0.004365447,0.007358195,-0.108893961,0.225851133,0.354480416,-0.174510777,0.616860092,-1.258895516
1.080003023,0.583527684,0.153423876,-0.800049961,0.002402774,0.002775517,0.006222023,-0.108818337,0.225844592,0.354558319,-0.174506024,0.616883218,-1.258877516
1.085000157,0.581993759,0.15551123,-0.798520267,0.001959106,0.003464423,0.00369635,-0.108793266,0.225842431,0.354584157,-0.174522266,0.616908431,-1.258884311
1.089998364,0.581359625,0.158304676,-0.79823941,0.001077449,0.000703493,0.004749004,-0.108773969,0.225840762,0.354604036,-0.17453824,0.616921127,-1.258884668
1.094997287,0.57975322,0.158248171,-0.799746573,0.001405839,0.000673222,0.005722195,-0.108631358,0.225924268,0.354638338,-0.174548447,0.616930842,-1.258885503
1.099997401,0.578986704,0.15904735,-0.798822761,0.000658117,0.001805452,0.006289696,-0.108383894,0.226073533,0.354692757,-0.174560115,0.616944611,-1.258879423
1.104998708,0.580530286,0.158473179,-0.798498392,9.76E-05,0.001520852,0.005976952,-0.108301841,0.22612302,0.354710817,-0.174574167,0.616957724,-1.258875012
1.110000849,0.58185488,0.160295695,-0.799565554,0.001011938,5.20E-05,0.006316692,-0.108238705,0.226161107,0.354724675,-0.174584255,0.616969645,-1.258868217
1.114998221,0.58387351,0.161694184,-0.7985093,0.002299392,0.001336396,0.006326105,-0.108217768,0.226173729,0.354729295,-0.174595997,0.616987765,-1.258864284
1.119996428,0.582968593,0.16063498,-0.800295353,0.003159055,-0.001710915,0.007847918,-0.108777821,0.225991711,0.354672939,-0.174590424,0.616998553,-1.25884819
1.124995589,0.58361119,0.158743113,-0.79848969,0.002819008,0.000483676,0.008519161,-0.108963519,0.225931361,0.354654253,-0.174576804,0.617015719,-1.258825779
1.129995465,0.58215338,0.15903382,-0.801075637,0.002766897,-7.80E-05,0.007683209,-0.109106414,0.225884929,0.354639888,-0.174570143,0.617025256,-1.2588166
1.134996772,0.582052827,0.157463536,-0.798963487,0.004526744,-0.001540131,0.007786896,-0.109153792,0.225869521,0.354635119,-0.174544662,0.617028832,-1.258788109
1.139998674,0.582946897,0.157181859,-0.799924135,0.003024032,0.000324305,0.009171642,-0.109236084,0.225704893,0.354468703,-0.174529091,0.617049754,-1.258756876
1.144996047,0.582411766,0.158671111,-0.800485373,0.002834321,-0.001351958,0.006240958,-0.109274715,0.225612491,0.354373246,-0.174528033,0.617049217,-1.258752227
1.149994016,0.583409309,0.157107651,-0.799900174,0.002650453,-0.001577706,0.007704439,-0.109304436,0.225541398,0.354299814,-0.174518526,0.61705935,-1.258728743
1.154993176,0.582807302,0.157572418,-0.799085498,0.003680713,-0.001774444,0.007090401,-0.109314293,0.225517824,0.354275465,-0.174508795,0.617067814,-1.258714795
1.159993052,0.581428051,0.157209069,-0.798225522,0.003607551,-0.000952343,0.00622945,-0.109352291,0.225702196,0.354286343,-0.174505875,0.617076397,-1.258715391
1.164994359,0.581776679,0.158034608,-0.799083114,0.003886281,-8.49E-05,0.006001205,-0.109395564,0.225967541,0.354319781,-0.174501836,0.617087066,-1.258708596
1.17000246,0.582494676,0.159889087,-0.80101794,0.003017844,-0.001284326,0.006561766,-0.10942886,0.226171702,0.35434553,-0.174498767,0.617089808,-1.258704305
1.175005913,0.582743108,0.159342021,-0.801038861,0.003302884,-0.001229836,0.006886459,-0.109439895,0.226239398,0.354354084,-0.174488813,0.617096901,-1.258683324
1.180004358,0.583549559,0.158064857,-0.799254656,0.003680622,-0.000517929,0.009605859,-0.109448388,0.226291493,0.35436064,-0.174473375,0.617113471,-1.258660555
1.185003519,0.582938194,0.159042746,-0.800712883,0.006181538,-0.001238001,0.008787996,-0.109639272,0.226148725,0.353100628,-0.174445152,0.617114663,-1.25865376
1.190003753,0.581294417,0.156603247,-0.800240517,0.003749926,-0.00153863,0.008423143,-0.109786145,0.226038858,0.352131128,-0.174431816,0.617117524,-1.258643985
1.19500494,0.580250144,0.158398256,-0.799305379,0.004621277,-0.001150751,0.007421252,-0.109834842,0.22600244,0.351809651,-0.174418956,0.617116451,-1.258645058
1.2000072,0.58140564,0.158218712,-0.798792005,0.003934621,-0.002993284,0.006761153,-0.109872319,0.225974411,0.351562291,-0.174406707,0.617115617,-1.258641243
1.205004334,0.584553361,0.158958241,-0.798749864,0.004447137,-6.87E-05,0.007576894,-0.10952875,0.225908294,0.352319092,-0.174393639,0.617130995,-1.258621216
1.210002661,0.582461476,0.1590285,-0.798792183,0.002985257,-0.000952137,0.008263158,-0.108904436,0.225799963,0.353749573,-0.174386516,0.617137015,-1.258596539
1.215001583,0.580825329,0.15585427,-0.799495339,0.003571309,-4.20E-05,0.007707047,-0.108697429,0.225764051,0.354223877,-0.174373046,0.617142022,-1.258576512
1.220001817,0.583080649,0.156812191,-0.801131845,0.003318648,0.000773071,0.005798926,-0.108538151,0.225736424,0.354588836,-0.174369961,0.617154419,-1.25856483
1.225002766,0.581767261,0.158370376,-0.799225271,0.001931764,0.000135474,0.005440807,-0.108485334,0.22572726,0.354709864,-0.174381688,0.617159009,-1.258562326
1.230005026,0.582926929,0.157892674,-0.799125612,0.002359517,-0.001223283,0.006242787,-0.109154083,0.225867391,0.354668587,-0.174374714,0.617168248,-1.258553505
1.23500216,0.583556294,0.158185378,-0.799683392,0.00292561,-0.001889583,0.007668018,-0.109375827,0.225913867,0.354654908,-0.174361452,0.617167354,-1.25852859
1.240000248,0.582712054,0.157254457,-0.80006963,0.001961114,-0.002443276,0.006941323,-0.109546445,0.22594963,0.354644388,-0.174359113,0.6171664,-1.258520842
1.244999409,0.582975924,0.157547265,-0.800325394,0.002777674,-0.000597954,0.005720835,-0.109603018,0.225961491,0.354640871,-0.174355343,0.617171407,-1.258510709
1.249999642,0.582342565,0.15784122,-0.799693763,0.003185319,-0.001629947,0.005415012,-0.109548911,0.226111367,0.353587508,-0.174354389,0.617171824,-1.258514762
1.255000591,0.581653416,0.159423634,-0.798502803,0.0028322,-0.001615288,0.006209048,-0.109506808,0.226195902,0.35297823,-0.174358889,0.617176414,-1.258517027
1.260002851,0.581973732,0.158825815,-0.800169528,0.002675279,-0.003144,0.004715472,-0.109474413,0.226260945,0.352509409,-0.174365014,0.617175817,-1.258525848
1.264999986,0.581898808,0.157714278,-0.80118221,0.003391914,-0.002550043,0.006312473,-0.109463669,0.226282507,0.35235396,-0.174352735,0.617166042,-1.258513689
1.269998074,0.583141029,0.158502519,-0.799602211,0.003384705,-0.001554557,0.009783763,-0.109427474,0.226132274,0.35295561,-0.174334243,0.617174327,-1.258484125
1.274997234,0.582980335,0.158115759,-0.798730612,0.002794807,-0.003296495,0.006521779,-0.109387316,0.225914225,0.353882402,-0.174330965,0.617172062,-1.258474469
1.279997706,0.581343293,0.15800859,-0.799124897,0.003293595,-0.002462853,0.006173629,-0.109356418,0.225746453,0.354595482,-0.174326882,0.617172062,-1.258462667
1.284998894,0.580236256,0.157722026,-0.79953301,0.003870927,-0.002331876,0.007730324,-0.109346174,0.225690827,0.354831934,-0.174314275,0.617166817,-1.258443475
1.290000916,0.579651713,0.158079892,-0.800620139,0.002424938,-0.002010888,0.006742198,-0.109338291,0.225648016,0.355013877,-0.174309567,0.617164493,-1.258434534
1.294998288,0.58057493,0.159166247,-0.799100459,0.004853259,-0.001381676,0.008098602,-0.10924302,0.225984603,0.354792833,-0.174288407,0.617171109,-1.25841713
1.299996376,0.580759406,0.157255366,-0.80006814,0.002922692,-0.001280864,0.008024397,-0.109169714,0.2262436,0.354622751,-0.174278915,0.617171645,-1.258394957
1.305001736,0.581145048,0.156281903,-0.799892902,0.00314642,-0.001525965,0.00598263,-0.10914541,0.226329461,0.354566336,-0.174272716,0.617169738,-1.258392334
1.310001969,0.583367825,0.155654788,-0.799447536,0.0025186,-0.001787049,0.00555734,-0.109126709,0.226395532,0.354522943,-0.174269646,0.617177069,-1.258385539
1.315003157,0.583653152,0.158234686,-0.798725903,0.001799412,-0.001819293,0.006887301,-0.109365255,0.226330638,0.353950918,-0.174272284,0.617183208,-1.258376956
1.320005417,0.583963335,0.158075184,-0.799365044,0.001035507,-0.002127043,0.006295442,-0.109796278,0.226192936,0.352946937,-0.174280152,0.617184341,-1.258375645
1.325002789,0.58314985,0.156334579,-0.799442708,0.000263673,-0.000661539,0.005343766,-0.109939195,0.226147279,0.352614015,-0.174288675,0.617194235,-1.258381724
1.330000877,0.582965255,0.157074839,-0.798938751,-2.32E-06,-0.002926701,0.005525553,-0.110049166,0.226112142,0.352357864,-0.174295247,0.617192984,-1.258380413
1.335000038,0.583533227,0.157848522,-0.799039781,0.000839192,-0.004808588,0.005040196,-0.110085629,0.226100489,0.352272928,-0.174305186,0.617179751,-1.258383632
1.340000272,0.583786905,0.15636456,-0.797620356,2.27E-05,-0.00340184,0.004906079,-0.109472856,0.226023719,0.353514165,-0.174318671,0.617177427,-1.258368134
1.345001459,0.582790494,0.156745568,-0.798243403,0.000630483,-0.00449224,0.004684293,-0.109269671,0.225998268,0.353925765,-0.174327165,0.617164671,-1.25836587
1.350003719,0.579771459,0.157143041,-0.799112201,0.002044455,-0.004335809,0.004157171,-0.109113336,0.225978687,0.354242444,-0.174325749,0.617151618,-1.258359909
1.355001092,0.579154849,0.156529129,-0.799619079,-0.000330474,-0.002256117,0.003059459,-0.109061494,0.22597219,0.354347467,-0.174355388,0.617141306,-1.258373499
1.35999918,0.581160724,0.155605674,-0.801017225,0.0002935,-0.002265777,0.003455862,-0.109214775,0.225920707,0.354487628,-0.174363881,0.617133319,-1.258371115
1.364998937,0.580407202,0.15781346,-0.800279379,-0.001404041,-0.002295465,0.004229562,-0.109313399,0.225892127,0.354548812,-0.174395457,0.617122531,-1.258384228
1.369999051,0.581002235,0.159222424,-0.800835729,-0.001485247,-0.000388603,0.002971282,-0.109389283,0.225870132,0.3545959,-0.174433008,0.617123246,-1.258404613
1.375000119,0.581039548,0.161444634,-0.800564051,-0.001461209,-0.001671619,0.002516787,-0.109414443,0.225862831,0.354611486,-0.174465746,0.617119253,-1.258426189
1.380002618,0.581898153,0.159935236,-0.801391959,-0.00132735,-0.000180038,0.003434728,-0.109351121,0.225855052,0.354559302,-0.174498826,0.617126107,-1.258434176
1.38499999,0.581806421,0.158716738,-0.799949586,0.000342357,0.000583812,0.005168673,-0.109246753,0.225850284,0.354477316,-0.174519747,0.617138922,-1.258445263
1.389998078,0.583605289,0.158826232,-0.797559738,0.000749739,-0.000761742,0.003305399,-0.109166451,0.225846618,0.354414225,-0.17453894,0.617147267,-1.258447409
1.394997001,0.581844211,0.15770483,-0.799240589,0.000552831,0.000134112,0.003159001,-0.109139815,0.225845411,0.354393303,-0.174559548,0.617154539,-1.258462071
1.399997234,0.582923591,0.158337861,-0.798549891,0.001828825,5.98E-05,0.004866652,-0.109119326,0.225844458,0.35437718,-0.174565688,0.617166162,-1.258454323
1.40499866,0.582193017,0.158674359,-0.800397515,0.001180001,0.000511085,0.004961633,-0.109113954,0.225945637,0.354370713,-0.174582988,0.617177546,-1.25846374
1.410001397,0.581650317,0.160425588,-0.800526381,0.00067805,0.000562545,0.003666703,-0.109109826,0.22602348,0.354365766,-0.174606472,0.617185533,-1.258470416
1.414999247,0.58173418,0.15886943,-0.798422694,0.001333312,-0.000870473,0.004548709,-0.109108448,0.226049274,0.354364097,-0.174609929,0.61719203,-1.258470774
1.419997454,0.58208257,0.157604635,-0.798859835,0.001752751,-0.000109122,0.003751128,-0.109107397,0.226069137,0.354362816,-0.174624681,0.61719954,-1.258484125
1.424996614,0.581604242,0.160053432,-0.798503995,0.000295953,0.000746514,0.004931971,-0.109161735,0.226048261,0.354395062,-0.174648479,0.617209613,-1.258488774
1.429996848,0.58125484,0.158435628,-0.798398912,-0.000331123,-3.45E-05,0.002994174,-0.109258838,0.226004437,0.354452938,-0.174674854,0.617214918,-1.258494258
1.434998512,0.583771467,0.15467976,-0.798554599,0.000414064,-0.002073683,0.003182371,-0.109291039,0.225989908,0.354472131,-0.174685374,0.617215216,-1.258497357
1.440006971,0.583995163,0.153990224,-0.797398627,-0.002876911,-0.001190445,0.002090131,-0.109315813,0.225978717,0.354486883,-0.174719527,0.617223561,-1.258504272
1.445010424,0.583543062,0.15893057,-0.799500167,-0.00233925,-0.000639085,0.001805966,-0.109324023,0.225975022,0.35449177,-0.17475979,0.617231905,-1.258520603
1.450008869,0.581620097,0.158791453,-0.797886848,-0.001921256,-0.000739114,0.003557195,-0.109329529,0.225969493,0.354202598,-0.174795076,0.617226839,-1.258534431
1.45500803,0.582918584,0.159571826,-0.798741698,-0.001865699,-0.000542328,0.002282668,-0.109331354,0.225967661,0.354106724,-0.174825832,0.61723423,-1.258550167
1.460007906,0.582900822,0.159603357,-0.79985106,-0.00041115,-0.001223687,0.004696604,-0.109332763,0.22596626,0.354032934,-0.17484577,0.617238641,-1.258549929
1.465009093,0.581851721,0.158155799,-0.799090326,-0.000595522,-0.001088635,0.004597525,-0.109333232,0.225965783,0.354008466,-0.174865305,0.617249668,-1.258563161
1.470011353,0.581188262,0.156475797,-0.797223151,-0.000262637,0.000224338,0.003212039,-0.109623514,0.226017252,0.353498667,-0.174887925,0.617260516,-1.258573651
1.475008726,0.582584381,0.15627563,-0.79764092,-0.001951037,-0.000964666,0.00517875,-0.109791502,0.226047143,0.353208125,-0.174912453,0.617262602,-1.258574128
1.480006933,0.583991885,0.157944024,-0.799026608,-0.001170035,-0.000318853,0.003667459,-0.109920762,0.226070136,0.352984577,-0.174941152,0.617280662,-1.258588314
1.485006094,0.583099246,0.159455657,-0.798161745,-0.00153076,-0.001852616,0.002294631,-0.109963618,0.22607775,0.352910429,-0.174975425,0.617276251,-1.258613348
1.490006328,0.582368791,0.161034092,-0.799671173,0.000454305,-0.001602683,0.003641464,-0.109832242,0.226027653,0.353382945,-0.174998909,0.617277145,-1.258627415
1.495007753,0.582085907,0.159056827,-0.80008769,-0.000373529,-0.000150413,0.005423979,-0.109622963,0.225954622,0.354073584,-0.175018281,0.617283344,-1.25862813
1.500010014,0.580831051,0.159996241,-0.799663424,-0.000516267,-0.001120989,0.005877937,-0.109461933,0.225898445,0.354604989,-0.17504102,0.617289484,-1.258626342
1.505007386,0.582029939,0.16013132,-0.799620807,0.000711363,-0.000473916,0.005863966,-0.109408535,0.225879803,0.35478121,-0.175057381,0.617297769,-1.258629322
1.510005236,0.583106816,0.159615487,-0.79957664,0.000587396,0.000634245,0.006760832,-0.109367453,0.225865468,0.354916781,-0.175066322,0.617313325,-1.25861752
1.515004635,0.582178354,0.158458039,-0.798832953,0.002778719,-0.001108147,0.008390102,-0.109691158,0.225861728,0.354362011,-0.175064743,0.617323816,-1.258610725
1.520004869,0.581730843,0.158326149,-0.798636615,0.001871005,-0.000779489,0.005626567,-0.109940223,0.225858852,0.353935122,-0.175066501,0.617325604,-1.258614063
1.525005817,0.582177758,0.157837629,-0.799070477,0.000494767,0.001384339,0.005683017,-0.110022813,0.225857899,0.353793591,-0.175070047,0.617341995,-1.258607388
1.530008078,0.582602441,0.156391203,-0.799795926,0.000974717,0.00125072,0.005356501,-0.110086359,0.225857168,0.353684694,-0.175073788,0.617356658,-1.258608341
1.535005212,0.585162759,0.155050099,-0.79953599,0.000998832,0.000111225,0.005409584,-0.109914817,0.225935355,0.353174448,-0.175082669,0.617374122,-1.258608341
1.5400033,0.583800554,0.154843822,-0.799900889,0.001138308,-0.000553861,0.003334344,-0.109588072,0.2260748,0.352302432,-0.175088286,0.617378533,-1.258615136
1.54500246,0.584081233,0.156445846,-0.798407555,-0.000634707,-0.000937684,0.003744293,-0.109479725,0.226121038,0.35201329,-0.175114021,0.617387176,-1.258628726
1.550002694,0.585524619,0.154994413,-0.799613595,-0.002892812,-0.001206088,0.002531597,-0.109396361,0.226156622,0.351790816,-0.175141513,0.617396355,-1.258642316
1.555003643,0.585058033,0.15480274,-0.799008548,-0.00462087,-0.001902089,0.001294851,-0.109368719,0.226168424,0.351717025,-0.175190091,0.617393494,-1.258663297
1.560005903,0.583469212,0.155266747,-0.799629986,-0.00594253,-0.00381246,0.001219317,-0.109985963,0.225594535,0.352924377,-0.17523095,0.61737746,-1.258678794
1.565003276,0.584105611,0.157804772,-0.799525857,-0.00637719,-0.003237085,-0.000597412,-0.11019063,0.225404233,0.353324711,-0.17530112,0.617364347,-1.258712888
1.570001364,0.582115173,0.160134196,-0.797942996,-0.00511437,-0.003553791,-0.00134776,-0.110348105,0.225257814,0.353632748,-0.175368577,0.617348731,-1.258751392
1.575006723,0.581627905,0.161150843,-0.798569143,-0.006336468,-0.004368436,0.0003696,-0.110400327,0.225209266,0.353734881,-0.175435066,0.617336631,-1.258783579
1.580007195,0.58080709,0.159931451,-0.799025178,-0.006297868,-0.003667757,0.001121923,-0.110151336,0.225412935,0.353033483,-0.175499633,0.617324591,-1.258820295
1.585008383,0.582485676,0.160108298,-0.798345804,-0.007696367,-0.002468792,0.000681502,-0.109997213,0.225540102,0.352607906,-0.175570801,0.61732161,-1.258856416
1.590010643,0.584077477,0.159091696,-0.79879415,-0.007915483,-0.000596428,0.001917359,-0.109878629,0.225637943,0.352280468,-0.175632447,0.617326796,-1.258879423
1.595008016,0.581450164,0.160952121,-0.798476636,-0.006405443,-0.003561551,-0.000743358,-0.109839313,0.225670397,0.352171898,-0.175701097,0.617310345,-1.258924007
1.600006104,0.582024992,0.158509791,-0.79810679,-0.007166522,-0.002488677,0.00016766,-0.109755419,0.225643829,0.352870375,-0.175768182,0.617303908,-1.25895071
1.605005264,0.581723213,0.159161612,-0.798043191,-0.006546815,-0.003818262,0.000105543,-0.109673515,0.225583047,0.353890538,-0.175833687,0.617290497,-1.258976102
1.61000526,0.579789221,0.163082749,-0.798888266,-0.00465847,-0.003843964,0.000158352,-0.109610491,0.225536272,0.354675502,-0.175899312,0.617275476,-1.259017706
1.615006447,0.579707742,0.164569363,-0.799536347,-0.006268587,-0.003542784,0.000774105,-0.109589592,0.22552076,0.354935795,-0.175974473,0.61726588,-1.259052873
1.620008469,0.581123114,0.162630364,-0.799411595,-0.006069185,-0.003072187,0.00133227,-0.109573513,0.225508839,0.355136067,-0.176031694,0.617257059,-1.259074211
1.625005841,0.577858269,0.162399203,-0.800709784,-0.002841796,-0.002453845,0.001716331,-0.109619208,0.225659534,0.355367064,-0.176077023,0.617241323,-1.259099007
1.630004168,0.579771757,0.157623738,-0.80103606,-0.001626265,-0.00105147,0.003357936,-0.109654367,0.225775495,0.355544806,-0.176097989,0.617244184,-1.259106874
1.635003686,0.582463145,0.160281494,-0.797651827,-0.003425354,0.000251069,0.005154051,-0.10966602,0.22581394,0.355603725,-0.176138937,0.617256403,-1.259111643
1.640003562,0.582869709,0.158863649,-0.797966182,-0.004127752,-0.001671447,0.002011379,-0.10967499,0.225843519,0.355649084,-0.176189244,0.617251515,-1.259129286
1.645004749,0.58391583,0.155120462,-0.797931373,-0.004746756,-0.003142742,0.001472439,-0.109566711,0.22579214,0.355506152,-0.176231533,0.617246866,-1.259139895
1.650006771,0.583539069,0.159124047,-0.797869802,-0.005764297,-0.001989657,-0.000209482,-0.10937091,0.225690737,0.355236471,-0.176295072,0.617243171,-1.259162664
1.655004144,0.58205843,0.161583006,-0.795906901,-0.00514616,-0.004526788,0.000186967,-0.109305978,0.22565712,0.355147034,-0.176365227,0.617226779,-1.259195924
1.660002589,0.584991038,0.153772563,-0.796609521,-0.00665101,-0.005110947,0.000600605,-0.109256029,0.225631237,0.35507822,-0.176416576,0.617215157,-1.259199381
1.66500175,0.586565435,0.154115826,-0.798693419,-0.009116324,-0.005501135,-0.00032018,-0.109239459,0.225622654,0.355055392,-0.176493153,0.617206454,-1.259216905
1.670001864,0.583055615,0.161515936,-0.798072338,-0.011434058,-0.004857922,-0.001651991,-0.108904526,0.225608498,0.354885191,-0.176591948,0.617182195,-1.259255767
1.675003171,0.580684364,0.161972657,-0.798049092,-0.009403897,-0.006780808,-0.001494733,-0.108793467,0.225603804,0.354828745,-0.176677927,0.617150962,-1.259291887
1.680005431,0.581433952,0.160273924,-0.798808694,-0.009214942,-0.006259658,0.000723582,-0.108708017,0.225600183,0.354785323,-0.176748633,0.617124796,-1.25930953
1.685002446,0.583703458,0.165764466,-0.797768235,-0.008350267,-0.008248467,-0.001290912,-0.108679689,0.225598991,0.354770929,-0.17683883,0.617080927,-1.259346843
1.690000892,0.581254661,0.168490887,-0.79844147,-0.007910891,-0.009810281,-0.000113572,-0.109185636,0.225398391,0.354000717,-0.1769218,0.617039442,-1.259388924
1.694999814,0.579095602,0.166336015,-0.799571335,-0.003650754,-0.009747958,0.003080888,-0.109483995,0.22528246,0.353557467,-0.176966339,0.616990387,-1.259413958
1.700000048,0.579509318,0.162000656,-0.799707294,-0.004355972,-0.007388334,0.004054901,-0.109713562,0.225193262,0.353216439,-0.176999703,0.616955757,-1.259423137
1.705006838,0.583384216,0.162625268,-0.798218668,-0.003137949,-0.010032906,0.002534746,-0.109789684,0.225163683,0.353103369,-0.177042589,0.616917372,-1.259443045
1.710009098,0.582061052,0.165217027,-0.799290121,-0.001339709,-0.010059644,0.006165147,-0.109684676,0.225169972,0.353388458,-0.177064627,0.61687839,-1.259436488
1.715006232,0.580824971,0.162975475,-0.798294663,-0.001324692,-0.009618227,0.005609879,-0.109484918,0.225201353,0.353858203,-0.177080661,0.616836667,-1.259425521
1.720004559,0.582004964,0.16204682,-0.798576117,-0.001133296,-0.010594277,0.005874113,-0.10933122,0.225225493,0.354219645,-0.177101746,0.616795003,-1.259417892
1.725003719,0.58270514,0.164245978,-0.798566699,0.001338947,-0.010853392,0.007918263,-0.109280258,0.225233495,0.35433948,-0.177099749,0.616754055,-1.259389043
1.730003953,0.581387818,0.161647752,-0.799356043,-0.000731689,-0.012493382,0.007324636,-0.109241046,0.225239649,0.354431689,-0.17710638,0.616700232,-1.259369373
1.735004902,0.579464376,0.156288952,-0.801449239,0.000858107,-0.013159969,0.007088317,-0.109327845,0.225495249,0.354240865,-0.177093968,0.616641939,-1.259347439
1.740007162,0.581084371,0.15294081,-0.800419986,0.000548438,-0.011614825,0.006137698,-0.109394632,0.225691915,0.354094028,-0.177069902,0.616593957,-1.259313703
1.745004296,0.583696008,0.152117759,-0.800899208,-0.001632966,-0.012803551,0.003846007,-0.109416775,0.225757122,0.354045331,-0.17707938,0.616542339,-1.259302855
1.750002742,0.586186588,0.152103186,-0.798848987,-0.004318996,-0.0126465,0.002513641,-0.109433815,0.225807294,0.35400787,-0.177101716,0.616497457,-1.259280801
1.755001903,0.58555156,0.148733929,-0.79987824,-0.007887989,-0.014179545,0.001045115,-0.109381318,0.225592643,0.354028225,-0.177137285,0.616440475,-1.259261847
1.760002017,0.58534044,0.149275586,-0.797834158,-0.010871046,-0.016241109,-0.001691421,-0.109282136,0.22519362,0.354077071,-0.177200779,0.616370916,-1.259261012
1.765003324,0.586923897,0.151489034,-0.797952116,-0.013760415,-0.018423526,-0.002237314,-0.109249242,0.225061312,0.354093283,-0.177286386,0.616292298,-1.259270906
1.770005226,0.586217463,0.15329048,-0.797621012,-0.016463038,-0.017757421,-0.005692959,-0.109223932,0.224959508,0.354105741,-0.177402303,0.616208494,-1.259302974
1.77500236,0.587625682,0.155296817,-0.796633065,-0.018594325,-0.02018692,-0.005802791,-0.109215543,0.224925756,0.354109883,-0.177525386,0.616123855,-1.259324074
1.780000567,0.58670795,0.155265808,-0.798637569,-0.020155076,-0.023902543,-0.00659726,-0.109277643,0.224979162,0.355285317,-0.177656695,0.616016984,-1.259347916
1.784999728,0.581507683,0.157150567,-0.80135411,-0.020723443,-0.026354808,-0.006476881,-0.109298229,0.224996865,0.355675071,-0.17779915,0.615882099,-1.259384751
1.789999604,0.581746399,0.160134554,-0.800918818,-0.022723094,-0.025535658,-0.006822274,-0.109314077,0.225010484,0.355974942,-0.17795898,0.615756154,-1.259427547
1.795000792,0.583839655,0.164757833,-0.801135838,-0.022372926,-0.026051534,-0.004538429,-0.109319329,0.225015,0.356074393,-0.178113297,0.615633547,-1.259465694
1.800002813,0.581913888,0.168454096,-0.801176608,-0.020492833,-0.026472,-0.003934679,-0.109080859,0.225061014,0.355759889,-0.17826201,0.615502179,-1.259506941
1.805000186,0.579800606,0.169887766,-0.801654816,-0.017932139,-0.025001671,-0.001651163,-0.108941771,0.225086808,0.355558842,-0.178386256,0.615378737,-1.259533525
1.809998631,0.579043508,0.168732271,-0.802352428,-0.013267763,-0.023772189,0.00032414,-0.108834758,0.225106642,0.355404168,-0.178485945,0.615261614,-1.259557366
1.814997792,0.580465913,0.167120606,-0.803099692,-0.012532486,-0.021078641,0.003299881,-0.108799279,0.225113228,0.355352879,-0.178565234,0.615162969,-1.259551167
1.819997668,0.58027637,0.163891524,-0.800033212,-0.009439058,-0.020686103,0.003046029,-0.108715899,0.225058734,0.355219096,-0.17861858,0.615065157,-1.259547234
1.824998856,0.583539069,0.161805645,-0.800475419,-0.01011485,-0.021815265,0.003088389,-0.108631708,0.224980608,0.355079651,-0.17867431,0.614971161,-1.25952363
1.830000877,0.581342399,0.160683796,-0.801433384,-0.009093647,-0.023235749,0.003143587,-0.108566932,0.224920496,0.354972333,-0.178727105,0.614862621,-1.259509563
1.83499825,0.579855442,0.156300142,-0.803260267,-0.010072154,-0.022837026,0.003601149,-0.108545452,0.224900573,0.354936749,-0.178772956,0.614755809,-1.259486675
1.840002298,0.581378818,0.15660651,-0.804023802,-0.012545882,-0.021937879,0.002212784,-0.108528927,0.224885225,0.35490939,-0.178839773,0.614653945,-1.259473681
1.845001459,0.581774473,0.15859744,-0.80372107,-0.014819436,-0.02170006,0.000888342,-0.108813569,0.224884257,0.35474056,-0.178926259,0.61455375,-1.259480238
1.850001931,0.581137419,0.161197782,-0.802224994,-0.015830094,-0.02117895,0.00030766,-0.109032579,0.224883512,0.354610622,-0.17903094,0.614453912,-1.259485245
1.85500288,0.579566598,0.161580354,-0.801676095,-0.017767711,-0.019926401,-0.000368067,-0.1091052,0.224883258,0.354567558,-0.179144293,0.614359915,-1.259507418
1.86000514,0.578248918,0.161473885,-0.802903533,-0.01858386,-0.019121146,0.000137953,-0.109161079,0.22488308,0.354534417,-0.17925863,0.614264548,-1.259529114
1.865002275,0.577222407,0.166004092,-0.803421378,-0.016638923,-0.016928859,0.001358284,-0.109069221,0.224824682,0.354678452,-0.179368541,0.614177585,-1.259551167
1.870000362,0.57883662,0.169179186,-0.802763641,-0.015314879,-0.016988723,0.003549558,-0.108886935,0.224720776,0.354946047,-0.179472521,0.614096224,-1.259571552
1.874999285,0.573872089,0.171559542,-0.800349474,-0.012798621,-0.015963845,0.003963869,-0.108826488,0.224686325,0.355034739,-0.179558158,0.614023328,-1.259589076
1.879999518,0.574256241,0.172123507,-0.801107228,-0.009866482,-0.014500251,0.007209292,-0.108779982,0.224659815,0.355103016,-0.179615542,0.613954186,-1.259579659
1.885000467,0.576632857,0.173023179,-0.801245034,-0.006136882,-0.012368571,0.009160206,-0.108764566,0.224651024,0.355125636,-0.1796657,0.613903046,-1.25957036
1.890002728,0.576556683,0.175410822,-0.801073372,-0.003567426,-0.011776559,0.010034776,-0.108813591,0.224634126,0.35389924,-0.17969124,0.613848627,-1.25955832
1.894999862,0.577171683,0.175224826,-0.804052114,-0.000166509,-0.011124878,0.013309714,-0.108829848,0.224628523,0.353492618,-0.179693595,0.613807261,-1.259536386
1.89999795,0.576200664,0.171904564,-0.804457366,0.002774918,-0.006901979,0.015543296,-0.108842358,0.224624217,0.353179723,-0.179675549,0.613785207,-1.259497881
1.90499711,0.575096071,0.171331272,-0.804228604,0.006396637,-0.005857807,0.017295189,-0.108846508,0.224622786,0.353075981,-0.179631174,0.613770664,-1.259457588
1.909997344,0.576934993,0.172806516,-0.803608298,0.009283802,-0.003504395,0.018813588,-0.108364604,0.224367678,0.353981674,-0.179567337,0.613766909,-1.259395599
1.914998531,0.575999856,0.176464066,-0.802282929,0.011108285,-0.00291557,0.020422146,-0.108084776,0.224220246,0.354525894,-0.179501459,0.613777041,-1.259326577
1.920000792,0.575974643,0.17416811,-0.801127672,0.015435531,0.001488988,0.023247456,-0.107869461,0.224106804,0.354944617,-0.179401249,0.613809288,-1.259243608
1.924997926,0.575262368,0.170336157,-0.802286685,0.016739229,0.002543181,0.024268566,-0.10779807,0.224069193,0.355083466,-0.179281026,0.613835752,-1.259149313
1.929995775,0.57177341,0.17002812,-0.802849829,0.020072106,0.004972404,0.025921067,-0.107993372,0.224191397,0.355443865,-0.179138035,0.613871455,-1.259052753
1.934994936,0.570781767,0.167432979,-0.804609001,0.021190168,0.007803473,0.028119672,-0.108310468,0.224384338,0.355819046,-0.178975627,0.613925576,-1.258942842
1.939994931,0.572817862,0.166367054,-0.80361259,0.025412003,0.011883279,0.028231438,-0.108554453,0.224532783,0.356107712,-0.178798556,0.614004493,-1.258833408
1.944996119,0.574514389,0.168982595,-0.802290499,0.026841238,0.014419948,0.031562075,-0.108635351,0.224582002,0.356203437,-0.178606614,0.614104271,-1.258706093
1.949998379,0.574435174,0.167902082,-0.801635683,0.029609773,0.012942009,0.034864534,-0.108697601,0.22461988,0.356277078,-0.178396523,0.614194453,-1.258564234
1.954995751,0.575745761,0.165742472,-0.804623365,0.030980829,0.016552035,0.035205804,-0.108668789,0.224579751,0.35619089,-0.178163245,0.614306092,-1.258412361
1.959993839,0.574622273,0.166743681,-0.804175794,0.032783743,0.017936094,0.037987482,-0.108646631,0.224548876,0.35612455,-0.177925497,0.614417911,-1.258248925
1.964993,0.576272964,0.172448158,-0.804288685,0.034845892,0.020653756,0.039506458,-0.108639285,0.224538639,0.356102556,-0.177683219,0.614552677,-1.258098602
1.969992995,0.574931562,0.178678602,-0.803565323,0.038755506,0.022624962,0.041145783,-0.108633623,0.224530756,0.356085658,-0.177435935,0.614699721,-1.257955551
1.975000024,0.575406909,0.178562269,-0.801932037,0.043041512,0.025266485,0.0436721,-0.108687758,0.22464247,0.35586074,-0.177152872,0.614859939,-1.257790446
1.980002284,0.574844301,0.179571509,-0.801588655,0.046947315,0.030529317,0.046876565,-0.108786039,0.224844009,0.355465949,-0.176842347,0.615041077,-1.25761795
1.984999657,0.574506402,0.177567706,-0.802252352,0.052322127,0.034185421,0.049838472,-0.108818628,0.224910825,0.355335057,-0.176488027,0.615248263,-1.257421017
1.989997864,0.574819446,0.172569767,-0.804231226,0.056365188,0.036138367,0.0520734,-0.108843707,0.224962249,0.355234355,-0.176101714,0.615465701,-1.257216573
1.994997025,0.574676991,0.166478053,-0.804722965,0.059180263,0.038837869,0.05176051,-0.108852021,0.224979296,0.355200946,-0.175691932,0.615689099,-1.257002234
1.999997139,0.578775227,0.160280153,-0.805315018,0.061133128,0.041104801,0.052426904,-0.108280614,0.225371704,0.353621691,-0.175256833,0.615938485,-1.256773949
2.004998446,0.576483548,0.154769421,-0.80507493,0.060787685,0.042476628,0.051039472,-0.108091146,0.22550182,0.353098035,-0.174827784,0.616181731,-1.256547689
2.010000706,0.581228912,0.151113912,-0.804676473,0.061364215,0.043374255,0.051828459,-0.107945368,0.225601926,0.352695107,-0.174383119,0.616453528,-1.256301403
2.014997721,0.582026422,0.147360057,-0.803912222,0.05798481,0.045015894,0.048285354,-0.107897036,0.225635126,0.352561504,-0.173961803,0.616723955,-1.256073833
2.019995928,0.583101451,0.147897124,-0.801481664,0.056581762,0.045365095,0.048043497,-0.108246729,0.225617915,0.352521837,-0.173552677,0.616998792,-1.255851984
2.024995089,0.586324096,0.147924989,-0.799645483,0.054090444,0.047403965,0.046243798,-0.108458422,0.225601628,0.35252431,-0.173165083,0.617283106,-1.255637169
2.029995203,0.585859418,0.145702675,-0.800987601,0.048715707,0.045159582,0.041626129,-0.108621299,0.225589111,0.352526218,-0.172823817,0.617546558,-1.25545013
2.034996271,0.584948182,0.140329257,-0.802489996,0.042276867,0.04552912,0.036518525,-0.108675301,0.225584954,0.352526844,-0.172521263,0.617806613,-1.255288839
2.039998531,0.587673187,0.136653662,-0.803415954,0.034363553,0.04613813,0.031303439,-0.108638301,0.225785568,0.352930367,-0.17226328,0.618073821,-1.25513649
2.044995546,0.590729952,0.137031123,-0.803855121,0.024802273,0.046409082,0.024847867,-0.108546816,0.226057619,0.353470594,-0.172085717,0.618342459,-1.255031347
2.049993992,0.590705574,0.140913308,-0.803679049,0.019348625,0.049584787,0.021256592,-0.10847643,0.226266935,0.353886247,-0.17195797,0.61861366,-1.254956365
2.054993153,0.594207466,0.139225975,-0.805649936,0.012479623,0.047268387,0.015472031,-0.108453088,0.226336345,0.354024082,-0.171875656,0.618876636,-1.254910231
2.059993267,0.597669363,0.136668265,-0.804873526,0.006480962,0.045121025,0.010362023,-0.108435132,0.226389766,0.354130119,-0.171836644,0.619132638,-1.254873157
2.064994335,0.602974951,0.135609537,-0.800863564,-0.000661826,0.042103954,0.004722178,-0.108670466,0.226360917,0.354115397,-0.171853378,0.619375587,-1.254862309
2.069996595,0.609176159,0.13790895,-0.798584819,-0.007050782,0.035730865,-0.000348184,-0.108851537,0.226338714,0.354104042,-0.171914145,0.619592905,-1.25487411
2.07499361,0.610593677,0.144662276,-0.795517027,-0.012041714,0.030132847,-0.008298705,-0.108911574,0.226331368,0.354100287,-0.172054514,0.619778395,-1.254942417
2.079992056,0.603794634,0.147781029,-0.792511404,-0.019496348,0.023991175,-0.010841911,-0.108957775,0.226325691,0.354097396,-0.172221959,0.619918764,-1.255017877
2.084991217,0.587265313,0.147700042,-0.795146644,-0.024294585,0.022524917,-0.014032958,-0.108973727,0.22638087,0.354033232,-0.172427103,0.620022476,-1.255143881
2.089991331,0.577048957,0.152473584,-0.805645466,-0.028600402,0.027939267,-0.013844388,-0.108986638,0.22648102,0.353919894,-0.172672018,0.620131373,-1.255305529
2.094992399,0.572012305,0.162454784,-0.816280186,-0.029502707,0.039045207,-0.010783769,-0.108990915,0.226514235,0.353882313,-0.172929853,0.62027961,-1.255492091
2.099994421,0.570068359,0.178330258,-0.821317852,-0.026743172,0.050282817,-0.010676858,-0.108994208,0.226539776,0.353853405,-0.17320843,0.620482922,-1.255725622
2.104991436,0.566347003,0.196837947,-0.823724926,-0.017280074,0.06575159,-0.004514832,-0.108995304,0.226548254,0.353843808,-0.173461094,0.620756924,-1.255977273
2.109995604,0.566068769,0.201576814,-0.825339973,-0.010964756,0.084735714,0.004928755,-0.108672962,0.226350963,0.354345143,-0.173662901,0.621138692,-1.256182671
2.114994764,0.567502379,0.193339735,-0.831309795,-0.006322817,0.10297031,0.013048355,-0.108566076,0.226285547,0.35451138,-0.173797399,0.621615171,-1.256346345
2.11999464,0.567366004,0.187364608,-0.841085136,-0.001828634,0.123913698,0.020192273,-0.108483844,0.226235211,0.354639292,-0.173882261,0.622189403,-1.256479502
2.12499547,0.55220753,0.194092706,-0.852993488,-0.003134161,0.154363453,0.031755365,-0.108456567,0.226218522,0.3546817,-0.173965737,0.622882366,-1.256621599
2.12999773,0.517869949,0.213530555,-0.873112023,-0.026758302,0.222593337,0.054763552,-0.108917408,0.226110041,0.354338974,-0.174168929,0.62385571,-1.256809115
2.134995222,0.478117943,0.244368762,-0.874247849,-0.059596982,0.339599818,0.081616834,-0.109189436,0.226050422,0.354132444,-0.174605235,0.625404894,-1.257069588
2.139993668,0.47090891,0.264139235,-0.882294059,-0.082689553,0.471731782,0.112015001,-0.109398745,0.226004541,0.353973538,-0.175151154,0.627665877,-1.257336378
2.144992828,0.453901231,0.260474592,-0.917081416,-0.132921919,0.593819439,0.148409173,-0.109468147,0.225989327,0.353920847,-0.175857127,0.63046515,-1.257542968
2.149992943,0.424484402,0.263859689,-0.957162738,-0.194969267,0.751588404,0.181863323,-0.110098459,0.226014167,0.353515506,-0.176874474,0.633997142,-1.257789016
2.154994249,0.381419867,0.222561806,-1.024621129,-0.333344966,0.953305662,0.211560786,-0.110889211,0.226059273,0.353013217,-0.17848438,0.638435304,-1.258111835
2.15999651,0.41338107,0.170341924,-1.135251999,-0.552239537,1.176782489,0.2262474,-0.111497648,0.226093963,0.352626741,-0.181152627,0.643991768,-1.258548379
2.164993763,0.504297972,0.121942766,-1.18357265,-0.839131296,1.295450091,0.228700846,-0.111699395,0.226105466,0.352498621,-0.185462669,0.650260568,-1.258927822
2.16999197,0.616817832,0.193285599,-1.181210399,-0.899974525,1.296322227,0.208624914,-0.11185462,0.226114318,0.352400005,-0.190202326,0.65652746,-1.259443879
2.174990892,0.609687805,0.313898176,-1.151826262,-0.838900208,1.284103155,0.195486546,-0.113828376,0.225234374,0.351643026,-0.194950268,0.662559688,-1.260408401
2.179991007,0.571931243,0.416237712,-1.145908475,-0.672978103,1.31668663,0.192421138,-0.11534705,0.224557325,0.351060599,-0.198904544,0.668706357,-1.261721373
2.184992075,0.630661428,0.378798127,-1.18472445,-0.57677567,1.35217762,0.210264191,-0.115850613,0.224332824,0.35086748,-0.202230677,0.675121903,-1.262844324
2.189994335,0.704198778,0.453728795,-1.203916788,-0.423587114,1.357301116,0.295587301,-0.116238065,0.22416009,0.350718886,-0.204677686,0.681683362,-1.263423562
2.19499135,0.613944411,0.571037889,-1.243612766,-0.181905285,1.350594521,0.342560619,-0.117943071,0.222863019,0.350401312,-0.205865413,0.688027442,-1.264190674
2.199989796,0.526734829,0.539595485,-1.260369182,0.085540682,1.350130677,0.364058375,-0.120849073,0.220611379,0.349885643,-0.205478758,0.694201708,-1.264873147
2.204989195,0.5876472,0.355505288,-1.29793334,0.286211014,1.38861239,0.363955408,-0.121812649,0.219864771,0.349714667,-0.203619495,0.700726807,-1.265090227
2.209989309,0.814867377,-0.119132921,-1.396351576,0.169947773,1.464011788,0.39291361,-0.122554056,0.219290301,0.349583119,-0.201098397,0.707955003,-1.263928413
2.214990377,0.740048647,-0.471325338,-1.473597884,-0.43212992,1.387010813,0.508671999,-0.122799888,0.21909982,0.349539489,-0.200544387,0.714835107,-1.261247635
2.219992638,0.548132718,-0.521720827,-1.416033864,-1.092769027,1.315033793,0.692183256,-0.127685994,0.219362527,0.347541809,-0.202898383,0.721191645,-1.257403374
2.224989653,0.431422114,-0.371442795,-1.235592842,-1.508329034,1.272447109,0.901452363,-0.129306138,0.219449639,0.346879423,-0.206788227,0.727434754,-1.252772808
2.229988098,0.301787317,-0.182307899,-1.11158824,-1.809388995,1.252938867,1.15479815,-0.130552724,0.219516665,0.346369773,-0.211218432,0.734030128,-1.246684313
2.234987259,0.368347943,0.032468796,-1.028186083,-1.984132886,1.270560622,1.287429214,-0.130966067,0.219538882,0.346200794,-0.216420218,0.741009414,-1.240096331
2.239987373,0.474999249,0.332742751,-0.922825158,-2.016144514,1.274805188,1.32704556,-0.133582652,0.217578948,0.346964568,-0.22221531,0.748221457,-1.233857751
2.24499464,2.473812342,2.951053858,-1.155361414,-1.321638823,0.922072768,0.733260095,-0.135019034,0.216439843,0.347438991,-0.234539941,0.753815413,-1.237355828
2.249996662,2.20284462,2.420039177,-1.953913689,0.78866899,0.478513122,1.382838964,-0.136124238,0.215563387,0.34780404,-0.227506936,0.758447826,-1.231746554
2.254993677,0.745373249,1.969730616,-2.343704462,2.283973217,-0.502635539,0.529028594,-0.136490703,0.215272769,0.347925097,-0.21420449,0.752863884,-1.23289597
2.259991646,-0.197483256,0.76896733,-1.732582569,2.980246305,-0.795154274,0.048102383,-0.137394175,0.214365289,0.347537279,-0.198413,0.745859861,-1.234855771
2.264990807,-0.782554984,-0.181809813,-1.290337801,3.130502939,-0.544680893,0.068185836,-0.138320446,0.213374779,0.346923679,-0.180144429,0.740817964,-1.234825492
2.269990683,-1.002488136,-0.648998499,-1.220197797,2.696861744,-0.214677408,0.112964064,-0.139033154,0.212612659,0.346451551,-0.163728744,0.737756133,-1.234009266
2.274991512,-0.930072486,-0.695716381,-1.282593012,1.887602568,-0.037603319,0.047648117,-0.139269471,0.21235995,0.346294999,-0.152385101,0.735455155,-1.234108806
2.279993534,-0.735479176,-0.723512292,-1.323650956,0.92827785,0.018536253,0.007089464,-0.13945131,0.212165505,0.346174568,-0.146476954,0.733465314,-1.234410763
2.284990788,-0.547501147,-0.646296382,-1.31857729,0.099200353,0.055650033,0.0661892,-0.137998834,0.218788683,0.34277758,-0.144639507,0.731893957,-1.234227538
2.289988756,-0.40185225,-0.333660364,-1.329943419,-0.504027486,0.038970973,0.155321658,-0.136881262,0.223884761,0.340163797,-0.146011084,0.730437875,-1.234006286
2.294988632,-0.258874595,0.077726953,-1.368796945,-0.8175053,-0.096605033,0.219017163,-0.1365107,0.225574523,0.339297116,-0.149374068,0.728345931,-1.234045029
2.299988508,-0.13895601,0.379935026,-1.390684843,-0.827844203,-0.306844413,0.256979346,-0.136225566,0.226874694,0.338630289,-0.152908042,0.725206614,-1.234135985
2.304989815,-0.052492533,0.517275274,-1.396063089,-0.606305063,-0.514999449,0.283267587,-0.136023775,0.227477685,0.338530332,-0.155013934,0.721121311,-1.233954906
2.309991598,-0.007084298,0.544845998,-1.400065541,-0.286263078,-0.717429936,0.296376616,-0.135760069,0.228115469,0.338575929,-0.155169055,0.716110885,-1.23344171
2.31498909,0.000622007,0.49794814,-1.402161837,0.010169439,-0.922299623,0.283718854,-0.135672629,0.228326946,0.338591039,-0.153611779,0.71008414,-1.232689142
2.319987297,-0.023273487,0.392986655,-1.386331677,0.222312585,-1.121215701,0.245861843,-0.135605365,0.228489667,0.338602692,-0.150840595,0.703035533,-1.231813192
2.324986458,-0.051466957,0.270014465,-1.358604431,0.332575887,-1.288299799,0.197751522,-0.135583058,0.228543624,0.338606536,-0.147477329,0.695164084,-1.230879426
2.329986334,-0.067865245,0.179637522,-1.326657534,0.342160493,-1.430728555,0.139735535,-0.132269114,0.227058411,0.340759933,-0.144208655,0.686604261,-1.230036616
2.334987164,-0.076126605,0.134756938,-1.287419677,0.282839984,-1.555390716,0.078019731,-0.131170258,0.226565957,0.341473967,-0.14147976,0.677441478,-1.229454994
2.339989424,-0.079921722,0.134318605,-1.239275455,0.205617338,-1.667165279,0.016775858,-0.130324781,0.22618705,0.342023373,-0.139441252,0.667751908,-1.229192019
2.344986677,-0.084814183,0.158725694,-1.194157839,0.146435276,-1.763274431,-0.036139373,-0.13004443,0.226061404,0.342205554,-0.137989402,0.657612741,-1.229254246
2.349985123,-0.088048629,0.191471547,-1.155339956,0.11506141,-1.84383142,-0.088145323,-0.125331506,0.226238802,0.342916667,-0.136920497,0.647085965,-1.229585648
2.354984283,-0.086349264,0.217286527,-1.124088645,0.110567234,-1.909359336,-0.141015351,-0.122655943,0.226365462,0.343293726,-0.136096686,0.636253417,-1.230234504
2.359984398,-0.072461098,0.232974663,-1.106358647,0.127150178,-1.965640187,-0.20141089,-0.120597288,0.226462901,0.343583852,-0.135416314,0.625164986,-1.231227756
2.364985228,-0.039899841,0.237716213,-1.106502891,0.143578604,-2.009165049,-0.26964885,-0.119914673,0.226495206,0.343680054,-0.134865463,0.613877237,-1.232560396
2.369987488,0.007729024,0.231676534,-1.116684079,0.154241681,-2.053673506,-0.351652801,-0.116423234,0.226420999,0.345450312,-0.134512335,0.602390766,-1.234256387
2.374984741,0.079829983,0.231271878,-1.129048467,0.155022427,-2.09831214,-0.444356591,-0.112274423,0.226296499,0.347747803,-0.134461895,0.590743303,-1.236355543
2.379989147,0.153277934,0.241591752,-1.138529062,0.155985236,-2.154500008,-0.536400199,-0.109082192,0.2262007,0.349515557,-0.134694621,0.578855395,-1.23887074
2.384989023,0.211593792,0.258965194,-1.140985131,0.166793123,-2.221880198,-0.622906685,-0.108023711,0.226168931,0.350101709,-0.135131612,0.566665053,-1.241779327
2.389989138,0.250267804,0.273480266,-1.134631991,0.190007195,-2.299202204,-0.702442288,-0.107209288,0.226144493,0.350552708,-0.135661215,0.554097831,-1.245015621
2.394989967,0.268497527,0.27219677,-1.120131254,0.229467139,-2.378699303,-0.764891565,-0.101179682,0.225649714,0.353957951,-0.1360773,0.541146696,-1.248402953
2.399992228,0.261934161,0.249309465,-1.096423864,0.270833075,-2.453213692,-0.808512449,-0.096540302,0.22526902,0.356578052,-0.13627398,0.527821839,-1.251890659
2.404989481,0.243569434,0.212203756,-1.065323353,0.303911388,-2.511888742,-0.837566853,-0.095001973,0.225142777,0.35744682,-0.136246353,0.514222622,-1.255395889
2.409988165,0.222408175,0.160847783,-1.032373786,0.315340132,-2.550714493,-0.85032624,-0.093818329,0.225045651,0.358115286,-0.136049882,0.500463009,-1.258842707
2.414987326,0.203284517,0.102568924,-1.003762245,0.290931135,-2.577919722,-0.850523651,-0.090012014,0.224523559,0.359183878,-0.135824889,0.486598521,-1.262082219
2.41998744,0.19313392,0.055597875,-0.974508047,0.235728651,-2.591346264,-0.836286962,-0.083631389,0.223626494,0.360862434,-0.135742366,0.472731382,-1.265124083
2.424988747,0.194802538,0.025079399,-0.947606564,0.161799386,-2.592324257,-0.812757134,-0.081515692,0.223329037,0.361419022,-0.135914266,0.45893842,-1.267954469
2.429990768,0.197951227,0.013973873,-0.918435693,0.082924388,-2.591252804,-0.777786076,-0.079887815,0.22310017,0.361847281,-0.136355191,0.445221335,-1.270528793
2.434987783,0.205728248,0.012501704,-0.891545892,0.008782708,-2.581587553,-0.737646937,-0.079348043,0.223024279,0.36198929,-0.137050152,0.431640565,-1.272813678
2.439986229,0.213359281,0.019825285,-0.867342591,-0.055892773,-2.564720154,-0.689631402,-0.070442021,0.222879708,0.3631064,-0.137942404,0.418228358,-1.274766684
2.44498539,0.222335905,0.027801607,-0.841277242,-0.107204914,-2.540132761,-0.635377169,-0.067488953,0.222831771,0.363476813,-0.138961241,0.405017614,-1.276404381
2.449985266,0.23304452,0.033388879,-0.818449676,-0.146139085,-2.508599281,-0.577744424,-0.065216772,0.222794876,0.363761812,-0.140041813,0.3920618,-1.277712345
2.454986572,0.245357513,0.036440667,-0.795996666,-0.181562662,-2.470856905,-0.518405497,-0.064463355,0.222782642,0.363856316,-0.141178474,0.379381716,-1.278690815
2.459988594,0.260463089,0.035136599,-0.777251244,-0.214921534,-2.431175947,-0.456406653,-0.056697272,0.220975786,0.365518391,-0.142338514,0.367001235,-1.279217362
2.464985847,0.278554142,0.033389583,-0.75736624,-0.246066466,-2.387388229,-0.397148043,-0.052343898,0.219931901,0.366462797,-0.143542603,0.354939848,-1.279413342
2.469984293,0.303529352,0.04235319,-0.745319128,-0.27914992,-2.346244335,-0.337142676,-0.048994269,0.219128683,0.367189467,-0.144826904,0.343185425,-1.279277086
2.474983692,0.351063997,0.062350873,-0.757774949,-0.315628082,-2.315937281,-0.281190813,-0.047883596,0.218862355,0.367430419,-0.146236047,0.331705868,-1.278819442
2.479983807,0.439804256,0.08154583,-0.783880413,-0.355742395,-2.316204548,-0.254114062,-0.042981923,0.217988163,0.369078428,-0.14783372,0.320387781,-1.278026581
2.484985113,0.544712484,0.088087618,-0.804810464,-0.394511163,-2.360755444,-0.260101467,-0.03727556,0.217023402,0.3710998,-0.149620697,0.309006959,-1.277019739
2.489987373,0.620491326,0.097389273,-0.812511921,-0.423571587,-2.435806513,-0.297398776,-0.032884903,0.216281086,0.372655094,-0.151603937,0.297310114,-1.276058197
2.494984388,0.657111526,0.120029256,-0.808709562,-0.444449067,-2.529596329,-0.352663696,-0.031429045,0.216034949,0.373170793,-0.15379481,0.285147071,-1.275280237
2.499982834,0.655184388,0.139818445,-0.785544753,-0.446988851,-2.623667002,-0.418845534,-0.030308861,0.215845555,0.373567611,-0.156102419,0.272463441,-1.274760246
2.504981995,0.62754631,0.155468717,-0.749976993,-0.445464551,-2.703975916,-0.486958951,-0.022845441,0.214124292,0.373635322,-0.158494532,0.259309113,-1.274501562
2.509982109,0.590934336,0.159797624,-0.704484463,-0.438450694,-2.762641907,-0.547388136,-0.017102847,0.212799907,0.373687416,-0.160904393,0.245807111,-1.274521947
2.514989376,0.556422889,0.162921205,-0.647651732,-0.428754628,-2.793212414,-0.595666826,-0.015198712,0.212360755,0.373704702,-0.163311869,0.23212035,-1.274772286
2.519991636,0.532631695,0.154685959,-0.585753798,-0.427905858,-2.790681124,-0.63984406,-0.013733611,0.212022871,0.373717993,-0.165738016,0.218424276,-1.275217891
2.524988651,0.538879335,0.136888489,-0.52540046,-0.443826199,-2.754132271,-0.675216794,-0.008752259,0.210820496,0.374179512,-0.168269098,0.204963878,-1.275708199
2.529986858,0.56317091,0.118475504,-0.467975914,-0.4694888,-2.690336227,-0.707392097,-0.000373744,0.208792835,0.374996841,-0.170932785,0.191900209,-1.276282191
2.534985781,0.603116691,0.097684436,-0.415402323,-0.497806937,-2.610973358,-0.731602669,0.002404412,0.20812051,0.375267863,-0.173735037,0.179314658,-1.276917219
2.539985895,0.650992692,0.077816494,-0.373720437,-0.540603757,-2.512592077,-0.749399185,0.004542015,0.207603201,0.37547636,-0.176742092,0.167312235,-1.277592659
2.544986963,0.713616908,0.045871463,-0.33230114,-0.596478283,-2.398718596,-0.757345378,0.005250804,0.207431674,0.375545532,-0.179983795,0.15599069,-1.278187752
2.549989223,0.775621057,0.009857115,-0.289933741,-0.659370899,-2.262366533,-0.752154171,0.016190253,0.204611301,0.376159668,-0.183490098,0.145478025,-1.278642535
2.554986238,0.837289155,-0.001660229,-0.253810942,-0.723376036,-2.11175704,-0.734026492,0.019817566,0.203676105,0.376363307,-0.18730557,0.135850981,-1.278990626
2.559984446,0.873764157,0.002770498,-0.21593079,-0.775987685,-1.939784169,-0.693006814,0.022608539,0.202956557,0.376520008,-0.191384569,0.127171397,-1.279215693
2.564983606,0.896078587,-0.001593006,-0.18618156,-0.804745376,-1.739383817,-0.636478662,0.023533972,0.20271796,0.376571953,-0.195555031,0.119582079,-1.279271007
2.569983721,0.917199671,0.006103679,-0.163140059,-0.824861944,-1.508767009,-0.564234495,0.030759728,0.200442106,0.377831876,-0.199808493,0.113254525,-1.279050231
2.574985027,0.947679043,0.047805205,-0.152227744,-0.826435208,-1.263068914,-0.480502009,0.034767482,0.199169725,0.378551543,-0.204106808,0.10829366,-1.278601646
2.579987049,1.022988677,0.086683288,-0.168141857,-0.80824703,-1.024691105,-0.408472568,0.037851181,0.198190719,0.37910527,-0.208349958,0.104722366,-1.277926326
2.584984064,1.144501209,0.098407418,-0.17853421,-0.782414496,-0.828858376,-0.352976352,0.038873672,0.197866097,0.379288882,-0.212431729,0.102367781,-1.276939392
2.589982271,1.265126348,0.09248279,-0.188881427,-0.768615007,-0.66464591,-0.322141349,0.042238023,0.196099639,0.379647672,-0.21642594,0.101027288,-1.275731564
2.594981432,1.366615057,0.116092905,-0.21321328,-0.768213868,-0.547635436,-0.313049346,0.045952827,0.193984509,0.379985988,-0.220467597,0.100390524,-1.274435282
2.599981308,1.469099045,0.172467858,-0.245476976,-0.762575626,-0.4887335,-0.325199932,0.048811115,0.192357063,0.380246311,-0.224611148,0.100161403,-1.273150921
2.604982615,1.553534746,0.227073893,-0.257194459,-0.727063537,-0.482346058,-0.351325542,0.04975887,0.191817433,0.380332619,-0.228668079,0.099997938,-1.2718997
2.609984398,1.585287809,0.269474119,-0.242746413,-0.651803851,-0.493420154,-0.374036759,0.050488103,0.191402227,0.380399048,-0.232390746,0.099761948,-1.270733595
2.614981651,1.551575184,0.299668223,-0.220709205,-0.536908627,-0.499996692,-0.378574282,0.052840352,0.189051032,0.381342113,-0.235564649,0.099397928,-1.269639134
2.619980097,1.449335575,0.294748366,-0.178195432,-0.396933228,-0.478345156,-0.363518059,0.054650251,0.187241957,0.38206774,-0.238002509,0.098966375,-1.26867795
2.624979496,1.323172688,0.258319408,-0.121832758,-0.252216935,-0.401741534,-0.324002355,0.055250376,0.186642095,0.382308364,-0.239630163,0.098767035,-1.267799258
2.62997961,1.20971334,0.198941395,-0.068139233,-0.132611528,-0.2698237,-0.258566111,0.05571213,0.186180532,0.382493496,-0.240558624,0.099153705,-1.266892433
2.634980917,1.131397367,0.13078028,-0.022997232,-0.062109962,-0.085821986,-0.173945844,0.056645192,0.185265452,0.382767469,-0.241038948,0.100473061,-1.265833974
2.639983177,1.097192287,0.08502388,0.008795636,-0.049033746,0.129558325,-0.07381241,0.05815177,0.183790818,0.383193225,-0.241407394,0.102970175,-1.264548779
2.644980431,1.125062585,0.074550271,0.028790075,-0.077141285,0.350590646,0.038123231,0.058651324,0.183301851,0.383334398,-0.241935715,0.10676872,-1.262896061
2.649984837,1.18504405,0.101144038,0.040885895,-0.119154215,0.561212718,0.15419814,0.059035696,0.182925627,0.383443028,-0.242745668,0.111859731,-1.260844946
2.654983997,1.238912106,0.157684833,0.044671558,-0.157878593,0.759150445,0.276842296,0.059163146,0.182800874,0.383479029,-0.243815362,0.118130162,-1.258373022
2.659984112,1.289803863,0.222142011,0.038638368,-0.171087578,0.941307425,0.392026842,0.059717622,0.182162151,0.384089947,-0.245003954,0.125501826,-1.255536795
2.66498518,1.343933582,0.280746818,0.031597663,-0.159942418,1.106752872,0.492246568,0.059901472,0.181950361,0.384292513,-0.246173084,0.133865997,-1.252373099
2.66998744,1.402573705,0.331488848,0.018863117,-0.130902931,1.25443995,0.569821775,0.060042936,0.181787401,0.384448379,-0.247216523,0.143126473,-1.248973012
2.674984455,1.461468697,0.391787112,-0.003066078,-0.098507971,1.391400456,0.623458982,0.060089841,0.18173337,0.384500057,-0.248154476,0.153198496,-1.245478272
2.679983139,1.494770885,0.466763794,-0.021304056,-0.053368688,1.510022163,0.640805066,0.058532286,0.181272119,0.385236919,-0.248993605,0.163880557,-1.242088675
2.6849823,1.201307535,0.598933756,-0.4311077,0.077336371,1.682756662,0.64869684,0.057621479,0.181015313,0.385653764,-0.249376461,0.174698725,-1.239512444
2.689982414,-2.164014816,0.078237399,-2.035720825,-0.06040854,1.84801054,0.670904517,0.056920677,0.180817723,0.385974497,-0.247857258,0.179107115,-1.243414164
2.694983482,-1.39407897,0.771264911,-2.560850382,0.376355737,1.601023197,0.443367183,0.056688301,0.180752203,0.386080831,-0.246928111,0.184173658,-1.246256709
2.699985743,-1.387035728,1.168297887,-3.426476479,1.093668222,1.356418967,0.322947383,0.054471456,0.180833042,0.386795461,-0.241284266,0.187143221,-1.25011301
2.704982758,-2.301383495,1.076333523,-3.320449114,1.533545136,1.584863782,0.264059573,0.051681235,0.180992186,0.387670517,-0.233775228,0.190297097,-1.255773544
2.709981203,-2.605860233,0.803050518,-2.368816614,2.180470705,2.066947937,0.143964365,0.049534351,0.181114644,0.388343811,-0.223340467,0.195088252,-1.262830973
2.714980364,-1.667633533,0.815749824,-1.224523425,2.805394888,2.707928896,0.040936694,0.048822485,0.181155249,0.38856706,-0.210268259,0.205890059,-1.268819213
2.719980478,-1.102392077,0.172596335,-0.680663645,2.816248655,3.78529501,0.076857977,0.048274752,0.181186497,0.388738811,-0.196465358,0.223209515,-1.274175644
2.724981785,0.164242178,-0.437677175,-0.53892529,2.276206255,4.513113022,0.192446202,0.043486439,0.185722753,0.385857701,-0.184572786,0.247050077,-1.276213288
2.729984045,1.32542634,-0.644208848,-0.348676682,1.349385381,4.862589359,0.098077402,0.039802153,0.189213112,0.383640856,-0.178328529,0.274019659,-1.276700854
2.734981298,1.841295838,-0.856117189,-0.595862925,0.616749465,4.989212036,0.061225921,0.038580514,0.19037044,0.382905811,-0.175346315,0.301896155,-1.276891112
2.739979506,2.148799658,-1.120140195,-1.049733996,0.027385429,4.864458561,0.12283884,0.037640549,0.191260919,0.382340223,-0.174475625,0.329130083,-1.275920153
2.744978666,2.16567564,-1.180115461,-1.565359831,-0.401877552,4.469284058,0.283258647,0.031014087,0.1949839,0.381454021,-0.17507793,0.353897512,-1.274033785
2.749978542,2.238329649,-1.145725846,-1.804394722,-0.734007835,3.901747465,0.520220339,0.019530237,0.201314434,0.38006568,-0.176673129,0.37587285,-1.2703228
2.75497961,2.20855999,-1.015292645,-1.693975687,-0.968798101,3.275661945,0.754698038,0.015722409,0.203413516,0.379605323,-0.179019913,0.394699246,-1.264869571
2.759981632,1.916157722,-0.742883027,-1.405845284,-1.224764109,2.745012045,0.924665868,0.012792544,0.205028623,0.379251122,-0.182593271,0.410703301,-1.258773327
2.764978886,1.49099803,-0.313740402,-1.116243362,-1.466012955,2.425205469,0.94920516,0.011821056,0.205564156,0.379133672,-0.188263267,0.424569488,-1.253738642
2.769977093,1.137659192,0.166347444,-0.925003648,-1.654148459,2.249084234,0.865979791,-0.004659567,0.203789949,0.37973994,-0.195897788,0.43723321,-1.250306606
2.774976254,0.922120333,0.742463589,-0.881784141,-1.643907666,2.161296368,0.639717519,-0.01012423,0.203201652,0.379940987,-0.205099687,0.448819607,-1.249566436
2.779976606,1.013682723,1.225533128,-0.90023607,-1.480992317,2.060684204,0.379640043,-0.014328917,0.202748999,0.380095661,-0.214816764,0.459926456,-1.250718713
2.784984112,1.047011018,1.552487254,-0.894302189,-1.202720284,1.929673791,0.130049333,-0.015723111,0.2025989,0.38014695,-0.22413139,0.470044315,-1.253601789
2.789986372,0.947420359,1.599466205,-0.824017406,-0.861184478,1.82824111,-0.047212854,-0.022795487,0.198356599,0.382333934,-0.232115537,0.479207098,-1.257698298
2.794983864,0.80487144,1.347731948,-0.756747901,-0.550055623,1.75362885,-0.121372506,-0.026625179,0.195928738,0.38359049,-0.238128379,0.487852901,-1.261780262
2.799982071,0.686582088,0.896379888,-0.75122869,-0.321562141,1.708314896,-0.104333647,-0.029571868,0.194060653,0.384557337,-0.242000744,0.496209413,-1.265104055
2.804981232,0.709641099,0.479975343,-0.81910342,-0.189923227,1.650342584,-0.005458215,-0.030548934,0.193441227,0.38487792,-0.244182289,0.504540503,-1.267053962
2.809981346,0.815751135,0.253290534,-0.920152426,-0.122863553,1.550727844,0.107544087,-0.034416329,0.191613704,0.385231733,-0.245333657,0.51257956,-1.267821789
2.814982653,0.872967362,0.159725577,-0.955885172,-0.0908847,1.414775729,0.199617594,-0.03884045,0.189645469,0.385457098,-0.245881438,0.520129442,-1.267724991
2.819984913,0.840356767,0.163029537,-0.926805794,-0.083130486,1.293681145,0.241333961,-0.042244509,0.188131034,0.385630488,-0.246342227,0.527038455,-1.267367959
2.824981928,0.732793033,0.257867485,-0.875869393,-0.079256691,1.214009285,0.25193274,-0.043373231,0.18762888,0.385688007,-0.246964678,0.53341186,-1.26722312
2.829980373,0.633117139,0.378943264,-0.846551299,-0.052113127,1.178063393,0.237171486,-0.044241708,0.187242508,0.385732234,-0.247752056,0.539458156,-1.267521858
2.834979296,0.590394437,0.491204768,-0.843931019,0.011255618,1.15890646,0.219669208,-0.049072582,0.186687022,0.384958148,-0.248495415,0.545334399,-1.268211722
2.83997941,0.510209858,0.518324435,-0.84107703,0.11323341,1.144589424,0.224005669,-0.05278961,0.186259598,0.384362519,-0.24867864,0.551013112,-1.268995404
2.844980478,0.476548165,0.505403996,-0.828304768,0.236814767,1.137024641,0.25259307,-0.054022107,0.186117873,0.384165019,-0.248089239,0.556680441,-1.269584894
2.849982738,0.533467114,0.391764075,-0.811727464,0.332228482,1.13418448,0.299596608,-0.054970428,0.186008826,0.384013057,-0.246590361,0.562544107,-1.269519806
2.854979753,0.593177795,0.27961272,-0.822112978,0.387000471,1.118747115,0.325307369,-0.057045303,0.1862275,0.382929802,-0.244498998,0.568460464,-1.269000649
2.859977961,0.702755153,0.166220769,-0.848629594,0.403363556,1.07912755,0.329721242,-0.060421851,0.18665345,0.381051928,-0.24212867,0.574320376,-1.268121243
2.864977121,0.716720402,0.034791414,-0.865437448,0.371231973,1.027877092,0.318604112,-0.061541449,0.186794683,0.380429268,-0.23963201,0.579911053,-1.266939878
2.869977236,0.699549675,-0.013474111,-0.883378744,0.310478538,0.972554028,0.283946991,-0.062402904,0.186903358,0.379950166,-0.237490982,0.585107327,-1.265919924
2.874978304,0.695194006,-0.044324208,-0.899936438,0.232759058,0.926476419,0.2395197,-0.062688544,0.186939389,0.379791319,-0.235800534,0.590032279,-1.265021324
2.879980564,0.70288527,-0.036533989,-0.929968357,0.151709825,0.877649844,0.184114099,-0.066603139,0.188990667,0.379424959,-0.234707028,0.594590187,-1.264498472
2.884977818,0.712630093,-0.009245765,-0.93660301,0.078906447,0.827198684,0.141073614,-0.067901142,0.189670831,0.379303485,-0.23412998,0.598861396,-1.2641747
2.889976025,0.696674764,0.035115562,-0.908141613,0.004649852,0.789446533,0.109034725,-0.06889987,0.190194175,0.379210025,-0.234106526,0.602910101,-1.264066219
2.894975185,0.662261963,0.085773669,-0.90057528,-0.046984609,0.756906867,0.072724804,-0.069231033,0.190367699,0.37917906,-0.234532282,0.606691241,-1.264287949
2.899975538,0.629270017,0.125389725,-0.880974531,-0.08721257,0.729611874,0.033452496,-0.071767122,0.191094324,0.37820071,-0.235345647,0.610251069,-1.26483047
2.904976606,0.661111474,0.127457738,-0.892053187,-0.127843305,0.69695133,-0.005090677,-0.073172554,0.191482022,0.377640098,-0.236453608,0.613663137,-1.265510678
2.909978628,0.665996194,0.09089718,-0.873994112,-0.167271659,0.663759232,-0.033982322,-0.074253932,0.191780329,0.37720874,-0.237740397,0.616887689,-1.266213417
2.914975643,0.673255086,0.074115768,-0.861256242,-0.220628232,0.635862887,-0.058562044,-0.074612498,0.191879228,0.377065718,-0.239344612,0.619978249,-1.26697886
2.919979811,0.693282723,0.089886509,-0.851945698,-0.272569388,0.599738359,-0.088786192,-0.076101743,0.19171904,0.376767308,-0.241347507,0.622886896,-1.267901659
2.924978971,0.682306767,0.119782902,-0.832773864,-0.312167823,0.563447297,-0.115059786,-0.077813946,0.191427514,0.376594037,-0.243693963,0.625554085,-1.269026399
2.929978848,0.656252146,0.154036582,-0.808379412,-0.336677998,0.534270763,-0.125110418,-0.079131372,0.191203207,0.376460701,-0.246252537,0.628044486,-1.270259857
2.934980154,0.632071853,0.187434226,-0.796839535,-0.347627163,0.507225811,-0.124190077,-0.079568207,0.19112882,0.376416504,-0.2488873,0.630369365,-1.271535158
2.939982176,0.626399398,0.212901816,-0.78504169,-0.34261027,0.484545976,-0.116834782,-0.079904318,0.1910716,0.3763825,-0.251500636,0.63259691,-1.272777081
2.944979429,0.624930441,0.227427244,-0.775579512,-0.325711906,0.462471932,-0.103805296,-0.081987679,0.190076262,0.376420587,-0.253974676,0.63473314,-1.273935795
2.949977636,0.629559875,0.223949179,-0.774333954,-0.306490868,0.438100189,-0.09209682,-0.083590686,0.189310402,0.376449883,-0.256256074,0.636768878,-1.274962187
2.954977036,0.637042344,0.236092806,-0.770548999,-0.287463337,0.412897885,-0.078318566,-0.084122218,0.189056456,0.376459599,-0.258411705,0.638708949,-1.275894642
2.95997715,0.62087065,0.252187699,-0.766221821,-0.266746253,0.389396518,-0.062479872,-0.084531188,0.188861057,0.376467079,-0.26043734,0.640525937,-1.276754856
2.964978456,0.611049116,0.26265493,-0.765001059,-0.242320791,0.373218864,-0.048135631,-0.085593805,0.188209832,0.376556754,-0.262273163,0.642262995,-1.277541161
2.969980717,0.606933773,0.267667741,-0.755944788,-0.21321696,0.356699467,-0.031253945,-0.087348767,0.187115788,0.376713932,-0.263907403,0.643941104,-1.278217554
2.97497797,0.593969166,0.27100414,-0.757564425,-0.18759492,0.33864513,-0.013346285,-0.087930679,0.18675302,0.376766056,-0.26533559,0.645525813,-1.278781176
2.979976177,0.607342839,0.260394931,-0.751914144,-0.161475644,0.322992146,0.005490794,-0.088378429,0.186473906,0.37680617,-0.266514897,0.6471017,-1.279159307
2.9849751,0.611133456,0.24524428,-0.760255694,-0.146682844,0.311261117,0.025910828,-0.088526897,0.186381355,0.376819462,-0.26750645,0.648639381,-1.279361248
2.989974976,0.607154548,0.240597963,-0.767324448,-0.129650071,0.300206184,0.04187876,-0.090234458,0.185452729,0.37555331,-0.268340796,0.650129616,-1.279469967
2.994976044,0.609845281,0.238975778,-0.76676333,-0.104710206,0.294076592,0.051304393,-0.090800658,0.185144812,0.375133485,-0.268999755,0.651605725,-1.279504895
2.999978304,0.61524123,0.242175534,-0.764926553,-0.081649259,0.290368438,0.057209913,-0.091236308,0.184907898,0.374810457,-0.269539624,0.653090835,-1.279509783
3.004975319,0.619589865,0.250758588,-0.759697199,-0.051593363,0.28539139,0.055863444,-0.09138076,0.184829339,0.374703348,-0.269951403,0.654549003,-1.27953732
3.009973526,0.612299263,0.25568974,-0.76472801,-0.023042692,0.276348114,0.056902461,-0.091872789,0.184415668,0.374026656,-0.270203859,0.655942202,-1.279574633
3.014972687,0.612928629,0.268389702,-0.759036779,0.001276306,0.266208172,0.059758231,-0.092130184,0.184191093,0.3736552,-0.270360619,0.6572842,-1.279595137
3.019972801,0.619387448,0.268695742,-0.752753913,0.026620165,0.252715558,0.06592197,-0.092328236,0.184018299,0.373369396,-0.270334423,0.65859127,-1.279530764
3.024973869,0.612942159,0.276821971,-0.749110401,0.043727562,0.246692434,0.075866871,-0.092393905,0.183961004,0.373274624,-0.270216137,0.659872234,-1.279421091
3.02997613,0.596204579,0.338093013,-0.757460296,0.084700182,0.237263441,0.088877134,-0.093133226,0.183906272,0.373746753,-0.269974828,0.661069453,-1.27939558
3.034973145,0.593497574,0.326294065,-0.719588935,0.1399097,0.234333098,0.116640903,-0.09407296,0.183877379,0.374452978,-0.269287854,0.662344456,-1.27911818
3.039971352,0.605144858,0.269551009,-0.737094164,0.177312583,0.221408367,0.142369837,-0.094796017,0.183855161,0.374996364,-0.268154025,0.663606524,-1.278500199
3.044970512,0.591658294,0.257536411,-0.75511837,0.207140878,0.214290783,0.164736837,-0.095035769,0.183847785,0.375176549,-0.266773552,0.664801896,-1.277770042
3.049970627,0.593781888,0.304311663,-0.744202495,0.253577709,0.203946188,0.186745763,-0.095220245,0.183842108,0.375315189,-0.265194356,0.665984452,-1.276993513
3.054977894,0.597218335,0.355864078,-0.732038617,0.31441775,0.197964773,0.214820325,-0.095817722,0.184200674,0.374816835,-0.263321787,0.667187691,-1.276155233
3.059979916,0.594297171,0.374829441,-0.728954613,0.376877815,0.181618154,0.255162328,-0.096277431,0.184476584,0.374433398,-0.260976285,0.668342948,-1.275054932
3.064977407,0.588414311,0.362029016,-0.738190234,0.44130531,0.158984751,0.30272913,-0.096429862,0.184568062,0.374306291,-0.258031845,0.66943109,-1.273571253
3.069975615,0.586154461,0.348908842,-0.74196434,0.495713741,0.136506632,0.346526325,-0.096547149,0.184638456,0.37420848,-0.254590452,0.670446455,-1.271736503
3.074974775,0.589196205,0.338564366,-0.740369499,0.555570722,0.119796179,0.373837352,-0.096674658,0.185288146,0.373170048,-0.250730008,0.671424508,-1.269710541
3.079974651,0.60187757,0.308116972,-0.741896033,0.590896964,0.114158534,0.401727676,-0.096862383,0.186421394,0.371353835,-0.246504784,0.672432184,-1.267439842
3.084975958,0.609254539,0.273305207,-0.740918934,0.607385218,0.109587453,0.417229772,-0.096924625,0.186797157,0.370751619,-0.242100269,0.673460603,-1.264979362
3.089978218,0.619008422,0.240262136,-0.740795195,0.612582088,0.101176858,0.430887371,-0.096972525,0.187086284,0.370288253,-0.237535343,0.67445904,-1.262344122
3.094975471,0.613597155,0.230165586,-0.746618748,0.607695282,0.094974265,0.44550702,-0.096988402,0.187182158,0.370134592,-0.23294504,0.675429761,-1.259614825
3.099973679,0.61289829,0.222135916,-0.745238066,0.600280225,0.089015409,0.456552625,-0.096651331,0.190135658,0.368659884,-0.228335068,0.676369905,-1.256811261
3.104972839,0.62443924,0.21296519,-0.743220925,0.592378676,0.084775865,0.470236897,-0.096539564,0.191114992,0.368170917,-0.223687515,0.677313685,-1.253860354
3.109972715,0.634935737,0.196307823,-0.741327286,0.577141881,0.084356129,0.469780713,-0.096453577,0.191868514,0.367794663,-0.219096318,0.678270876,-1.250880599
3.114974022,0.639851928,0.163283154,-0.750204742,0.554551244,0.082319878,0.464814037,-0.096425056,0.192118376,0.36766991,-0.214564666,0.679203749,-1.247860432
3.119976044,0.640874326,0.142778188,-0.748541653,0.526986241,0.074486099,0.461336076,-0.095902376,0.194584101,0.367593497,-0.210136712,0.680093288,-1.24480772
3.124973297,0.63756597,0.132623896,-0.751774132,0.489419401,0.071562305,0.45056957,-0.09560515,0.195964277,0.367572993,-0.205911443,0.680922687,-1.241805911
3.129971743,0.643861473,0.114266761,-0.75103116,0.443373531,0.071348272,0.435004771,-0.095376454,0.197026223,0.367557228,-0.201972276,0.681751907,-1.238868356
3.13497138,0.640337706,0.09760081,-0.75655812,0.394945771,0.072351761,0.411429077,-0.095300622,0.197378337,0.367551982,-0.198327988,0.682539701,-1.236042142
3.139971495,0.63400948,0.091550045,-0.765520036,0.342624336,0.08178556,0.385707647,-0.09511625,0.198564097,0.367034823,-0.195075214,0.683323622,-1.233445644
3.144972563,0.626191854,0.092272356,-0.772101581,0.299182236,0.096957304,0.368700653,-0.094928034,0.199879766,0.366345912,-0.192095742,0.684147716,-1.230970025
3.149974823,0.624241531,0.108439237,-0.77444464,0.261806965,0.110488877,0.350630492,-0.094783209,0.200892091,0.365815848,-0.18945165,0.68501848,-1.228689671
3.154971838,0.605010092,0.13202697,-0.778389752,0.240094945,0.130584002,0.340439141,-0.09473519,0.201227754,0.365640074,-0.186998725,0.685926974,-1.226557612
3.159970045,0.59224546,0.146232009,-0.782422066,0.232513726,0.151141062,0.335141093,-0.094698243,0.201486021,0.365504831,-0.184616134,0.686911166,-1.224531054
3.164968967,0.604534745,0.150790691,-0.781728148,0.212772965,0.170203596,0.336941004,-0.094366372,0.203081265,0.364775926,-0.182360291,0.688000202,-1.222489595
3.169969082,0.613686025,0.139437869,-0.780387104,0.199902251,0.189011037,0.338726401,-0.094111018,0.204308689,0.364215046,-0.180118531,0.6892066,-1.220413923
3.17497015,0.621865153,0.12959455,-0.7809515,0.179616764,0.207342461,0.334979862,-0.094026349,0.204715669,0.36402908,-0.177991629,0.690504789,-1.218350887
3.17997241,0.629530907,0.117127337,-0.780652702,0.160004541,0.220655248,0.334877521,-0.093961202,0.205028817,0.363885999,-0.175942227,0.691867769,-1.216261983
3.184969425,0.62490052,0.120413765,-0.772860706,0.132736474,0.231581792,0.33209005,-0.09391661,0.205614239,0.362988383,-0.174081594,0.69327563,-1.214238405
3.189973831,0.619994998,0.129784361,-0.776711226,0.111305125,0.250700831,0.331641465,-0.093859039,0.206551656,0.361438036,-0.172362819,0.6947577,-1.212274551
3.194972992,0.611138344,0.141066551,-0.785474122,0.085843004,0.270965546,0.34077543,-0.093839951,0.206862494,0.360923976,-0.170762867,0.696324229,-1.210296988
3.199973106,0.591274559,0.163473189,-0.795588672,0.086394452,0.299521297,0.350531697,-0.093825266,0.207101643,0.360528439,-0.169182748,0.697990894,-1.208380461
3.204974174,0.586936295,0.198705792,-0.799156189,0.120610595,0.337517977,0.363159299,-0.093820393,0.207180947,0.360397309,-0.167471066,0.699840903,-1.206514597
3.209976435,0.591760576,0.171744958,-0.806600809,0.139944136,0.375646323,0.374940634,-0.093381099,0.208183214,0.360935807,-0.165499285,0.701893985,-1.204509258
3.21497345,0.614989519,0.134497702,-0.810151994,0.136608437,0.403863251,0.390560657,-0.093235441,0.20851554,0.361114353,-0.163424119,0.704131246,-1.202303886
3.219971657,0.639326036,0.118765771,-0.802585602,0.109748818,0.433373749,0.394849926,-0.093123361,0.208771229,0.361251742,-0.161469251,0.706556559,-1.200013638
3.224971056,0.633901238,0.106003642,-0.820752382,0.077488609,0.472295523,0.385793656,-0.093086198,0.208856016,0.36129728,-0.159744695,0.709113717,-1.197874069
3.22997117,0.614407182,0.09271317,-0.829055309,0.033722468,0.518997312,0.380978882,-0.09359289,0.209229976,0.360678434,-0.158238068,0.711867452,-1.195785046
3.234972477,0.610986054,0.116729796,-0.831653535,0.021887669,0.570822239,0.374370277,-0.093893357,0.209430352,0.360311449,-0.156944454,0.714854121,-1.193884015
3.239974499,0.60393095,0.092234321,-0.855629861,0.000435682,0.6419487,0.362361252,-0.094124541,0.209584534,0.360029101,-0.155697495,0.718153894,-1.192093253
3.244971752,0.604170203,0.079142496,-0.866835475,-0.059102807,0.714788437,0.343914121,-0.0942012,0.20963566,0.359935462,-0.154900506,0.721795857,-1.190449834
3.249969959,0.624213457,0.085074574,-0.877437115,-0.120362192,0.792669415,0.31278494,-0.094761014,0.21014303,0.359586418,-0.154640794,0.725809336,-1.189128757
3.25496912,0.614770055,0.104362026,-0.867901027,-0.140292764,0.881448507,0.289940536,-0.095451683,0.210783228,0.359191358,-0.154702291,0.730221927,-1.188107371
3.259968996,0.630069375,0.058496542,-0.894771636,-0.159710243,0.985289216,0.258593827,-0.09598311,0.211275816,0.358887374,-0.154827818,0.735137999,-1.187282801
3.264970303,0.63678807,0.016777387,-0.909450889,-0.237893611,1.090678334,0.218736112,-0.096159317,0.211439148,0.358786613,-0.155549169,0.740546584,-1.18672967
3.269972563,0.641212165,0.053366981,-0.908613741,-0.30307731,1.196452618,0.177021146,-0.096294902,0.211564824,0.358709067,-0.157042876,0.746425509,-1.186698675
3.274969816,0.636951327,0.075146645,-0.904908478,-0.326749414,1.317448378,0.144818172,-0.098268323,0.211371645,0.356686115,-0.158918411,0.75286448,-1.187134624
3.279968023,0.635870218,0.03126834,-0.928095639,-0.379153401,1.437142968,0.113436311,-0.099786736,0.211223021,0.3551296,-0.16111654,0.759848833,-1.187791228
3.284967184,0.642661095,0.045938224,-0.923364639,-0.417228103,1.551373482,0.088888831,-0.100290217,0.211173743,0.354613513,-0.163824439,0.76735878,-1.188792229
3.289967299,0.630012453,0.07238511,-0.922715127,-0.430972219,1.691040039,0.05921784,-0.100677602,0.21113582,0.354216427,-0.166913792,0.775508523,-1.190308213
3.294968605,0.644185483,0.056384422,-0.929204583,-0.484854728,1.830727577,0.034005232,-0.102368288,0.210722238,0.354213446,-0.170510396,0.784335494,-1.192160845
3.299970865,0.646552026,0.076305479,-0.946954608,-0.535370231,1.960586667,0.019760324,-0.105248809,0.209998518,0.354341269,-0.17466104,0.793742061,-1.194391251
3.30496788,0.639673471,0.108142667,-0.940891802,-0.557212949,2.108895779,0.01376709,-0.106203936,0.20975855,0.354383677,-0.179226369,0.803842664,-1.197025418
3.309966087,0.667737842,0.113414347,-0.977081954,-0.568849027,2.262626648,0.01648541,-0.106938839,0.20957391,0.354416311,-0.184018463,0.814664841,-1.1999259
3.314965248,0.631187201,0.083468646,-0.994065762,-0.607768834,2.42739296,0.029443469,-0.107182518,0.209512696,0.354427129,-0.18905732,0.826204121,-1.203019023
3.319965363,0.59325242,0.116531432,-1.016774416,-0.658726692,2.613580704,0.027884977,-0.114801846,0.207500488,0.352480173,-0.194805488,0.838566959,-1.206715822
3.324973106,0.607893646,0.160840392,-1.005714417,-0.69317776,2.81117487,0.039259914,-0.117328271,0.206833273,0.351834595,-0.201162726,0.851913333,-1.210910916
3.329976082,0.579608798,0.179012403,-1.031278491,-0.712916493,3.040060759,0.064152583,-0.11927218,0.206319913,0.35133788,-0.207886785,0.86630857,-1.21551311
3.334974051,0.584187508,0.141538918,-1.062262177,-0.758990645,3.293238401,0.087698333,-0.119916745,0.206149682,0.351173192,-0.215108484,0.881920099,-1.220479488
3.339972019,0.586644709,0.139689535,-1.133078218,-0.810079098,3.564759016,0.110110708,-0.127012417,0.20408982,0.348168075,-0.223045126,0.898734391,-1.226142168
3.34497118,0.531006575,0.156896904,-1.191198826,-0.838969946,3.887904406,0.146579042,-0.130998313,0.202929497,0.346459359,-0.231669649,0.916991293,-1.23255825
3.349971533,0.487373263,0.220193401,-1.253090739,-0.850318789,4.214049816,0.178414702,-0.134065211,0.202036694,0.3451446,-0.241250515,0.936682165,-1.240135908
3.354972363,0.442352057,0.284869522,-1.288698554,-0.846840918,4.566884995,0.254965663,-0.135082141,0.201740652,0.344708651,-0.251491606,0.957961082,-1.248590231
3.359974623,0.357348263,0.357691884,-1.326819539,-0.860086977,4.978072643,0.39180693,-0.141146943,0.20026271,0.341488183,-0.262302607,0.981217563,-1.257776022
3.364971876,0.306432605,0.456179172,-1.390709281,-0.90407753,5.434782982,0.584495723,-0.148484617,0.198511988,0.337511033,-0.273792267,1.006713867,-1.267516375
3.369970083,0.276748896,0.485254288,-1.396399856,-0.963674903,5.9413867,0.790627718,-0.154130474,0.197164923,0.334450901,-0.286117792,1.034834385,-1.277699828
3.374969244,0.310531467,0.566809595,-1.42009747,-0.980355859,6.481988907,1.041156769,-0.156002522,0.196718261,0.333436221,-0.298943043,1.065853715,-1.288375497
3.379969597,0.384756118,0.593873262,-1.424241304,-0.97595948,6.982950687,1.227047563,-0.157442942,0.196374595,0.332655489,-0.313099325,1.099472404,-1.300333261
3.384970665,0.591597319,0.683718383,-1.408594131,-0.853562951,7.351741791,1.387871265,-0.170035318,0.195092067,0.323394567,-0.328483254,1.135066509,-1.314184308
3.389972925,1.591333747,0.801146448,-1.590096712,-0.73541683,7.531682968,1.630583048,-0.179724306,0.194105253,0.316268921,-0.343703449,1.172161818,-1.328113556
3.394970655,1.766270995,0.727446973,-1.595974088,-0.573629141,7.578333378,1.785353184,-0.182936981,0.193778038,0.313906193,-0.358053476,1.209292769,-1.34158659
3.399968863,1.814227939,0.628022015,-1.446827888,-0.4388583,7.733710766,2.086249113,-0.185408935,0.193526283,0.312088221,-0.372262388,1.248030782,-1.355561256
3.404968023,1.986692071,0.381269455,-1.758171558,-0.803647161,7.697172165,2.287255526,-0.194323912,0.19380933,0.303039491,-0.384452939,1.286521673,-1.365455508
3.409968138,2.391723156,1.003857732,-1.978804946,-0.678978503,7.397629738,2.273682833,-0.209369019,0.194397762,0.287536949,-0.403654814,1.322413683,-1.383742213
3.414969444,2.047527552,1.113287568,-1.80704236,-0.288019389,7.22654438,2.559319019,-0.214357704,0.194592878,0.282396615,-0.418143958,1.357919097,-1.399660349
3.419971466,1.988919139,1.307858825,-1.824886799,0.01680021,7.171975613,2.532859802,-0.218196154,0.194742993,0.278441489,-0.436592758,1.392903328,-1.4213413
3.424969196,2.151008368,1.268051147,-1.802433372,0.271526664,7.050766945,2.508593798,-0.219468907,0.194792777,0.277130008,-0.465240955,1.427099347,-1.454513311
3.429967403,2.507586718,1.212273836,-1.853046417,0.609464705,6.752558708,2.534224272,-0.235639706,0.199627325,0.252581656,-0.498300403,1.459977269,-1.49383688
3.434966564,2.383103609,1.041823864,-1.737336993,0.898479402,6.334636211,2.534466028,-0.241001636,0.201230362,0.244441882,-0.54212606,1.490571737,-1.545251131
3.439966679,2.112247944,0.959362507,-1.490112662,1.248054028,6.029610157,2.531518221,-0.24512729,0.202463806,0.238178894,-0.625919342,1.520073056,-1.637830377
3.444967985,1.685028672,0.695545733,-1.344028592,1.491272211,5.622916222,2.523516893,-0.246495277,0.202872783,0.236102194,-0.859914303,1.547221422,-1.881640673
3.449970245,1.148522139,0.331151754,-1.346830606,1.387983084,4.997338295,2.440427065,-0.253837466,0.20978266,0.215665027,-2.443477869,1.561410427,2.808838606
3.454967737,0.406072617,-0.066487357,-1.391155124,0.85547471,4.16340971,2.528776646,-0.257828385,0.213705838,0.204226598,2.88290453,1.544806361,1.846264958
3.459972143,0.802834392,0.201806605,-1.316249728,0.458463758,3.59922719,2.380573511,-0.260899127,0.21672447,0.19542551,2.703078985,1.526326895,1.662577033
3.464971304,2.942053795,-0.254399836,-1.791586041,-0.356739044,3.133729219,1.420537472,-0.261917293,0.217725396,0.192507237,2.691351891,1.512249231,1.650611997
3.469971418,2.679996967,-0.033965833,-2.042930365,-1.197106242,2.284729958,1.18497467,-0.263747245,0.222155362,0.181829244,2.658988476,1.50335741,1.622015476
3.474972486,1.297380686,0.432016581,-1.801785946,-1.566562414,1.62226975,1.027932525,-0.26540935,0.227314815,0.169785246,2.629555464,1.497362971,1.598052382
3.479974985,0.452370375,0.657220602,-1.51770556,-1.60927856,1.164984345,0.806296527,-0.266688198,0.231284648,0.160518199,2.61019063,1.493323207,1.584351063
3.484972477,0.197742939,0.661342084,-1.360632777,-1.55160892,0.853287458,0.622005224,-0.267112255,0.232600972,0.157445431,2.59458971,1.490768433,1.574157596
3.489970922,0.200293005,0.596761644,-1.271776557,-1.517485976,0.623719335,0.506374121,-0.267438531,0.233613789,0.155081138,2.57753849,1.489209533,1.562507391
3.494969845,0.22606425,0.58049196,-1.196432829,-1.451143861,0.419387698,0.44302845,-0.26673004,0.234391853,0.154441491,2.558135271,1.488503933,1.54827404
3.499969959,0.258914441,0.626821697,-1.139030814,-1.321947694,0.195512712,0.360580862,-0.266184896,0.234990537,0.15394932,2.537311554,1.48887825,1.531926632
3.504971027,0.209880561,0.672804892,-1.079105735,-1.139731288,-0.062525019,0.231557697,-0.266004145,0.235189036,0.153786123,2.516237497,1.490687847,1.514399529
3.509973288,0.079978704,0.674850404,-1.024431825,-0.92500788,-0.317462236,0.083139904,-0.265865058,0.235341772,0.153660566,2.493848085,1.493878961,1.494524717
3.514970541,-0.045132026,0.643167019,-0.986361206,-0.695657909,-0.542795599,-0.075089082,-0.265287161,0.234637707,0.154117465,2.469845772,1.498310566,1.471983552
3.519968987,-0.102231674,0.602121651,-0.966078579,-0.45389986,-0.739343107,-0.247981876,-0.264304817,0.233332857,0.154973105,2.444413185,1.503928542,1.44686389
3.524968147,-0.122457497,0.547122121,-0.95225215,-0.206945732,-0.924236655,-0.437735349,-0.263979077,0.232900202,0.155256823,2.416906118,1.510745645,1.418488741
3.5299685,-0.141427338,0.47129482,-0.93509233,0.022225522,-1.099917531,-0.633793712,-0.26372844,0.23256731,0.155475125,2.384411812,1.518722653,1.384060025
3.534969568,-0.164595976,0.38229838,-0.920708656,0.199498087,-1.262024641,-0.836662829,-0.263645351,0.232456923,0.1555475,2.342251301,1.527788281,1.339205742
3.539971828,-0.167502776,0.293728441,-0.915560901,0.330316693,-1.418987274,-1.030913472,-0.262328386,0.229290947,0.160442948,2.276813269,1.537871242,1.270570278
3.54496932,-0.138519809,0.21906437,-0.920253217,0.422305644,-1.594544411,-1.208636045,-0.261891693,0.228241161,0.162066191,2.139788151,1.548809767,1.12995255
3.549967289,-0.094095148,0.155330896,-0.929942906,0.483427405,-1.787007809,-1.369622231,-0.261555701,0.227433428,0.163315177,1.68665576,1.559407711,0.672959268
3.55496645,-0.045337707,0.103572182,-0.944729865,0.52353996,-2.000374317,-1.506426334,-0.2614443,0.227165595,0.16372931,0.329179108,1.559856176,-0.688579261
3.559966564,0.013076796,0.053772863,-0.964762449,0.544991732,-2.23922801,-1.618121982,-0.260406137,0.223641708,0.169408202,-0.198271289,1.547050118,-1.220137835
3.564967394,0.078922503,0.001997394,-0.984034777,0.548676372,-2.504999161,-1.702484846,-0.259826213,0.22165224,0.172617629,-0.336584568,1.530953169,-1.362567186
3.569969654,0.139207959,-0.04765965,-0.995246828,0.537411273,-2.786238909,-1.77040863,-0.259379983,0.220121488,0.175087065,-0.388403833,1.513108134,-1.418445706
3.574967146,0.188081875,-0.076897949,-0.996023118,0.510737956,-3.074934959,-1.817281604,-0.259232044,0.219613925,0.175905883,-0.409530818,1.493784308,-1.443481684
3.579965115,0.220580831,-0.089801759,-0.989566863,0.485375226,-3.350958347,-1.845274091,-0.258488476,0.216822147,0.17992799,-0.417099446,1.473147154,-1.454755425
3.584964275,0.232958511,-0.086827077,-0.975036025,0.476818115,-3.605784178,-1.851855874,-0.257606953,0.213475078,0.18468219,-0.417675793,1.451376319,-1.458956599
3.58996439,0.233139977,-0.075739518,-0.954359829,0.494116008,-3.834657192,-1.827452898,-0.256928682,0.210899726,0.188340217,-0.413644582,1.42866075,-1.458640814
3.594971657,0.22934559,-0.068521477,-0.945085049,0.533592403,-4.030887127,-1.777189493,-0.256703764,0.2100458,0.189553156,-0.40649277,1.405190825,-1.455413222
3.599974155,0.240366146,-0.060908806,-0.941632986,0.577676475,-4.20234251,-1.708351016,-0.256530732,0.209388748,0.190486431,-0.397213697,1.381108999,-1.450254202
3.604971886,0.261907697,-0.067088358,-0.936560988,0.626426518,-4.355497837,-1.621750474,-0.253046304,0.204485103,0.201574847,-0.386168301,1.356527925,-1.443385363
3.609970093,0.30023092,-0.071568258,-0.937311649,0.672397673,-4.502589703,-1.527248621,-0.250365287,0.200712085,0.210106626,-0.373853773,1.331479073,-1.435429096
3.614969254,0.368496329,-0.065795779,-0.943917334,0.711434424,-4.65478754,-1.429335475,-0.249476328,0.199461028,0.212935597,-0.360732913,1.30589962,-1.426792741
3.619969368,0.448224843,-0.060067106,-0.955968022,0.742601573,-4.820890903,-1.328655362,-0.24879232,0.198498428,0.215112299,-0.346865177,1.279727817,-1.417487025
3.624970198,0.528703988,-0.055359997,-0.958366871,0.768714964,-4.993583202,-1.230703354,-0.244375169,0.196309701,0.221840084,-0.332608938,1.252919912,-1.407653332
3.629972458,0.59266144,-0.049478006,-0.956770539,0.784536719,-5.170549393,-1.137306571,-0.236739367,0.19273521,0.233089671,-0.31823945,1.225440145,-1.397620559
3.634969711,0.643149555,-0.042123329,-0.95271945,0.792378724,-5.343751907,-1.047878981,-0.234207481,0.191549972,0.236819834,-0.303978026,1.197306871,-1.387612462
3.63996768,0.675930023,-0.041338816,-0.940927446,0.788544416,-5.508111477,-0.958774507,-0.232259363,0.190638021,0.239689931,-0.289907217,1.168550491,-1.377620101
3.644966602,0.692575812,-0.047286104,-0.925144494,0.773115158,-5.657785892,-0.876100361,-0.231613398,0.190335631,0.240641609,-0.276260674,1.139219046,-1.367751837
3.649966955,0.696801543,-0.058363017,-0.905654609,0.740698516,-5.78542614,-0.802067041,-0.216973439,0.188346565,0.255972385,-0.263210922,1.109409451,-1.358070493
3.654967785,0.691653967,-0.074195169,-0.887171984,0.686281979,-5.882010937,-0.741984785,-0.212119102,0.187687039,0.261055768,-0.251043111,1.079250216,-1.348888278
3.659970045,0.696675181,-0.092393279,-0.872136533,0.608453572,-5.95343256,-0.697210312,-0.208384022,0.18717958,0.264967084,-0.239953935,1.048852563,-1.340288401
3.66496706,0.715245366,-0.094733715,-0.860413671,0.51187855,-5.996024132,-0.675272644,-0.207145542,0.187011316,0.266264021,-0.230224982,1.01832974,-1.332491875
3.669965506,0.735608816,-0.075051792,-0.849365056,0.409586012,-6.017184258,-0.662968576,-0.192360207,0.186444178,0.276193738,-0.221904248,0.987774014,-1.325360298
3.674964428,0.755102515,-0.038919095,-0.838524282,0.32075882,-6.018164635,-0.658158839,-0.184034809,0.186147824,0.281696439,-0.214888901,0.957272232,-1.319056153
3.679964781,0.779281735,0.003992823,-0.83732307,0.257419229,-6.002025604,-0.664123893,-0.177628979,0.185919791,0.285930395,-0.208978713,0.9269135,-1.313562274
3.684965849,0.821024835,0.044627324,-0.845539987,0.216775388,-5.978296757,-0.681495965,-0.175504923,0.185844183,0.287334293,-0.204013184,0.896713972,-1.308832169
3.689968109,0.874676108,0.078015134,-0.864845812,0.203231737,-5.950405121,-0.70701915,-0.165051773,0.18570824,0.29212147,-0.199783251,0.866707087,-1.304697275
3.694965601,0.929854333,0.101932436,-0.887649953,0.204089358,-5.934336662,-0.743849397,-0.152692825,0.185584754,0.297446847,-0.196112469,0.836817324,-1.301094294
3.699963808,0.982462049,0.123670235,-0.905815661,0.210521817,-5.92428875,-0.79088217,-0.143183455,0.185489729,0.301544368,-0.192972034,0.807005107,-1.298112392
3.704962969,1.049292088,0.131832823,-0.928489029,0.221655458,-5.924247742,-0.856239915,-0.140030324,0.185458228,0.302903026,-0.190329105,0.777248502,-1.29573977
3.709963083,1.106076837,0.121110596,-0.946353972,0.234260693,-5.931424141,-0.933656693,-0.137604207,0.185433984,0.303948432,-0.188097253,0.747481763,-1.293901324
3.714964151,1.141176581,0.111981004,-0.964216888,0.235491529,-5.936908245,-1.018639565,-0.122703925,0.184478104,0.307886451,-0.186324909,0.717692912,-1.292549014
3.719966173,1.164388537,0.097339734,-0.987498343,0.223770246,-5.927292347,-1.117681861,-0.111239173,0.183742628,0.310916483,-0.185077086,0.687935352,-1.291869998
3.724963665,1.187526703,0.086742967,-1.015330911,0.199950472,-5.902678967,-1.220427394,-0.107437678,0.183498755,0.311921179,-0.184376612,0.658294976,-1.291859269
3.729967594,1.21816504,0.072343618,-1.052848339,0.185478806,-5.870965481,-1.322013617,-0.104512684,0.18331112,0.312694222,-0.184096754,0.628810763,-1.292434216
3.734966993,1.266598344,0.05674018,-1.096964717,0.163747668,-5.838956356,-1.41821909,-0.095976166,0.182712287,0.314248025,-0.18418394,0.599518359,-1.293387055
3.739966869,1.30978179,0.064001501,-1.135765195,0.137947544,-5.817039967,-1.512435794,-0.08175683,0.181708947,0.316755503,-0.184651643,0.570330083,-1.294770837
