Time,inertial-6253.76535:estCompensatedAccelX,inertial-6253.76535:estCompensatedAccelX:valid,inertial-6253.76535:estCompensatedAccelY,inertial-6253.76535:estCompensatedAccelY:valid,inertial-6253.76535:estCompensatedAccelZ,inertial-6253.76535:estCompensatedAccelZ:valid,inertial-6253.76535:estAngularRateX,inertial-6253.76535:estAngularRateX:valid,inertial-6253.76535:estAngularRateY,inertial-6253.76535:estAngularRateY:valid,inertial-6253.76535:estAngularRateZ,inertial-6253.76535:estAngularRateZ:valid,inertial-6253.76535:estRoll,inertial-6253.76535:estRoll:valid,inertial-6253.76535:estPitch,inertial-6253.76535:estPitch:valid,inertial-6253.76535:estYaw,inertial-6253.76535:estYaw:valid
0,-4.494169712,1,-4.602784634,1,-7.415658951,1,0.00042655,1,-0.001879141,1,0.011884755,1,0.495490491,1,-0.447329909,1,0.685774207,1
0.004002048,-4.521654606,1,-4.609778404,1,-7.412055016,1,0.003220798,1,0.000816018,1,0.013622046,1,0.4954772,1,-0.447351217,1,0.68581146,1
0.008,-4.496701717,1,-4.612132549,1,-7.417954445,1,0.003385961,1,-0.004886399,1,0.004154118,1,0.495456457,1,-0.447375029,1,0.685855329,1
0.011999744,-4.489456654,1,-4.591909409,1,-7.416540623,1,0.000925611,1,0.000620696,1,0.012303439,1,0.495442659,1,-0.447400004,1,0.685893893,1
0.016001793,-4.486352444,1,-4.581490993,1,-7.399737835,1,-0.001421372,1,-0.000304394,1,0.010047874,1,0.495426059,1,-0.447422415,1,0.685935378,1
0.02,-4.524655342,1,-4.618893623,1,-7.421806335,1,0.00188939,1,-0.000474081,1,0.012743145,1,0.495406687,1,-0.447452635,1,0.685976148,1
0.023999743,-4.549019814,1,-4.563483715,1,-7.406750679,1,-0.003579587,1,-0.001664798,1,0.010584798,1,0.495391071,1,-0.447470963,1,0.686013162,1
0.028001793,-4.525722027,1,-4.521509647,1,-7.412234783,1,-0.001137844,1,0.000866622,1,0.012320125,1,0.495368063,1,-0.447490722,1,0.686059356,1
0.031999744,-4.506454468,1,-4.542487621,1,-7.392963409,1,0.000918568,1,0.001200016,1,0.008359522,1,0.495353132,1,-0.447506994,1,0.686095357,1
0.035999488,-4.485219955,1,-4.541600704,1,-7.434118748,1,0.001062221,1,-0.002074041,1,0.009489654,1,0.495346546,1,-0.44752723,1,0.686126471,1
0.040001281,-4.527067184,1,-4.547047138,1,-7.383414745,1,0.003570737,1,-0.004359353,1,0.009725782,1,0.495349586,1,-0.447543859,1,0.686157882,1
0.044005118,-4.520156384,1,-4.583556175,1,-7.424365997,1,0.006980031,1,-0.002759838,1,0.010814648,1,0.495352089,1,-0.447562695,1,0.686189175,1
0.048005119,-4.50313139,1,-4.577559948,1,-7.411821365,1,0.00328761,1,-0.002400573,1,0.008585484,1,0.495358139,1,-0.447578192,1,0.686214685,1
0.052007169,-4.501551628,1,-4.601634979,1,-7.451977253,1,0.00581099,1,-0.004219823,1,0.009069446,1,0.495364279,1,-0.447600543,1,0.686242163,1
0.05600512,-4.51462841,1,-4.597643375,1,-7.439259052,1,0.008917972,1,-0.000139333,1,0.003299205,1,0.495377392,1,-0.447620153,1,0.686263144,1
0.060004864,-4.53633213,1,-4.586226463,1,-7.413741112,1,0.006102719,1,-0.004388143,1,0.004655285,1,0.495397955,1,-0.447636813,1,0.686282754,1
0.064006656,-4.505045414,1,-4.563695908,1,-7.433506966,1,0.002852628,1,-0.002197948,1,0.006634198,1,0.495406687,1,-0.447660327,1,0.686302304,1
0.068004861,-4.487114906,1,-4.609638214,1,-7.426262856,1,0.004076814,1,-0.000838263,1,0.006648104,1,0.496848553,1,-0.448643923,1,0.686018348,1
0.072004609,-4.523948669,1,-4.581044674,1,-7.387178898,1,0.005855479,1,-0.001490486,1,0.006624721,1,0.496912479,1,-0.44858849,1,0.685599029,1
0.076006398,-4.520946026,1,-4.579875469,1,-7.434823513,1,0.007802932,1,-0.004919422,1,0.006495844,1,0.496926188,1,-0.448609412,1,0.68562007,1
0.08000461,-4.497284412,1,-4.556781292,1,-7.406598091,1,0.00503322,1,-0.006778476,1,0.006405601,1,0.49694103,1,-0.448642075,1,0.685638905,1
0.08400435,-4.512756348,1,-4.573263645,1,-7.424611092,1,0.005243816,1,-0.007979207,1,0.007041182,1,0.496960282,1,-0.44867143,1,0.685652554,1
0.088006146,-4.540403366,1,-4.573828697,1,-7.406688213,1,0.007544522,1,-0.003071905,1,0.009126197,1,0.496982008,1,-0.448711693,1,0.685673892,1
0.092004351,-4.500507355,1,-4.583948135,1,-7.395720482,1,0.011744663,1,-0.004525785,1,0.010150781,1,0.497000307,1,-0.448741436,1,0.685702324,1
0.096004099,-4.526215076,1,-4.587122917,1,-7.393278599,1,0.008436186,1,-0.005410645,1,0.005185931,1,0.497025967,1,-0.448772311,1,0.685726762,1
0.100006141,-4.506795883,1,-4.573928356,1,-7.409842968,1,0.008276996,1,0.000367788,1,0.009442152,1,0.497041941,1,-0.448802173,1,0.685750604,1
0.104004353,-4.485816479,1,-4.624207973,1,-7.375211239,1,0.010885884,1,-0.006271055,1,0.008803889,1,0.497070819,1,-0.448833466,1,0.685775876,1
0.108004093,-4.530391216,1,-4.599031448,1,-7.37629652,1,0.007672522,1,-0.00082275,1,0.009186858,1,0.497093141,1,-0.448858857,1,0.685795486,1
0.112006143,-4.506660938,1,-4.603046894,1,-7.432337761,1,0.007214673,1,-0.002512529,1,0.007443065,1,0.497110784,1,-0.448887616,1,0.685819507,1
0.116004094,-4.524822235,1,-4.57923317,1,-7.40629673,1,0.009454992,1,-0.002958909,1,0.008002639,1,0.49713251,1,-0.448911697,1,0.685839951,1
0.120003842,-4.565790176,1,-4.608413696,1,-7.386902809,1,0.00625262,1,-0.005020327,1,0.010570988,1,0.497156262,1,-0.448938072,1,0.685862124,1
0.124005891,-4.563296318,1,-4.605313778,1,-7.397921085,1,0.004934981,1,-0.004065929,1,0.006314437,1,0.497169971,1,-0.448964208,1,0.685885429,1
0.128003836,-4.49816227,1,-4.593476772,1,-7.401979446,1,0.006856528,1,0.001146998,1,0.008112296,1,0.497183293,1,-0.448982716,1,0.685914218,1
0.13200359,-4.549298763,1,-4.590646744,1,-7.399254799,1,0.007477907,1,-0.003253551,1,0.009545743,1,0.497193187,1,-0.449007273,1,0.685944319,1
0.136005625,-4.542355061,1,-4.546952248,1,-7.393286228,1,0.002952636,1,-0.0023625,1,0.008471654,1,0.497190893,1,-0.44903183,1,0.685982466,1
0.140003577,-4.529247761,1,-4.617655754,1,-7.396911621,1,0.002063603,1,-4.14E-05,1,0.007775297,1,0.497198254,1,-0.449053884,1,0.686008573,1
0.144003332,-4.529833317,1,-4.585950851,1,-7.395940304,1,0.006388061,1,-0.002762446,1,0.009167952,1,0.497202128,1,-0.44907701,1,0.686047018,1
0.148005381,-4.526549339,1,-4.5829072,1,-7.395073414,1,0.003197861,1,-0.001859887,1,0.00703402,1,0.497212082,1,-0.449096859,1,0.686075091,1
0.152003333,-4.512395859,1,-4.579692364,1,-7.398680687,1,0.002652547,1,-0.000961848,1,0.007571027,1,0.497210205,1,-0.449115276,1,0.686109364,1
0.156003073,-4.533347607,1,-4.589322567,1,-7.367429733,1,0.003215701,1,0.001222239,1,0.005149208,1,0.497208446,1,-0.44913128,1,0.686136186,1
0.160004869,-4.519940376,1,-4.600453854,1,-7.406344891,1,0.003920041,1,0.001838107,1,0.008705145,1,0.497208834,1,-0.449142575,1,0.68617177,1
0.164008707,-4.531343937,1,-4.606015205,1,-7.353204727,1,0.003385448,1,0.00204888,1,0.008837853,1,0.497201204,1,-0.449153304,1,0.686213255,1
0.1680087,-4.541077614,1,-4.584213734,1,-7.391259193,1,0.001022938,1,0.002345865,1,0.010561196,1,0.49719438,1,-0.449161023,1,0.686246037,1
0.172010496,-4.513691425,1,-4.584047794,1,-7.404560566,1,0.00053492,1,0.001593202,1,0.008247603,1,0.497194052,1,-0.44915995,1,0.68628782,1
0.176008701,-4.53385973,1,-4.585862637,1,-7.411289692,1,0.001005867,1,0.001922517,1,0.010669282,1,0.497179538,1,-0.449168473,1,0.686329663,1
0.180008441,-4.560023308,1,-4.558367252,1,-7.39037323,1,0.000749395,1,0.005598053,1,0.008920928,1,0.497158647,1,-0.449165553,1,0.686374545,1
0.184010491,-4.56732893,1,-4.575683594,1,-7.399626255,1,-0.00019646,1,0.005608128,1,0.007586622,1,0.497143358,1,-0.449161053,1,0.686417937,1
0.188008711,-4.559190273,1,-4.546275139,1,-7.402775288,1,0.000542496,1,0.005000756,1,0.007518808,1,0.497128904,1,-0.449149877,1,0.686460674,1
0.192008451,-4.534529686,1,-4.523685455,1,-7.390437603,1,-0.002054593,1,0.010706909,1,0.007950093,1,0.49710986,1,-0.449137777,1,0.686503768,1
0.1960105,-4.52502346,1,-4.616979122,1,-7.422204494,1,0.000164373,1,0.011072401,1,0.006563836,1,0.497088432,1,-0.449122131,1,0.686547518,1
0.200008705,-4.539123535,1,-4.595777988,1,-7.371169567,1,0.003523424,1,0.006630049,1,0.005877367,1,0.497080833,1,-0.44910413,1,0.686594605,1
0.204008445,-4.531878471,1,-4.576070309,1,-7.383438587,1,0.002965359,1,0.005465621,1,0.005201833,1,0.497074157,1,-0.449091703,1,0.686632097,1
0.208010495,-4.498399734,1,-4.563244343,1,-7.412484646,1,-0.000489264,1,0.006859655,1,0.005687231,1,0.497064978,1,-0.449076593,1,0.686671436,1
0.2120087,-4.513339996,1,-4.568432808,1,-7.395013332,1,0.003061194,1,0.005926534,1,0.002876398,1,0.497067899,1,-0.449065626,1,0.686704278,1
0.216008455,-4.536942005,1,-4.545376301,1,-7.406887054,1,0.004703115,1,0.010576873,1,0.008528356,1,0.497063428,1,-0.449052751,1,0.6867342,1
0.220010489,-4.507843494,1,-4.569881916,1,-7.456321239,1,0.004507713,1,0.004769497,1,0.000344846,1,0.497069836,1,-0.449038744,1,0.686765015,1
0.224008441,-4.52747345,1,-4.593696594,1,-7.415874004,1,0.007636296,1,0.003396343,1,0.006533985,1,0.497076362,1,-0.449034929,1,0.686790407,1
0.228008449,-4.505126476,1,-4.57319355,1,-7.404983997,1,0.007910534,1,0.005392996,1,0.004686833,1,0.497091442,1,-0.449033976,1,0.686818123,1
0.232010499,-4.519576073,1,-4.5883255,1,-7.466846943,1,0.00427804,1,0.002278842,1,0.00309784,1,0.497108966,1,-0.449027538,1,0.686846972,1
0.23600845,-4.508478165,1,-4.597663879,1,-7.437966347,1,0.008614087,1,0.002384837,1,0.004200922,1,0.497132361,1,-0.449023694,1,0.686866045,1
0.240008444,-4.519803524,1,-4.624426842,1,-7.426597595,1,0.002666666,1,0.002004514,1,0.002557605,1,0.497137755,1,-0.44902131,1,0.686896622,1
0.244010493,-4.537192345,1,-4.616751194,1,-7.421164989,1,0.004128344,1,0.001852558,1,0.007064668,1,0.497154236,1,-0.449018806,1,0.686920106,1
0.248008445,-4.525195599,1,-4.592955589,1,-7.413217545,1,0.009910838,1,0.001432091,1,0.008191485,1,0.497161418,1,-0.449026555,1,0.686949253,1
0.252008438,-4.493686199,1,-4.57860899,1,-7.438663006,1,0.003528109,1,0.000509846,1,0.006276413,1,0.497175336,1,-0.449028343,1,0.686971545,1
0.256010234,-4.490765095,1,-4.605491638,1,-7.412003517,1,0.009361169,1,0.005299997,1,0.003005877,1,0.497191042,1,-0.44902882,1,0.686990082,1
0.260008454,-4.50425148,1,-4.633014679,1,-7.438905716,1,0.004915791,1,-0.000776227,1,0.006693632,1,0.497210562,1,-0.449033767,1,0.687012076,1
0.264008194,-4.524912357,1,-4.602076054,1,-7.423527718,1,0.007392601,1,0.001591428,1,0.00241676,1,0.497220397,1,-0.449039727,1,0.687038481,1
0.26800999,-4.496308804,1,-4.630619049,1,-7.386256695,1,0.004267142,1,0.000982617,1,0.007946257,1,0.497225195,1,-0.449047178,1,0.687063515,1
0.272008181,-4.511198044,1,-4.675694942,1,-7.376648903,1,0.002780583,1,-8.56E-05,1,0.006557359,1,0.497226834,1,-0.44906047,1,0.687087119,1
0.27600795,-4.517736912,1,-4.620132446,1,-7.407227039,1,-0.001880618,1,-0.00057433,1,0.008932597,1,0.497214556,1,-0.449070036,1,0.687125087,1
0.280009717,-4.56393671,1,-4.621283054,1,-7.373866081,1,0.001077059,1,0.000939386,1,0.007756576,1,0.497198045,1,-0.449077338,1,0.687161207,1
0.284013569,-4.569880486,1,-4.618514538,1,-7.388626575,1,0.000143008,1,0.001682548,1,0.0067386,1,0.497189909,1,-0.449086368,1,0.687195718,1
0.288013309,-4.528408051,1,-4.626726151,1,-7.378835201,1,0.000678164,1,0.003520794,1,0.006287693,1,0.49717015,1,-0.449092209,1,0.687238097,1
0.292015105,-4.54674387,1,-4.571072102,1,-7.380196095,1,3.63E-05,1,0.003778468,1,0.005511045,1,0.497151017,1,-0.449093699,1,0.687275112,1
0.296013057,-4.562841415,1,-4.542576313,1,-7.415284634,1,-0.002430079,1,0.003222449,1,0.011975244,1,0.497131497,1,-0.449102849,1,0.687310696,1
0.300012797,-4.524011612,1,-4.529660702,1,-7.386898518,1,0.000964251,1,0.005349318,1,0.006568875,1,0.497113854,1,-0.449101359,1,0.68734479,1
0.304014862,-4.568234444,1,-4.563904285,1,-7.385085583,1,-0.001205515,1,0.005327768,1,0.006383569,1,0.497100413,1,-0.449091315,1,0.687387049,1
0.308012813,-4.569084167,1,-4.53616333,1,-7.394202709,1,-0.000150833,1,0.004372132,1,0.006047111,1,0.49707675,1,-0.449079871,1,0.687421083,1
0.312012553,-4.55259037,1,-4.550734043,1,-7.394054413,1,-0.000471732,1,0.007756433,1,0.004606765,1,0.497063726,1,-0.44906643,1,0.68744868,1
0.316014588,-4.534201145,1,-4.565897465,1,-7.391867638,1,0.003567571,1,0.004627378,1,0.00231395,1,0.497055411,1,-0.449051321,1,0.687482953,1
0.32001254,-4.505352974,1,-4.568310261,1,-7.427498817,1,0.000701147,1,0.005126968,1,-0.001975825,1,0.498488933,1,-0.449926496,1,0.686789155,1
0.32401228,-4.502123833,1,-4.572275639,1,-7.398700237,1,0.000251488,1,0.006100952,1,0.001068019,1,0.49848175,1,-0.4499138,1,0.686811626,1
0.328014344,-4.49624157,1,-4.551232338,1,-7.409571648,1,0.004952805,1,0.007260343,1,0.002069428,1,0.498478681,1,-0.449895263,1,0.686838686,1
0.332012296,-4.528298855,1,-4.567404747,1,-7.441096783,1,0.004407101,1,0.007527882,1,0.003955107,1,0.498483509,1,-0.449874282,1,0.686866999,1
0.336012036,-4.529007435,1,-4.606842995,1,-7.422404766,1,0.00198881,1,0.007925523,1,-0.000398165,1,0.498483509,1,-0.449857265,1,0.686890841,1
0.34001407,-4.530751228,1,-4.616815567,1,-7.412823677,1,0.007382397,1,0.00392537,1,0.002652655,1,0.498494059,1,-0.449845314,1,0.686911404,1
0.344012022,-4.497674465,1,-4.589445114,1,-7.40718317,1,0.006083108,1,0.008364571,1,0.003701136,1,0.498498112,1,-0.449838966,1,0.686932385,1
0.34801203,-4.513358116,1,-4.617810726,1,-7.415807247,1,0.001642148,1,0.004907424,1,0.004657861,1,0.498502731,1,-0.449835122,1,0.686964035,1
0.352013826,-4.515626431,1,-4.648609161,1,-7.405740738,1,0.005375082,1,0.00355317,1,0.009807441,1,0.49849695,1,-0.449835062,1,0.686996222,1
0.356011778,-4.503931046,1,-4.629798412,1,-7.392396927,1,0.000453765,1,0.004372438,1,0.004316888,1,0.498496473,1,-0.449826479,1,0.687018156,1
0.360011518,-4.534889698,1,-4.614857197,1,-7.419312477,1,-0.001338457,1,0.004629788,1,0.00730641,1,0.498492569,1,-0.449826747,1,0.687050879,1
0.364013314,-4.547134876,1,-4.591972828,1,-7.402853489,1,0.001551833,1,0.002223464,1,0.006811531,1,0.498477101,1,-0.449823439,1,0.687083364,1
0.368011534,-4.509591579,1,-4.606672287,1,-7.390940189,1,0.002101469,1,0.006779452,1,0.005737522,1,0.498465687,1,-0.44981733,1,0.68712014,1
0.372011274,-4.542971611,1,-4.62721777,1,-7.385483742,1,-0.003007638,1,0.006838801,1,0.007848974,1,0.498443991,1,-0.449813902,1,0.687160254,1
0.37601307,-4.506301403,1,-4.616533756,1,-7.409460545,1,0.001964386,1,0.003574627,1,0.005492002,1,0.498418629,1,-0.449809909,1,0.687193871,1
0.380011261,-4.559923649,1,-4.58190918,1,-7.380840778,1,-0.005825681,1,0.00695477,1,0.008416714,1,0.498392582,1,-0.44979769,1,0.687236071,1
0.384011,-4.556481838,1,-4.598326683,1,-7.385713577,1,-0.000441466,1,0.009231898,1,0.003417681,1,0.49836573,1,-0.449788481,1,0.687270164,1
0.388013065,-4.571413994,1,-4.557828426,1,-7.416087627,1,-0.002126473,1,0.006965595,1,0.004503881,1,0.498336673,1,-0.449775308,1,0.68731606,1
0.392011017,-4.542777061,1,-4.575301647,1,-7.416790962,1,-0.00123015,1,0.007130138,1,0.002379332,1,0.498317242,1,-0.449761271,1,0.687354386,1
0.396010756,-4.521690845,1,-4.546567917,1,-7.448740959,1,0.000936191,1,0.007597625,1,0.006272214,1,0.498298496,1,-0.449755847,1,0.687383115,1
0.400012553,-4.535419941,1,-4.560958385,1,-7.425865173,1,-0.003102236,1,0.006605549,1,0.005540108,1,0.498272657,1,-0.449733108,1,0.687422752,1
0.404016376,-4.54923439,1,-4.526830673,1,-7.402327538,1,0.001976303,1,0.007887721,1,0.006011922,1,0.498253793,1,-0.44971469,1,0.687458277,1
0.408016115,-4.534056187,1,-4.564326286,1,-7.401314259,1,0.000854237,1,0.009516514,1,0.004999254,1,0.498240292,1,-0.449696243,1,0.68749243,1
0.41201818,-4.495803356,1,-4.601093292,1,-7.408628941,1,0.004142256,1,0.009413224,1,0.007672312,1,0.498225957,1,-0.449672937,1,0.687538028,1
0.416016132,-4.515152454,1,-4.615411758,1,-7.396903992,1,0.000551075,1,0.011882981,1,0.002553282,1,0.498217314,1,-0.449653387,1,0.687583089,1
0.420015872,-4.551136494,1,-4.612467766,1,-7.38833046,1,-0.000501991,1,0.00797525,1,0.005071921,1,0.49820134,1,-0.449624717,1,0.687629938,1
0.424017906,-4.558101177,1,-4.593959808,1,-7.378667831,1,0.004857103,1,0.009703664,1,0.010028042,1,0.498192281,1,-0.449600875,1,0.687679648,1
0.428015858,-4.549315453,1,-4.587666035,1,-7.382941723,1,0.003625891,1,0.01380829,1,0.007458383,1,0.498185992,1,-0.449583203,1,0.687734008,1
0.432015628,-4.50994873,1,-4.570377827,1,-7.430795193,1,0.00444537,1,0.014545273,1,0.009884836,1,0.498176903,1,-0.449545413,1,0.687796831,1
0.436017394,-4.548920155,1,-4.575397491,1,-7.391923904,1,0.003861641,1,0.014593594,1,0.007221171,1,0.498175442,1,-0.449514091,1,0.687854648,1
0.440015346,-4.502789974,1,-4.561944962,1,-7.401669502,1,0.00357454,1,0.013755113,1,0.008788755,1,0.498163998,1,-0.449480414,1,0.687912524,1
0.444015115,-4.535354137,1,-4.565256119,1,-7.40536356,1,0.005099784,1,0.014234113,1,0.008442709,1,0.498156905,1,-0.4494479,1,0.687981963,1
0.448016882,-4.484567642,1,-4.58675766,1,-7.419058323,1,0.00868748,1,0.014758673,1,0.003713355,1,0.498148799,1,-0.449411452,1,0.688043594,1
0.452014595,-4.518140316,1,-4.594209671,1,-7.39461422,1,0.00479764,1,0.01383039,1,0.007928621,1,0.498144001,1,-0.449372053,1,0.68809855,1
0.456014335,-4.552206516,1,-4.60500145,1,-7.391122341,1,0.008968419,1,0.012302067,1,0.006335355,1,0.498147279,1,-0.449335635,1,0.688153803,1
0.460016131,-4.493714333,1,-4.589356899,1,-7.427856922,1,0.004442083,1,0.017426791,1,0.004161064,1,0.498153567,1,-0.449295163,1,0.688203216,1
0.464014322,-4.477888584,1,-4.595125675,1,-7.431087494,1,0.004861637,1,0.013447773,1,0.005109205,1,0.498158872,1,-0.449257433,1,0.688245654,1
0.468014091,-4.503354549,1,-4.619504452,1,-7.42835331,1,0.005216042,1,0.012757166,1,0.002665505,1,0.498165905,1,-0.449214756,1,0.688280642,1
0.472015858,-4.508326054,1,-4.589868069,1,-7.431481838,1,0.004632448,1,0.011408955,1,0.002875483,1,0.498167872,1,-0.449181318,1,0.688320041,1
0.476013809,-4.482915878,1,-4.619069099,1,-7.413780689,1,0.004312765,1,0.011842933,1,0.003675569,1,0.498169094,1,-0.449158192,1,0.688359618,1
0.480013579,-4.47043848,1,-4.627835751,1,-7.427334785,1,0.005779266,1,0.007890072,1,0.011526296,1,0.498163968,1,-0.449130297,1,0.688404799,1
0.484015346,-4.533459187,1,-4.643496037,1,-7.424274921,1,0.007075222,1,0.004597262,1,0.004719455,1,0.498166174,1,-0.449115574,1,0.688449264,1
0.488013566,-4.512748241,1,-4.586539268,1,-7.404157639,1,0.001212267,1,0.007229561,1,0.00928699,1,0.498160809,1,-0.449098468,1,0.688492179,1
0.492013305,-4.496463776,1,-4.596543312,1,-7.400765896,1,0.004332134,1,0.005761305,1,0.001324141,1,0.498163015,1,-0.449088007,1,0.68852061,1
0.49601537,-4.519115925,1,-4.598340034,1,-7.409139633,1,-0.000236932,1,0.008248961,1,0.008689782,1,0.498154402,1,-0.449074984,1,0.688551366,1
0.50001359,-4.510879517,1,-4.66135931,1,-7.419429779,1,0.002364933,1,0.003787962,1,0.004585188,1,0.498147428,1,-0.449072838,1,0.688584983,1
0.5040133,-4.517408371,1,-4.615193367,1,-7.401157379,1,-0.002289637,1,0.001189072,1,0.006434921,1,0.498141021,1,-0.449067682,1,0.688616872,1
0.508015335,-4.514160156,1,-4.632246017,1,-7.392953873,1,0.001309622,1,0.004696929,1,0.005231683,1,0.498121023,1,-0.44907099,1,0.688647866,1
0.512013316,-4.541231155,1,-4.625566483,1,-7.372163296,1,-0.002173527,1,-0.001212339,1,0.006705725,1,0.498101503,1,-0.449061453,1,0.688676119,1
0.516012788,-4.541780472,1,-4.618438721,1,-7.424659252,1,-0.002369091,1,0.007388565,1,0.007367659,1,0.498075694,1,-0.449067026,1,0.688712955,1
0.520014822,-4.545156956,1,-4.610010147,1,-7.427677155,1,-0.002562764,1,0.003809744,1,0.006186997,1,0.498049349,1,-0.449059278,1,0.688743711,1
0.524018407,-4.536058426,1,-4.578132629,1,-7.388740063,1,-0.003727001,1,0.006791902,1,0.005783568,1,0.498016596,1,-0.449054837,1,0.688777566,1
0.528018415,-4.532606125,1,-4.559149742,1,-7.405897141,1,-0.004929948,1,0.004506681,1,0.007936135,1,0.497990757,1,-0.449052542,1,0.688807011,1
0.532020509,-4.521475792,1,-4.532516479,1,-7.430551052,1,-0.002971584,1,0.005120663,1,0.005042,1,0.497967184,1,-0.449042439,1,0.688839972,1
0.536018431,-4.4914217,1,-4.592869759,1,-7.41435957,1,-0.001587829,1,0.006443367,1,0.004501995,1,0.497933775,1,-0.449035496,1,0.6888749,1
0.540018439,-4.556809902,1,-4.558651447,1,-7.412870884,1,-0.006374842,1,0.007512455,1,0.006289295,1,0.497913778,1,-0.449021697,1,0.688897789,1
0.544020236,-4.523938179,1,-4.595592976,1,-7.381016254,1,-0.002368147,1,0.005003082,1,0.004466231,1,0.497878611,1,-0.44900462,1,0.688934326,1
0.548018157,-4.556217194,1,-4.572253227,1,-7.406094074,1,-0.005282085,1,0.008220636,1,-0.0006225,1,0.497852623,1,-0.448992848,1,0.688965082,1
0.552018166,-4.515605927,1,-4.590970516,1,-7.394963741,1,-0.003365298,1,0.008292973,1,0.005307718,1,0.497819513,1,-0.448973,1,0.68900001,1
0.556019962,-4.497774601,1,-4.540863991,1,-7.419395447,1,-0.002787255,1,0.003285583,1,0.003764781,1,0.497793794,1,-0.448948264,1,0.689026475,1
0.560018182,-4.478084564,1,-4.560369492,1,-7.428889751,1,-0.001895078,1,0.010313523,1,0.00348691,1,0.497774154,1,-0.448936224,1,0.689046383,1
0.56401819,-4.493528843,1,-4.569472313,1,-7.432170391,1,-0.000564954,1,0.004127945,1,0.000828567,1,0.497758955,1,-0.4489173,1,0.689062953,1
0.568020225,-4.521868229,1,-4.581889153,1,-7.411705494,1,0.000250951,1,0.003915602,1,0.001961272,1,0.499102175,1,-0.449816853,1,0.68879962,1
0.572018445,-4.547698021,1,-4.544054985,1,-7.436609745,1,0.000285146,1,0.001094227,1,0.001405597,1,0.49914825,1,-0.449725389,1,0.688382506,1
0.576018155,-4.547543526,1,-4.588678837,1,-7.413104057,1,0.002653823,1,0.006253328,1,0.002672297,1,0.49913761,1,-0.44971469,1,0.688403666,1
0.580019951,-4.522665977,1,-4.583738804,1,-7.424202442,1,0.00189221,1,0.001160969,1,0.003275242,1,0.499132752,1,-0.449703455,1,0.688427448,1
0.584018171,-4.506922245,1,-4.572443008,1,-7.400577068,1,0.003306921,1,0.002787071,1,0.000320027,1,0.499133259,1,-0.449694127,1,0.688438296,1
0.588017941,-4.520140171,1,-4.623837471,1,-7.4298172,1,-0.001806087,1,0.002865123,1,0.003052889,1,0.499131054,1,-0.449684024,1,0.688453197,1
0.592019975,-4.501401424,1,-4.581825733,1,-7.439996243,1,0.00077808,1,0.002302529,1,0.001882094,1,0.499130368,1,-0.449685484,1,0.688467205,1
0.596018195,-4.473472595,1,-4.625648499,1,-7.443265915,1,0.002609874,1,0.002311222,1,0.003153199,1,0.499133766,1,-0.449684232,1,0.688482404,1
0.600017905,-4.519688129,1,-4.625850677,1,-7.448740005,1,0.002990234,1,0.0040567,1,0.002812827,1,0.499135494,1,-0.44968009,1,0.688496232,1
0.604019701,-4.486317158,1,-4.61973238,1,-7.432745934,1,0.005614188,1,-0.001036069,1,0.0041377,1,0.499156266,1,-0.449682593,1,0.68851608,1
0.608017683,-4.51321125,1,-4.640005589,1,-7.408880711,1,0.002072049,1,-0.002006809,1,0.001611284,1,0.49916476,1,-0.449692726,1,0.688522816,1
0.612017393,-4.50276041,1,-4.643202782,1,-7.426261902,1,0.002284076,1,0.000643823,1,0.005534964,1,0.499174684,1,-0.44969812,1,0.688530326,1
0.616019428,-4.489536285,1,-4.609409809,1,-7.432132244,1,0.005632317,1,-0.001062399,1,0.004958503,1,0.499183089,1,-0.44971177,1,0.688555479,1
0.620017409,-4.497604847,1,-4.583001137,1,-7.436327457,1,0.001471481,1,-0.0008063,1,0.003458908,1,0.499188304,1,-0.449722677,1,0.688569307,1
0.624017179,-4.507771969,1,-4.619232178,1,-7.402452946,1,0.004425301,1,0.000477104,1,0.007494253,1,0.499190629,1,-0.449734747,1,0.68859309,1
0.628019214,-4.523204327,1,-4.651968002,1,-7.416734219,1,0.002160637,1,-0.003493579,1,0.008898047,1,0.499196142,1,-0.449763596,1,0.688616037,1
0.632017136,-4.496258259,1,-4.624753475,1,-7.414197445,1,0.003384996,1,-0.000421141,1,0.005198909,1,0.499197394,1,-0.449777812,1,0.688638151,1
0.636017144,-4.541189194,1,-4.586096764,1,-7.397708416,1,4.54E-05,1,-0.003435619,1,0.010466381,1,0.49918893,1,-0.449798405,1,0.688663006,1
0.640019178,-4.530053139,1,-4.560156822,1,-7.396406174,1,0.004248813,1,-0.002070878,1,0.008871871,1,0.499192506,1,-0.449817866,1,0.688686013,1
0.64401716,-4.517711639,1,-4.555310249,1,-7.420559883,1,0.000973375,1,0.002232979,1,0.010710255,1,0.499184906,1,-0.449846059,1,0.688710451,1
0.648023307,-4.525654793,1,-4.577280521,1,-7.414550304,1,0.002791834,1,-0.003265584,1,0.006395556,1,0.499180943,1,-0.449865758,1,0.688737512,1
0.652025342,-4.537445068,1,-4.583031178,1,-7.402065754,1,0.002963941,1,-0.005091102,1,0.007270241,1,0.499176621,1,-0.449888766,1,0.688757062,1
0.6560238,-4.503736496,1,-4.560157776,1,-7.415558815,1,-0.001491246,1,0.000126934,1,0.008290137,1,0.499166906,1,-0.449905396,1,0.68878901,1
0.660023808,-4.522787571,1,-4.551310539,1,-7.414571285,1,0.00549598,1,-0.00021327,1,0.0037222,1,0.499171793,1,-0.449920297,1,0.688808203,1
0.664025605,-4.53045702,1,-4.56283474,1,-7.39602375,1,0.003966446,1,-0.00096607,1,0.005396654,1,0.499176204,1,-0.449933231,1,0.688832402,1
0.668023825,-4.517226219,1,-4.575803757,1,-7.409795284,1,0.008737714,1,-0.00076955,1,0.007722196,1,0.499185294,1,-0.449951649,1,0.68885684,1
0.672023535,-4.546283245,1,-4.562020779,1,-7.435482979,1,0.003173704,1,-0.00169879,1,0.006076229,1,0.499197662,1,-0.449967444,1,0.688882947,1
0.676025331,-4.5469594,1,-4.557538509,1,-7.453779221,1,0.006234124,1,-0.001159029,1,0.00453833,1,0.499214053,1,-0.449984133,1,0.688901305,1
0.680023551,-4.527292728,1,-4.568980694,1,-7.431231022,1,0.010020141,1,-0.00223049,1,0.003346316,1,0.499244779,1,-0.450001329,1,0.688915014,1
0.684023321,-4.521260738,1,-4.553291321,1,-7.441324234,1,0.010790117,1,-0.003661292,1,0.003494043,1,0.49927938,1,-0.450024992,1,0.688923895,1
0.688025355,-4.512071133,1,-4.524620533,1,-7.450901985,1,0.009295023,1,-0.002892982,1,0.003759944,1,0.499314249,1,-0.450040787,1,0.688928723,1
0.692023575,-4.524036407,1,-4.53627491,1,-7.442075253,1,0.009952519,1,-0.005228637,1,0.006119043,1,0.499344945,1,-0.450067222,1,0.688936651,1
0.696023285,-4.571022034,1,-4.555154324,1,-7.415466785,1,0.008352644,1,-0.005130369,1,0.002631654,1,0.499383658,1,-0.450094223,1,0.688940704,1
0.70002532,-4.525283813,1,-4.550728321,1,-7.455653191,1,0.014865356,1,-0.000987859,1,0.002086757,1,0.499430031,1,-0.450114131,1,0.688952208,1
0.704023302,-4.535504341,1,-4.597075939,1,-7.422441959,1,0.011357499,1,-0.002577521,1,0.002793874,1,0.499476403,1,-0.450131416,1,0.688960195,1
0.708023012,-4.581821442,1,-4.60461998,1,-7.410650253,1,0.013106886,1,-0.006143787,1,0.002619077,1,0.499519438,1,-0.450151682,1,0.688965797,1
0.712025106,-4.561207294,1,-4.586014748,1,-7.400604248,1,0.010487631,1,-0.005236582,1,0.00554435,1,0.499559462,1,-0.450178683,1,0.688973844,1
0.716023028,-4.52099371,1,-4.565973759,1,-7.384642601,1,0.01178675,1,-0.002266946,1,0.004527946,1,0.499605238,1,-0.450200766,1,0.688992858,1
0.720023036,-4.501173019,1,-4.579527855,1,-7.400938988,1,0.011825434,1,-0.00026848,1,0.005319512,1,0.49964276,1,-0.450219065,1,0.688999593,1
0.724025071,-4.521304607,1,-4.587935448,1,-7.386372089,1,0.015776671,1,-0.003759042,1,0.007592632,1,0.49968344,1,-0.450235039,1,0.68902117,1
0.728023052,-4.471583366,1,-4.613022804,1,-7.407953262,1,0.012777331,1,-0.004393137,1,0.006401088,1,0.499723613,1,-0.450259745,1,0.689029336,1
0.73202306,-4.487535954,1,-4.68335247,1,-7.389241219,1,0.008935479,1,-0.001712885,1,0.006118834,1,0.499764681,1,-0.450282753,1,0.68904078,1
0.736024857,-4.501932621,1,-4.683728695,1,-7.380789757,1,0.005522568,1,-0.00252673,1,0.003882584,1,0.499788314,1,-0.450299799,1,0.689055085,1
0.740022779,-4.503511906,1,-4.664799213,1,-7.383324623,1,0.007018563,1,-0.003837059,1,0.008735832,1,0.499810249,1,-0.450324208,1,0.689073324,1
0.744022548,-4.521405697,1,-4.64115572,1,-7.40276289,1,0.004683386,1,-0.00224961,1,0.006742613,1,0.499820083,1,-0.450351477,1,0.689094305,1
0.748024344,-4.500637054,1,-4.607564449,1,-7.410542965,1,0.004900858,1,-0.002745096,1,0.008603093,1,0.499830961,1,-0.450376451,1,0.689114809,1
0.752022505,-4.497511387,1,-4.571216106,1,-7.424185753,1,0.007525763,1,-0.002588754,1,0.006440029,1,0.499849379,1,-0.450400114,1,0.689142585,1
0.756022513,-4.482584953,1,-4.547539234,1,-7.432302475,1,0.008036602,1,-0.004199676,1,0.009801621,1,0.499872535,1,-0.450429142,1,0.689166963,1
0.760024309,-4.493729115,1,-4.540561199,1,-7.445702553,1,0.006134705,1,-0.002614158,1,0.009584383,1,0.499892086,1,-0.45045644,1,0.689192832,1
0.764022529,-4.553738117,1,-4.578625679,1,-7.433866024,1,0.00784432,1,-0.004195997,1,0.008492359,1,0.49990803,1,-0.450492203,1,0.689217567,1
0.768028438,-4.550490856,1,-4.577054977,1,-7.404228687,1,0.008855423,1,-0.008303192,1,0.006802145,1,0.499934196,1,-0.450526893,1,0.689232111,1
0.772030473,-4.554639339,1,-4.547339439,1,-7.384000778,1,0.015821073,1,-0.004702951,1,0.00554524,1,0.49997732,1,-0.450565457,1,0.689247251,1
0.776028693,-4.560379982,1,-4.547364712,1,-7.414467812,1,0.014046632,1,-0.005193234,1,0.006932708,1,0.500023842,1,-0.450597584,1,0.689261317,1
0.780028701,-4.540158272,1,-4.531048298,1,-7.404842377,1,0.015242866,1,-0.007510699,1,0.008095517,1,0.5000844,1,-0.450636506,1,0.689268231,1
0.784030735,-4.512438774,1,-4.548821926,1,-7.42246294,1,0.015861113,1,-0.008760747,1,0.007201092,1,0.500142455,1,-0.450676978,1,0.689275563,1
0.788028955,-4.539059639,1,-4.587054253,1,-7.439138889,1,0.01728262,1,-0.006856756,1,0.002406969,1,0.500205874,1,-0.450712919,1,0.689274788,1
0.792028904,-4.551156044,1,-4.573336124,1,-7.423336029,1,0.018614732,1,-0.009034336,1,0.006699041,1,0.500264764,1,-0.450759053,1,0.689279914,1
0.796030998,-4.532008648,1,-4.589646816,1,-7.420942307,1,0.01721441,1,-0.009450447,1,0.004405926,1,0.50033021,1,-0.450797409,1,0.68928194,1
0.800029159,-4.539066315,1,-4.624032021,1,-7.374341965,1,0.014030208,1,-0.008519944,1,0.005177958,1,0.500402808,1,-0.450836062,1,0.689278245,1
0.804028928,-4.554800987,1,-4.585894585,1,-7.38985014,1,0.01186625,1,-0.007657559,1,0.005975034,1,0.500458419,1,-0.450875998,1,0.689280748,1
0.808030963,-4.525306225,1,-4.58453846,1,-7.37473917,1,0.020157294,1,-0.007884853,1,0.005803759,1,0.500523269,1,-0.450911462,1,0.689282358,1
0.812028944,-4.553974152,1,-4.616953373,1,-7.367263794,1,0.015863117,1,-0.005155422,1,0.007006115,1,0.500579894,1,-0.450945169,1,0.689286351,1
0.816028953,-4.540325165,1,-4.621143818,1,-7.379174709,1,0.015561159,1,-0.005423449,1,0.006115579,1,0.500640392,1,-0.45097658,1,0.689294457,1
0.820030987,-4.587695122,1,-4.600818157,1,-7.362214088,1,0.014624748,1,-0.004185087,1,0.003966726,1,0.502027631,1,-0.451825023,1,0.688610435,1
0.824028909,-4.565870762,1,-4.631125927,1,-7.351004124,1,0.00922713,1,-0.00413211,1,0.006232536,1,0.502066553,1,-0.45184356,1,0.688621998,1
0.828028917,-4.585993767,1,-4.627010822,1,-7.358107567,1,0.007723791,1,-0.002335507,1,0.005663713,1,0.502103031,1,-0.451864362,1,0.688639402,1
0.832030714,-4.557883739,1,-4.589764595,1,-7.337790012,1,0.010214143,1,0.001350481,1,0.004169228,1,0.502118468,1,-0.451880991,1,0.688667297,1
0.836028695,-4.545472622,1,-4.597404957,1,-7.346110344,1,0.010503512,1,0.001648743,1,0.011336736,1,0.502143741,1,-0.451889217,1,0.688699067,1
0.840028644,-4.566188335,1,-4.617249012,1,-7.336043835,1,0.005274573,1,0.003610788,1,0.010977634,1,0.502158999,1,-0.451896816,1,0.688744366,1
0.84403044,-4.573676109,1,-4.591479778,1,-7.326951981,1,0.009448974,1,0.008009505,1,0.007897336,1,0.502165794,1,-0.451895237,1,0.688795745,1
0.84802866,-4.589205742,1,-4.582055092,1,-7.329331398,1,0.006250282,1,0.008227207,1,0.008797181,1,0.502178431,1,-0.451892793,1,0.688840628,1
0.852028668,-4.571814537,1,-4.561709404,1,-7.362786293,1,0.010651876,1,0.015651515,1,0.010220465,1,0.502179265,1,-0.451878726,1,0.688903689,1
0.856030464,-4.560697556,1,-4.601223946,1,-7.375725269,1,0.004044381,1,0.010981636,1,0.013045862,1,0.502173305,1,-0.451855689,1,0.688970566,1
0.860028446,-4.559479713,1,-4.615316391,1,-7.386048317,1,0.007367842,1,0.015532577,1,0.011316909,1,0.502168834,1,-0.451830596,1,0.68903774,1
0.864028156,-4.566627026,1,-4.618727684,1,-7.386970043,1,0.005958197,1,0.014228179,1,0.008595857,1,0.50216043,1,-0.451791376,1,0.689102292,1
0.868029952,-4.573294163,1,-4.636977673,1,-7.400847435,1,0.006325595,1,0.013033174,1,0.008898793,1,0.502152443,1,-0.451761097,1,0.689166188,1
0.872028172,-4.566469669,1,-4.592051029,1,-7.413184166,1,0.001439509,1,0.013886866,1,0.012924415,1,0.502129614,1,-0.451724946,1,0.689237952,1
0.87602818,-4.549304485,1,-4.589438915,1,-7.411727905,1,-0.000320307,1,0.017377837,1,0.007043829,1,0.502111912,1,-0.451693743,1,0.689303994,1
0.880030215,-4.526118755,1,-4.531492233,1,-7.402232647,1,0.006013955,1,0.013813488,1,0.007484059,1,0.502089798,1,-0.45165199,1,0.689373076,1
0.884028137,-4.480088711,1,-4.53192091,1,-7.424535751,1,0.00344568,1,0.013606057,1,0.00343618,1,0.502079964,1,-0.451615393,1,0.689421654,1
0.888034046,-4.542302608,1,-4.538927555,1,-7.474340916,1,0.00224647,1,0.010154817,1,0.007354626,1,0.502075315,1,-0.451582581,1,0.689471781,1
0.89203608,-4.530515194,1,-4.53069973,1,-7.44515419,1,0.004476652,1,0.011882577,1,0.005068588,1,0.502072811,1,-0.451546669,1,0.689519048,1
0.8960343,-4.510449409,1,-4.564758778,1,-7.406824112,1,0.00485411,1,0.009730788,1,0.00157183,1,0.502080977,1,-0.451515645,1,0.689557433,1
0.90003407,-4.482562065,1,-4.642082214,1,-7.394983768,1,0.006921676,1,0.00858697,1,0.002857678,1,0.502093971,1,-0.451484799,1,0.689584434,1
0.904036105,-4.537759781,1,-4.628248692,1,-7.372938156,1,0.007582597,1,0.010398776,1,0.003583055,1,0.502107501,1,-0.451457113,1,0.689617872,1
0.908034027,-4.499468803,1,-4.645116329,1,-7.387588978,1,0.006455109,1,0.009071833,1,0.001972075,1,0.50212127,1,-0.451421589,1,0.689648211,1
0.912034035,-4.516058445,1,-4.622885704,1,-7.391119003,1,0.003070561,1,0.006935404,1,0.001567186,1,0.50213027,1,-0.451388538,1,0.689675391,1
0.916035831,-4.546159267,1,-4.630477905,1,-7.380110264,1,0.00222883,1,0.012210127,1,0.001980344,1,0.502134085,1,-0.45135653,1,0.689700484,1
0.920033813,-4.574779034,1,-4.623479843,1,-7.385501385,1,0.003193337,1,0.011544209,1,0.001401852,1,0.502139866,1,-0.451318026,1,0.689727724,1
0.924033821,-4.543794632,1,-4.624816418,1,-7.408216476,1,0.001943209,1,0.007995923,1,0.002657493,1,0.502126873,1,-0.451279223,1,0.689756095,1
0.928035855,-4.513917446,1,-4.6282897,1,-7.381258011,1,0.002984873,1,0.010720477,1,0.000729567,1,0.502129793,1,-0.451251686,1,0.689778507,1
0.932033777,-4.510457516,1,-4.650418282,1,-7.390185833,1,-0.004283109,1,0.009397306,1,-0.000415437,1,0.502113938,1,-0.451221496,1,0.689807117,1
0.936033785,-4.554293633,1,-4.634149075,1,-7.365954876,1,-0.002915139,1,0.009441997,1,0.00054335,1,0.502094984,1,-0.451187432,1,0.689823747,1
0.94003582,-4.54850626,1,-4.603604317,1,-7.365910053,1,-0.002017399,1,0.011453478,1,0.002158525,1,0.502073169,1,-0.451154023,1,0.689851344,1
0.94403404,-4.516655445,1,-4.596932888,1,-7.392367363,1,-0.002716794,1,0.010029664,1,-0.000536134,1,0.50204277,1,-0.451117128,1,0.689874589,1
0.948034048,-4.473110676,1,-4.574978828,1,-7.419815063,1,-0.000453159,1,0.01086719,1,0.005067706,1,0.502024114,1,-0.451082855,1,0.689904451,1
0.952035844,-4.473715782,1,-4.591508389,1,-7.438629627,1,-0.002642836,1,0.007270656,1,-0.003905357,1,0.502007067,1,-0.451058269,1,0.689923048,1
0.956033766,-4.481245518,1,-4.557680607,1,-7.436738014,1,0.000589788,1,0.010441645,1,0.001652589,1,0.501989722,1,-0.451023042,1,0.689950049,1
0.960033536,-4.484334946,1,-4.602404594,1,-7.429377079,1,0.001968912,1,0.009079356,1,-0.000171568,1,0.501987338,1,-0.450996578,1,0.689969361,1
0.964035332,-4.48782444,1,-4.623939037,1,-7.397344589,1,0.001428444,1,0.003249513,1,0.001868974,1,0.501988649,1,-0.450970709,1,0.689983904,1
0.968033552,-4.517062187,1,-4.613392353,1,-7.425264835,1,0.000972373,1,0.005568826,1,0.003148249,1,0.501993835,1,-0.450952768,1,0.689995408,1
0.972033262,-4.521618843,1,-4.620854378,1,-7.379687309,1,0.000773688,1,0.004687389,1,0.000967336,1,0.501989126,1,-0.450937152,1,0.690012157,1
0.976035357,-4.541027546,1,-4.631056786,1,-7.429720879,1,0.000268974,1,0.001619145,1,0.002717914,1,0.501995504,1,-0.450928003,1,0.690024614,1
0.980033517,-4.53363657,1,-4.594209194,1,-7.390578747,1,0.00261262,1,0.00290073,1,0.000983226,1,0.501997113,1,-0.450924933,1,0.690036774,1
0.984033287,-4.557569027,1,-4.585493088,1,-7.399313927,1,-0.00267775,1,0.003223286,1,0.003229053,1,0.50198102,1,-0.450913787,1,0.690060318,1
0.988035321,-4.533533096,1,-4.607900143,1,-7.403931618,1,0.001370974,1,0.007063127,1,0.004003956,1,0.501971722,1,-0.450907648,1,0.690080047,1
0.992033303,-4.54056406,1,-4.592530251,1,-7.417832851,1,0.003215692,1,0.002198657,1,0.001557346,1,0.501971304,1,-0.450903624,1,0.690091848,1
0.996033013,-4.506194592,1,-4.571474552,1,-7.41119957,1,0.004034607,1,0.003363351,1,-0.0007603,1,0.501964271,1,-0.450894177,1,0.69011122,1
1.000035048,-4.561449528,1,-4.599849224,1,-7.390590668,1,0.00386406,1,0.001812442,1,0.001423762,1,0.501967072,1,-0.450887233,1,0.690117002,1
1.004032969,-4.52837038,1,-4.601325989,1,-7.38430357,1,0.000147527,1,0.005411402,1,0.000482718,1,0.501965046,1,-0.450879753,1,0.690133095,1
1.008039117,-4.533530235,1,-4.646090508,1,-7.367110252,1,0.002510472,1,0.002638666,1,-0.000128024,1,0.501960516,1,-0.450859845,1,0.690153778,1
1.012041211,-4.505374908,1,-4.591474533,1,-7.38292408,1,0.00473756,1,0.006500967,1,0.001660497,1,0.501963675,1,-0.450846881,1,0.690174043,1
1.016039133,-4.528792858,1,-4.577125549,1,-7.411347866,1,0.001806925,1,0.006275828,1,0.00309044,1,0.501965642,1,-0.45083639,1,0.690189362,1
1.020039201,-4.520655632,1,-4.595695019,1,-7.368268967,1,0.000477329,1,0.003658879,1,0.00071539,1,0.501958549,1,-0.450825453,1,0.690212429,1
1.024041176,-4.514128685,1,-4.583844662,1,-7.414801121,1,0.000777269,1,0.00633389,1,0.004750308,1,0.501948953,1,-0.450815022,1,0.690236986,1
1.028039217,-4.521681309,1,-4.580970287,1,-7.411468983,1,0.000706929,1,0.004527765,1,0.001365207,1,0.501942873,1,-0.450800121,1,0.690258741,1
1.032039165,-4.572976112,1,-4.576540947,1,-7.383182049,1,0.001030511,1,0.009750184,1,0.003578468,1,0.501935184,1,-0.450783372,1,0.690280795,1
1.036040902,-4.579961777,1,-4.618659973,1,-7.358554363,1,0.001571218,1,0.012177065,1,0.008855524,1,0.501915038,1,-0.450758785,1,0.690327108,1
1.040039182,-4.548222065,1,-4.616948605,1,-7.338381767,1,0.006232299,1,0.010728067,1,0.010769292,1,0.50191015,1,-0.450731993,1,0.69038713,1
1.04403913,-4.56413269,1,-4.621309757,1,-7.37424612,1,0.011541205,1,0.018663544,1,0.019297866,1,0.501913309,1,-0.450708061,1,0.690473676,1
1.048040986,-4.547826767,1,-4.66835165,1,-7.335032463,1,0.016065709,1,0.020719854,1,0.026028318,1,0.50191474,1,-0.450677663,1,0.690592408,1
1.052039146,-4.589262009,1,-4.655433178,1,-7.291065216,1,0.03066567,1,0.029443458,1,0.031668242,1,0.501938879,1,-0.450644642,1,0.69074899,1
1.056039214,-4.538884163,1,-4.624960423,1,-7.306902409,1,0.036831342,1,0.037749056,1,0.04084577,1,0.501983523,1,-0.450602174,1,0.690953612,1
1.060040951,-4.562296867,1,-4.586145401,1,-7.338611603,1,0.048142463,1,0.039591908,1,0.051103912,1,0.502046227,1,-0.450545013,1,0.69121623,1
1.064038873,-4.588676453,1,-4.552873611,1,-7.326926231,1,0.050602697,1,0.052616313,1,0.046727482,1,0.502121687,1,-0.450477749,1,0.691502094,1
1.068038702,-4.576138496,1,-4.600127697,1,-7.320971012,1,0.052769307,1,0.05666342,1,0.050891016,1,0.503471851,1,-0.451301366,1,0.691567838,1
1.072040677,-4.571191311,1,-4.557022572,1,-7.351052761,1,0.055707935,1,0.05525608,1,0.047073074,1,0.503602207,1,-0.451132298,1,0.691450119,1
1.076038957,-4.579732418,1,-4.535975933,1,-7.351462364,1,0.049038146,1,0.062276807,1,0.047788341,1,0.503674626,1,-0.451019019,1,0.691767633,1
1.080038667,-4.550392628,1,-4.506585121,1,-7.366791248,1,0.046390031,1,0.056965299,1,0.04128512,1,0.503745437,1,-0.450900465,1,0.692069113,1
1.084040761,-4.578485966,1,-4.525593281,1,-7.407129765,1,0.048929255,1,0.060027257,1,0.040296234,1,0.503813207,1,-0.450770438,1,0.692351997,1
1.088038683,-4.596619606,1,-4.51155901,1,-7.373698235,1,0.046132851,1,0.059359018,1,0.030433156,1,0.503877401,1,-0.450631648,1,0.692619264,1
1.092038631,-4.62949419,1,-4.474748135,1,-7.418832779,1,0.036517598,1,0.059384987,1,0.026095288,1,0.503939509,1,-0.450479597,1,0.692852199,1
1.096040726,-4.61067915,1,-4.53348732,1,-7.411847591,1,0.034720693,1,0.058829688,1,0.019630104,1,0.503993809,1,-0.450318098,1,0.693071485,1
1.100038648,-4.600113869,1,-4.541924953,1,-7.412550449,1,0.030483305,1,0.058423221,1,0.01328973,1,0.504040539,1,-0.450149834,1,0.693257213,1
1.104038715,-4.573140144,1,-4.538212299,1,-7.408934593,1,0.0277695,1,0.057096105,1,0.006084028,1,0.504092395,1,-0.449962497,1,0.69341886,1
1.10804069,-4.524648666,1,-4.519349575,1,-7.392458916,1,0.027129134,1,0.056252815,1,0.003480149,1,0.504131496,1,-0.449771732,1,0.693559229,1
1.11203897,-4.499844551,1,-4.537436962,1,-7.421997547,1,0.022047931,1,0.055511504,1,-0.005749099,1,0.504183292,1,-0.449578226,1,0.693670332,1
1.116038918,-4.496508598,1,-4.552300453,1,-7.432694435,1,0.023907071,1,0.051381949,1,-0.00435287,1,0.504231513,1,-0.449375659,1,0.693767548,1
1.120040655,-4.472959518,1,-4.489402294,1,-7.419347763,1,0.023317076,1,0.049174264,1,-0.013132636,1,0.504295647,1,-0.449182004,1,0.69383198,1
1.124038696,-4.420450687,1,-4.53181982,1,-7.495116234,1,0.026514327,1,0.04071413,1,-0.012052424,1,0.504374802,1,-0.449008882,1,0.693883538,1
1.128044486,-4.37105608,1,-4.564253807,1,-7.537871361,1,0.02797604,1,0.036691602,1,-0.015115004,1,0.504465163,1,-0.448838472,1,0.693922162,1
1.13204658,-4.365205765,1,-4.633704662,1,-7.519249916,1,0.026409563,1,0.024619116,1,-0.014300069,1,0.50457561,1,-0.448699236,1,0.693930626,1
1.136044502,-4.41090107,1,-4.644157887,1,-7.457760334,1,0.025480328,1,0.022731762,1,-0.014428567,1,0.504681468,1,-0.448576689,1,0.693938911,1
1.140044332,-4.444146633,1,-4.666565895,1,-7.462574482,1,0.027544826,1,0.021089964,1,-0.011593424,1,0.50479126,1,-0.448474973,1,0.693933547,1
1.144046068,-4.50165081,1,-4.683413982,1,-7.45481205,1,0.026400726,1,0.017403692,1,-0.013022155,1,0.504898608,1,-0.448384434,1,0.693924665,1
1.14804399,-4.515301228,1,-4.674963474,1,-7.454351902,1,0.019302204,1,0.015536914,1,-0.015745336,1,0.504994333,1,-0.448293358,1,0.693908632,1
1.152044058,-4.471887589,1,-4.651083946,1,-7.444764137,1,0.018941598,1,0.010073687,1,-0.01476673,1,0.505088568,1,-0.448217839,1,0.693876684,1
1.156045794,-4.515683651,1,-4.630419731,1,-7.461760998,1,0.019902481,1,0.008885395,1,-0.013596477,1,0.505171239,1,-0.448152959,1,0.693837345,1
1.160044074,-4.484799862,1,-4.613296986,1,-7.469087601,1,0.017892387,1,0.0106297,1,-0.01851547,1,0.505260468,1,-0.448086232,1,0.693800628,1
1.164043784,-4.47004509,1,-4.618271351,1,-7.437315941,1,0.014462495,1,0.004866575,1,-0.019013193,1,0.505349219,1,-0.448037922,1,0.693748713,1
1.168045878,-4.47336483,1,-4.65188694,1,-7.395485878,1,0.015144118,1,0.003098257,1,-0.026232697,1,0.505446136,1,-0.447986364,1,0.69366467,1
1.1720438,-4.494363308,1,-4.652125835,1,-7.451520443,1,0.011925108,1,-1.63E-05,1,-0.022407481,1,0.505531132,1,-0.447937012,1,0.693581402,1
1.17604351,-4.472032547,1,-4.570811272,1,-7.45318222,1,0.01286822,1,-0.007616694,1,-0.024145966,1,0.505637109,1,-0.447893709,1,0.693471968,1
1.180045605,-4.506732941,1,-4.500669003,1,-7.477031231,1,0.011656825,1,-0.005742356,1,-0.025644816,1,0.505734205,1,-0.447864652,1,0.693359733,1
1.184043527,-4.497950077,1,-4.531292915,1,-7.470837116,1,0.015720192,1,-0.011299882,1,-0.027068431,1,0.50584209,1,-0.447842717,1,0.693235517,1
1.188043237,-4.491586208,1,-4.585008621,1,-7.427170277,1,0.011318371,1,-0.011360532,1,-0.032408118,1,0.505949557,1,-0.447818041,1,0.693093956,1
1.192045331,-4.482601643,1,-4.574132919,1,-7.470656395,1,0.016724732,1,-0.013588144,1,-0.035488449,1,0.506088912,1,-0.44779259,1,0.692924857,1
1.196043253,-4.465143204,1,-4.514561176,1,-7.477935314,1,0.019639356,1,-0.018108677,1,-0.035799123,1,0.506232679,1,-0.447783232,1,0.69275564,1
1.200043321,-4.520413876,1,-4.490391254,1,-7.460057735,1,0.023889698,1,-0.021354362,1,-0.040088471,1,0.506402671,1,-0.447771311,1,0.692573845,1
1.204045296,-4.480259418,1,-4.559648514,1,-7.466114044,1,0.030535758,1,-0.022093304,1,-0.042243019,1,0.506592453,1,-0.447770596,1,0.692372441,1
1.208043218,-4.495573521,1,-4.560829163,1,-7.447621822,1,0.028522346,1,-0.020286413,1,-0.04263683,1,0.506795824,1,-0.447767526,1,0.692161918,1
1.212043285,-4.528920174,1,-4.633721828,1,-7.400588036,1,0.02978616,1,-0.022758629,1,-0.041430209,1,0.506998539,1,-0.447772563,1,0.691959321,1
1.21604526,-4.470162868,1,-4.6439147,1,-7.386743069,1,0.033921421,1,-0.020586813,1,-0.040667769,1,0.507216692,1,-0.4477669,1,0.69174999,1
1.220043302,-4.516756535,1,-4.653327942,1,-7.383219242,1,0.035715625,1,-0.018838434,1,-0.040271498,1,0.507438779,1,-0.447758138,1,0.691558123,1
1.22404325,-4.489776611,1,-4.714486122,1,-7.35500145,1,0.032366764,1,-0.016794899,1,-0.040223911,1,0.507657886,1,-0.447742492,1,0.69136095,1
1.228045106,-4.491932392,1,-4.747788429,1,-7.299872398,1,0.031796623,1,-0.017455269,1,-0.035794485,1,0.507861137,1,-0.44773075,1,0.69118309,1
1.232043266,-4.48536396,1,-4.780591011,1,-7.355703831,1,0.0270149,1,-0.01523296,1,-0.033422638,1,0.508058548,1,-0.447722822,1,0.691005826,1
1.236043215,-4.462781429,1,-4.715723038,1,-7.31438446,1,0.027985813,1,-0.012559379,1,-0.034463726,1,0.50823915,1,-0.447698325,1,0.69084394,1
1.240045309,-4.466609001,1,-4.722309113,1,-7.373436451,1,0.024003195,1,-0.01441629,1,-0.031564217,1,0.508412302,1,-0.447682738,1,0.690686107,1
1.244043469,-4.445296764,1,-4.760477066,1,-7.356441498,1,0.025369436,1,-0.014754554,1,-0.033512942,1,0.508577228,1,-0.44767046,1,0.690533996,1
1.248049378,-4.417996407,1,-4.826931953,1,-7.339319706,1,0.02125309,1,-0.012294553,1,-0.027609916,1,0.508733571,1,-0.44765991,1,0.690391362,1
1.252051473,-4.419320583,1,-4.834100723,1,-7.357689381,1,0.016841283,1,-0.016082067,1,-0.027077667,1,0.508862734,1,-0.447659016,1,0.690257192,1
1.256049633,-4.483831882,1,-4.829846859,1,-7.363193512,1,0.010759239,1,-0.014196241,1,-0.021185461,1,0.508973479,1,-0.447668314,1,0.69013232,1
1.260049462,-4.480917454,1,-4.800938129,1,-7.338245392,1,0.013047031,1,-0.013917366,1,-0.018845955,1,0.509072721,1,-0.447679818,1,0.690023303,1
1.264051199,-4.471872807,1,-4.795322895,1,-7.36122942,1,0.009956211,1,-0.017576355,1,-0.012872902,1,0.509153903,1,-0.447705507,1,0.689930439,1
1.268049121,-4.486028194,1,-4.814996719,1,-7.391720295,1,0.003669407,1,-0.01689177,1,-0.011559702,1,0.509214222,1,-0.447740197,1,0.689853251,1
1.27204895,-4.458880424,1,-4.822217941,1,-7.378299236,1,0.00023123,1,-0.016339069,1,-0.004071086,1,0.509259582,1,-0.447779357,1,0.689789414,1
1.276050925,-4.451663494,1,-4.80779314,1,-7.404481411,1,6.81E-05,1,-0.019255316,1,-0.004315094,1,0.509284496,1,-0.447831452,1,0.689736605,1
1.280048847,-4.443915844,1,-4.840022087,1,-7.380403042,1,-0.006727925,1,-0.021801852,1,-3.28E-05,1,0.509293497,1,-0.447903156,1,0.689690828,1
1.284048676,-4.42020607,1,-4.861077785,1,-7.348188877,1,-0.004223938,1,-0.013621606,1,0.00234264,1,0.509280026,1,-0.44797197,1,0.689658642,1
1.288050652,-4.492480755,1,-4.878734112,1,-7.36015892,1,-0.012073403,1,-0.021471972,1,0.008290003,1,0.509257853,1,-0.448046237,1,0.689631581,1
1.292048693,-4.470816135,1,-4.884251595,1,-7.380413055,1,-0.021320868,1,-0.023227608,1,0.009330207,1,0.509200215,1,-0.448141456,1,0.689622521,1
1.296048403,-4.451170444,1,-4.890553474,1,-7.394663811,1,-0.022815613,1,-0.020119453,1,0.016512942,1,0.509113967,1,-0.448243707,1,0.689627528,1
1.300050139,-4.454989433,1,-4.943203449,1,-7.326380253,1,-0.027395219,1,-0.021560997,1,0.022319075,1,0.509004116,1,-0.448352516,1,0.689647257,1
1.304048181,-4.47522068,1,-4.913839817,1,-7.34159708,1,-0.038168047,1,-0.020821961,1,0.021309616,1,0.508854389,1,-0.448474407,1,0.689681113,1
1.308048129,-4.431531906,1,-4.938604355,1,-7.346151829,1,-0.04423764,1,-0.024148142,1,0.028272547,1,0.508674085,1,-0.4486022,1,0.689732432,1
1.312050223,-4.413917065,1,-4.911065102,1,-7.405527592,1,-0.045599189,1,-0.022207022,1,0.033893172,1,0.508462489,1,-0.448750645,1,0.689798951,1
1.316048145,-4.428887844,1,-4.913407326,1,-7.385016918,1,-0.053096287,1,-0.034014542,1,0.036818132,1,0.508225441,1,-0.448913395,1,0.689875841,1
1.320047855,-4.44066,1,-4.863234997,1,-7.402619362,1,-0.059078548,1,-0.029409811,1,0.042239785,1,0.509296238,1,-0.449819326,1,0.689223111,1
1.324049711,-4.514854908,1,-4.845235348,1,-7.358681679,1,-0.065647744,1,-0.030235186,1,0.045914214,1,0.509003043,1,-0.450009644,1,0.689326048,1
1.328047395,-4.5141325,1,-4.800014973,1,-7.389212608,1,-0.069081843,1,-0.026389133,1,0.049412381,1,0.508684576,1,-0.450202942,1,0.689451396,1
1.332047105,-4.518675804,1,-4.694553375,1,-7.388904095,1,-0.071625642,1,-0.032698527,1,0.050288472,1,0.508358657,1,-0.450398803,1,0.689574003,1
1.336048841,-4.552377224,1,-4.64029026,1,-7.408798695,1,-0.067833528,1,-0.030610442,1,0.045260441,1,0.508030117,1,-0.450604588,1,0.689683437,1
1.340046883,-4.612946033,1,-4.505318642,1,-7.429634094,1,-0.063602172,1,-0.033291273,1,0.043193113,1,0.50770998,1,-0.450804293,1,0.689790964,1
1.344046593,-4.607626438,1,-4.426505089,1,-7.416051388,1,-0.068633892,1,-0.028331514,1,0.040771428,1,0.507402182,1,-0.450992465,1,0.689898551,1
1.348048687,-4.636423111,1,-4.441488743,1,-7.41854763,1,-0.056519177,1,-0.02666425,1,0.038276888,1,0.507124245,1,-0.451165497,1,0.689990103,1
1.352046847,-4.58809185,1,-4.464169502,1,-7.422828197,1,-0.051346403,1,-0.022558574,1,0.035530791,1,0.506875694,1,-0.451327682,1,0.69007653,1
1.356046796,-4.607736111,1,-4.379204273,1,-7.360254765,1,-0.050245777,1,-0.026327014,1,0.037126597,1,0.506635189,1,-0.451488942,1,0.690165162,1
1.360048652,-4.643023491,1,-4.344770432,1,-7.386116505,1,-0.04492553,1,-0.025806289,1,0.031626757,1,0.506414294,1,-0.451648384,1,0.69024539,1
1.364046574,-4.641389847,1,-4.31316328,1,-7.405641079,1,-0.036302887,1,-0.02267204,1,0.032301277,1,0.5062204,1,-0.451791555,1,0.69031316,1
1.368052483,-4.625218868,1,-4.367555618,1,-7.386998177,1,-0.035350651,1,-0.019296195,1,0.029069204,1,0.506052136,1,-0.451921612,1,0.690379798,1
1.372054577,-4.603826046,1,-4.433335781,1,-7.388064384,1,-0.026631093,1,-0.020788394,1,0.022213586,1,0.505910516,1,-0.452035069,1,0.690427661,1
1.376052737,-4.566035748,1,-4.463204384,1,-7.359727859,1,-0.023724193,1,-0.018044122,1,0.023619941,1,0.505789876,1,-0.452146292,1,0.690473676,1
1.380052447,-4.579607487,1,-4.493112564,1,-7.368128777,1,-0.019401297,1,-0.01767995,1,0.022351518,1,0.505677581,1,-0.452252299,1,0.690520167,1
1.384054542,-4.578815937,1,-4.540318966,1,-7.363544941,1,-0.018675625,1,-0.013549233,1,0.018436868,1,0.505575538,1,-0.452344179,1,0.690566778,1
1.388052702,-4.549877167,1,-4.521030903,1,-7.382555962,1,-0.018316366,1,-0.014798593,1,0.020335997,1,0.50548321,1,-0.452426463,1,0.690608442,1
1.392052531,-4.586424351,1,-4.534030914,1,-7.395210743,1,-0.015710007,1,-0.009482116,1,0.01827733,1,0.505388737,1,-0.452503622,1,0.690656781,1
1.396054506,-4.598602295,1,-4.498096943,1,-7.390759468,1,-0.014242287,1,-0.006741534,1,0.011382077,1,0.505320549,1,-0.452567965,1,0.690697551,1
1.400052786,-4.578827858,1,-4.552779198,1,-7.395206928,1,-0.008319203,1,-0.007195997,1,0.011245012,1,0.505255938,1,-0.452619135,1,0.690731764,1
1.404052734,-4.561876297,1,-4.569233418,1,-7.401096821,1,-0.009167029,1,-0.008480612,1,0.011055475,1,0.505205035,1,-0.452669442,1,0.690754056,1
1.408054471,-4.595730305,1,-4.565025806,1,-7.419054031,1,-0.006819014,1,-0.007981958,1,0.010091783,1,0.505158663,1,-0.452718854,1,0.690785408,1
1.412052512,-4.479342937,1,-4.577457428,1,-7.416695595,1,-0.004534973,1,-0.007775346,1,0.013361634,1,0.505120158,1,-0.452764034,1,0.690807819,1
1.416052461,-4.49571228,1,-4.623906612,1,-7.439310074,1,-0.003430116,1,-0.014846681,1,0.009210083,1,0.505088091,1,-0.452819645,1,0.690829277,1
1.420054317,-4.446523666,1,-4.645988464,1,-7.489661694,1,-0.006299245,1,-0.013229424,1,0.011540473,1,0.505069137,1,-0.452886224,1,0.690834403,1
1.424052238,-4.512339115,1,-4.632567406,1,-7.45387888,1,-0.005670178,1,-0.018836029,1,0.010148508,1,0.505042315,1,-0.452963769,1,0.690844715,1
1.428052187,-4.498218536,1,-4.671617508,1,-7.446852684,1,-0.005627529,1,-0.020098286,1,0.009208237,1,0.505017757,1,-0.453056604,1,0.690850675,1
1.432054043,-4.517658234,1,-4.595288754,1,-7.415917873,1,-0.004375518,1,-0.019859208,1,0.014671444,1,0.504996002,1,-0.453155279,1,0.690851212,1
1.436052203,-4.465620518,1,-4.579146385,1,-7.432814121,1,-0.000919126,1,-0.022174237,1,0.015775394,1,0.504982233,1,-0.453266978,1,0.690861702,1
1.440052271,-4.459591866,1,-4.561228752,1,-7.469055653,1,-0.001932174,1,-0.027481258,1,0.018128449,1,0.504968941,1,-0.453381896,1,0.690872192,1
1.444054008,-4.46602869,1,-4.578073025,1,-7.457767487,1,0.00096511,1,-0.027718153,1,0.015697297,1,0.504957497,1,-0.453514487,1,0.69088608,1
1.448052168,-4.492792606,1,-4.555599689,1,-7.424210072,1,0.003072862,1,-0.031860873,1,0.020221567,1,0.504969358,1,-0.45365423,1,0.690885603,1
1.452051997,-4.55739975,1,-4.454859734,1,-7.433820248,1,0.004011767,1,-0.026180748,1,0.018448079,1,0.504983068,1,-0.453791112,1,0.690895736,1
1.456053734,-4.583672047,1,-4.417044163,1,-7.414257526,1,0.015648508,1,-0.029962126,1,0.014026122,1,0.505016565,1,-0.453929186,1,0.690895319,1
1.460051656,-4.636347771,1,-4.409630775,1,-7.409520149,1,0.012165767,1,-0.028641991,1,0.011760579,1,0.505071998,1,-0.454057395,1,0.690888286,1
1.464051485,-4.616725445,1,-4.421023846,1,-7.438083649,1,0.023519678,1,-0.026727565,1,0.010129726,1,0.50514406,1,-0.45417738,1,0.690880239,1
1.46805346,-4.627182961,1,-4.451566219,1,-7.39472723,1,0.020091217,1,-0.023527574,1,0.006081931,1,0.505236626,1,-0.45428589,1,0.690858603,1
1.47205174,-4.608206749,1,-4.506057262,1,-7.397174835,1,0.022929488,1,-0.024592955,1,0.008058449,1,0.505339146,1,-0.454391718,1,0.69083482,1
1.47605145,-4.593852997,1,-4.551065445,1,-7.342079163,1,0.022294588,1,-0.025790434,1,0.005230505,1,0.505451322,1,-0.454481155,1,0.690804183,1
1.480053544,-4.638142586,1,-4.611510754,1,-7.293119431,1,0.020364139,1,-0.021016132,1,0.007454142,1,0.505559266,1,-0.454565287,1,0.690778494,1
1.484051466,-4.639635563,1,-4.673254013,1,-7.283414841,1,0.021534635,1,-0.015858963,1,0.000886747,1,0.505667567,1,-0.454632282,1,0.690746248,1
1.488057375,-4.607149601,1,-4.675562859,1,-7.303499222,1,0.021046091,1,-0.015556177,1,0.004436079,1,0.505756378,1,-0.454699248,1,0.690720797,1
1.49205935,-4.583568096,1,-4.682043076,1,-7.323330879,1,0.019759441,1,-0.011620367,1,0.000135251,1,0.50584507,1,-0.454754263,1,0.690698206,1
1.496057391,-4.610861301,1,-4.676643848,1,-7.314423561,1,0.015551796,1,-0.013508782,1,0.003787567,1,0.505920827,1,-0.454797864,1,0.690677166,1
1.50005734,-4.569067001,1,-4.67845583,1,-7.283866882,1,0.013239777,1,-0.007778715,1,0.004841863,1,0.50597924,1,-0.454839647,1,0.690676689,1
1.504059434,-4.591216087,1,-4.670109749,1,-7.296002388,1,0.007225362,1,-0.006091145,1,0.006806551,1,0.506013513,1,-0.45486486,1,0.690677941,1
1.508057356,-4.567762852,1,-4.607689857,1,-7.303185463,1,0.005191864,1,-0.001511214,1,0.003927093,1,0.506034434,1,-0.454881102,1,0.690690875,1
1.512057304,-4.604307652,1,-4.53433466,1,-7.31818819,1,0.008931534,1,0.003311365,1,0.006527244,1,0.506054521,1,-0.454890877,1,0.690711379,1
1.516059399,-4.629611492,1,-4.497024059,1,-7.353350163,1,0.001608837,1,-0.001355675,1,0.006421712,1,0.506059408,1,-0.454890788,1,0.69074142,1
1.520057321,-4.575910091,1,-4.498258591,1,-7.372735023,1,0.006725787,1,0.006452897,1,0.001839804,1,0.506064773,1,-0.454886526,1,0.690771401,1
1.524057388,-4.533022881,1,-4.530851364,1,-7.378350258,1,0.011026307,1,0.005283777,1,5.00E-05,1,0.506082654,1,-0.45487237,1,0.690796733,1
1.528059125,-4.498054028,1,-4.526623249,1,-7.407623768,1,0.008830927,1,0.006585669,1,0.00559691,1,0.506111979,1,-0.454855412,1,0.690823793,1
1.532057285,-4.555634499,1,-4.512108803,1,-7.40734148,1,0.010063484,1,0.007302281,1,0.001481208,1,0.506136715,1,-0.454836667,1,0.690845072,1
1.536057353,-4.502601624,1,-4.598958015,1,-7.418343544,1,0.011452781,1,0.008293603,1,0.000561855,1,0.506171286,1,-0.454809189,1,0.690861821,1
1.54005909,-4.536725044,1,-4.616122246,1,-7.400197506,1,0.014328491,1,0.003821213,1,0.003156608,1,0.506212413,1,-0.454796553,1,0.690873384,1
1.544057369,-4.530521393,1,-4.614733696,1,-7.415396214,1,0.014301636,1,0.003457181,1,0.000713925,1,0.506260633,1,-0.454780579,1,0.690880895,1
1.548057079,-4.542464733,1,-4.665079594,1,-7.425294399,1,0.014407416,1,0.000121186,1,0.000934155,1,0.506311238,1,-0.454776704,1,0.69088608,1
1.552058935,-4.490470409,1,-4.680912971,1,-7.426267147,1,0.015497146,1,-0.000571515,1,-0.00228363,1,0.50636518,1,-0.454774678,1,0.690892696,1
1.556057096,-4.479927063,1,-4.6834445,1,-7.422914505,1,0.013694826,1,-0.00822809,1,-0.000417058,1,0.506426632,1,-0.454788208,1,0.690884471,1
1.560056806,-4.526411533,1,-4.678461075,1,-7.393752575,1,0.012977783,1,-0.005550333,1,0.003237786,1,0.506479204,1,-0.454814047,1,0.690882206,1
1.5640589,-4.589495659,1,-4.680670738,1,-7.367071629,1,0.014614521,1,-0.00754595,1,0.004160721,1,0.50652808,1,-0.454837233,1,0.690883636,1
1.56805706,-4.576494694,1,-4.681580067,1,-7.345766544,1,0.013085239,1,-0.004896832,1,-0.001569767,1,0.507661283,1,-0.455777705,1,0.690712631,1
1.57205689,-4.576383591,1,-4.683638096,1,-7.354629993,1,0.014975191,1,-0.006086648,1,-0.000665024,1,0.507767081,1,-0.455714941,1,0.690276265,1
1.576058865,-4.552546024,1,-4.717421055,1,-7.377423286,1,0.011145759,1,-0.005149959,1,0.000591879,1,0.50782299,1,-0.45573613,1,0.690256715,1
1.580056787,-4.550303936,1,-4.661345959,1,-7.360788822,1,0.011608532,1,-7.72E-05,1,0.002095394,1,0.507868767,1,-0.455754817,1,0.690255105,1
1.584056616,-4.476575375,1,-4.645624638,1,-7.34377718,1,0.011109628,1,-0.01018763,1,0.002085846,1,0.507917643,1,-0.455771208,1,0.690243602,1
1.588058591,-4.428977013,1,-4.593822002,1,-7.385091782,1,0.012890893,1,-0.002102569,1,0.003016305,1,0.507960975,1,-0.455796212,1,0.690246403,1
1.592056632,-4.56426239,1,-4.564105034,1,-7.353009224,1,0.019352399,1,-0.006411626,1,0.001966173,1,0.508028686,1,-0.455827445,1,0.69024241,1
1.596056581,-4.606348991,1,-4.612138748,1,-7.466347694,1,0.009333735,1,-0.003607677,1,0.000419354,1,0.508084774,1,-0.455848187,1,0.690244794,1
1.600058317,-4.54862833,1,-4.466487885,1,-7.404983044,1,0.017210692,1,-0.012549322,1,-0.002168453,1,0.508147359,1,-0.455880642,1,0.690225244,1
1.604056358,-4.601554871,1,-4.537438393,1,-7.39081192,1,0.016996009,1,-0.006580084,1,-0.000417492,1,0.508229196,1,-0.455909759,1,0.690199018,1
1.608062267,-4.622279167,1,-4.536509991,1,-7.370970249,1,0.020495359,1,-0.009097522,1,-0.002618861,1,0.508317411,1,-0.455933183,1,0.690170288,1
1.612064242,-4.533039093,1,-4.551758766,1,-7.359748363,1,0.021401921,1,-0.007506043,1,0.002364314,1,0.508407354,1,-0.455958784,1,0.690149188,1
1.616062522,-4.528126717,1,-4.621069431,1,-7.369918346,1,0.021192333,1,-0.009073632,1,-0.000398778,1,0.50850004,1,-0.455982864,1,0.690129519,1
1.62006247,-4.569835186,1,-4.595847607,1,-7.341786861,1,0.02125182,1,-0.005656868,1,0.001357308,1,0.508591771,1,-0.456013918,1,0.690106511,1
1.624064207,-4.553545952,1,-4.587229252,1,-7.357613564,1,0.016621917,1,-0.005348362,1,0.004470541,1,0.508675158,1,-0.456039608,1,0.69009614,1
1.628062487,-4.585100174,1,-4.569626808,1,-7.341657162,1,0.013841304,1,-0.00280505,1,0.000974482,1,0.508743584,1,-0.45606488,1,0.690098882,1
1.632062197,-4.596393108,1,-4.62198019,1,-7.371079445,1,0.015929155,1,-0.000731505,1,0.00760682,1,0.508810759,1,-0.456081152,1,0.690105498,1
1.636064053,-4.568771839,1,-4.679503918,1,-7.345446587,1,0.012394413,1,-0.000210004,1,0.008507158,1,0.50884974,1,-0.456105828,1,0.690136671,1
1.640062213,-4.554503918,1,-4.765775681,1,-7.329419613,1,0.008669767,1,0.003828109,1,0.016242864,1,0.508879066,1,-0.456130803,1,0.690189004,1
1.644061923,-4.566677094,1,-4.850063324,1,-7.311333179,1,0.002235038,1,-0.002013194,1,0.01835035,1,0.508878648,1,-0.456166178,1,0.690253615,1
1.648063779,-4.583693981,1,-4.89710474,1,-7.248434067,1,-0.003725352,1,0.002858778,1,0.023710208,1,0.50884217,1,-0.456197351,1,0.690331817,1
1.652061939,-4.525117874,1,-4.813636303,1,-7.288014412,1,-0.008747473,1,0.002333564,1,0.023466157,1,0.508768797,1,-0.456228584,1,0.690437317,1
1.656061649,-4.587955952,1,-4.800264359,1,-7.2847929,1,-0.013525099,1,0.008456081,1,0.024714045,1,0.508670628,1,-0.456259578,1,0.690544784,1
1.660063744,-4.577895641,1,-4.723335743,1,-7.320257187,1,-0.022181777,1,0.01204154,1,0.027570577,1,0.508547306,1,-0.456278414,1,0.690667033,1
1.664061904,-4.582577229,1,-4.669391632,1,-7.333108425,1,-0.019884242,1,0.013095062,1,0.030603122,1,0.508401632,1,-0.456297278,1,0.690804303,1
1.668061733,-4.595626354,1,-4.646389008,1,-7.341013432,1,-0.027541289,1,0.016481832,1,0.025343524,1,0.508242726,1,-0.456304193,1,0.690947831,1
1.672063708,-4.572814941,1,-4.627128601,1,-7.349844933,1,-0.027212819,1,0.013126394,1,0.033460196,1,0.508067369,1,-0.456308067,1,0.691094995,1
1.676061749,-4.598392487,1,-4.571864128,1,-7.303416729,1,-0.026209209,1,0.018380277,1,0.024918307,1,0.507896364,1,-0.456304818,1,0.69124037,1
1.68006146,-4.603505135,1,-4.556184769,1,-7.343649387,1,-0.026489073,1,0.01824744,1,0.02764477,1,0.507724047,1,-0.456291318,1,0.691381931,1
1.684063435,-4.598026276,1,-4.568824291,1,-7.34102726,1,-0.0270597,1,0.018714471,1,0.0256497,1,0.507549644,1,-0.456288815,1,0.691525459,1
1.688061476,-4.549890041,1,-4.524720669,1,-7.329249382,1,-0.022065926,1,0.020605508,1,0.028165789,1,0.507392287,1,-0.45626837,1,0.691666484,1
1.692061424,-4.656832695,1,-4.53570509,1,-7.355147839,1,-0.02780666,1,0.025912981,1,0.020841913,1,0.507227719,1,-0.456230551,1,0.691810071,1
1.69606328,-4.595739841,1,-4.519276619,1,-7.357630253,1,-0.025082614,1,0.028104549,1,0.028454309,1,0.507054269,1,-0.456186473,1,0.691965401,1
1.700061202,-4.600733757,1,-4.468164444,1,-7.336492538,1,-0.025176557,1,0.025870064,1,0.022270977,1,0.50688535,1,-0.456138283,1,0.692114532,1
1.704061151,-4.628476143,1,-4.496462822,1,-7.351521492,1,-0.022934562,1,0.026259487,1,0.020707184,1,0.506728172,1,-0.456078917,1,0.692256927,1
1.708063006,-4.623727798,1,-4.523002148,1,-7.398487091,1,-0.022170879,1,0.027682597,1,0.01974454,1,0.506577015,1,-0.456014156,1,0.692396522,1
1.712060928,-4.589664936,1,-4.494102955,1,-7.352982998,1,-0.024472965,1,0.033965807,1,0.013637875,1,0.506431699,1,-0.455945075,1,0.692527771,1
1.716060877,-4.590409756,1,-4.560175896,1,-7.397824287,1,-0.02018646,1,0.030643299,1,0.015026754,1,0.506286204,1,-0.455862284,1,0.692657769,1
1.720062733,-4.59430933,1,-4.55623579,1,-7.379745483,1,-0.019840732,1,0.030956173,1,0.015984328,1,0.506153107,1,-0.455779195,1,0.692776144,1
1.724060655,-4.607361317,1,-4.574217319,1,-7.365134716,1,-0.024641022,1,0.034286551,1,0.015258606,1,0.506011426,1,-0.455694079,1,0.692898452,1
1.728060365,-4.622047424,1,-4.541390896,1,-7.389107704,1,-0.022234203,1,0.032822151,1,0.007981288,1,0.50587225,1,-0.455596477,1,0.693007946,1
1.7320683,-4.657464504,1,-4.563742638,1,-7.404211521,1,-0.017632712,1,0.036356773,1,0.005717115,1,0.505748272,1,-0.455490768,1,0.693103373,1
1.736072421,-4.603620052,1,-4.569881439,1,-7.436294556,1,-0.020081745,1,0.036115423,1,0.000227733,1,0.505624354,1,-0.455366313,1,0.69319433,1
1.740072489,-4.625700951,1,-4.558338165,1,-7.437951088,1,-0.019208556,1,0.039498299,1,-0.000741939,1,0.505512714,1,-0.45523417,1,0.693275869,1
1.744074225,-4.650033951,1,-4.634837627,1,-7.362032413,1,-0.022214727,1,0.037891794,1,-0.006687382,1,0.50539875,1,-0.455095321,1,0.6933496,1
1.748072147,-4.663574219,1,-4.696311951,1,-7.319289207,1,-0.025199691,1,0.040108357,1,-0.004618931,1,0.505277812,1,-0.454940766,1,0.693413138,1
1.752071977,-4.641922951,1,-4.70907402,1,-7.341798306,1,-0.0267519,1,0.042552184,1,-0.005737906,1,0.505149364,1,-0.454782218,1,0.693475068,1
1.756073713,-4.606519222,1,-4.697405338,1,-7.371022701,1,-0.028934129,1,0.044049729,1,-0.007065248,1,0.505000949,1,-0.45461309,1,0.693543017,1
1.760071635,-4.602840424,1,-4.677840233,1,-7.390185833,1,-0.032485832,1,0.045070697,1,-0.004076484,1,0.504844427,1,-0.454444349,1,0.693621397,1
1.764071465,-4.555595875,1,-4.709834099,1,-7.444036961,1,-0.039346647,1,0.049821433,1,-0.00391098,1,0.504667163,1,-0.454269439,1,0.693695545,1
1.768073201,-4.509007931,1,-4.67373848,1,-7.435141563,1,-0.041593257,1,0.048053429,1,-0.002468594,1,0.504468977,1,-0.454093516,1,0.693781912,1
1.772071123,-4.50746727,1,-4.6997962,1,-7.460014343,1,-0.039028145,1,0.043260768,1,-0.00313763,1,0.504270375,1,-0.453936785,1,0.693864048,1
1.776070952,-4.497205734,1,-4.745378494,1,-7.44260931,1,-0.043296311,1,0.040096238,1,-0.005904785,1,0.504072011,1,-0.453778625,1,0.693942606,1
1.780072689,-4.484102726,1,-4.677623272,1,-7.478888988,1,-0.044187877,1,0.039731666,1,-5.45E-05,1,0.503864348,1,-0.453643829,1,0.694016576,1
1.784070611,-4.50778532,1,-4.593658924,1,-7.485198021,1,-0.038932499,1,0.032191176,1,-0.000468312,1,0.503664672,1,-0.453514725,1,0.694096982,1
1.788070679,-4.526677132,1,-4.554894447,1,-7.590095043,1,-0.03838161,1,0.02749278,1,0.002249439,1,0.503476322,1,-0.453409076,1,0.694156766,1
1.792072415,-4.506575584,1,-4.47824955,1,-7.613143921,1,-0.032950137,1,0.021348933,1,0.003133304,1,0.503316522,1,-0.453317583,1,0.694219947,1
1.796070457,-4.527738094,1,-4.454779625,1,-7.592986107,1,-0.024538277,1,0.011341488,1,-0.001744864,1,0.503183842,1,-0.453262001,1,0.694257557,1
1.800070167,-4.475374699,1,-4.506711483,1,-7.636004925,1,-0.014242421,1,0.002833636,1,0.002156236,1,0.503092587,1,-0.453230113,1,0.694280863,1
1.804071903,-4.43056488,1,-4.595542431,1,-7.666251659,1,-0.011882576,1,-0.008657711,1,0.005052641,1,0.503040254,1,-0.453241944,1,0.694273949,1
1.808069944,-4.396588802,1,-4.655758858,1,-7.681598663,1,-0.00285933,1,-0.028189316,1,0.006560814,1,0.503011584,1,-0.453310013,1,0.694266796,1
1.812069654,-4.333035946,1,-4.726533413,1,-7.746502399,1,-0.003074053,1,-0.038029354,1,0.01462891,1,0.503002405,1,-0.453443021,1,0.694242358,1
1.816071391,-4.204209805,1,-4.836000919,1,-7.71290493,1,0.000320412,1,-0.05928012,1,0.023867225,1,0.503010273,1,-0.453649104,1,0.694210887,1
1.820069671,-4.261888981,1,-5.112984657,1,-7.794904709,1,0.01123319,1,-0.075728804,1,0.041305568,1,0.504015028,1,-0.454535216,1,0.693583071,1
1.824069381,-4.12138176,1,-5.421725273,1,-7.884576321,1,0.029073365,1,-0.103397913,1,0.080937482,1,0.504068792,1,-0.454959333,1,0.693625987,1
1.828071117,-3.86656332,1,-5.511524677,1,-8.101263046,1,0.082676567,1,-0.132056221,1,0.135197505,1,0.504214764,1,-0.455574006,1,0.693801224,1
1.832069397,-3.588606596,1,-5.490834713,1,-8.34963131,1,0.132320225,1,-0.195808545,1,0.200164527,1,0.50451082,1,-0.456469357,1,0.694116652,1
1.836069345,-3.487220287,1,-5.540821552,1,-8.475068092,1,0.176442817,1,-0.278615475,1,0.2629098,1,0.504953504,1,-0.457742095,1,0.694507599,1
1.84007144,-3.903343678,1,-5.780172348,1,-8.265039444,1,0.234103277,1,-0.314843714,1,0.321210325,1,0.505552649,1,-0.45935753,1,0.695014,1
1.844069839,-3.89849472,1,-5.822744846,1,-8.434436798,1,0.290561467,1,-0.34693101,1,0.363255858,1,0.50633359,1,-0.461177796,1,0.695639491,1
1.848069668,-3.670269966,1,-5.679567814,1,-8.69791317,1,0.364939541,1,-0.40733093,1,0.391850144,1,0.507342875,1,-0.463220358,1,0.696290255,1
1.852077842,-3.252370358,1,-5.29153347,1,-9.450857162,1,0.521449327,1,-0.486126572,1,0.430366665,1,0.508825839,1,-0.46557647,1,0.696940184,1
1.856081963,-3.191821575,1,-4.846369267,1,-9.954112053,1,0.669274092,1,-0.603339136,1,0.471718162,1,0.51095283,1,-0.468352795,1,0.697510481,1
1.86008215,-3.542113066,1,-4.616719723,1,-10.16020679,1,0.796716452,1,-0.683176398,1,0.531593442,1,0.513641298,1,-0.471592069,1,0.698058784,1
1.864084005,-3.266029596,1,-5.425270081,1,-10.76669407,1,0.881556511,1,-0.755638301,1,0.597931027,1,0.516744435,1,-0.475216925,1,0.698699534,1
1.868081927,-3.132130861,1,-5.880999565,1,-10.91803551,1,0.956121683,1,-0.820486128,1,0.638294637,1,0.520116627,1,-0.479177415,1,0.699332833,1
1.872081637,-3.239733934,1,-7.997188568,1,-10.83590031,1,0.945755124,1,-0.912440717,1,0.713125527,1,0.523648977,1,-0.483511239,1,0.700027585,1
1.876083493,-3.612074852,1,-8.734080315,1,-10.35101891,1,0.841482043,1,-1.062000632,1,0.787950933,1,0.526878178,1,-0.488439769,1,0.700710714,1
1.880081415,-3.871129751,1,-8.509770393,1,-10.30147743,1,0.880840242,1,-1.16330862,1,0.870819569,1,0.529971242,1,-0.493972391,1,0.701410413,1
1.884081125,-5.651063442,1,-9.602144241,1,-10.40758514,1,0.920072675,1,-1.248106837,1,1.008789063,1,0.533187389,1,-0.500025511,1,0.702291131,1
1.88808322,-6.417117119,1,-10.37308216,1,-10.42314339,1,0.802765667,1,-1.301661491,1,1.201561332,1,0.535989583,1,-0.50667876,1,0.703682184,1
1.892081141,-5.846927166,1,-10.18476295,1,-9.77366066,1,0.659381568,1,-1.41968596,1,1.333081961,1,0.538021028,1,-0.513932705,1,0.705481052,1
1.896080852,-7.301431656,1,-9.967345238,1,-9.732601166,1,0.52784729,1,-1.534261703,1,1.445573688,1,0.539394259,1,-0.521862686,1,0.707496464,1
1.900082707,-8.996359825,1,-10.4131031,1,-10.66083241,1,0.40089047,1,-1.573013902,1,1.527120829,1,0.540157616,1,-0.530281603,1,0.709685922,1
1.904080629,-9.943412781,1,-10.57846928,1,-10.68532276,1,0.266497552,1,-1.577524424,1,1.589151025,1,0.540241063,1,-0.538900435,1,0.712134778,1
1.908080697,-9.636084557,1,-9.852827072,1,-10.77224255,1,0.16268374,1,-1.562970877,1,1.577949524,1,0.539705873,1,-0.547543347,1,0.71473223,1
1.912082434,-12.2936821,1,-10.45983601,1,-12.12317467,1,0.074728653,1,-1.512731791,1,1.5416435,1,0.538870573,1,-0.556059659,1,0.717285991,1
1.916080117,-13.44108009,1,-10.99127293,1,-13.80202961,1,-0.087451756,1,-1.302286625,1,1.44906354,1,0.537454426,1,-0.564001441,1,0.719933569,1
1.920080185,-12.35921669,1,-11.42700481,1,-14.76549339,1,-0.248260647,1,-1.024078727,1,1.270684838,1,0.535287499,1,-0.57078439,1,0.72267139,1
1.924081922,-10.23631096,1,-10.8056221,1,-14.55157185,1,-0.327271342,1,-0.813414216,1,1.128615499,1,0.532661736,1,-0.576365709,1,0.725351691,1
1.928079844,-7.401817799,1,-9.735182762,1,-14.01844788,1,-0.40446946,1,-0.692978382,1,1.087299705,1,0.529708564,1,-0.581162512,1,0.7280761,1
1.932079673,-4.54017067,1,-8.789772034,1,-13.08959961,1,-0.483173549,1,-0.657918692,1,1.135116816,1,0.526301384,1,-0.585703909,1,0.731043756,1
1.936081409,-2.429924011,1,-8.126219749,1,-12.18201351,1,-0.539876699,1,-0.661845744,1,1.243991375,1,0.522370815,1,-0.590359807,1,0.734416008,1
1.94007957,-0.807667851,1,-7.462305069,1,-11.53076649,1,-0.575237691,1,-0.705095589,1,1.377650738,1,0.517988563,1,-0.595329046,1,0.738256812,1
1.944079399,-0.447576821,1,-6.815155029,1,-11.83357334,1,-0.554363906,1,-0.757970572,1,1.565144777,1,0.513220966,1,-0.600766599,1,0.742697001,1
1.948081136,-1.331696033,1,-6.898565769,1,-12.06305695,1,-0.548829138,1,-0.824812531,1,1.727658272,1,0.508122742,1,-0.606766999,1,0.747798204,1
1.952079058,0.62070781,1,-6.753422737,1,-11.03004551,1,-0.506383896,1,-0.806788743,1,1.847299933,1,0.502722561,1,-0.613088489,1,0.753512859,1
1.956078887,1.706676245,1,-6.751757145,1,-11.2850256,1,-0.46657601,1,-0.820006907,1,1.950753093,1,0.497168213,1,-0.619593561,1,0.759775996,1
1.960080862,0.326950699,1,-7.421188831,1,-12.07640839,1,-0.431398004,1,-0.769536138,1,2.023338556,1,0.491425574,1,-0.626184225,1,0.76653558,1
1.964078903,0.504530847,1,-8.064472198,1,-12.37103271,1,-0.410611004,1,-0.659381628,1,2.05252552,1,0.48548457,1,-0.632546067,1,0.773787498,1
1.968078613,0.895379901,1,-8.25907135,1,-12.00400829,1,-0.412350178,1,-0.51142174,1,2.049945831,1,0.479282469,1,-0.638441801,1,0.781457663,1
1.972086549,1.99875319,1,-8.207888603,1,-11.89298344,1,-0.415330946,1,-0.376047939,1,2.015240669,1,0.472842842,1,-0.643738091,1,0.78946203,1
1.97609067,2.619515657,1,-8.437397003,1,-11.90429497,1,-0.426316351,1,-0.227241814,1,1.975947142,1,0.466192991,1,-0.648427904,1,0.79770422,1
1.980090618,3.30195117,1,-8.25254631,1,-11.93121529,1,-0.425535858,1,-0.067688115,1,1.913397551,1,0.459376484,1,-0.652428091,1,0.806124687,1
1.984092712,3.799497128,1,-8.073576927,1,-11.87159252,1,-0.417999625,1,0.072351247,1,1.837507844,1,0.45250532,1,-0.655729413,1,0.814628482,1
1.988090634,4.522646427,1,-7.926775932,1,-11.5522213,1,-0.395269364,1,0.211649552,1,1.74447906,1,0.445696533,1,-0.658331454,1,0.823102236,1
1.992090583,4.978312969,1,-7.901203632,1,-11.30284119,1,-0.367820144,1,0.331298709,1,1.650079966,1,0.439060301,1,-0.660254896,1,0.831459343,1
1.996092439,5.269244671,1,-7.947584152,1,-11.0316,1,-0.351388514,1,0.440877646,1,1.538288355,1,0.432625085,1,-0.661536932,1,0.839622498,1
2.000090361,5.576271534,1,-7.956440926,1,-10.78950596,1,-0.330850005,1,0.550711036,1,1.420369267,1,0.426430732,1,-0.662190795,1,0.847492456,1
2.004090309,5.846185207,1,-7.936343193,1,-10.46224785,1,-0.317158043,1,0.648625255,1,1.300230384,1,0.420496821,1,-0.662231207,1,0.855032384,1
2.008092165,6.261006832,1,-7.701740265,1,-10.11027622,1,-0.299868464,1,0.738746047,1,1.167448282,1,0.414867342,1,-0.661687136,1,0.86218226,1
2.012090206,6.449766159,1,-7.344665527,1,-9.811686516,1,-0.271115988,1,0.815380812,1,1.034498453,1,0.409622073,1,-0.66060859,1,0.868864536,1
2.016089916,6.656403065,1,-6.927361012,1,-9.577326775,1,-0.220469266,1,0.879595697,1,0.900427282,1,0.404837966,1,-0.659024358,1,0.875057578,1
2.020091534,6.850348473,1,-6.44594574,1,-9.356479645,1,-0.155371398,1,0.947095513,1,0.754321158,1,0.400624394,1,-0.656952858,1,0.880712748,1
2.024089575,6.987845898,1,-6.088101864,1,-9.181965828,1,-0.068131573,1,1.007026911,1,0.611589491,1,0.397062361,1,-0.654412329,1,0.885811627,1
2.028089523,7.085186005,1,-5.814011097,1,-8.96117878,1,0.017842533,1,1.059140325,1,0.458438188,1,0.394239247,1,-0.65142715,1,0.890301824,1
2.032091379,7.064419746,1,-5.759083271,1,-8.806419373,1,0.104111224,1,1.108788848,1,0.305424392,1,0.392160147,1,-0.64801538,1,0.89415431,1
2.036089659,7.002257824,1,-5.75501585,1,-8.692956924,1,0.169368476,1,1.146170974,1,0.151624218,1,0.390771896,1,-0.644205987,1,0.897368908,1
2.040089369,6.887867451,1,-5.835527897,1,-8.552715302,1,0.216536686,1,1.187240005,1,-0.000684681,1,0.390017331,1,-0.640011072,1,0.899920642,1
2.044091225,6.813402176,1,-5.764622211,1,-8.426187515,1,0.249618828,1,1.220610976,1,-0.149619251,1,0.389801055,1,-0.635443866,1,0.901857257,1
2.048089027,6.669696331,1,-5.581212521,1,-8.371244431,1,0.283385307,1,1.261126399,1,-0.285389036,1,0.390076518,1,-0.630520523,1,0.903198302,1
2.052088737,6.549491405,1,-5.329903603,1,-8.270529747,1,0.315751016,1,1.299444556,1,-0.415436238,1,0.390806913,1,-0.62525028,1,0.903989434,1
2.056090593,6.272870064,1,-5.037460804,1,-8.273794174,1,0.363782614,1,1.335320592,1,-0.540298402,1,0.391990751,1,-0.619654536,1,0.90428865,1
2.060088634,6.009199619,1,-4.826323986,1,-8.261427879,1,0.41201809,1,1.374805927,1,-0.657702506,1,0.393629134,1,-0.613723755,1,0.904129565,1
2.064088345,5.720334053,1,-4.587309837,1,-8.308821678,1,0.457824588,1,1.423454523,1,-0.768194258,1,0.395699978,1,-0.607461512,1,0.903547704,1
2.0680902,5.406509876,1,-4.45658493,1,-8.264187813,1,0.499218345,1,1.467477322,1,-0.868088722,1,0.398159534,1,-0.600872338,1,0.902585566,1
2.072088003,5.191131592,1,-4.325833321,1,-8.292239189,1,0.531939209,1,1.520207644,1,-0.965934694,1,0.401032627,1,-0.593899369,1,0.900827646,1
2.076087713,4.946925163,1,-4.217705727,1,-8.323827744,1,0.562425017,1,1.5672791,1,-1.051317811,1,0.404099971,1,-0.586640835,1,0.899259329,1
2.080089569,4.641134262,1,-4.127693176,1,-8.319552422,1,0.579559207,1,1.617071748,1,-1.1245749,1,0.407359809,1,-0.579060733,1,0.897474945,1
2.08408761,4.275179863,1,-4.023866177,1,-8.404782295,1,0.58085382,1,1.672749162,1,-1.194983244,1,0.410753399,1,-0.571177423,1,0.895511568,1
2.088087559,3.94679904,1,-3.967141151,1,-8.413672447,1,0.584025621,1,1.734510422,1,-1.249438047,1,0.414200366,1,-0.562972426,1,0.893443227,1
2.092095375,3.690824032,1,-3.856437206,1,-8.417040825,1,0.57478416,1,1.794359922,1,-1.294967771,1,0.417639256,1,-0.554460049,1,0.891314626,1
2.096099377,3.40095973,1,-3.696985483,1,-8.443352699,1,0.570367455,1,1.851982474,1,-1.326611638,1,0.421044111,1,-0.545670807,1,0.8891837,1
2.100099564,3.137274742,1,-3.593242645,1,-8.463769913,1,0.559455156,1,1.910923839,1,-1.35221374,1,0.424387395,1,-0.536607921,1,0.88708514,1
2.104101419,2.902522087,1,-3.45242548,1,-8.508132935,1,0.552589357,1,1.964377165,1,-1.364533663,1,0.427648813,1,-0.527309597,1,0.885058463,1
2.108098984,2.749601364,1,-3.321143627,1,-8.412158012,1,0.550194144,1,2.009674549,1,-1.366272926,1,0.430801123,1,-0.517806292,1,0.883150578,1
2.112098932,2.597511768,1,-3.259599447,1,-8.391799927,1,0.545604825,1,2.059200048,1,-1.356942177,1,0.433850288,1,-0.508142054,1,0.881394148,1
2.11610055,2.504870653,1,-3.163436174,1,-8.263379097,1,0.534948111,1,2.090447903,1,-1.332529306,1,0.43676877,1,-0.498350352,1,0.87982142,1
2.120098591,2.552394152,1,-2.999701262,1,-8.261598587,1,0.532366455,1,2.100459576,1,-1.307912946,1,0.439554036,1,-0.488510758,1,0.878412068,1
2.124098301,2.087851048,1,-3.189162016,1,-8.18298912,1,0.54852885,1,2.133845806,1,-1.261139274,1,0.442272365,1,-0.478667557,1,0.877233028,1
2.128100157,2.282239199,1,-3.023047447,1,-8.064082146,1,0.539310098,1,2.147055149,1,-1.205556989,1,0.44484815,1,-0.468804568,1,0.87636447,1
2.132098198,1.923410058,1,-3.150591135,1,-8.145010948,1,0.562085271,1,2.159127474,1,-1.146586061,1,0.447303921,1,-0.459010184,1,0.875775814,1
2.136098146,1.319194078,1,-3.309955835,1,-8.315673828,1,0.620685577,1,2.202114582,1,-1.073194981,1,0.449758828,1,-0.449222237,1,0.875537038,1
2.140099764,0.455914527,1,-3.236334085,1,-8.652082443,1,0.703927755,1,2.249995708,1,-1.014849663,1,0.452348053,1,-0.439392865,1,0.875670016,1
2.144098043,-0.687085927,1,-3.257431984,1,-9.040996552,1,0.800806165,1,2.328127623,1,-0.979766786,1,0.455152035,1,-0.429421842,1,0.876140177,1
2.148097754,-1.891233802,1,-3.408536911,1,-9.446184158,1,0.923446774,1,2.455487013,1,-0.978031754,1,0.458280087,1,-0.419111758,1,0.876916826,1
2.152099848,-3.05236721,1,-3.545107365,1,-9.804203033,1,1.040267229,1,2.614852667,1,-1.010905981,1,0.461796999,1,-0.408274055,1,0.877938628,1
2.156098127,-3.987110853,1,-3.858066559,1,-10.10349655,1,1.150058031,1,2.79612112,1,-1.078667521,1,0.465708464,1,-0.3967278,1,0.87913841,1
2.160097837,-4.641012192,1,-4.181382656,1,-10.35183525,1,1.246609092,1,2.991425037,1,-1.162766576,1,0.469999135,1,-0.384380639,1,0.880462348,1
2.164099693,-5.042635441,1,-4.373170853,1,-10.51486015,1,1.326112747,1,3.190701485,1,-1.282651782,1,0.474651396,1,-0.371143073,1,0.881829858,1
2.168097496,-5.129890919,1,-4.472231865,1,-10.47236061,1,1.37642169,1,3.372081757,1,-1.40947473,1,0.479586035,1,-0.357007623,1,0.883160949,1
2.172097206,-4.875611305,1,-4.565333843,1,-10.35604668,1,1.416867018,1,3.514857292,1,-1.528277874,1,0.484743834,1,-0.342065901,1,0.884422541,1
2.176099062,-4.485011578,1,-4.630740166,1,-10.04870701,1,1.431576133,1,3.62008214,1,-1.635737538,1,0.49006924,1,-0.326481998,1,0.885572255,1
2.180097103,-4.206645966,1,-4.752757072,1,-9.646827698,1,1.437229633,1,3.675810575,1,-1.733656168,1,0.49550581,1,-0.31042999,1,0.886583149,1
2.184096813,-3.850122452,1,-4.88988781,1,-9.41802597,1,1.432909608,1,3.682498455,1,-1.800766706,1,0.500992715,1,-0.294106036,1,0.887445927,1
2.188098669,-3.615775108,1,-4.951647282,1,-9.284068108,1,1.405501366,1,3.643349886,1,-1.856960297,1,0.506479859,1,-0.277734458,1,0.888131201,1
2.192096472,-3.585646391,1,-5.037181377,1,-9.1510849,1,1.383721828,1,3.570492268,1,-1.89597106,1,0.511923611,1,-0.26146853,1,0.888630867,1
2.196096182,-3.753164291,1,-5.021401882,1,-9.137207031,1,1.367031097,1,3.473865509,1,-1.930413485,1,0.517348588,1,-0.245435134,1,0.888919473,1
2.200098038,-4.144460201,1,-5.010029793,1,-9.244812012,1,1.356903791,1,3.372245073,1,-1.962493896,1,0.522774339,1,-0.229689345,1,0.888970137,1
2.20409584,-4.617957592,1,-5.068737984,1,-9.422379494,1,1.350474596,1,3.26897192,1,-2.002912045,1,0.528229356,1,-0.214225352,1,0.888768673,1
2.208095551,-5.108812809,1,-5.305761814,1,-9.57076931,1,1.345174909,1,3.17441082,1,-2.045771599,1,0.533710182,1,-0.199017838,1,0.888301373,1
2.212103367,-5.578890324,1,-5.646642208,1,-9.747221947,1,1.326738596,1,3.084938765,1,-2.088437796,1,0.539188921,1,-0.184037253,1,0.887584865,1
2.216107607,-6.043685913,1,-6.023774147,1,-9.810680389,1,1.287685037,1,3.007652283,1,-2.127340555,1,0.544595361,1,-0.169243515,1,0.886619449,1
2.220107555,-6.227801323,1,-6.332285881,1,-9.764430046,1,1.230894804,1,2.923029423,1,-2.169202328,1,0.549830079,1,-0.154642284,1,0.885433197,1
2.224109411,-6.268746376,1,-6.433207512,1,-9.683655739,1,1.163586259,1,2.837735176,1,-2.194603682,1,0.554828107,1,-0.140258476,1,0.884029627,1
2.228107214,-6.125350475,1,-6.3441329,1,-9.474098206,1,1.089568496,1,2.731128931,1,-2.198384523,1,0.55954361,1,-0.126150936,1,0.882439494,1
2.232106924,-5.888133049,1,-6.184111118,1,-9.225019455,1,1.019423604,1,2.621080399,1,-2.177753687,1,0.563971698,1,-0.112422243,1,0.88071686,1
2.23610878,-5.827129364,1,-5.917918682,1,-8.962903976,1,0.972972393,1,2.492154598,1,-2.121068239,1,0.568140507,1,-0.099173412,1,0.878924966,1
2.240106821,-5.860658169,1,-5.294327259,1,-8.83519268,1,0.958373904,1,2.359966993,1,-2.05124855,1,0.572163224,1,-0.086508594,1,0.877124071,1
2.244106531,-6.156153679,1,-4.407309055,1,-8.846534729,1,0.98128891,1,2.217461824,1,-1.970967293,1,0.576165855,1,-0.074451782,1,0.875335634,1
2.248108625,-6.657776356,1,-3.714720964,1,-8.800449371,1,1.052243948,1,2.094567537,1,-1.892915964,1,0.580357373,1,-0.063006267,1,0.873570383,1
2.252106428,-7.320708752,1,-3.683223009,1,-8.734261513,1,1.154376984,1,2.001482964,1,-1.807191253,1,0.584858418,1,-0.052104279,1,0.871894836,1
2.256106138,-8.056292534,1,-4.131378174,1,-8.777950287,1,1.260177135,1,1.944220066,1,-1.716774344,1,0.589755893,1,-0.04162503,1,0.870389938,1
2.260107994,-8.95113945,1,-4.628997803,1,-8.872198105,1,1.338209152,1,1.926619887,1,-1.644175172,1,0.595012605,1,-0.031458948,1,0.869129896,1
2.264106035,-9.67633152,1,-4.757225037,1,-9.323523521,1,1.392312407,1,1.924964547,1,-1.594837308,1,0.600505888,1,-0.021468723,1,0.868115425,1
2.268105507,-10.33548927,1,-4.955228806,1,-9.526983261,1,1.409681916,1,1.947371364,1,-1.590815067,1,0.606127739,1,-0.011488289,1,0.867253125,1
2.272107601,-10.90300465,1,-5.403229237,1,-9.641994476,1,1.365762711,1,1.979785442,1,-1.617105842,1,0.611702859,1,-0.001371399,1,0.866477072,1
2.276105404,-10.9216423,1,-5.775535583,1,-9.554347038,1,1.290242553,1,2.026601553,1,-1.658401132,1,0.6170277,1,0.008955449,1,0.865750849,1
2.280105591,-10.67380047,1,-5.982942104,1,-9.374937057,1,1.160886645,1,2.059865952,1,-1.700102568,1,0.621925592,1,0.019508453,1,0.865027905,1
2.284107208,-10.28304195,1,-5.894530296,1,-9.118471146,1,1.028889775,1,2.078945398,1,-1.726171017,1,0.626286983,1,0.030236648,1,0.864305139,1
2.288105249,-9.817063332,1,-5.515036106,1,-8.744250298,1,0.893534899,1,2.065847397,1,-1.7323699,1,0.630096436,1,0.041011676,1,0.863581657,1
2.292105198,-9.224680901,1,-4.954967499,1,-8.188399315,1,0.780463755,1,2.022688627,1,-1.707834482,1,0.633396268,1,0.051678423,1,0.862858236,1
2.296107054,-8.864064217,1,-4.371400356,1,-7.587324142,1,0.697029591,1,1.947506547,1,-1.659893155,1,0.636302352,1,0.0620769,1,0.862140656,1
2.300104856,-8.56933403,1,-3.757230043,1,-6.869497299,1,0.650554001,1,1.855451584,1,-1.570307851,1,0.638940096,1,0.072043628,1,0.861469388,1
2.304105043,-8.463213921,1,-3.248661995,1,-6.350076675,1,0.642483532,1,1.735338092,1,-1.46894598,1,0.641469359,1,0.081435472,1,0.860882401,1
2.308106661,-8.604196548,1,-2.858734608,1,-5.773767471,1,0.66032511,1,1.614734888,1,-1.339832902,1,0.644022942,1,0.090169407,1,0.860391736,1
2.31210494,-8.899711609,1,-2.652451992,1,-5.357580185,1,0.694761693,1,1.490132689,1,-1.213682652,1,0.646705031,1,0.098197654,1,0.860044241,1
2.31610465,-9.188293457,1,-2.601495028,1,-4.942348003,1,0.734798729,1,1.368162632,1,-1.080195904,1,0.649543762,1,0.105510309,1,0.859838724,1
2.320106506,-9.536141396,1,-2.688624859,1,-4.611397743,1,0.757332265,1,1.251438975,1,-0.954832137,1,0.652560532,1,0.112217531,1,0.859592497,1
2.324104548,-9.700054169,1,-2.848325491,1,-4.334437847,1,0.75331533,1,1.132690787,1,-0.840067327,1,0.655588686,1,0.118179329,1,0.859646797,1
2.328104258,-9.841909409,1,-2.916442633,1,-4.129502296,1,0.733074248,1,1.007502794,1,-0.742931962,1,0.658577442,1,0.123502366,1,0.859761178,1
2.332111835,-9.7847929,1,-2.970450163,1,-3.939235926,1,0.679430604,1,0.8710922,1,-0.659885466,1,0.661415815,1,0.128194079,1,0.859856665,1
2.336116076,-9.721874237,1,-2.992886305,1,-3.722554684,1,0.605734825,1,0.728904724,1,-0.58462894,1,0.663999915,1,0.132251665,1,0.859865606,1
2.340116024,-9.645815849,1,-3.119822264,1,-3.675495863,1,0.519326508,1,0.573830783,1,-0.526836395,1,0.666235626,1,0.135678321,1,0.859727144,1
2.344117403,-9.656736374,1,-3.136095285,1,-3.660648823,1,0.40957582,1,0.413352579,1,-0.483651489,1,0.668060124,1,0.138472944,1,0.859357953,1
2.348115444,-9.689211845,1,-3.0890553,1,-3.688807964,1,0.307713062,1,0.254079223,1,-0.451166034,1,0.669409752,1,0.140685186,1,0.858719468,1
2.352115154,-9.683785439,1,-2.956011295,1,-3.712359428,1,0.196306363,1,0.093741022,1,-0.441723078,1,0.670271933,1,0.142348468,1,0.85774076,1
2.356117249,-9.647288322,1,-2.855282545,1,-3.710904837,1,0.094755694,1,-0.062092505,1,-0.441040248,1,0.670652092,1,0.143488318,1,0.856376648,1
2.36011529,-9.409568787,1,-2.877139091,1,-3.618962526,1,-0.003678165,1,-0.216585264,1,-0.430132776,1,0.670583606,1,0.144136786,1,0.854653358,1
2.364115,-9.340373993,1,-2.912840843,1,-3.5503757,1,-0.089122646,1,-0.371184528,1,-0.42348218,1,0.670095801,1,0.144285232,1,0.85256207,1
2.368116617,-9.316860199,1,-2.870098114,1,-3.516414642,1,-0.160622075,1,-0.517583132,1,-0.403989375,1,0.66924572,1,0.143918008,1,0.850138485,1
2.372114658,-9.476270676,1,-2.840238333,1,-3.53739357,1,-0.211635992,1,-0.649761438,1,-0.381011784,1,0.668109894,1,0.143064216,1,0.847423553,1
2.37611413,-9.609715462,1,-2.637089968,1,-3.584031582,1,-0.254387736,1,-0.759073496,1,-0.354887158,1,0.666764557,1,0.141765565,1,0.844492793,1
2.380115986,-9.637390137,1,-2.445075035,1,-3.613560438,1,-0.269849062,1,-0.853161991,1,-0.332189351,1,0.665267944,1,0.140071318,1,0.841387749,1
2.384114027,-9.630568504,1,-2.36443305,1,-3.663937807,1,-0.279339135,1,-0.945248425,1,-0.295680165,1,0.663712919,1,0.138015404,1,0.838147759,1
2.388113976,-9.697007179,1,-2.428036928,1,-3.699424982,1,-0.281270862,1,-1.020582795,1,-0.251613438,1,0.662139058,1,0.135583356,1,0.834837794,1
2.392115593,-9.837548256,1,-2.542109013,1,-3.633784294,1,-0.283709794,1,-1.087864637,1,-0.201500252,1,0.66056931,1,0.13280873,1,0.831508279,1
2.396113634,-9.920969963,1,-2.674532175,1,-3.564833641,1,-0.287643343,1,-1.148460507,1,-0.136060014,1,0.658994436,1,0.129691362,1,0.828202128,1
2.400113344,-10.02384472,1,-2.783760786,1,-3.54090333,1,-0.301836759,1,-1.212494493,1,-0.067001507,1,0.6574049,1,0.12620233,1,0.824959159,1
2.4041152,-10.35028076,1,-2.817903519,1,-3.402356863,1,-0.316613853,1,-1.267363787,1,0.007757062,1,0.655783415,1,0.12234576,1,0.821814239,1
2.408113003,-10.67582226,1,-2.995547295,1,-3.295771122,1,-0.339928716,1,-1.307919264,1,0.088578902,1,0.654108882,1,0.118144304,1,0.818799853,1
2.412112713,-10.83884239,1,-3.399087429,1,-3.32275939,1,-0.373137385,1,-1.355808735,1,0.16731444,1,0.652362764,1,0.113606356,1,0.815940619,1
2.41611433,7.527279377,1,-0.332813203,1,-10.57800293,1,0.040976781,1,-1.384457111,1,0.683739364,1,0.651086032,1,0.108444147,1,0.813832283,1
2.420112371,-1.871908188,1,-2.214374542,1,-10.56548119,1,0.543013811,1,-1.799582601,1,1.015399575,1,0.652654767,1,0.101065114,1,0.81279546,1
2.424112082,10.53092766,1,-13.33071232,1,-9.022302628,1,-0.067354508,1,-1.551507473,1,0.896965921,1,0.653381407,1,0.093386531,1,0.811706126,1
2.428113937,14.08234882,1,-16.86417007,1,-10.9749794,1,-0.104633704,1,-1.689449668,1,1.133362174,1,0.65295887,1,0.0859477,1,0.810966551,1
2.432111979,7.934429169,1,-16.57317924,1,-11.30020237,1,-0.400385737,1,-1.72995913,1,1.465712786,1,0.652013004,1,0.077215947,1,0.810923934,1
2.436111689,9.819749832,1,-14.69816017,1,-12.6662302,1,-0.72252202,1,-1.683708072,1,1.634465456,1,0.64977634,1,0.068090342,1,0.811762691,1
2.440113306,7.375506878,1,-10.93664551,1,-10.2934761,1,-0.820837915,1,-1.842014074,1,1.762380958,1,0.646704614,1,0.058366384,1,0.812947035,1
2.444111586,7.13573122,1,-9.327402115,1,-8.211048126,1,-0.815011621,1,-2.084936142,1,1.873765826,1,0.643492222,1,0.047765248,1,0.81406033,1
2.448111534,7.592149734,1,-8.582366943,1,-8.987485886,1,-0.780099213,1,-2.529917002,1,2.084116697,1,0.64033103,1,0.035682231,1,0.814886808,1
2.452119589,3.737280369,1,-9.087934494,1,-9.690540314,1,-0.728782356,1,-2.940613031,1,2.222512007,1,0.637302279,1,0.021704024,1,0.815282881,1
2.45612359,-0.365247965,1,-7.933055401,1,-10.11683273,1,-0.580921888,1,-3.246978998,1,2.171821117,1,0.634691954,1,0.006484823,1,0.815031469,1
2.460123539,-4.837758064,1,-6.776278496,1,-10.37645626,1,-0.505468667,1,-3.436468124,1,2.028051853,1,0.632530034,1,-0.009298624,1,0.8138749,1
2.464125395,-8.773513794,1,-6.903364658,1,-9.932055473,1,-0.440617412,1,-3.512912989,1,1.853072762,1,0.630665004,1,-0.025120232,1,0.811906457,1
2.468123436,-10.84682369,1,-6.869205952,1,-9.891138077,1,-0.415696681,1,-3.493500948,1,1.714603662,1,0.629043698,1,-0.040658813,1,0.809392929,1
2.472123146,-9.791372299,1,-6.632086277,1,-10.21626186,1,-0.442571998,1,-3.428065538,1,1.670732975,1,0.627463937,1,-0.055821449,1,0.806718171,1
2.476125002,-8.348958969,1,-5.747407913,1,-12.58755112,1,-0.405278116,1,-3.357745409,1,1.689579964,1,0.625888944,1,-0.070778258,1,0.804187894,1
2.480122805,-9.903779984,1,-5.130783081,1,-12.25802803,1,-0.29885605,1,-3.265518665,1,1.699742675,1,0.624604821,1,-0.085598461,1,0.80191493,1
2.484122515,-10.69759274,1,-3.728410006,1,-13.15146351,1,-0.150079936,1,-3.062696218,1,1.648688793,1,0.623920679,1,-0.099787369,1,0.799961329,1
2.488124371,-12.26088619,1,-3.81190753,1,-12.68098545,1,-0.065793723,1,-2.761133671,1,1.583869934,1,0.623648822,1,-0.11303506,1,0.798371732,1
2.492122173,-11.59534645,1,-3.997071981,1,-12.7189312,1,-0.005197469,1,-2.465563536,1,1.561415792,1,0.623617172,1,-0.125165924,1,0.797364116,1
2.496121883,-11.16473961,1,-4.254017353,1,-11.43804455,1,0.047943722,1,-2.186152697,1,1.548267007,1,0.623758972,1,-0.136362284,1,0.796979547,1
2.500123739,-8.554877281,1,-3.957087994,1,-10.93933678,1,0.123565845,1,-1.961307883,1,1.527349591,1,0.624066234,1,-0.146661177,1,0.797148824,1
2.504121542,-6.920811176,1,-4.095714569,1,-10.01242638,1,0.210204601,1,-1.8511132,1,1.513655305,1,0.624653339,1,-0.156384468,1,0.797647059,1
2.508121252,-5.265580654,1,-5.263631821,1,-9.32017231,1,0.293550819,1,-1.775110483,1,1.484236717,1,0.625579059,1,-0.16576305,1,0.798289537,1
2.512123108,-4.543808937,1,-7.034163475,1,-8.391649246,1,0.310228437,1,-1.732778907,1,1.425983071,1,0.626684308,1,-0.174867108,1,0.798906565,1
2.516121149,-4.350296021,1,-8.491187096,1,-7.588957787,1,0.246024966,1,-1.71831882,1,1.384020567,1,0.627704322,1,-0.18377015,1,0.799412668,1
2.520120859,-4.233856678,1,-9.563220978,1,-6.617539406,1,0.188849062,1,-1.680477858,1,1.299028754,1,0.628517568,1,-0.192421243,1,0.799771369,1
2.524122715,-3.309699059,1,-9.475893974,1,-5.977104187,1,0.10332147,1,-1.67112422,1,1.229427338,1,0.629066646,1,-0.200812638,1,0.79992795,1
2.528120518,-2.803852558,1,-9.290418625,1,-5.767232418,1,0.006138467,1,-1.708227396,1,1.188122034,1,0.629292369,1,-0.209121808,1,0.799852729,1
2.532120228,-2.642732143,1,-8.610347748,1,-6.370242119,1,-0.074418113,1,-1.743584633,1,1.165989041,1,0.629219413,1,-0.217466071,1,0.799588323,1
2.536122084,-4.179728985,1,-8.608225822,1,-7.002502441,1,-0.199097022,1,-1.78546524,1,1.174501538,1,0.628745854,1,-0.22593388,1,0.799180925,1
2.540120125,-4.902813911,1,-8.079721451,1,-7.117494106,1,-0.28474316,1,-1.705009699,1,1.16863811,1,0.627840519,1,-0.234337479,1,0.798853278,1
2.544119835,-5.537565231,1,-6.836956024,1,-7.552043915,1,-0.334999502,1,-1.611630321,1,1.178393126,1,0.626612186,1,-0.242466852,1,0.798755646,1
2.548121691,-5.861706734,1,-6.095693111,1,-7.944711208,1,-0.367866576,1,-1.51488018,1,1.202186823,1,0.625145018,1,-0.250323325,1,0.798956215,1
2.552119493,-5.811477184,1,-6.373663425,1,-8.580835342,1,-0.407480419,1,-1.408495426,1,1.24299264,1,0.623466134,1,-0.257913262,1,0.799535036,1
2.556118965,-6.689446926,1,-6.441300392,1,-8.200019836,1,-0.449226379,1,-1.295249701,1,1.297927976,1,0.621486962,1,-0.265306473,1,0.800555825,1
2.560120821,-6.358588696,1,-6.681736469,1,-7.960236073,1,-0.461349636,1,-1.154409766,1,1.277781844,1,0.619284391,1,-0.272282124,1,0.801964045,1
2.564118862,-6.167101383,1,-6.903207779,1,-7.758150101,1,-0.493361473,1,-1.077365756,1,1.261817336,1,0.616941333,1,-0.278852046,1,0.80357945,1
2.568118334,-6.536652088,1,-7.976586342,1,-7.373715401,1,-0.570531547,1,-1.005907178,1,1.253278136,1,0.614333689,1,-0.285164654,1,0.805338323,1
2.57212615,-6.113024712,1,-7.997739792,1,-6.914512634,1,-0.630947292,1,-0.931721985,1,1.222439051,1,0.611458898,1,-0.291092336,1,0.806978881,1
2.576130152,-5.667463779,1,-7.9581213,1,-6.883556366,1,-0.693768024,1,-0.889252782,1,1.16647172,1,0.608256578,1,-0.296799719,1,0.808887482,1
2.5801301,-5.76462698,1,-7.612123013,1,-7.191732407,1,-0.739329994,1,-0.848402798,1,1.110222816,1,0.604852557,1,-0.302257717,1,0.810727537,1
2.584131956,-5.694675922,1,-7.082615852,1,-7.357117653,1,-0.783650279,1,-0.793302834,1,1.079147935,1,0.601249874,1,-0.307451785,1,0.812554777,1
2.58812952,-5.979346275,1,-6.884883881,1,-7.68863678,1,-0.834612548,1,-0.73428911,1,1.062605381,1,0.597433448,1,-0.31238538,1,0.814452648,1
2.59212923,-6.048350334,1,-6.159799576,1,-7.667741299,1,-0.863340199,1,-0.651874423,1,1.037998915,1,0.593406558,1,-0.31703943,1,0.816480279,1
2.596131325,-5.636267662,1,-5.357021332,1,-7.978201389,1,-0.864386797,1,-0.588662624,1,1.005965352,1,0.589274883,1,-0.321366727,1,0.8186028,1
2.600129366,-5.794991493,1,-4.836785793,1,-8.165937424,1,-0.85048908,1,-0.542918801,1,0.978182375,1,0.585166514,1,-0.325455517,1,0.820759714,1
2.604129076,-5.062765121,1,-4.465803623,1,-8.112252235,1,-0.839197755,1,-0.494655043,1,0.959347248,1,0.581084311,1,-0.329315722,1,0.822965324,1
2.608130932,-4.342663288,1,-4.419762611,1,-8.0558815,1,-0.823235214,1,-0.47388795,1,0.957007051,1,0.577025056,1,-0.333030552,1,0.825229883,1
2.612128735,-3.800652742,1,-4.473855019,1,-8.026687622,1,-0.798248768,1,-0.478776783,1,0.961165607,1,0.573024571,1,-0.336719751,1,0.827542186,1
2.616128683,-3.450589657,1,-4.657905579,1,-7.972102165,1,-0.783360243,1,-0.492296308,1,0.971035659,1,0.569083869,1,-0.34044534,1,0.829881072,1
2.620130539,-3.18669796,1,-4.899855614,1,-7.771120071,1,-0.774014711,1,-0.524035454,1,0.972809851,1,0.565186024,1,-0.344253182,1,0.832207143,1
2.62412858,-3.590703011,1,-5.208078861,1,-7.792316437,1,-0.759485304,1,-0.559109986,1,0.969810307,1,0.561354816,1,-0.348167598,1,0.834470391,1
2.62812829,-3.947351933,1,-5.317952633,1,-7.733079433,1,-0.735804975,1,-0.582296133,1,0.933194041,1,0.557642758,1,-0.352127254,1,0.83661294,1
2.632130146,-3.677526236,1,-5.164894581,1,-7.650609016,1,-0.715734363,1,-0.607562065,1,0.90468955,1,0.554043949,1,-0.356080294,1,0.838608801,1
2.636127949,-3.722611189,1,-5.002636909,1,-7.919214249,1,-0.693962812,1,-0.64669168,1,0.883009732,1,0.550583065,1,-0.36009413,1,0.840439796,1
2.640127659,-3.602291584,1,-4.733180046,1,-8.026550293,1,-0.668670058,1,-0.680147171,1,0.86965853,1,0.547253072,1,-0.364186943,1,0.842150688,1
2.644129753,-4.311560631,1,-4.542976379,1,-8.491215706,1,-0.636177599,1,-0.703119099,1,0.861909926,1,0.544069171,1,-0.368358433,1,0.843777061,1
2.648128033,-5.779924393,1,-4.329683304,1,-8.859685898,1,-0.604160488,1,-0.683319032,1,0.82322216,1,0.541009367,1,-0.372487962,1,0.845337093,1
2.652127743,-6.21222496,1,-4.223668575,1,-9.024673462,1,-0.574311972,1,-0.608949482,1,0.761658192,1,0.538113177,1,-0.376346678,1,0.846816659,1
2.656129599,-5.76939106,1,-3.632189989,1,-8.747449875,1,-0.550325811,1,-0.549166381,1,0.750473559,1,0.535300314,1,-0.379866004,1,0.848349571,1
2.660127401,-5.759450436,1,-3.573267698,1,-8.525814056,1,-0.529030323,1,-0.499037594,1,0.729669869,1,0.532545388,1,-0.383185118,1,0.849943399,1
2.664126873,-4.387753487,1,-3.909536839,1,-8.344914436,1,-0.504427075,1,-0.477524817,1,0.717940092,1,0.529876649,1,-0.386319995,1,0.851577699,1
2.668128729,-4.681490898,1,-4.067309856,1,-8.389322281,1,-0.484994978,1,-0.475126386,1,0.68877095,1,0.527290404,1,-0.389396787,1,0.853159785,1
2.67212677,-4.436170101,1,-4.324848175,1,-8.273219109,1,-0.47256431,1,-0.466572672,1,0.666276336,1,0.524803281,1,-0.392383307,1,0.854666352,1
2.67612648,-5.74527216,1,-4.599508286,1,-8.245651245,1,-0.447532117,1,-0.426159799,1,0.619729161,1,0.522420883,1,-0.395230711,1,0.856090426,1
2.680128336,-4.391907692,1,-4.175677299,1,-7.971524715,1,-0.441993773,1,-0.427048177,1,0.585939527,1,0.520123482,1,-0.397880852,1,0.857434332,1
2.6841259,-4.455602169,1,-4.393194675,1,-7.456819534,1,-0.421578705,1,-0.438430876,1,0.581138968,1,0.517912388,1,-0.40055263,1,0.85868448,1
2.68812561,-4.429554939,1,-4.679996967,1,-8.110643387,1,-0.397260189,1,-0.455260277,1,0.547676861,1,0.515827298,1,-0.403216898,1,0.85985285,1
2.692127466,-4.422842979,1,-4.830918312,1,-7.82459116,1,-0.391195565,1,-0.429865539,1,0.521689951,1,0.513823986,1,-0.405807018,1,0.860925376,1
2.696131229,-3.98828578,1,-4.318715096,1,-8.028874397,1,-0.360504746,1,-0.44641754,1,0.501429141,1,0.511901379,1,-0.408321798,1,0.86196816,1
2.700131416,-6.08803606,1,-4.201234818,1,-8.405427933,1,-0.317738801,1,-0.401660532,1,0.452071637,1,0.510199308,1,-0.410760701,1,0.862844467,1
2.704133034,-3.977755785,1,-3.730144978,1,-7.789649487,1,-0.297695279,1,-0.391227722,1,0.443526953,1,0.508605421,1,-0.412985355,1,0.863747299,1
2.708131075,-4.435067654,1,-3.929325104,1,-7.688250065,1,-0.253297448,1,-0.417113811,1,0.424886882,1,0.507183611,1,-0.415273756,1,0.864535689,1
2.712130785,-4.636051178,1,-4.500591755,1,-7.888562679,1,-0.225458413,1,-0.421560824,1,0.413044274,1,0.505952179,1,-0.417548507,1,0.865233123,1
2.716132641,-3.739341497,1,-4.249657154,1,-8.101503372,1,-0.193665594,1,-0.443610191,1,0.389663547,1,0.504859269,1,-0.419812739,1,0.86586076,1
2.720130444,-4.286283493,1,-4.299852848,1,-8.047408104,1,-0.161557734,1,-0.452684015,1,0.385232389,1,0.503934622,1,-0.422134876,1,0.866393566,1
2.72413063,-3.854969978,1,-4.169472694,1,-8.045495987,1,-0.136493996,1,-0.442585498,1,0.38311249,1,0.50311017,1,-0.424437582,1,0.866937757,1
2.728132248,-4.588369846,1,-4.319005013,1,-7.824518204,1,-0.113599621,1,-0.457606465,1,0.362634659,1,0.502404332,1,-0.426754624,1,0.867410183,1
2.732130289,-4.338148594,1,-4.462339401,1,-7.824225903,1,-0.089158721,1,-0.466772348,1,0.350545019,1,0.501836061,1,-0.429068953,1,0.867807209,1
2.736129999,-4.890336037,1,-4.615098,1,-7.692094326,1,-0.064965606,1,-0.44649744,1,0.351314098,1,0.501365185,1,-0.431354642,1,0.868183851,1
2.740132093,-4.42124939,1,-4.252176762,1,-7.935946465,1,-0.048801325,1,-0.479310393,1,0.336425304,1,0.501004279,1,-0.4336344,1,0.868522048,1
2.744130135,-5.223603725,1,-4.623633862,1,-7.752319813,1,-0.033714652,1,-0.451028287,1,0.327859908,1,0.500710487,1,-0.435901076,1,0.868823767,1
2.748129845,-4.689861774,1,-4.662752628,1,-7.408218384,1,-0.023343232,1,-0.442809343,1,0.3097471,1,0.500478745,1,-0.438076347,1,0.869115651,1
2.752131939,-4.969620705,1,-4.564571381,1,-7.453449726,1,-0.018875252,1,-0.433469206,1,0.310940862,1,0.500280023,1,-0.440210342,1,0.86939311,1
2.756129742,-5.097365856,1,-4.408988953,1,-7.582965851,1,-0.021117559,1,-0.412957877,1,0.295290828,1,0.500077844,1,-0.442275107,1,0.869670987,1
2.760129452,-4.98827219,1,-4.393876076,1,-7.381742954,1,-0.023803089,1,-0.403244674,1,0.291027337,1,0.499878317,1,-0.444269955,1,0.869935691,1
2.764131308,-4.284015656,1,-3.975677967,1,-7.805926323,1,-0.011881994,1,-0.381372541,1,0.271756768,1,0.499679446,1,-0.446150631,1,0.870246291,1
2.768129349,-5.129888058,1,-4.252929211,1,-7.316134453,1,-0.015954604,1,-0.369763196,1,0.261645526,1,0.499525398,1,-0.448004931,1,0.870467901,1
2.772129297,-5.054137707,1,-4.33205843,1,-7.280292511,1,-0.010289047,1,-0.355796605,1,0.240609199,1,0.49938038,1,-0.449749947,1,0.870679975,1
2.776131153,-5.343259811,1,-4.549806118,1,-7.202194691,1,-0.012862076,1,-0.328175992,1,0.229201645,1,0.499239653,1,-0.45140031,1,0.870864868,1
2.780128956,-5.051457882,1,-4.531523228,1,-7.111292362,1,-0.021704672,1,-0.303813964,1,0.212579459,1,0.499092996,1,-0.452919602,1,0.871045589,1
2.784129143,-5.004827499,1,-4.409697533,1,-7.296331882,1,-0.032335985,1,-0.291439295,1,0.196772709,1,0.498914123,1,-0.454354763,1,0.871210694,1
2.78813076,-5.054036617,1,-4.304887295,1,-7.329244137,1,-0.049075216,1,-0.281550527,1,0.180992141,1,0.4986884,1,-0.455726206,1,0.87134701,1
2.792128801,-4.984465599,1,-4.375540257,1,-7.262250423,1,-0.065969244,1,-0.284608513,1,0.157041788,1,0.498434931,1,-0.457034975,1,0.871400297,1
2.796128511,-5.064497471,1,-4.555224419,1,-7.261935234,1,-0.083342128,1,-0.278258502,1,0.139325321,1,0.498144031,1,-0.458319336,1,0.871381223,1
2.800130367,-4.24548912,1,-4.344430923,1,-7.291208267,1,-0.100158945,1,-0.257281303,1,0.121541262,1,0.49777627,1,-0.45952177,1,0.871374011,1
2.80412817,-5.209757328,1,-4.786863327,1,-6.891316414,1,-0.109892368,1,-0.279039979,1,0.121567376,1,0.497415572,1,-0.460742474,1,0.871249437,1
2.808128357,-4.454874992,1,-4.3628335,1,-7.251571178,1,-0.117858753,1,-0.236595228,1,0.123824716,1,0.496979803,1,-0.461881697,1,0.871214449,1
2.812129974,-5.102036476,1,-4.407468319,1,-7.052967072,1,-0.111281127,1,-0.257265955,1,0.125094086,1,0.496542305,1,-0.463018328,1,0.87116003,1
2.816133976,-5.699721813,1,-4.618644238,1,-6.975717545,1,-0.118511513,1,-0.224059984,1,0.142546028,1,0.49608925,1,-0.46411252,1,0.871143937,1
2.820133924,-4.843233585,1,-4.26995039,1,-7.272591591,1,-0.117643647,1,-0.230581626,1,0.11963024,1,0.496023715,1,-0.468500346,1,0.87020278,1
2.82413578,-5.069927216,1,-4.612342834,1,-7.055645466,1,-0.121025547,1,-0.202204123,1,0.116698511,1,0.495543361,1,-0.46949929,1,0.87020874,1
2.828133583,-5.680571556,1,-4.897580147,1,-7.0222435,1,-0.121154048,1,-0.164943159,1,0.139241323,1,0.495015442,1,-0.470394015,1,0.870305598,1
2.832133293,-4.713930607,1,-4.492369652,1,-7.389922619,1,-0.118935056,1,-0.179165035,1,0.125437379,1,0.494456738,1,-0.47120288,1,0.870458066,1
2.836135149,-4.957027912,1,-4.652283192,1,-7.172215462,1,-0.125390321,1,-0.153863341,1,0.123958327,1,0.493898004,1,-0.472036511,1,0.870595217,1
2.84013319,-5.128336906,1,-4.708967209,1,-7.182357311,1,-0.134579509,1,-0.136763439,1,0.145876735,1,0.493275225,1,-0.472798705,1,0.870811343,1
2.8441329,-4.132713795,1,-4.323540688,1,-7.548333168,1,-0.139660239,1,-0.115503922,1,0.132972002,1,0.492571294,1,-0.473461956,1,0.871132553,1
2.848134756,-5.00186348,1,-4.576611519,1,-7.146264553,1,-0.134991869,1,-0.120751217,1,0.137630329,1,0.491891295,1,-0.474164754,1,0.871398747,1
2.852132559,-4.892567635,1,-4.528445244,1,-7.187548637,1,-0.144060299,1,-0.102754064,1,0.139659524,1,0.491191059,1,-0.474820435,1,0.871712089,1
2.856132269,-4.878410816,1,-4.452407837,1,-7.037219048,1,-0.143503681,1,-0.066625901,1,0.149043426,1,0.490439147,1,-0.475434631,1,0.872120261,1
2.860134125,-4.883847237,1,-4.455834389,1,-7.279600143,1,-0.133992836,1,-0.106903791,1,0.139332816,1,0.489721894,1,-0.476025641,1,0.872480214,1
2.864132166,-4.79269743,1,-4.476120472,1,-7.336597443,1,-0.131492585,1,-0.083482809,1,0.141377315,1,0.489024013,1,-0.476625264,1,0.872836709,1
2.868132114,-4.800445557,1,-4.430541992,1,-7.395218372,1,-0.137225345,1,-0.081502095,1,0.13986288,1,0.488306671,1,-0.477178633,1,0.873222589,1
2.87213397,-4.38162899,1,-4.22774601,1,-7.349849701,1,-0.150461763,1,-0.043013327,1,0.137989953,1,0.487531185,1,-0.477685332,1,0.873669863,1
2.876131773,-4.864543915,1,-4.306820393,1,-7.417171478,1,-0.140438676,1,-0.102554798,1,0.137456328,1,0.486782163,1,-0.478219271,1,0.874033749,1
2.880131721,-4.964972973,1,-4.251633167,1,-7.464155197,1,-0.144594565,1,-0.092229828,1,0.137383968,1,0.486052275,1,-0.478821397,1,0.874377847,1
2.884133577,-4.022182465,1,-3.895947218,1,-7.480273247,1,-0.14549084,1,-0.066384755,1,0.131205082,1,0.485277534,1,-0.479349792,1,0.874791324,1
2.888131618,-5.046219349,1,-4.309263229,1,-7.29776907,1,-0.135082871,1,-0.090062059,1,0.127630457,1,0.484569788,1,-0.479909837,1,0.875123143,1
2.892131567,-4.734604359,1,-4.208341599,1,-7.165897846,1,-0.140530199,1,-0.046535935,1,0.132765621,1,0.483828545,1,-0.480425298,1,0.875515223,1
2.896133661,-4.964911461,1,-4.236172199,1,-7.340106964,1,-0.1328758,1,-0.079843923,1,0.119040549,1,0.483126819,1,-0.480899632,1,0.875870049,1
2.900132179,-5.458793163,1,-4.468141079,1,-7.260914326,1,-0.137022108,1,-0.055148743,1,0.138171434,1,0.482427597,1,-0.481369406,1,0.876234174,1
2.904132128,-4.54282856,1,-4.091411114,1,-7.509518623,1,-0.130528986,1,-0.037620898,1,0.115966059,1,0.481684119,1,-0.481711239,1,0.876677454,1
2.908133984,-5.108002186,1,-4.34053278,1,-7.105207443,1,-0.135397047,1,-0.031366676,1,0.117192045,1,0.480965555,1,-0.482059062,1,0.877070665,1
2.912131786,-5.798969269,1,-4.66524744,1,-6.948165894,1,-0.147710651,1,0.010640942,1,0.133137822,1,0.480184942,1,-0.482326001,1,0.877543628,1
2.916131496,-4.785255432,1,-4.346988201,1,-7.220075607,1,-0.152277052,1,-0.006317835,1,0.118113101,1,0.479348212,1,-0.48251304,1,0.878048778,1
2.920133352,-4.916612625,1,-4.524786949,1,-7.055650234,1,-0.157504484,1,0.010124102,1,0.122163534,1,0.478507906,1,-0.482725918,1,0.878535867,1
2.924131632,-4.718939781,1,-4.506262302,1,-6.869475365,1,-0.168581247,1,0.054293174,1,0.134225726,1,0.47758022,1,-0.482873052,1,0.879133344,1
2.928131342,-4.951486588,1,-4.543338776,1,-7.147596836,1,-0.168997824,1,0.020174937,1,0.135238081,1,0.47663638,1,-0.482999623,1,0.879728198,1
2.932133436,-5.484177113,1,-4.526493549,1,-7.143659115,1,-0.182508707,1,0.049412224,1,0.150996789,1,0.475644618,1,-0.483140886,1,0.880358458,1
2.936137199,-4.57981348,1,-4.002064705,1,-7.432870865,1,-0.175641462,1,0.047623448,1,0.135149688,1,0.474586844,1,-0.483185202,1,0.881052494,1
2.940137148,-5.01251173,1,-4.065196991,1,-7.267395496,1,-0.17766498,1,0.044150129,1,0.135981768,1,0.473594755,1,-0.483275324,1,0.881675839,1
2.944139242,-4.594403267,1,-3.660234928,1,-7.068827152,1,-0.171344861,1,0.080180384,1,0.133032367,1,0.472580463,1,-0.48332864,1,0.882359505,1
2.948137283,-4.860395908,1,-3.79654479,1,-7.345128059,1,-0.15459156,1,0.041490585,1,0.128550395,1,0.471636653,1,-0.483366936,1,0.882994235,1
2.952136755,-5.012549877,1,-3.863067389,1,-7.30878067,1,-0.147714525,1,0.06469845,1,0.136886314,1,0.47072944,1,-0.483441442,1,0.883642375,1
2.956138611,-4.644186497,1,-3.877266645,1,-7.636562824,1,-0.124294199,1,0.018986007,1,0.128162116,1,0.469901323,1,-0.483527273,1,0.884248614,1
2.960136414,-5.377281189,1,-4.188075542,1,-7.562340736,1,-0.116621904,1,0.033847194,1,0.155226886,1,0.469126344,1,-0.483686835,1,0.88485688,1
2.964136362,-4.428741932,1,-3.74015975,1,-7.77810812,1,-0.098394439,1,-0.002589067,1,0.139609233,1,0.468397528,1,-0.483861536,1,0.885476887,1
2.968138218,-4.700389385,1,-3.728475094,1,-7.754264355,1,-0.077465445,1,-0.014209829,1,0.146830887,1,0.467791349,1,-0.484149247,1,0.886032403,1
2.972136259,-5.120979309,1,-3.694197416,1,-7.717683315,1,-0.056163821,1,-0.012004785,1,0.164935201,1,0.467259228,1,-0.484497547,1,0.886616707,1
2.976135969,-4.626912117,1,-3.653619289,1,-8.003775597,1,-0.026842272,1,-0.066453516,1,0.145632237,1,0.466844231,1,-0.484898061,1,0.887149811,1
2.980137825,-4.679403782,1,-3.835882425,1,-7.960826874,1,-0.007885294,1,-0.070727631,1,0.148819029,1,0.46655184,1,-0.485408068,1,0.887609124,1
2.984135628,-4.868726254,1,-3.927293539,1,-7.724084854,1,0.008621302,1,-0.055392575,1,0.164207533,1,0.466314912,1,-0.485939413,1,0.888120294,1
2.988135338,-4.61930275,1,-3.929517984,1,-7.997125149,1,0.036897503,1,-0.110431716,1,0.150929824,1,0.466193914,1,-0.486520499,1,0.88856113,1
2.992137194,-4.540838242,1,-3.866629124,1,-7.979790211,1,0.057487074,1,-0.119724333,1,0.158344284,1,0.466189086,1,-0.487215161,1,0.888955653,1
2.996135473,-4.577811241,1,-3.822574854,1,-8.018701553,1,0.083044298,1,-0.138815105,1,0.162245214,1,0.466287971,1,-0.487963259,1,0.889338613,1
3.000135183,-4.978469849,1,-4.049437523,1,-7.792081356,1,0.096810676,1,-0.127831191,1,0.181606635,1,0.46645233,1,-0.4887802,1,0.88976258,1
3.004137039,-4.586895943,1,-3.988209486,1,-8.091172218,1,0.132669508,1,-0.188990563,1,0.172880739,1,0.466733068,1,-0.489662677,1,0.890130758,1
3.008134842,-4.712571144,1,-4.307504654,1,-7.982167244,1,0.14683111,1,-0.20069702,1,0.185910195,1,0.467140019,1,-0.490680456,1,0.890458882,1
3.012134552,-4.600547791,1,-4.320786476,1,-7.917889118,1,0.175850034,1,-0.218629554,1,0.190408751,1,0.46763134,1,-0.491758227,1,0.890781462,1
3.016136408,-4.611949921,1,-4.550137997,1,-8.045272827,1,0.171305612,1,-0.236723438,1,0.20600757,1,0.468167007,1,-0.492922813,1,0.891130149,1
3.020134449,-4.500459194,1,-4.47508955,1,-7.917537689,1,0.196971685,1,-0.25489381,1,0.220273972,1,0.468730867,1,-0.494185627,1,0.89149344,1
3.024134159,-4.542999268,1,-4.469517708,1,-8.056347847,1,0.216534346,1,-0.273137212,1,0.2405058,1,0.469358683,1,-0.49554354,1,0.891888857,1
3.028136253,-4.533333302,1,-4.331527233,1,-8.0773983,1,0.231008261,1,-0.297692865,1,0.256969422,1,0.470053434,1,-0.497011304,1,0.892312407,1
3.032134056,-4.603511333,1,-4.403973579,1,-8.057842255,1,0.257083535,1,-0.319988608,1,0.274422765,1,0.470827669,1,-0.498588532,1,0.892756581,1
3.036134005,-4.584897041,1,-4.546461105,1,-8.114303589,1,0.260712117,1,-0.350454569,1,0.285346776,1,0.471661657,1,-0.500288725,1,0.893196225,1
3.04013586,-4.457666397,1,-4.522697449,1,-8.382263184,1,0.274385184,1,-0.389372796,1,0.297509015,1,0.472531706,1,-0.502128839,1,0.893608987,1
3.044133902,-4.576169491,1,-4.290351391,1,-8.071537971,1,0.266324133,1,-0.424016595,1,0.315613627,1,0.473386645,1,-0.504153967,1,0.894017935,1
3.048133612,-4.537112236,1,-4.151535511,1,-8.286559105,1,0.315168649,1,-0.447622865,1,0.333672315,1,0.474350989,1,-0.506290078,1,0.894422531,1
3.052135706,-4.490233898,1,-4.493348598,1,-8.344326973,1,0.317127168,1,-0.488358885,1,0.352499455,1,0.475425929,1,-0.508582532,1,0.894847512,1
3.056139469,-4.55049181,1,-4.525712967,1,-8.285567284,1,0.331535637,1,-0.524441779,1,0.365662038,1,0.476527423,1,-0.511032164,1,0.895243645,1
3.060139418,-4.428797722,1,-4.793426037,1,-8.390574455,1,0.318005294,1,-0.569332957,1,0.393363267,1,0.477657378,1,-0.513659239,1,0.895637333,1
3.064141512,-4.573768616,1,-4.571370602,1,-8.189340591,1,0.334077507,1,-0.614817023,1,0.414692104,1,0.478750139,1,-0.516503453,1,0.896025598,1
3.068139791,-4.522706032,1,-4.703588009,1,-8.217326164,1,0.346809536,1,-0.648701489,1,0.433786452,1,0.479931086,1,-0.51952374,1,0.896415472,1
3.07213974,-4.412259102,1,-5.208690643,1,-8.368461609,1,0.328949243,1,-0.69360286,1,0.466903299,1,0.481166571,1,-0.522650123,1,0.896583796,1
3.076141596,-4.464370728,1,-5.246399879,1,-8.154863358,1,0.285759896,1,-0.756918609,1,0.500439763,1,0.482176125,1,-0.526122808,1,0.897004485,1
3.08013916,-4.565556049,1,-5.014181137,1,-8.191233635,1,0.301170588,1,-0.801403403,1,0.53501606,1,0.483113289,1,-0.529842079,1,0.897450566,1
3.084139109,-4.598086357,1,-5.073706627,1,-8.22259903,1,0.308004588,1,-0.837022185,1,0.578629792,1,0.484077483,1,-0.533778071,1,0.897969186,1
3.088140726,-4.621541023,1,-5.33666563,1,-8.425196648,1,0.304861486,1,-0.890800655,1,0.614733219,1,0.485020667,1,-0.537934005,1,0.898548841,1
3.092139006,-4.627838612,1,-5.473362923,1,-8.195400238,1,0.282713205,1,-0.957559407,1,0.653577387,1,0.485874027,1,-0.542384148,1,0.899167657,1
3.096138716,-4.765948772,1,-5.079975128,1,-8.316132545,1,0.277660728,1,-1.028023958,1,0.70232749,1,0.486644477,1,-0.547167301,1,0.899812102,1
3.100140572,-4.743722439,1,-4.885394096,1,-8.516198158,1,0.29366976,1,-1.078106642,1,0.744982243,1,0.487432241,1,-0.552243412,1,0.900498867,1
3.104138851,-4.748123646,1,-5.158981323,1,-8.90856266,1,0.319693893,1,-1.133497953,1,0.791471064,1,0.488277674,1,-0.557595849,1,0.901247561,1
3.108138561,-4.122140884,1,-5.481520176,1,-8.277935028,1,0.286705881,1,-1.205017328,1,0.841308892,1,0.489065289,1,-0.563258767,1,0.902060032,1
3.112140179,-4.45020771,1,-5.37860918,1,-8.407762527,1,0.290482014,1,-1.284317255,1,0.887697875,1,0.489752173,1,-0.569281399,1,0.902903497,1
3.11613822,-4.776381969,1,-5.133373737,1,-8.568310738,1,0.289766103,1,-1.358729959,1,0.942045808,1,0.490429491,1,-0.575672388,1,0.90378046,1
3.12013793,-4.526868343,1,-5.216966629,1,-8.679807663,1,0.299344271,1,-1.438633561,1,0.9904899,1,0.49110961,1,-0.582420468,1,0.904715121,1
3.124139786,-4.597846031,1,-5.195233822,1,-8.699778557,1,0.275377095,1,-1.525495887,1,1.033150434,1,0.49174428,1,-0.589550495,1,0.905647933,1
3.128137827,-4.752854824,1,-5.016413212,1,-9.203083992,1,0.253508657,1,-1.627560973,1,1.065725327,1,0.492325753,1,-0.597085714,1,0.906506538,1
3.132137537,-4.62244463,1,-4.666000843,1,-9.105744362,1,0.245994776,1,-1.737976313,1,1.101419568,1,0.49288851,1,-0.605069578,1,0.907277048,1
3.136139154,-4.707663059,1,-4.801352978,1,-9.432923317,1,0.260977447,1,-1.847551227,1,1.134095669,1,0.49353376,1,-0.613508344,1,0.907932401,1
3.140137196,-4.853936672,1,-5.173556805,1,-9.303686142,1,0.25981617,1,-1.948046327,1,1.173255563,1,0.494240344,1,-0.622365236,1,0.908497334,1
3.144136667,-4.097363472,1,-4.968106747,1,-9.174740791,1,0.274316698,1,-2.085102797,1,1.22078979,1,0.495010197,1,-0.631732225,1,0.908975959,1
3.148138523,-5.004171371,1,-4.914275169,1,-9.912215233,1,0.339062184,1,-2.210906744,1,1.249647141,1,0.496033609,1,-0.641653776,1,0.909300566,1
3.152136564,-4.490253925,1,-4.233160973,1,-9.554263115,1,0.402797133,1,-2.319931507,1,1.292839289,1,0.497384965,1,-0.652008951,1,0.909497142,1
3.156136513,-3.58373332,1,-4.428105354,1,-9.779886246,1,0.480788618,1,-2.5011096,1,1.335021377,1,0.499129206,1,-0.662989318,1,0.909525394,1
3.16013813,-4.514181137,1,-4.438515186,1,-10.31490421,1,0.543021381,1,-2.674962521,1,1.373139858,1,0.501352489,1,-0.674679577,1,0.909235895,1
3.164136171,-4.110324383,1,-4.052510262,1,-10.6883955,1,0.601097345,1,-2.86263299,1,1.412203789,1,0.50402087,1,-0.687089682,1,0.908658147,1
3.168135881,-1.801932573,1,-2.919478893,1,-9.64719677,1,0.736627221,1,-3.091979742,1,1.471097946,1,0.50716871,1,-0.700159907,1,0.907674432,1
3.172137737,-5.729646206,1,-3.409442425,1,-12.12713242,1,1.175986528,1,-3.412811279,1,1.617864966,1,0.512033582,1,-0.714617312,1,0.906324983,1
3.176141262,-3.777706861,1,-5.479572773,1,-10.29820251,1,1.092818499,1,-3.587659597,1,1.787602663,1,0.517455757,1,-0.730162144,1,0.905075848,1
3.180141211,-1.763647437,1,-8.110606194,1,-9.664532661,1,1.001805186,1,-3.873069048,1,1.859913588,1,0.52258414,1,-0.746741772,1,0.903615236,1
3.184143066,-3.465364456,1,-6.635644436,1,-10.9059248,1,1.109476566,1,-4.070946693,1,2.014107704,1,0.528003931,1,-0.764394343,1,0.901820123,1
3.188140869,-4.500997543,1,-6.1921978,1,-11.04455566,1,1.230187535,1,-4.168208599,1,2.191674471,1,0.533746004,1,-0.78288126,1,0.900317371,1
3.192140579,-5.08262682,1,-7.882079601,1,-11.33550453,1,1.295504451,1,-4.266325951,1,2.303640366,1,0.539704859,1,-0.801959097,1,0.899068713,1
3.196142435,-6.842354774,1,-10.29772377,1,-9.475466728,1,1.270856142,1,-4.280533791,1,2.358718872,1,0.545784056,1,-0.821502328,1,0.897795916,1
3.200140476,-7.857758999,1,-11.6021204,1,-10.98649597,1,1.138818264,1,-4.226299763,1,2.440497875,1,0.551342368,1,-0.840962172,1,0.896802008,1
3.204140186,-7.126010418,1,-13.03151989,1,-11.34028625,1,0.94388473,1,-4.29009819,1,2.579962015,1,0.556012392,1,-0.86073482,1,0.896177888,1
3.208142042,-6.274981499,1,-12.8944931,1,-11.05705738,1,0.687025726,1,-4.425727844,1,2.682416201,1,0.55960089,1,-0.881061673,1,0.895732045,1
3.212140083,-7.151738644,1,-13.16165161,1,-11.1388092,1,0.457502633,1,-4.641440868,1,2.817323923,1,0.562308371,1,-0.90226537,1,0.895176351,1
3.216139793,-9.424150467,1,-12.94134998,1,-12.65484524,1,0.300820768,1,-4.742631435,1,2.880700827,1,0.564302623,1,-0.924245298,1,0.894554973,1
3.220141888,-14.5020647,1,-13.43667793,1,-13.78970528,1,0.268750101,1,-4.687236309,1,2.920179605,1,0.565839648,1,-0.94642514,1,0.894001245,1
3.22413969,-13.40408516,1,-12.49391651,1,-12.54622555,1,0.316093385,1,-4.520851612,1,3.068280935,1,0.566694319,1,-0.968341589,1,0.894368768,1
3.228139639,-9.857884407,1,-13.52694035,1,-11.37703323,1,0.333667904,1,-4.561729908,1,3.268438578,1,0.566572726,1,-0.990445435,1,0.896115959,1
3.232141256,-11.62703419,1,-15.88771057,1,-11.47820568,1,0.19811976,1,-4.579059601,1,3.458296061,1,0.565238476,1,-1.013118386,1,0.89899683,1
3.236139297,-11.40135002,1,-15.1745472,1,-12.81449223,1,0.068049572,1,-4.505541325,1,3.48940587,1,0.562318742,1,-1.035933375,1,0.902991235,1
3.240139008,-12.65228844,1,-16.14453316,1,-12.47181702,1,0.039561752,1,-4.375660419,1,3.547065735,1,0.558360279,1,-1.058436394,1,0.907809496,1
3.244140863,-11.09682274,1,-15.78911495,1,-12.29592037,1,-0.097077325,1,-4.257594585,1,3.739331961,1,0.552247226,1,-1.080772996,1,0.914705753,1
3.248138666,-11.42024708,1,-15.71161938,1,-12.56348515,1,-0.276831686,1,-4.201361656,1,3.737277269,1,0.543790221,1,-1.103050232,1,0.923374593,1
3.252138615,-15.33199596,1,-17.394104,1,-12.47920322,1,-0.410597831,1,-4.014079571,1,3.659804821,1,0.533797145,1,-1.124784112,1,0.932982206,1
3.256140232,-12.13736343,1,-15.97527885,1,-11.14489269,1,-0.581369579,1,-3.824091434,1,3.660403728,1,0.521551251,1,-1.14562881,1,0.944316149,1
3.260138035,-9.900043488,1,-15.81786156,1,-9.506532669,1,-0.871519625,1,-3.838847399,1,3.709738731,1,0.50666976,1,-1.166203499,1,0.957442343,1
3.264137745,-10.7211647,1,-14.31857967,1,-8.078907967,1,-1.283931851,1,-3.880883217,1,3.756215572,1,0.488533497,1,-1.186897755,1,0.972436786,1
3.268139601,-11.28827763,1,-11.30981255,1,-7.928047657,1,-1.56891036,1,-3.879049301,1,3.727202654,1,0.467040449,1,-1.207572222,1,0.98931694,1
3.272137403,-10.47901344,1,-8.182133675,1,-7.791951656,1,-1.708655715,1,-3.824458122,1,3.74541831,1,0.442450702,1,-1.228007197,1,1.008539319,1
3.276137114,-12.09899712,1,-4.426568031,1,-10.84846497,1,-1.759650707,1,-3.617800713,1,3.598282814,1,0.414620817,1,-1.247766972,1,1.030548811,1
3.280138969,-9.955048561,1,-2.586628199,1,-13.65353394,1,-1.292810798,1,-3.091977835,1,3.281959534,1,0.385469794,1,-1.265498519,1,1.054638863,1
3.284137011,-16.62467194,1,-2.388055563,1,-11.96924686,1,-0.667430878,1,-2.65220046,1,2.992472887,1,0.356871128,1,-1.28074789,1,1.08047998,1
3.288136721,-20.27217865,1,-5.906187534,1,-15.10394955,1,-0.123905778,1,-2.144421101,1,2.599133015,1,0.330407262,1,-1.293624759,1,1.106432199,1
3.292138338,-12.32203293,1,-7.826188087,1,-13.53536892,1,0.264009714,1,-1.579742908,1,2.235900879,1,0.306191295,1,-1.303632259,1,1.131909728,1
3.296142101,-3.54144454,1,-8.744444847,1,-9.826322556,1,0.462468594,1,-1.434184074,1,2.037210703,1,0.283898175,1,-1.311785102,1,1.156545281,1
3.300141811,-3.032475471,1,-9.441917419,1,-8.24533844,1,0.488952786,1,-1.492235184,1,2.009857893,1,0.262135893,1,-1.319581151,1,1.18104434,1
3.304143667,-4.625398159,1,-10.29353714,1,-8.638637543,1,0.329123735,1,-1.48622787,1,2.015574455,1,0.238752991,1,-1.327382088,1,1.20688355,1
3.30814147,-5.037259579,1,-10.54514408,1,-8.86950016,1,0.158770919,1,-1.398787856,1,1.949147701,1,0.213343963,1,-1.334793687,1,1.234034657,1
3.312141418,-6.548033237,1,-10.7104578,1,-9.25633812,1,0.028453331,1,-1.230718255,1,1.836522698,1,0.186814815,1,-1.341479301,1,1.261698246,1
3.316142797,-7.786862373,1,-10.70507813,1,-10.07972717,1,-0.139604256,1,-0.952131927,1,1.688860059,1,0.159730494,1,-1.347021341,1,1.28927052,1
3.320140839,-7.834989071,1,-10.50153065,1,-10.42642117,1,-0.311864525,1,-0.578268886,1,1.47759974,1,0.133557573,1,-1.350952506,1,1.315013289,1
3.324140549,-7.072767735,1,-10.02389145,1,-10.37233257,1,-0.434020132,1,-0.181247413,1,1.227878809,1,0.10867548,1,-1.353116274,1,1.338951468,1
3.328142405,-5.444729805,1,-9.255364418,1,-10.10700035,1,-0.504532754,1,0.195904925,1,0.987026751,1,0.086838908,1,-1.353503585,1,1.359384179,1
3.332140207,-3.351451635,1,-8.096912384,1,-9.817362785,1,-0.528777599,1,0.500111222,1,0.796378672,1,0.068283349,1,-1.352374554,1,1.376263976,1
3.336139917,-1.371125102,1,-6.992473125,1,-9.380871773,1,-0.491150141,1,0.733867943,1,0.649754107,1,0.052666783,1,-1.3500669,1,1.39015615,1
3.340141773,0.357073635,1,-6.12668705,1,-8.710938454,1,-0.4242208,1,0.913088202,1,0.55181092,1,0.039563604,1,-1.346877098,1,1.401705503,1
3.344139814,1.771687984,1,-5.57724905,1,-7.860332489,1,-0.330137968,1,1.040842652,1,0.479915082,1,0.028538041,1,-1.343029022,1,1.411455035,1
3.348139763,2.868535995,1,-5.369645596,1,-7.047215462,1,-0.257874429,1,1.137267709,1,0.430358529,1,0.019175155,1,-1.338715792,1,1.419865012,1
3.352141857,3.638036013,1,-5.324396133,1,-6.413407803,1,-0.183934867,1,1.205796361,1,0.386746258,1,0.0112041,1,-1.334056377,1,1.42716229,1
3.35613966,3.99295783,1,-5.381041527,1,-5.954167366,1,-0.135924399,1,1.272698045,1,0.339080274,1,0.004456538,1,-1.329103351,1,1.433457613,1
3.360139847,4.173922539,1,-5.401136398,1,-5.709464073,1,-0.10220167,1,1.347819209,1,0.284590781,1,-0.001097214,1,-1.32386601,1,1.438699841,1
