Time,inertial-6253.76535:estCompensatedAccelX,inertial-6253.76535:estCompensatedAccelX:valid,inertial-6253.76535:estCompensatedAccelY,inertial-6253.76535:estCompensatedAccelY:valid,inertial-6253.76535:estCompensatedAccelZ,inertial-6253.76535:estCompensatedAccelZ:valid,inertial-6253.76535:estAngularRateX,inertial-6253.76535:estAngularRateX:valid,inertial-6253.76535:estAngularRateY,inertial-6253.76535:estAngularRateY:valid,inertial-6253.76535:estAngularRateZ,inertial-6253.76535:estAngularRateZ:valid,inertial-6253.76535:estRoll,inertial-6253.76535:estRoll:valid,inertial-6253.76535:estPitch,inertial-6253.76535:estPitch:valid,inertial-6253.76535:estYaw,inertial-6253.76535:estYaw:valid
0,-5.480885983,1,-4.121188641,1,-7.064012527,1,0.09341079,1,0.022144847,1,-0.066380173,1,0.492384493,1,-0.613926768,1,0.328621656,1
0.003999744,-5.525261402,1,-4.120275497,1,-7.144949436,1,0.087311998,1,0.027143443,1,-0.06820669,1,0.492883831,1,-0.613713741,1,0.328389913,1
0.008001536,-5.487304688,1,-4.026798248,1,-7.099621773,1,0.079398498,1,0.026250234,1,-0.061500154,1,0.493339628,1,-0.613498211,1,0.328178406,1
0.011999232,-5.539493561,1,-4.010126114,1,-7.153205872,1,0.070514411,1,0.029216425,1,-0.064038292,1,0.493762493,1,-0.61327976,1,0.327964067,1
0.015998976,-5.509730339,1,-3.988218784,1,-7.200985909,1,0.064262137,1,0.025096852,1,-0.066242687,1,0.494149029,1,-0.613060117,1,0.327755272,1
0.020000769,-5.486593246,1,-4.0479846,1,-7.185890198,1,0.057795711,1,0.029420037,1,-0.064149953,1,0.494511247,1,-0.612834692,1,0.327543348,1
0.023998721,-5.483664036,1,-4.028534412,1,-7.139237881,1,0.05006681,1,0.028068928,1,-0.065828376,1,0.494841605,1,-0.612603128,1,0.327330053,1
0.027998464,-5.467003822,1,-4.085387707,1,-7.088182449,1,0.044035163,1,0.027799543,1,-0.060263842,1,0.495157182,1,-0.612383723,1,0.327119946,1
0.032000255,-5.431519508,1,-3.990678787,1,-7.179778576,1,0.044058379,1,0.033090502,1,-0.059870373,1,0.495445281,1,-0.612151921,1,0.326932609,1
0.035998207,-5.438016415,1,-4.023496151,1,-7.225746632,1,0.036397025,1,0.029151704,1,-0.056201674,1,0.495709956,1,-0.611931384,1,0.326750398,1
0.03999795,-5.39396143,1,-3.982498646,1,-7.198336124,1,0.036965884,1,0.035638016,1,-0.052913606,1,0.495954722,1,-0.611713886,1,0.326591313,1
0.043999743,-5.403252125,1,-4.036125183,1,-7.247271538,1,0.035609651,1,0.030607631,1,-0.053132758,1,0.496177077,1,-0.611498177,1,0.326444209,1
0.047997694,-5.37017107,1,-3.916458607,1,-7.280988693,1,0.03475092,1,0.028814439,1,-0.050111331,1,0.496401846,1,-0.611297905,1,0.326292753,1
0.051997185,-5.419665813,1,-3.819846392,1,-7.271489143,1,0.03881792,1,0.026664557,1,-0.055856161,1,0.496630132,1,-0.611107349,1,0.326128423,1
0.055998977,-5.423793793,1,-3.789789915,1,-7.280038357,1,0.038886283,1,0.023087565,1,-0.052378248,1,0.496879995,1,-0.610913992,1,0.325962543,1
0.059996929,-5.36220789,1,-3.68104291,1,-7.288051128,1,0.044919614,1,0.021623857,1,-0.054473892,1,0.497134745,1,-0.610736787,1,0.325806528,1
0.063996673,-5.376336575,1,-3.675348997,1,-7.350021839,1,0.049069241,1,0.019893492,1,-0.05189909,1,0.497421056,1,-0.610567272,1,0.325639665,1
0.067998461,-5.364605904,1,-3.635040998,1,-7.356284142,1,0.052744415,1,0.016818432,1,-0.056809545,1,0.497741997,1,-0.610403359,1,0.32545051,1
0.071996413,-5.349032402,1,-3.703184366,1,-7.382807255,1,0.064544238,1,0.012779971,1,-0.054445431,1,0.49809289,1,-0.610239744,1,0.325238377,1
0.075995907,-5.354385853,1,-3.737664938,1,-7.32046175,1,0.065366551,1,0.007559855,1,-0.059286725,1,0.498420537,1,-0.6093297,1,0.324963629,1
0.079997696,-5.382079124,1,-3.757180929,1,-7.295186043,1,0.06742283,1,0.005734719,1,-0.062913336,1,0.498846173,1,-0.6090855,1,0.323637307,1
0.08400128,-5.381177425,1,-3.785107851,1,-7.289686203,1,0.076413095,1,0.000200485,1,-0.061990485,1,0.499289393,1,-0.608955503,1,0.32336551,1
0.088001028,-5.397476196,1,-3.853348017,1,-7.23251009,1,0.080154084,1,0.002867076,1,-0.06730137,1,0.499767393,1,-0.608826339,1,0.323090434,1
0.092002816,-5.363609791,1,-3.937265158,1,-7.249807358,1,0.078016311,1,0.002473224,1,-0.068465434,1,0.500237465,1,-0.60869354,1,0.322812378,1
0.096000768,-5.418227196,1,-4.025244713,1,-7.193471432,1,0.082500353,1,-0.000329495,1,-0.063835241,1,0.500725567,1,-0.608566701,1,0.322525978,1
0.100000516,-5.364492416,1,-4.094993591,1,-7.190683842,1,0.079047874,1,-0.004177753,1,-0.068266794,1,0.50120163,1,-0.608447313,1,0.32223776,1
0.104002304,-5.421917439,1,-4.174987793,1,-7.204402924,1,0.071247913,1,-0.005379858,1,-0.065376893,1,0.501679897,1,-0.608338356,1,0.321935773,1
0.108000256,-5.386967659,1,-4.121515751,1,-7.14202261,1,0.065940723,1,-0.01241431,1,-0.064050071,1,0.502127349,1,-0.608243942,1,0.321637928,1
0.112000003,-5.449869156,1,-4.066707611,1,-7.131126404,1,0.071298383,1,-0.006184314,1,-0.06081358,1,0.502579391,1,-0.608158708,1,0.321335733,1
0.116001792,-5.477591991,1,-3.973481417,1,-7.107451916,1,0.076061547,1,-0.006782625,1,-0.059426371,1,0.503030419,1,-0.608077168,1,0.321056128,1
0.119999744,-5.417004585,1,-4.019634724,1,-7.168462753,1,0.073329747,1,0.001346864,1,-0.059819907,1,0.503482044,1,-0.607976556,1,0.320789486,1
0.123999231,-5.439555168,1,-4.038431644,1,-7.138075352,1,0.069505669,1,-0.003025359,1,-0.055984568,1,0.503913581,1,-0.607876897,1,0.320528895,1
0.128001019,-5.403834343,1,-4.106737137,1,-7.143386841,1,0.064813726,1,-0.000396195,1,-0.054451983,1,0.504325271,1,-0.607770562,1,0.320289046,1
0.131998971,-5.395709991,1,-4.113116264,1,-7.093582153,1,0.059843875,1,0.006808102,1,-0.052864924,1,0.504701257,1,-0.607658744,1,0.320069045,1
0.135998726,-5.414688587,1,-4.08415556,1,-7.143212318,1,0.052577168,1,0.003885464,1,-0.046593018,1,0.505047381,1,-0.607543647,1,0.319874167,1
0.140000507,-5.39780426,1,-4.061169624,1,-7.166811466,1,0.051824003,1,0.010238399,1,-0.044264536,1,0.505372941,1,-0.607436657,1,0.319693357,1
0.143998459,-5.440218925,1,-3.995295048,1,-7.207705021,1,0.048371952,1,0.005825333,1,-0.043489259,1,0.505677819,1,-0.607315779,1,0.319514573,1
0.147998214,-5.462148666,1,-3.963487148,1,-7.211661816,1,0.050127454,1,0.012845815,1,-0.043630391,1,0.505962372,1,-0.607193947,1,0.319351643,1
0.152000263,-5.415567875,1,-3.929290295,1,-7.201971531,1,0.04780877,1,0.013772953,1,-0.043011323,1,0.506252766,1,-0.607064307,1,0.319186836,1
0.155998215,-5.39228344,1,-3.978075743,1,-7.205737591,1,0.048848614,1,0.013183236,1,-0.037423544,1,0.506530941,1,-0.606938422,1,0.319042206,1
0.159997702,-5.420414448,1,-4.018904209,1,-7.199707031,1,0.049562532,1,0.012440307,1,-0.044744667,1,0.506804168,1,-0.606812716,1,0.318904608,1
0.163999751,-5.397630692,1,-4.043003559,1,-7.170933723,1,0.044659987,1,0.015456287,1,-0.034095835,1,0.507051945,1,-0.606689572,1,0.318781137,1
0.167997703,-5.385499477,1,-4.09002161,1,-7.1766572,1,0.03928696,1,0.014454582,1,-0.033944894,1,0.507277727,1,-0.606569469,1,0.318676054,1
0.171997443,-5.420622349,1,-4.158103943,1,-7.179531097,1,0.039824866,1,0.017216621,1,-0.028999634,1,0.507492244,1,-0.606446624,1,0.318585396,1
0.175999239,-5.453623295,1,-4.201219082,1,-7.130702019,1,0.030349746,1,0.022694439,1,-0.022097021,1,0.507666409,1,-0.606323719,1,0.318528771,1
0.179997191,-5.451169491,1,-4.125610828,1,-7.07992506,1,0.036045846,1,0.026258375,1,-0.018124705,1,0.507810771,1,-0.60619837,1,0.318505824,1
0.183996931,-5.438551426,1,-4.135033131,1,-7.116241932,1,0.026078811,1,0.029720245,1,-0.01416566,1,0.507934868,1,-0.606073618,1,0.318502724,1
0.187998727,-5.435939789,1,-4.138442993,1,-7.124879837,1,0.030240502,1,0.036397692,1,-0.011906415,1,0.508031011,1,-0.605939388,1,0.318526149,1
0.191996679,-5.465906143,1,-4.097428799,1,-7.089238167,1,0.03054999,1,0.037864763,1,-0.003024173,1,0.508112371,1,-0.605795503,1,0.318582386,1
0.195996672,-5.532744408,1,-4.024518013,1,-7.065011024,1,0.045402922,1,0.044396009,1,0.001402337,1,0.50821197,1,-0.60564208,1,0.318669379,1
0.199998468,-5.520552158,1,-4.010120392,1,-7.128379345,1,0.055926416,1,0.054610606,1,0.003267768,1,0.508332551,1,-0.605476916,1,0.318802476,1
0.204002053,-5.456543446,1,-3.993311644,1,-7.131020546,1,0.062239051,1,0.051726349,1,0.001828046,1,0.508496523,1,-0.605299175,1,0.31894803,1
0.208001792,-5.453980923,1,-3.932985783,1,-7.202525139,1,0.074751183,1,0.054708149,1,-0.003604723,1,0.508702397,1,-0.605109036,1,0.319066107,1
0.212003589,-5.452120304,1,-3.800997734,1,-7.192924976,1,0.075097874,1,0.054034792,1,-0.008797541,1,0.508942604,1,-0.60490936,1,0.319167316,1
0.21600154,-5.463082314,1,-3.702241898,1,-7.218913555,1,0.072580628,1,0.056626394,1,-0.016017474,1,0.50919646,1,-0.604701936,1,0.319252938,1
0.220001027,-5.373021126,1,-3.667911768,1,-7.308666229,1,0.081696339,1,0.05149404,1,-0.018661214,1,0.509487033,1,-0.604484499,1,0.31930548,1
0.224002823,-5.3917346,1,-3.641027212,1,-7.324078083,1,0.084113061,1,0.047431186,1,-0.030258236,1,0.509808719,1,-0.604255974,1,0.319319427,1
0.228000775,-5.361886978,1,-3.662313223,1,-7.329014778,1,0.085004881,1,0.043608654,1,-0.03507299,1,0.510156035,1,-0.604035735,1,0.319291443,1
0.232000515,-5.345934391,1,-3.729888678,1,-7.31426239,1,0.089753009,1,0.04369453,1,-0.040466279,1,0.510533035,1,-0.60380739,1,0.319232523,1
0.236002311,-5.380661488,1,-3.844688654,1,-7.217129707,1,0.088336557,1,0.042924043,1,-0.043071374,1,0.510922313,1,-0.603574693,1,0.3191576,1
0.240000263,-5.44025135,1,-3.952914238,1,-7.15936327,1,0.085681543,1,0.039857324,1,-0.04906923,1,0.51132232,1,-0.603338361,1,0.319055974,1
0.243999749,-5.36670208,1,-4.001202106,1,-7.142895222,1,0.08325021,1,0.040735085,1,-0.048074137,1,0.511710465,1,-0.603099048,1,0.31895259,1
0.248001799,-5.376867771,1,-4.021482468,1,-7.129257202,1,0.075345784,1,0.042511549,1,-0.052879125,1,0.512097061,1,-0.602843881,1,0.318828791,1
0.251999736,-5.378900528,1,-4.007590294,1,-7.156188488,1,0.07384523,1,0.04739318,1,-0.052515987,1,0.512471557,1,-0.602589786,1,0.318713397,1
0.255999476,-5.313063622,1,-3.986567497,1,-7.122944355,1,0.074254386,1,0.041897092,1,-0.050537068,1,0.512823284,1,-0.602329135,1,0.318600297,1
0.260001272,-5.335279465,1,-4.005190372,1,-7.129194736,1,0.071375206,1,0.052506279,1,-0.049649298,1,0.513168216,1,-0.602063715,1,0.318488121,1
0.263998985,-5.307173729,1,-3.988333225,1,-7.117235661,1,0.065529779,1,0.048561241,1,-0.053690989,1,0.513491571,1,-0.601788402,1,0.318384111,1
0.267998725,-5.327881813,1,-4.00074482,1,-7.104708195,1,0.063418567,1,0.050558746,1,-0.052907899,1,0.513800383,1,-0.601507485,1,0.318288088,1
0.272000521,-5.269096375,1,-3.964283705,1,-7.097651482,1,0.056642521,1,0.054089449,1,-0.053216815,1,0.514100552,1,-0.60121876,1,0.318183303,1
0.275998205,-5.254845619,1,-3.931483984,1,-7.094456673,1,0.062134564,1,0.05037659,1,-0.056705803,1,0.514397979,1,-0.600933433,1,0.318075329,1
0.279997945,-5.135234833,1,-3.879890919,1,-7.218935013,1,0.065728284,1,0.045773298,1,-0.05160401,1,0.514716089,1,-0.600656688,1,0.317957252,1
0.283999741,-5.105059147,1,-3.856830359,1,-7.267913342,1,0.066824943,1,0.040405482,1,-0.053856928,1,0.515051126,1,-0.600405097,1,0.31784007,1
0.287997454,-5.143378735,1,-3.816571712,1,-7.309495449,1,0.074248448,1,0.036017139,1,-0.056656744,1,0.515408278,1,-0.600159466,1,0.317702591,1
0.291997194,-5.228722095,1,-3.748870611,1,-7.302063465,1,0.077512264,1,0.03159095,1,-0.05634474,1,0.515801013,1,-0.599934936,1,0.317539692,1
0.295998991,-5.275781631,1,-3.655462742,1,-7.343078136,1,0.086330779,1,0.027164767,1,-0.062954038,1,0.516229987,1,-0.59971416,1,0.317358404,1
0.299996674,-5.31115818,1,-3.736982107,1,-7.293485165,1,0.095694974,1,0.022606367,1,-0.067743525,1,0.516712427,1,-0.59950614,1,0.31714797,1
0.303996414,-5.271864414,1,-3.713298321,1,-7.237848759,1,0.103201762,1,0.021434266,1,-0.072581433,1,0.51725024,1,-0.599290907,1,0.3168993,1
0.30799821,-5.208801746,1,-3.840828419,1,-7.224980354,1,0.119938232,1,0.010115664,1,-0.081740513,1,0.517864227,1,-0.599083245,1,0.316621363,1
0.311996162,-5.167256832,1,-3.912384987,1,-7.193588257,1,0.123407543,1,0.003853183,1,-0.07853663,1,0.518539548,1,-0.59889859,1,0.316299498,1
0.315995902,-5.163460255,1,-3.992952585,1,-7.211487293,1,0.131067246,1,-0.0011699,1,-0.078523442,1,0.519234478,1,-0.598732829,1,0.315963894,1
0.319997698,-5.137954235,1,-4.118050575,1,-7.282878399,1,0.137940779,1,-0.002168091,1,-0.077374749,1,0.519955039,1,-0.598586321,1,0.315630555,1
0.324001282,-5.17714262,1,-4.182248116,1,-7.215528011,1,0.131020471,1,-0.007050905,1,-0.069385588,1,0.520668864,1,-0.598464787,1,0.315311491,1
0.328000754,-5.157839298,1,-4.101588726,1,-7.193882942,1,0.130278796,1,-0.011054811,1,-0.071254432,1,0.521226287,1,-0.59759891,1,0.313837647,1
0.33200255,-5.204144955,1,-4.081030369,1,-7.184952736,1,0.129156336,1,-0.018501068,1,-0.064438373,1,0.521926463,1,-0.597515821,1,0.313516438,1
0.336000502,-5.223312855,1,-3.961429834,1,-7.24878788,1,0.133254886,1,-0.025573598,1,-0.065007776,1,0.522637725,1,-0.597453237,1,0.313190818,1
0.340000242,-5.294266224,1,-3.902765512,1,-7.280258656,1,0.133186698,1,-0.022739781,1,-0.066805959,1,0.523358583,1,-0.597406983,1,0.312853128,1
0.344002038,-5.215144157,1,-3.895016193,1,-7.277705193,1,0.139864549,1,-0.027609747,1,-0.065929741,1,0.524087608,1,-0.597358346,1,0.31251955,1
0.34799999,-5.258525848,1,-4.016578674,1,-7.279977798,1,0.143910304,1,-0.028412905,1,-0.062639512,1,0.52484417,1,-0.597319067,1,0.312185347,1
0.351999491,-5.235144615,1,-4.172309399,1,-7.216480732,1,0.141285717,1,-0.033699308,1,-0.065371051,1,0.525596142,1,-0.597300172,1,0.311854273,1
0.356001288,-5.250511169,1,-4.274245739,1,-7.14538002,1,0.139267132,1,-0.034580506,1,-0.054961834,1,0.526347339,1,-0.597297668,1,0.311513275,1
0.359999239,-5.217806339,1,-4.416762352,1,-7.053497314,1,0.133774817,1,-0.039377313,1,-0.049029429,1,0.527063727,1,-0.597312152,1,0.31120038,1
0.363998979,-5.209531307,1,-4.523832798,1,-7.085973263,1,0.120446019,1,-0.037692513,1,-0.042190481,1,0.527724445,1,-0.597351909,1,0.310921371,1
0.368000776,-5.21598959,1,-4.55689764,1,-6.999479294,1,0.107029825,1,-0.033554256,1,-0.036886949,1,0.528306603,1,-0.597400248,1,0.31068486,1
0.371998727,-5.107323647,1,-4.612538815,1,-7.026855469,1,0.09263856,1,-0.037319936,1,-0.018382419,1,0.52882117,1,-0.597468257,1,0.310480595,1
0.375998706,-4.907813549,1,-4.63684845,1,-6.916101933,1,0.078139655,1,-0.03743602,1,-0.00439863,1,0.529238403,1,-0.59758383,1,0.310339451,1
0.380000502,-4.958815098,1,-4.741640091,1,-7.025887966,1,0.065390632,1,-0.047466345,1,0.015174533,1,0.529559016,1,-0.597742379,1,0.310266286,1
0.383998215,-4.957307339,1,-4.748705387,1,-7.026712894,1,0.044787336,1,-0.054519396,1,0.026225284,1,0.52980721,1,-0.597953618,1,0.310218215,1
0.387998194,-4.903587341,1,-4.753818035,1,-6.993983269,1,0.03515764,1,-0.064622879,1,0.038823135,1,0.529979765,1,-0.598225296,1,0.310219646,1
0.39199999,-5.011174202,1,-4.705829144,1,-7.086213112,1,0.023721281,1,-0.076890618,1,0.050179135,1,0.530085802,1,-0.598558605,1,0.310238093,1
0.395997703,-5.189063072,1,-4.593112946,1,-7.117873669,1,0.01801686,1,-0.083572961,1,0.054500122,1,0.530158937,1,-0.598938465,1,0.310255468,1
0.399997443,-5.258471966,1,-4.328902245,1,-7.179409027,1,0.015938582,1,-0.089712717,1,0.055045787,1,0.530215263,1,-0.599357724,1,0.310272306,1
0.403999239,-5.429016113,1,-4.190653801,1,-7.241224766,1,0.018699415,1,-0.095876396,1,0.057960879,1,0.530275583,1,-0.599789262,1,0.310281456,1
0.407997191,-5.440287113,1,-4.002122879,1,-7.25988245,1,0.021530408,1,-0.100952506,1,0.053786378,1,0.530358136,1,-0.600239277,1,0.310264587,1
0.411996931,-5.550201893,1,-3.969064236,1,-7.344177723,1,0.026912225,1,-0.101355806,1,0.043025389,1,0.530487299,1,-0.600684345,1,0.310213178,1
0.415998727,-5.522153378,1,-3.945235491,1,-7.271183491,1,0.031334013,1,-0.098344252,1,0.038095824,1,0.53065449,1,-0.601106644,1,0.310128927,1
0.419996679,-5.526408195,1,-4.039101601,1,-7.258066177,1,0.032508995,1,-0.104080454,1,0.034399044,1,0.53085041,1,-0.601536989,1,0.310025394,1
0.423996419,-5.494941711,1,-4.068378448,1,-7.231615067,1,0.036315195,1,-0.102248125,1,0.031232674,1,0.531057656,1,-0.601964593,1,0.309916854,1
0.427998215,-5.486009598,1,-4.133095741,1,-7.169836998,1,0.041453939,1,-0.104638793,1,0.028572913,1,0.531276941,1,-0.602392256,1,0.309790105,1
0.431996167,-5.439456463,1,-4.158531189,1,-7.198314667,1,0.043094531,1,-0.105908521,1,0.02717231,1,0.531516433,1,-0.602816164,1,0.309655845,1
0.435995638,-5.451751232,1,-4.188344002,1,-7.228846073,1,0.043673735,1,-0.110258855,1,0.023971146,1,0.531778514,1,-0.603244364,1,0.309497654,1
0.439997703,-5.477626324,1,-4.089936733,1,-7.291682243,1,0.051907051,1,-0.115924641,1,0.025799979,1,0.532066047,1,-0.603691518,1,0.309319109,1
0.443995655,-5.523580551,1,-3.981867075,1,-7.322535992,1,0.053775884,1,-0.116010934,1,0.020549877,1,0.532381117,1,-0.604138851,1,0.309126258,1
0.448001534,-5.573003292,1,-3.961881399,1,-7.230911732,1,0.061274383,1,-0.123267211,1,0.010279032,1,0.532741547,1,-0.604575634,1,0.308891118,1
0.452003598,-5.50267458,1,-4.008070469,1,-7.217680454,1,0.070630461,1,-0.122166134,1,0.00691037,1,0.533150434,1,-0.605026066,1,0.308635592,1
0.45600155,-5.53794241,1,-4.051412582,1,-7.199681282,1,0.071321309,1,-0.126469553,1,0.007568919,1,0.533588052,1,-0.605463862,1,0.308360279,1
0.46000129,-5.507506847,1,-4.108035088,1,-7.167156219,1,0.075419761,1,-0.129578859,1,0.002348637,1,0.534059584,1,-0.605913639,1,0.308061093,1
0.464003325,-5.452428341,1,-4.105205059,1,-7.118057251,1,0.07958246,1,-0.129604787,1,-0.001161705,1,0.534545302,1,-0.606360435,1,0.307746738,1
0.468001276,-5.50352335,1,-4.210406303,1,-7.140278816,1,0.081914976,1,-0.128920183,1,0.000226089,1,0.535044491,1,-0.606806517,1,0.307434231,1
0.472001284,-5.496741295,1,-4.233869553,1,-7.071666718,1,0.076020725,1,-0.128437892,1,0.003335354,1,0.535550773,1,-0.607254148,1,0.307115078,1
0.476003081,-5.47484827,1,-4.239442348,1,-7.040186405,1,0.079975612,1,-0.12584421,1,0.003656721,1,0.536035717,1,-0.607696593,1,0.306812525,1
0.480000764,-5.480572701,1,-4.317266464,1,-7.024987698,1,0.077933259,1,-0.124180369,1,0.000867678,1,0.536515951,1,-0.608137608,1,0.306501746,1
0.484000504,-5.5010252,1,-4.205330372,1,-7.002317905,1,0.07136371,1,-0.118432842,1,0.002461049,1,0.536983848,1,-0.608564496,1,0.306204498,1
0.4880023,-5.526926517,1,-4.168013096,1,-7.036499023,1,0.070228472,1,-0.118350431,1,0.003321979,1,0.53744036,1,-0.608977973,1,0.305910885,1
0.492000252,-5.479631901,1,-4.165814877,1,-7.050522327,1,0.075081721,1,-0.113495365,1,-0.003433022,1,0.537895262,1,-0.609374404,1,0.305614203,1
0.49600026,-5.460401058,1,-4.147845745,1,-7.024789333,1,0.072643429,1,-0.113257565,1,0.004277799,1,0.538347483,1,-0.609759986,1,0.305331469,1
0.500002027,-5.459164619,1,-4.093479633,1,-7.046621323,1,0.07213302,1,-0.108540453,1,-0.00185472,1,0.53879106,1,-0.610143065,1,0.305059373,1
0.504000008,-5.38201189,1,-4.20643568,1,-7.013952732,1,0.067736477,1,-0.106909469,1,0.000358771,1,0.539225876,1,-0.610521674,1,0.304794401,1
0.507999718,-5.342013836,1,-4.317657471,1,-6.999706745,1,0.066947497,1,-0.108766027,1,0.006884766,1,0.539642513,1,-0.610905409,1,0.304541826,1
0.512001514,-5.346153259,1,-4.351989746,1,-6.968546867,1,0.062492538,1,-0.107916936,1,0.009425208,1,0.540053666,1,-0.611295581,1,0.304289699,1
0.515999496,-5.370056629,1,-4.362520218,1,-6.9882617,1,0.057737771,1,-0.109090097,1,0.014433089,1,0.540419817,1,-0.61169672,1,0.304076552,1
0.519999206,-5.427977085,1,-4.369397163,1,-6.94823885,1,0.049012158,1,-0.106052145,1,0.019170104,1,0.540737569,1,-0.612103343,1,0.303883731,1
0.524001002,-5.416538239,1,-4.367634773,1,-6.924514771,1,0.041429952,1,-0.105385162,1,0.022673307,1,0.541015506,1,-0.61250025,1,0.303713739,1
0.527998984,-5.462890625,1,-4.390760422,1,-6.931328773,1,0.033710074,1,-0.096285678,1,0.028766315,1,0.541248381,1,-0.612903714,1,0.30357182,1
0.531998694,-5.455714226,1,-4.332806587,1,-6.948827744,1,0.034096334,1,-0.099126294,1,0.029212624,1,0.541455448,1,-0.613300204,1,0.303441197,1
0.536000788,-5.495440483,1,-4.324973106,1,-6.919947624,1,0.028302001,1,-0.094444983,1,0.033239868,1,0.541644454,1,-0.613689482,1,0.303325653,1
0.53999871,-5.50580883,1,-4.244139194,1,-6.954883575,1,0.024213526,1,-0.092178449,1,0.030470148,1,0.541810215,1,-0.614079475,1,0.303221345,1
0.543998182,-5.505944729,1,-4.301513195,1,-6.94392395,1,0.021897618,1,-0.091293089,1,0.030578453,1,0.541964591,1,-0.61445725,1,0.303117335,1
0.548000276,-5.565035343,1,-4.321864605,1,-6.922512054,1,0.018251035,1,-0.084180333,1,0.029619489,1,0.542103708,1,-0.614825904,1,0.30302757,1
0.551998198,-5.524828911,1,-4.274430275,1,-6.920084,1,0.016221965,1,-0.084214963,1,0.032073658,1,0.542221069,1,-0.615185559,1,0.302944779,1
0.555997968,-5.490031242,1,-4.239501953,1,-6.936318398,1,0.015447265,1,-0.083777785,1,0.026951451,1,0.542336285,1,-0.615530968,1,0.302865028,1
0.559999764,-5.499928474,1,-4.154760361,1,-6.948679447,1,0.015713977,1,-0.082374774,1,0.023746723,1,0.542461157,1,-0.615872562,1,0.302765727,1
0.563997686,-5.480554104,1,-4.116539478,1,-7.004767895,1,0.022985619,1,-0.080258526,1,0.022303576,1,0.542590618,1,-0.61620146,1,0.302670807,1
0.568003595,-5.464615345,1,-4.098373413,1,-6.977874756,1,0.01980144,1,-0.087632835,1,0.017092882,1,0.542746484,1,-0.616529584,1,0.302546382,1
0.57200563,-5.482188225,1,-4.054718494,1,-6.984325409,1,0.025073348,1,-0.080859862,1,0.014633435,1,0.542920649,1,-0.616851926,1,0.302409023,1
0.576003611,-5.500060558,1,-4.048213959,1,-7.01352787,1,0.027649399,1,-0.081075132,1,0.014999347,1,0.543225884,1,-0.61644733,1,0.302125633,1
0.580003321,-5.539328098,1,-4.034514904,1,-7.014000416,1,0.032240734,1,-0.08204826,1,0.007750859,1,0.543465912,1,-0.616650343,1,0.300872743,1
0.584005117,-5.522150993,1,-4.05116415,1,-6.940772533,1,0.038194533,1,-0.080846384,1,-0.00173232,1,0.543714106,1,-0.616937518,1,0.300681353,1
0.588002801,-5.52797699,1,-4.099459171,1,-6.986614704,1,0.042329445,1,-0.077751584,1,-0.002936953,1,0.543995261,1,-0.61720264,1,0.300473511,1
0.592002571,-5.530293465,1,-4.143560886,1,-6.952063084,1,0.041394271,1,-0.075320505,1,-0.007401595,1,0.544299781,1,-0.617463112,1,0.300252557,1
0.596004367,-5.506768227,1,-4.186231136,1,-6.916130066,1,0.044688396,1,-0.077216096,1,-0.009998402,1,0.544604957,1,-0.617708743,1,0.300017774,1
0.600002289,-5.53883028,1,-4.169483662,1,-6.960371494,1,0.052434541,1,-0.071409926,1,-0.013232026,1,0.544942975,1,-0.617937088,1,0.299774319,1
0.604002059,-5.561326027,1,-4.211709023,1,-6.944209099,1,0.047161285,1,-0.072060905,1,-0.015739553,1,0.545290112,1,-0.618157268,1,0.299527705,1
0.608003855,-5.528812408,1,-4.23136282,1,-6.932789326,1,0.054094493,1,-0.072816789,1,-0.017760165,1,0.545648575,1,-0.618371308,1,0.299260259,1
0.612002075,-5.515957355,1,-4.245029926,1,-6.920403481,1,0.049944192,1,-0.072234713,1,-0.021763021,1,0.546004593,1,-0.618569851,1,0.299002886,1
0.616002023,-5.548455238,1,-4.246603489,1,-6.888252258,1,0.050690584,1,-0.069524229,1,-0.022405732,1,0.546358526,1,-0.618767798,1,0.298738837,1
0.620003819,-5.503296852,1,-4.289783001,1,-6.921476364,1,0.049365215,1,-0.066127516,1,-0.022429721,1,0.546707511,1,-0.61895287,1,0.298466384,1
0.624001801,-5.521455288,1,-4.315281391,1,-6.890865803,1,0.047781941,1,-0.066485226,1,-0.023835326,1,0.547055066,1,-0.619140446,1,0.298207521,1
0.628001273,-5.485151291,1,-4.31888628,1,-6.921583176,1,0.046295125,1,-0.066137336,1,-0.020156419,1,0.547394693,1,-0.61932224,1,0.297946125,1
0.632003307,-5.515664101,1,-4.315933704,1,-6.91836834,1,0.043541688,1,-0.065548904,1,-0.020295667,1,0.547718167,1,-0.619502068,1,0.297697306,1
0.636001289,-5.52058506,1,-4.437218666,1,-6.884672165,1,0.037481941,1,-0.065778293,1,-0.0178352,1,0.548024654,1,-0.619678259,1,0.297447205,1
0.640000999,-5.478469849,1,-4.620080948,1,-6.874814034,1,0.030741377,1,-0.061515205,1,-0.014013999,1,0.548297107,1,-0.619857728,1,0.297216892,1
0.644002795,-5.560436726,1,-4.332883835,1,-6.776956081,1,0.023180068,1,-0.061209384,1,-0.009559525,1,0.548524857,1,-0.620038271,1,0.297010064,1
0.648000538,-5.458846092,1,-4.200349808,1,-6.954193115,1,0.023876777,1,-0.055512827,1,-0.007585641,1,0.54872632,1,-0.620221913,1,0.296825528,1
0.652000248,-5.408361912,1,-4.13646841,1,-7.083389282,1,0.025887953,1,-0.056893546,1,-0.007765775,1,0.548923731,1,-0.620385826,1,0.296664536,1
0.656002283,-5.413342476,1,-4.18944788,1,-6.987923622,1,0.020789495,1,-0.059390988,1,-0.001881576,1,0.549123645,1,-0.620571196,1,0.296494037,1
0.660000265,-5.550239086,1,-4.358225346,1,-6.920894623,1,0.020135799,1,-0.061058123,1,-0.00817275,1,0.549318135,1,-0.62077117,1,0.296309829,1
0.664000273,-5.536422729,1,-4.282278061,1,-6.909012794,1,0.022390727,1,-0.056942571,1,-0.004230635,1,0.549512088,1,-0.620956898,1,0.296128929,1
0.668002307,-5.506071091,1,-4.217273712,1,-6.9786973,1,0.016797749,1,-0.059365436,1,-0.005177828,1,0.54969573,1,-0.621146441,1,0.295954943,1
0.672000527,-5.50905323,1,-4.119915009,1,-6.996931076,1,0.018446065,1,-0.058849473,1,-0.003948637,1,0.549871147,1,-0.621335626,1,0.295789599,1
0.676000237,-5.521250248,1,-4.063322544,1,-6.99578619,1,0.020626334,1,-0.054652449,1,-0.006615432,1,0.550046504,1,-0.621522009,1,0.295623779,1
0.680002034,-5.573506832,1,-4.070447445,1,-6.987695217,1,0.026862253,1,-0.059979629,1,-0.008982532,1,0.550250947,1,-0.621696711,1,0.295447111,1
0.683999717,-5.602191448,1,-4.036836147,1,-6.963755131,1,0.031799696,1,-0.054047223,1,-0.013289932,1,0.550483048,1,-0.621872663,1,0.295243919,1
0.688005626,-5.575392723,1,-4.049581051,1,-6.954391479,1,0.033900958,1,-0.060487956,1,-0.018718408,1,0.550732136,1,-0.622036815,1,0.295036256,1
0.692007422,-5.53100872,1,-4.033201218,1,-7.015084267,1,0.043405641,1,-0.057542019,1,-0.0210352,1,0.551021457,1,-0.622191787,1,0.294804454,1
0.696005404,-5.526947498,1,-4.100205898,1,-6.991435528,1,0.047865611,1,-0.06144572,1,-0.025948908,1,0.55134362,1,-0.622353494,1,0.29456085,1
0.700005114,-5.572014332,1,-4.141656876,1,-6.961889744,1,0.049060915,1,-0.06340199,1,-0.025537414,1,0.551693261,1,-0.62251091,1,0.294296205,1
0.70400691,-5.572389603,1,-4.165107727,1,-6.972894192,1,0.052203778,1,-0.059714973,1,-0.028847987,1,0.552053213,1,-0.622656226,1,0.294023275,1
0.708004892,-5.567570686,1,-4.161309242,1,-6.930332184,1,0.05136859,1,-0.057206187,1,-0.023532191,1,0.552419782,1,-0.622808218,1,0.293756008,1
0.712004364,-5.609127522,1,-4.196534634,1,-6.968140602,1,0.057307445,1,-0.060680099,1,-0.028237799,1,0.552793503,1,-0.622942328,1,0.293488771,1
0.71600616,-5.588949203,1,-4.156841755,1,-6.97147274,1,0.050078787,1,-0.056336109,1,-0.028564217,1,0.553157747,1,-0.623091578,1,0.293229878,1
0.720004082,-5.646044731,1,-4.160204887,1,-6.947322845,1,0.053333569,1,-0.056001153,1,-0.024913445,1,0.55352062,1,-0.623232841,1,0.292979419,1
0.724003851,-5.616988182,1,-4.155686855,1,-6.913068295,1,0.056413066,1,-0.059919145,1,-0.028456897,1,0.553892553,1,-0.623362005,1,0.292720318,1
0.728005886,-5.607469082,1,-4.234260559,1,-6.871290207,1,0.056834776,1,-0.054417428,1,-0.028459096,1,0.554267347,1,-0.623496532,1,0.292456239,1
0.732003868,-5.593504906,1,-4.255954266,1,-6.899398327,1,0.054149047,1,-0.054073863,1,-0.028289588,1,0.554642081,1,-0.623622894,1,0.292197406,1
0.736003578,-5.582822323,1,-4.27586174,1,-6.899561405,1,0.054345984,1,-0.050762758,1,-0.0309914,1,0.555020273,1,-0.62374413,1,0.291938543,1
0.740005374,-5.603635788,1,-4.325870514,1,-6.856035233,1,0.051499266,1,-0.0475027,1,-0.028117817,1,0.555380106,1,-0.623853505,1,0.291685879,1
0.744003356,-5.619455814,1,-4.369928837,1,-6.821867943,1,0.049787078,1,-0.050427988,1,-0.02457449,1,0.555723131,1,-0.623964787,1,0.291443616,1
0.748003066,-5.593767166,1,-4.370959282,1,-6.824330807,1,0.048055626,1,-0.045313988,1,-0.023057625,1,0.556039631,1,-0.62406826,1,0.291225314,1
0.7520051,-5.616639614,1,-4.340216637,1,-6.843811035,1,0.043223716,1,-0.042267963,1,-0.017287139,1,0.556337416,1,-0.624173999,1,0.291028321,1
0.756003082,-5.594930172,1,-4.266145706,1,-6.885181427,1,0.039187614,1,-0.035647526,1,-0.018960657,1,0.556604505,1,-0.624265134,1,0.290849388,1
0.76000309,-5.602027893,1,-4.188942432,1,-6.921497822,1,0.042094171,1,-0.036393445,1,-0.018090677,1,0.556879103,1,-0.624345064,1,0.29067415,1
0.764004886,-5.607372284,1,-4.133228302,1,-6.94119978,1,0.042707819,1,-0.037128963,1,-0.01937983,1,0.557152092,1,-0.624433041,1,0.290501952,1
0.768002808,-5.550458908,1,-4.067065716,1,-6.9921875,1,0.054327458,1,-0.03619938,1,-0.019153634,1,0.557455838,1,-0.624523282,1,0.290324956,1
0.772002578,-5.548806667,1,-4.029532433,1,-7.010278702,1,0.061007995,1,-0.03820768,1,-0.020940108,1,0.55779773,1,-0.624609113,1,0.290134043,1
0.776004374,-5.566987991,1,-4.019954205,1,-7.002830505,1,0.070971273,1,-0.039578125,1,-0.02876511,1,0.558184981,1,-0.624689579,1,0.289926648,1
0.780002058,-5.568619251,1,-3.993853807,1,-7.025660992,1,0.076094218,1,-0.041624747,1,-0.033263061,1,0.55861932,1,-0.624768436,1,0.289691865,1
0.784001768,-5.53762722,1,-4.036691189,1,-7.039753914,1,0.084181182,1,-0.048543219,1,-0.038340699,1,0.559096992,1,-0.624843657,1,0.289428174,1
0.788003564,-5.562568665,1,-4.054104328,1,-7.016845703,1,0.091724254,1,-0.05379523,1,-0.048996918,1,0.559635818,1,-0.624915957,1,0.289116561,1
0.792001545,-5.549832344,1,-4.100547791,1,-7.023965836,1,0.094654433,1,-0.051702183,1,-0.050478846,1,0.560198009,1,-0.624990046,1,0.288795531,1
0.796001256,-5.561737537,1,-4.173520088,1,-6.979435921,1,0.107258081,1,-0.054476522,1,-0.0560419,1,0.560818017,1,-0.625063777,1,0.288434029,1
0.800003052,-5.584491253,1,-4.220476151,1,-6.933904171,1,0.106597498,1,-0.0585609,1,-0.055918891,1,0.561451614,1,-0.625135005,1,0.288056672,1
0.804001033,-5.593855381,1,-4.222890377,1,-6.941297531,1,0.107632823,1,-0.055911139,1,-0.056561023,1,0.56210947,1,-0.62520498,1,0.287668049,1
0.808006883,-5.600910664,1,-4.19106102,1,-6.91947937,1,0.113112032,1,-0.053941756,1,-0.062070865,1,0.562779784,1,-0.625259697,1,0.287271887,1
0.812008977,-5.589489937,1,-4.23634243,1,-6.928627014,1,0.113468669,1,-0.051477816,1,-0.06382554,1,0.563454688,1,-0.625310004,1,0.28688091,1
0.816007197,-5.557758331,1,-4.255166054,1,-6.889232635,1,0.112375021,1,-0.056145102,1,-0.064329535,1,0.564151943,1,-0.62535125,1,0.286462724,1
0.820006907,-5.558014393,1,-4.262495041,1,-6.87457943,1,0.109257974,1,-0.058049038,1,-0.065441743,1,0.564841628,1,-0.625398159,1,0.286049783,1
0.824008942,-5.545156002,1,-4.28379631,1,-6.825192928,1,0.118667312,1,-0.055020589,1,-0.070795923,1,0.565545678,1,-0.6254462,1,0.28561759,1
0.828006923,-5.483437538,1,-4.318773746,1,-6.865996361,1,0.115594961,1,-0.056247286,1,-0.062070575,1,0.566033065,1,-0.624861717,1,0.28414917,1
0.832006633,-5.485687256,1,-4.360311985,1,-6.889001369,1,0.114777766,1,-0.061325032,1,-0.063596942,1,0.566744506,1,-0.624925375,1,0.283725858,1
0.83600843,-5.493404865,1,-4.386854649,1,-6.846777439,1,0.107588463,1,-0.052530035,1,-0.060675561,1,0.567424774,1,-0.624982595,1,0.283316314,1
0.840006411,-5.525622845,1,-4.407274723,1,-6.869682789,1,0.112010494,1,-0.057398073,1,-0.060473368,1,0.568112969,1,-0.62503916,1,0.282908261,1
0.844005883,-5.555670261,1,-4.432328701,1,-6.844065666,1,0.104810275,1,-0.059125505,1,-0.056808587,1,0.568770826,1,-0.625108957,1,0.282518268,1
0.848007679,-5.540643215,1,-4.387574673,1,-6.822676182,1,0.101411715,1,-0.057948567,1,-0.049715977,1,0.569401979,1,-0.625184715,1,0.282149374,1
0.852005363,-5.544651985,1,-4.49356842,1,-6.791703224,1,0.097469352,1,-0.055104624,1,-0.048024163,1,0.569996595,1,-0.625272572,1,0.281806618,1
0.856005371,-5.562200069,1,-4.518546581,1,-6.790071011,1,0.09025149,1,-0.053047359,1,-0.041382298,1,0.570562482,1,-0.625360847,1,0.281477034,1
0.860007167,-5.578145981,1,-4.50131321,1,-6.74651432,1,0.087241545,1,-0.048987515,1,-0.042760052,1,0.571098685,1,-0.625448346,1,0.281170011,1
0.864005148,-5.576383591,1,-4.528450489,1,-6.747039795,1,0.077813953,1,-0.047669187,1,-0.035532802,1,0.571594894,1,-0.625524998,1,0.280876935,1
0.868005097,-5.596197605,1,-4.536370754,1,-6.714144707,1,0.070362709,1,-0.039684594,1,-0.035524007,1,0.572054744,1,-0.625602603,1,0.280608654,1
0.872006893,-5.5645051,1,-4.458600998,1,-6.737033367,1,0.066833667,1,-0.04505543,1,-0.034711309,1,0.572478533,1,-0.62567842,1,0.280354023,1
0.876004875,-5.526546478,1,-4.381074429,1,-6.793455124,1,0.066659048,1,-0.040893078,1,-0.032152545,1,0.572888434,1,-0.625753284,1,0.280112505,1
0.880004585,-5.518813133,1,-4.355540752,1,-6.864271641,1,0.067061782,1,-0.039125394,1,-0.028790087,1,0.573290169,1,-0.625815868,1,0.279875696,1
0.884006381,-5.531790257,1,-4.451236725,1,-6.822095871,1,0.057027299,1,-0.037939463,1,-0.027620101,1,0.573670208,1,-0.625891745,1,0.27965343,1
0.888004601,-5.583310604,1,-4.538715839,1,-6.712367058,1,0.054996729,1,-0.037501324,1,-0.029974755,1,0.574037671,1,-0.625965476,1,0.279422045,1
0.892004371,-5.633027077,1,-4.524355412,1,-6.724250793,1,0.048651829,1,-0.040346444,1,-0.022279393,1,0.574365854,1,-0.626035452,1,0.279223561,1
0.896006167,-5.586277485,1,-4.520106316,1,-6.766657829,1,0.048595496,1,-0.034080211,1,-0.021634223,1,0.57466954,1,-0.626107574,1,0.279038429,1
0.900004089,-5.542172432,1,-4.492187023,1,-6.762067795,1,0.044543605,1,-0.032901805,1,-0.020664582,1,0.57495153,1,-0.62617439,1,0.278872252,1
0.904003859,-5.574960232,1,-4.459593296,1,-6.80260849,1,0.044071596,1,-0.032650527,1,-0.015941028,1,0.575216591,1,-0.626234293,1,0.278708339,1
0.908005655,-5.611161232,1,-4.512392521,1,-6.763742924,1,0.037061352,1,-0.030691717,1,-0.014532454,1,0.575469136,1,-0.626303911,1,0.278544039,1
0.912003815,-5.54617691,1,-4.500928879,1,-6.728951454,1,0.031021392,1,-0.031057805,1,-0.015267083,1,0.575684428,1,-0.626375198,1,0.278401673,1
0.916003585,-5.546951294,1,-4.525209904,1,-6.725675106,1,0.030736661,1,-0.023384331,1,-0.01647534,1,0.575890243,1,-0.626436651,1,0.278267801,1
0.92000562,-5.52221489,1,-4.588202953,1,-6.716010571,1,0.024935223,1,-0.025283877,1,-0.008904105,1,0.576068044,1,-0.626498103,1,0.278143078,1
0.924003839,-5.518393517,1,-4.57290554,1,-6.76076746,1,0.01709025,1,-0.02299845,1,-0.00543414,1,0.576208472,1,-0.626558721,1,0.2780523,1
0.928009987,-5.516919613,1,-4.553420067,1,-6.760642529,1,0.010889539,1,-0.026323643,1,0.001171871,1,0.576328218,1,-0.626641095,1,0.277960956,1
0.93201226,-5.528218746,1,-4.541153431,1,-6.761133671,1,0.006784812,1,-0.023963042,1,0.001240881,1,0.576400876,1,-0.626722753,1,0.277905583,1
0.93601048,-5.476976871,1,-4.591566086,1,-6.72365284,1,-0.000830113,1,-0.018602036,1,0.004335613,1,0.576436877,1,-0.626806498,1,0.277868688,1
0.94001025,-5.5102458,1,-4.575016022,1,-6.764691353,1,-0.005543343,1,-0.021489374,1,0.013633421,1,0.576432288,1,-0.62689662,1,0.277853608,1
0.944012046,-5.510889053,1,-4.622897148,1,-6.781467915,1,-0.011476098,1,-0.017491605,1,0.020050939,1,0.576389253,1,-0.626998186,1,0.277868897,1
0.948009968,-5.515155315,1,-4.562571526,1,-6.766705036,1,-0.01504296,1,-0.015158754,1,0.022937963,1,0.576313376,1,-0.627097309,1,0.277906209,1
0.952009737,-5.527022362,1,-4.524810314,1,-6.783575535,1,-0.024609266,1,-0.013241895,1,0.030102044,1,0.576193988,1,-0.627203107,1,0.277975529,1
0.956011534,-5.537371635,1,-4.455154419,1,-6.797836304,1,-0.025843598,1,-0.010359601,1,0.034753788,1,0.57604152,1,-0.627323389,1,0.278066039,1
0.960009456,-5.611274242,1,-4.395356178,1,-6.784647465,1,-0.029289333,1,-0.013368671,1,0.031237599,1,0.57586503,1,-0.627437294,1,0.278177857,1
0.964009225,-5.555739403,1,-4.341016293,1,-6.798478603,1,-0.033493157,1,-0.01039109,1,0.035790391,1,0.575680792,1,-0.627559841,1,0.278291345,1
0.968011022,-5.545073509,1,-4.302454472,1,-6.839185715,1,-0.029419459,1,-0.011749103,1,0.035218209,1,0.575482368,1,-0.627676249,1,0.278416753,1
0.972008944,-5.54905653,1,-4.313474655,1,-6.848965168,1,-0.029851584,1,-0.014539517,1,0.039321259,1,0.575294495,1,-0.627804101,1,0.278529644,1
0.976008952,-5.598872662,1,-4.281476498,1,-6.832373142,1,-0.029343601,1,-0.01412439,1,0.038683161,1,0.57511121,1,-0.627928436,1,0.278654993,1
0.980010748,-5.563298225,1,-4.314304352,1,-6.825207233,1,-0.025557498,1,-0.016951079,1,0.037234198,1,0.574933589,1,-0.628047585,1,0.278775185,1
0.984008729,-5.580819607,1,-4.37639904,1,-6.814518452,1,-0.025020072,1,-0.013873016,1,0.037613768,1,0.574764788,1,-0.628178954,1,0.278887331,1
0.98800844,-5.596165657,1,-4.38089323,1,-6.822811127,1,-0.023217672,1,-0.014029029,1,0.036466233,1,0.574608922,1,-0.628310561,1,0.278998286,1
0.992010236,-5.539120674,1,-4.425727367,1,-6.797297478,1,-0.026021803,1,-0.016868686,1,0.032909419,1,0.574443996,1,-0.628448606,1,0.279115558,1
0.996008217,-5.565567017,1,-4.438414574,1,-6.842828274,1,-0.025333278,1,-0.017485162,1,0.041999184,1,0.574282706,1,-0.628586709,1,0.279226184,1
1.000007987,-5.559030533,1,-4.430246353,1,-6.796993732,1,-0.025609409,1,-0.018425208,1,0.041947093,1,0.574110687,1,-0.628738999,1,0.279352665,1
1.004009724,-5.568847656,1,-4.434272766,1,-6.78708601,1,-0.027807131,1,-0.016922312,1,0.043391582,1,0.573927581,1,-0.628883421,1,0.27948606,1
1.008007646,-5.574155331,1,-4.400219917,1,-6.832472801,1,-0.030026006,1,-0.020956062,1,0.040736716,1,0.573737323,1,-0.62903434,1,0.279616684,1
1.012007475,-5.556726933,1,-4.431909084,1,-6.810460091,1,-0.033799257,1,-0.016768156,1,0.048959348,1,0.573531866,1,-0.629195213,1,0.279760301,1
1.01600945,-5.542579174,1,-4.444646835,1,-6.793423176,1,-0.033167329,1,-0.014558672,1,0.046050888,1,0.573318005,1,-0.629350543,1,0.279916614,1
1.020007372,-5.576475143,1,-4.456212997,1,-6.789525509,1,-0.035655119,1,-0.020179208,1,0.051455878,1,0.573072731,1,-0.629513741,1,0.28007865,1
1.024007201,-5.547222137,1,-4.453535557,1,-6.810042381,1,-0.039177306,1,-0.018520664,1,0.055712957,1,0.572826505,1,-0.629692972,1,0.280242026,1
1.028009176,-5.575522423,1,-4.438546658,1,-6.767474174,1,-0.040470872,1,-0.016979512,1,0.049998187,1,0.572565615,1,-0.629857421,1,0.280420959,1
1.032007456,-5.525693893,1,-4.425858498,1,-6.738124371,1,-0.046020482,1,-0.016952507,1,0.059890829,1,0.572275043,1,-0.630033076,1,0.280609727,1
1.036007166,-5.568397045,1,-4.435842991,1,-6.738170624,1,-0.046648558,1,-0.016071722,1,0.055371214,1,0.571974814,1,-0.630212426,1,0.280802429,1
1.040008903,-5.595528603,1,-4.428293228,1,-6.739916801,1,-0.049953185,1,-0.014479361,1,0.056479674,1,0.571667492,1,-0.630387783,1,0.280997425,1
1.044006705,-5.568696976,1,-4.387444973,1,-6.74958849,1,-0.051980577,1,-0.01237383,1,0.06198727,1,0.571339548,1,-0.630564988,1,0.28120482,1
1.048012495,-5.567538738,1,-4.378294468,1,-6.745696068,1,-0.051317874,1,-0.013848064,1,0.061601985,1,0.571008086,1,-0.630742073,1,0.281413853,1
1.052014589,-5.544276237,1,-4.381645679,1,-6.781627178,1,-0.051361401,1,-0.010380272,1,0.057902429,1,0.570670307,1,-0.630914748,1,0.281632811,1
1.056012511,-5.574500084,1,-4.353935719,1,-6.801223278,1,-0.052818052,1,-0.016888022,1,0.058957543,1,0.570340693,1,-0.631098211,1,0.281837612,1
1.060012579,-5.56951189,1,-4.319831371,1,-6.784057617,1,-0.052388579,1,-0.009599277,1,0.057615452,1,0.569996953,1,-0.631271005,1,0.282051921,1
1.064014316,-5.608235836,1,-4.25656414,1,-6.760097027,1,-0.053004529,1,-0.012535221,1,0.059299178,1,0.56966871,1,-0.631441534,1,0.282261759,1
1.068012238,-5.60447979,1,-4.207607269,1,-6.812119007,1,-0.045955561,1,-0.014835581,1,0.055560581,1,0.569355071,1,-0.631610751,1,0.28245753,1
1.072012067,-5.636699677,1,-4.157731533,1,-6.830615997,1,-0.042999517,1,-0.010259256,1,0.047931653,1,0.569067895,1,-0.631763756,1,0.282640249,1
1.076014042,-5.627765179,1,-4.168801785,1,-6.839610577,1,-0.03796684,1,-0.011508934,1,0.047168568,1,0.568955541,1,-0.631244183,1,0.282824934,1
1.080012083,-5.628930569,1,-4.256195545,1,-6.823996067,1,-0.03570288,1,-0.015730262,1,0.043192934,1,0.568721592,1,-0.631296635,1,0.281918287,1
1.084011793,-5.636538982,1,-4.245643616,1,-6.78660059,1,-0.034332465,1,-0.015995992,1,0.040290277,1,0.568506062,1,-0.631435812,1,0.282049179,1
1.08801353,-5.591472149,1,-4.257836342,1,-6.786040306,1,-0.032102872,1,-0.013435161,1,0.03628144,1,0.568311989,1,-0.631574869,1,0.282176316,1
1.092011571,-5.60625124,1,-4.278164864,1,-6.800648212,1,-0.028965402,1,-0.014210705,1,0.035555243,1,0.568117023,1,-0.631699562,1,0.282296449,1
1.096011281,-5.629498482,1,-4.260510921,1,-6.840134621,1,-0.031665456,1,-0.013343507,1,0.041051809,1,0.567926347,1,-0.631830454,1,0.282413363,1
1.100013018,-5.598074436,1,-4.296471596,1,-6.773257256,1,-0.024320625,1,-0.011600464,1,0.035325095,1,0.567753673,1,-0.631949544,1,0.282523274,1
1.104011297,-5.607929707,1,-4.307313919,1,-6.817540646,1,-0.023472307,1,-0.010765439,1,0.036287621,1,0.567579687,1,-0.632064402,1,0.282648981,1
1.108011007,-5.616798878,1,-4.272387981,1,-6.7619133,1,-0.029445833,1,-0.008653715,1,0.034219451,1,0.567402661,1,-0.632186294,1,0.282767296,1
1.112013102,-5.662758827,1,-4.332057953,1,-6.799115658,1,-0.02680075,1,-0.006136404,1,0.035200834,1,0.567224145,1,-0.632300556,1,0.282888561,1
1.116011024,-5.653496742,1,-4.311619759,1,-6.803905964,1,-0.030713024,1,-0.008304801,1,0.042245198,1,0.567021608,1,-0.632409334,1,0.283028483,1
1.120010734,-5.641103268,1,-4.332175732,1,-6.748684883,1,-0.029777039,1,-0.005982923,1,0.04027015,1,0.566814959,1,-0.632512867,1,0.283189178,1
1.124012828,-5.627014637,1,-4.37366581,1,-6.753548622,1,-0.033158612,1,-0.00195073,1,0.046074942,1,0.566585481,1,-0.632618606,1,0.283357173,1
1.12801075,-5.601097107,1,-4.451527596,1,-6.752199173,1,-0.038094401,1,-0.001192884,1,0.043534864,1,0.566339493,1,-0.632717073,1,0.283537358,1
1.132010698,-5.627233505,1,-4.469967365,1,-6.754273891,1,-0.043913506,1,-0.003131591,1,0.046293467,1,0.566059947,1,-0.632811844,1,0.283733249,1
1.136012554,-5.652408123,1,-4.457643509,1,-6.715502739,1,-0.050903093,1,0.006568402,1,0.051240586,1,0.565743864,1,-0.632902145,1,0.283940464,1
1.140010476,-5.66296196,1,-4.478503704,1,-6.742136002,1,-0.056082614,1,0.007813486,1,0.055777125,1,0.565381825,1,-0.6329965,1,0.284188002,1
1.144010186,-5.662927151,1,-4.393828869,1,-6.747513771,1,-0.06121777,1,0.011627379,1,0.054588929,1,0.564993799,1,-0.633082867,1,0.284447849,1
1.148012042,-5.700294971,1,-4.363302708,1,-6.752092838,1,-0.062971011,1,0.016606841,1,0.056304365,1,0.5645836,1,-0.633152008,1,0.284726143,1
1.152009726,-5.692202091,1,-4.276510715,1,-6.766608715,1,-0.066638768,1,0.017102737,1,0.053500794,1,0.564166248,1,-0.633214831,1,0.28500405,1
1.156009436,-5.680987358,1,-4.253660679,1,-6.758072376,1,-0.06516476,1,0.019508973,1,0.054166809,1,0.56373024,1,-0.633265197,1,0.285287529,1
1.160011292,-5.665919781,1,-4.24454689,1,-6.795862675,1,-0.068621174,1,0.022160245,1,0.056391217,1,0.563300788,1,-0.633308053,1,0.285564959,1
1.164009213,-5.611135483,1,-4.221660614,1,-6.784709454,1,-0.068039075,1,0.020604722,1,0.05063865,1,0.562866807,1,-0.633348465,1,0.285842717,1
1.168015122,-5.646326065,1,-4.224747181,1,-6.834939957,1,-0.066502482,1,0.025213145,1,0.051365241,1,0.562438726,1,-0.633375525,1,0.286120594,1
1.172017097,-5.668374062,1,-4.235118866,1,-6.808729649,1,-0.066048428,1,0.026023466,1,0.047492024,1,0.562010288,1,-0.633399427,1,0.286397189,1
1.176015139,-5.633115292,1,-4.234930992,1,-6.791731358,1,-0.066285558,1,0.026361968,1,0.049644575,1,0.561576724,1,-0.633415282,1,0.28666693,1
1.180014849,-5.646858215,1,-4.286319733,1,-6.784551144,1,-0.069142908,1,0.030670308,1,0.048113775,1,0.561138928,1,-0.633424044,1,0.286952317,1
1.184016585,-5.635726452,1,-4.293559551,1,-6.79711771,1,-0.069750659,1,0.030872725,1,0.049399558,1,0.560690761,1,-0.633421004,1,0.287241697,1
1.188014627,-5.641490459,1,-4.319529057,1,-6.796737194,1,-0.06899634,1,0.032599818,1,0.049547527,1,0.560243905,1,-0.633423388,1,0.287528843,1
1.192014337,-5.642849922,1,-4.268553257,1,-6.827479362,1,-0.070917696,1,0.037360013,1,0.050107792,1,0.559782386,1,-0.633410633,1,0.287825137,1
1.196016073,-5.670054436,1,-4.229688644,1,-6.823822975,1,-0.073995881,1,0.03925465,1,0.049800787,1,0.559315562,1,-0.633390903,1,0.288136929,1
1.200014114,-5.643996239,1,-4.218840122,1,-6.833265305,1,-0.072982475,1,0.036705717,1,0.048233092,1,0.558837056,1,-0.63336885,1,0.28844589,1
1.204013824,-5.616933823,1,-4.195204735,1,-6.839805126,1,-0.069718204,1,0.041125473,1,0.049386125,1,0.558368266,1,-0.633337557,1,0.288756132,1
1.208015561,-5.540136814,1,-4.180586338,1,-6.83342123,1,-0.068867452,1,0.040612377,1,0.048875492,1,0.55791235,1,-0.633310318,1,0.289059222,1
1.212013602,-5.56662941,1,-4.171363354,1,-6.865949154,1,-0.069235064,1,0.037688129,1,0.045614891,1,0.557452202,1,-0.633273363,1,0.2893655,1
1.216013074,-5.576087475,1,-4.260509491,1,-6.878242016,1,-0.064906992,1,0.038550619,1,0.050404474,1,0.557012081,1,-0.633244812,1,0.289659083,1
1.220014811,-5.563632488,1,-4.293311596,1,-6.859528542,1,-0.070102766,1,0.036156569,1,0.049591988,1,0.556565702,1,-0.633229554,1,0.289957166,1
1.224012494,-5.586070538,1,-4.24958849,1,-6.8364501,1,-0.071179502,1,0.032654826,1,0.047544554,1,0.556117356,1,-0.633206606,1,0.290258408,1
1.228012323,-5.592178822,1,-4.188148499,1,-6.854118824,1,-0.063120119,1,0.03815262,1,0.052603643,1,0.555670023,1,-0.633191526,1,0.290559232,1
1.232014298,-5.597078323,1,-4.198139191,1,-6.880208969,1,-0.065229721,1,0.030518387,1,0.05001162,1,0.555225968,1,-0.633185446,1,0.290859669,1
1.23601234,-5.592867374,1,-4.15652895,1,-6.872879982,1,-0.0671589,1,0.031692136,1,0.047729261,1,0.554789901,1,-0.633180678,1,0.291146487,1
1.240012288,-5.575556278,1,-4.143258095,1,-6.944231987,1,-0.061285593,1,0.031863235,1,0.04699808,1,0.554371834,1,-0.633176446,1,0.291417599,1
1.244014025,-5.625693798,1,-4.101959705,1,-6.914308548,1,-0.060723189,1,0.026301999,1,0.045428451,1,0.553965986,1,-0.633176029,1,0.29169035,1
1.248011827,-5.589308262,1,-4.150283337,1,-6.903193951,1,-0.059950065,1,0.022804298,1,0.045428436,1,0.553578138,1,-0.633179724,1,0.291943192,1
1.252011538,-5.588745117,1,-4.169104099,1,-6.924023151,1,-0.05558994,1,0.025164682,1,0.045195445,1,0.553199768,1,-0.633186579,1,0.292199343,1
1.256013274,-5.551794052,1,-4.212610722,1,-6.922940254,1,-0.048427727,1,0.020302765,1,0.042590804,1,0.552840054,1,-0.633206904,1,0.292439699,1
1.260010958,-5.528134346,1,-4.238578796,1,-6.943082809,1,-0.049385551,1,0.016584355,1,0.047616109,1,0.552493632,1,-0.633240819,1,0.292680025,1
1.264010787,-5.544761181,1,-4.247495651,1,-6.944573879,1,-0.050086781,1,0.017186606,1,0.044823553,1,0.552157521,1,-0.63328439,1,0.292914689,1
1.268012524,-5.550050259,1,-4.251761436,1,-6.927557945,1,-0.053615864,1,0.009699865,1,0.046197176,1,0.551815212,1,-0.633335471,1,0.293147445,1
1.272010446,-5.560670853,1,-4.245119572,1,-6.951022148,1,-0.054028373,1,0.011364123,1,0.049113058,1,0.551463962,1,-0.633396804,1,0.293380797,1
1.276010275,-5.573701382,1,-4.199158192,1,-6.923173904,1,-0.053220749,1,0.01019673,1,0.053897332,1,0.551107049,1,-0.633471966,1,0.293621212,1
1.280012012,-5.610521793,1,-4.153896332,1,-6.892034054,1,-0.051184893,1,0.007761787,1,0.051625185,1,0.550749838,1,-0.633549273,1,0.293862641,1
1.284009933,-5.608633518,1,-4.153408051,1,-6.915960789,1,-0.051437832,1,0.005429085,1,0.050298803,1,0.550403535,1,-0.633634031,1,0.294097573,1
1.288015842,-5.625835419,1,-4.151456356,1,-6.912968159,1,-0.049912751,1,0.006155116,1,0.049400527,1,0.550061464,1,-0.633718729,1,0.29432565,1
1.292017937,-5.609566212,1,-4.1515522,1,-6.903883934,1,-0.046199925,1,0.006628933,1,0.050016265,1,0.549736798,1,-0.633799314,1,0.294543654,1
1.296016097,-5.62752533,1,-4.142093658,1,-6.911934853,1,-0.044636298,1,0.007171563,1,0.046477772,1,0.549418092,1,-0.633884072,1,0.294766515,1
1.300015926,-5.634568691,1,-4.128560543,1,-6.858811378,1,-0.041240998,1,0.003150177,1,0.05031899,1,0.549111366,1,-0.633963764,1,0.294983834,1
1.304017425,-5.648350239,1,-4.128162384,1,-6.893226624,1,-0.039356012,1,0.007424218,1,0.048672028,1,0.548812985,1,-0.634052098,1,0.295210004,1
1.308015347,-5.635138035,1,-4.134720325,1,-6.889251232,1,-0.037150178,1,0.004645378,1,0.052495725,1,0.548517227,1,-0.634138703,1,0.295441568,1
1.312015057,-5.63070631,1,-4.123295784,1,-6.883694649,1,-0.035656106,1,0.006397817,1,0.050939538,1,0.548237443,1,-0.634226322,1,0.295668691,1
1.316016912,-5.622075558,1,-4.06690073,1,-6.895347118,1,-0.030528346,1,0.008766912,1,0.048026178,1,0.547975719,1,-0.634305954,1,0.295893013,1
1.320014834,-5.678428173,1,-4.114704609,1,-6.888942242,1,-0.032951061,1,0.004950067,1,0.045705378,1,0.547719836,1,-0.634383678,1,0.296111822,1
1.324014544,-5.626366615,1,-4.164020538,1,-6.881637096,1,-0.032154173,1,0.007486557,1,0.048343576,1,0.547455072,1,-0.634453118,1,0.296330214,1
1.3280164,-5.634554386,1,-4.205594063,1,-6.853393078,1,-0.031829938,1,0.007037411,1,0.04260264,1,0.547118485,1,-0.6338498,1,0.295580685,1
1.332014084,-5.635656834,1,-4.224571228,1,-6.83881712,1,-0.038023096,1,0.01004352,1,0.050275546,1,0.546852767,1,-0.633917034,1,0.295796096,1
1.336013556,-5.65644598,1,-4.24177599,1,-6.823092461,1,-0.037520625,1,0.007865013,1,0.048176467,1,0.546564758,1,-0.633981705,1,0.296026707,1
1.340015411,-5.642495632,1,-4.225025177,1,-6.859852314,1,-0.04384442,1,0.012516873,1,0.047788512,1,0.546266198,1,-0.634050965,1,0.296260715,1
1.344013095,-5.632277012,1,-4.211775303,1,-6.840108871,1,-0.044165988,1,0.011936191,1,0.047095403,1,0.545954347,1,-0.634106934,1,0.296493977,1
1.348012805,-5.648859501,1,-4.148600101,1,-6.853483677,1,-0.040200826,1,0.012625597,1,0.049798034,1,0.545646191,1,-0.634157181,1,0.296732426,1
1.352014542,-5.646623135,1,-4.125372887,1,-6.877887249,1,-0.044750243,1,0.014977723,1,0.0420819,1,0.545340478,1,-0.634209037,1,0.296963781,1
1.356012344,-5.64077282,1,-4.129564762,1,-6.843606472,1,-0.042081412,1,0.013512101,1,0.047425367,1,0.545036077,1,-0.634253085,1,0.297195017,1
1.360012054,-5.607449532,1,-4.090223312,1,-6.862855434,1,-0.043048922,1,0.012489066,1,0.040229183,1,0.544730961,1,-0.634287,1,0.297412515,1
1.364013791,-5.639502048,1,-4.096164227,1,-6.877226353,1,-0.043616567,1,0.016536392,1,0.041986745,1,0.544427991,1,-0.63432157,1,0.297626972,1
1.368011475,-5.608788967,1,-4.100450993,1,-6.881451607,1,-0.043220606,1,0.015598719,1,0.036437124,1,0.544131935,1,-0.634347916,1,0.297835678,1
1.372011304,-5.648539543,1,-4.096693993,1,-6.920035362,1,-0.041330993,1,0.019132566,1,0.039618865,1,0.543853164,1,-0.63436985,1,0.298032463,1
1.376013041,-5.631915569,1,-4.093815804,1,-6.89401865,1,-0.03914668,1,0.0176617,1,0.036577746,1,0.543573797,1,-0.634389818,1,0.298225939,1
1.380010962,-5.660982132,1,-4.131454468,1,-6.874899387,1,-0.041407403,1,0.014012889,1,0.032573048,1,0.543308616,1,-0.634416044,1,0.298410594,1
1.384010792,-5.636173725,1,-4.115608215,1,-6.889362335,1,-0.041008838,1,0.013931761,1,0.032706983,1,0.543045998,1,-0.634426117,1,0.298595577,1
1.388012528,-5.617057323,1,-4.141726017,1,-6.874747276,1,-0.04005073,1,0.019675223,1,0.031333596,1,0.54278785,1,-0.634436846,1,0.298779488,1
1.39201045,-5.662042618,1,-4.124106884,1,-6.891985893,1,-0.037500896,1,0.015115537,1,0.032861963,1,0.542532206,1,-0.634441614,1,0.298956752,1
1.39601028,-5.670851707,1,-4.106831074,1,-6.902483463,1,-0.036419641,1,0.017972304,1,0.027386883,1,0.542280495,1,-0.634442091,1,0.299129605,1
1.400012016,-5.618543148,1,-4.077569962,1,-6.9044137,1,-0.03674335,1,0.018288659,1,0.029183941,1,0.542035878,1,-0.634435594,1,0.299298167,1
1.404009938,-5.664076805,1,-4.085175514,1,-6.880731106,1,-0.034777507,1,0.021317486,1,0.027728239,1,0.541791201,1,-0.634432018,1,0.299469292,1
1.408015609,-5.647713184,1,-4.080536842,1,-6.903224945,1,-0.031211408,1,0.022495378,1,0.025354067,1,0.541555166,1,-0.634410858,1,0.299635857,1
1.412017465,-5.633416176,1,-4.068692684,1,-6.872360706,1,-0.03112107,1,0.022790644,1,0.028394785,1,0.541318059,1,-0.634389579,1,0.299810767,1
1.416015387,-5.638160229,1,-4.073478699,1,-6.866417885,1,-0.032463606,1,0.02486602,1,0.02625425,1,0.541093409,1,-0.634364426,1,0.299988508,1
1.420014858,-5.625123024,1,-4.109528065,1,-6.849719524,1,-0.02892537,1,0.025025798,1,0.019083072,1,0.540872455,1,-0.634326518,1,0.30016318,1
1.424016595,-5.635112286,1,-4.086853027,1,-6.8696661,1,-0.024031695,1,0.026544042,1,0.020265376,1,0.540662825,1,-0.634281814,1,0.300328195,1
1.428014278,-5.644308567,1,-4.101674557,1,-6.84028101,1,-0.026677703,1,0.030417429,1,0.021570234,1,0.540457547,1,-0.6342296,1,0.300496191,1
1.432013869,-5.647058487,1,-4.105682373,1,-6.879196167,1,-0.028395686,1,0.031201435,1,0.022146231,1,0.540246487,1,-0.634170115,1,0.300664961,1
1.436015606,-5.671159267,1,-4.115067959,1,-6.857639313,1,-0.028764956,1,0.034938522,1,0.020619711,1,0.540030897,1,-0.634099782,1,0.300837934,1
1.440013528,-5.65645504,1,-4.116504192,1,-6.888041973,1,-0.026712319,1,0.034232371,1,0.015588239,1,0.539822102,1,-0.634019136,1,0.3010104,1
1.444013357,-5.625804901,1,-4.113120556,1,-6.898062706,1,-0.028745843,1,0.036129232,1,0.01861066,1,0.539596081,1,-0.633936584,1,0.301186174,1
1.448015094,-5.589831829,1,-4.127254486,1,-6.883346558,1,-0.029647531,1,0.033797383,1,0.022493454,1,0.539379418,1,-0.633855164,1,0.30136323,1
1.452012777,-5.61750555,1,-4.176484585,1,-6.9126091,1,-0.030879308,1,0.035397932,1,0.021642569,1,0.539153099,1,-0.633777797,1,0.301538229,1
1.456012487,-5.54689312,1,-4.180156231,1,-6.913658142,1,-0.031781379,1,0.038401447,1,0.021994034,1,0.538915277,1,-0.633700252,1,0.301720381,1
1.460014343,-5.567543983,1,-4.174938679,1,-6.951562881,1,-0.037718538,1,0.038389709,1,0.021905912,1,0.53866756,1,-0.633608758,1,0.301903009,1
1.464012027,-5.599440098,1,-4.131059647,1,-6.954790115,1,-0.038822599,1,0.034071606,1,0.022535024,1,0.538410008,1,-0.633529007,1,0.302099735,1
1.468011737,-5.642957687,1,-4.052329063,1,-6.966441154,1,-0.034108344,1,0.035246488,1,0.020831337,1,0.538156748,1,-0.63345474,1,0.302280962,1
1.472013593,-5.615512848,1,-4.056342602,1,-6.985005379,1,-0.033280116,1,0.03484511,1,0.02021024,1,0.537908554,1,-0.633379161,1,0.302467674,1
1.476011753,-5.610463142,1,-4.007406712,1,-6.992720604,1,-0.029656427,1,0.029712738,1,0.017058555,1,0.537682593,1,-0.633305192,1,0.302637517,1
1.480011463,-5.608708382,1,-3.977979898,1,-7.034812927,1,-0.024074512,1,0.0306166,1,0.015400212,1,0.537489355,1,-0.633240223,1,0.302781343,1
1.484013319,-5.603714466,1,-3.926008701,1,-6.996812344,1,-0.015214902,1,0.02683891,1,0.016047549,1,0.537323654,1,-0.633175135,1,0.302926064,1
1.488011241,-5.601805687,1,-3.936126709,1,-7.040326118,1,-0.004896724,1,0.021240411,1,0.021255294,1,0.537204564,1,-0.633125424,1,0.303061008,1
1.492010951,-5.612304688,1,-3.924806356,1,-7.043228149,1,-0.000380653,1,0.024033569,1,0.015947595,1,0.537105858,1,-0.633082688,1,0.303192556,1
1.496013045,-5.643213749,1,-3.964438915,1,-7.004018307,1,0.00536772,1,0.02292823,1,0.012433998,1,0.537057102,1,-0.63303411,1,0.303306133,1
1.500010967,-5.664804935,1,-3.943324327,1,-6.96897316,1,0.005646152,1,0.021078777,1,0.010315187,1,0.537023187,1,-0.632986069,1,0.30339843,1
1.504010797,-5.646914959,1,-3.973023415,1,-7.005322456,1,0.013602324,1,0.01866119,1,0.006932479,1,0.537002742,1,-0.63294059,1,0.30348444,1
1.50801301,-5.63259697,1,-3.994285822,1,-6.963766098,1,0.011437709,1,0.015967591,1,0.003578652,1,0.537004232,1,-0.632891774,1,0.303552151,1
1.512011528,-5.606413841,1,-4.034940243,1,-6.950740814,1,0.010421803,1,0.017862543,1,0.002967741,1,0.537013412,1,-0.632839918,1,0.303613365,1
1.516011,-5.672045708,1,-4.065752506,1,-6.935314178,1,0.010521087,1,0.0140732,1,-0.002758818,1,0.537035346,1,-0.632789135,1,0.303648978,1
1.520012856,-5.667085171,1,-4.04391861,1,-6.86788702,1,0.007186246,1,0.019100411,1,0.000414463,1,0.537054181,1,-0.632726133,1,0.303683341,1
1.524010539,-5.629061222,1,-4.09095192,1,-6.889357567,1,0.009091573,1,0.019637609,1,-0.004808019,1,0.537074983,1,-0.632660031,1,0.303714871,1
1.528010488,-5.630804539,1,-4.049884319,1,-6.884526253,1,0.007982437,1,0.021728573,1,-0.005040464,1,0.537097096,1,-0.632566273,1,0.303740084,1
1.532018423,-5.607869148,1,-4.089444637,1,-6.900123119,1,0.00850178,1,0.018756544,1,-0.008386616,1,0.53711617,1,-0.632481933,1,0.303759396,1
1.536022305,-5.557103157,1,-4.107657433,1,-6.963535309,1,0.009423915,1,0.026760191,1,-0.012294689,1,0.537140012,1,-0.632383108,1,0.303777844,1
1.540022254,-5.596991539,1,-4.146406174,1,-6.943967342,1,0.005711821,1,0.024506541,1,-0.005206053,1,0.537153184,1,-0.632279813,1,0.303808451,1
1.54402411,-5.620554924,1,-4.190701008,1,-6.935074806,1,0.015476328,1,0.025087884,1,-0.005232424,1,0.537185192,1,-0.632183671,1,0.303833306,1
1.548021793,-5.611177921,1,-4.175125122,1,-6.922777176,1,0.022966821,1,0.021372758,1,0.002484855,1,0.537217975,1,-0.632097483,1,0.303894877,1
1.552021503,-5.5673666,1,-4.166556358,1,-6.946683407,1,0.029748049,1,0.02621899,1,0.011726243,1,0.53726548,1,-0.632028282,1,0.303982317,1
1.55602324,-5.609302998,1,-4.115462303,1,-6.97356081,1,0.044641923,1,0.023743551,1,0.020122442,1,0.537330687,1,-0.631967485,1,0.30411765,1
1.560021043,-5.594164848,1,-4.074233055,1,-6.974738121,1,0.051704541,1,0.029129302,1,0.025466161,1,0.537426591,1,-0.631916225,1,0.304283023,1
1.564020753,-5.641788006,1,-4.002813816,1,-6.931931019,1,0.063737758,1,0.028778644,1,0.021648185,1,0.537550747,1,-0.631868899,1,0.304458499,1
1.56802249,-5.622632504,1,-3.981313944,1,-6.925913811,1,0.061576176,1,0.031983484,1,0.024990123,1,0.537687421,1,-0.631819427,1,0.304639399,1
1.572020531,-5.627349854,1,-4.004903793,1,-6.94422245,1,0.06611608,1,0.0278467,1,0.01832323,1,0.537851334,1,-0.631750464,1,0.304808915,1
1.576020241,-5.660253048,1,-4.033176899,1,-6.922491074,1,0.067408152,1,0.03218304,1,0.011342414,1,0.537899792,1,-0.631120265,1,0.304985046,1
1.580021739,-5.653181076,1,-4.048923969,1,-6.95167017,1,0.063231222,1,0.031614356,1,0.006459857,1,0.53809768,1,-0.630943835,1,0.304046422,1
1.584019661,-5.562361717,1,-4.08941555,1,-6.938545227,1,0.059267923,1,0.028948998,1,-0.004351866,1,0.538289726,1,-0.630838633,1,0.304139435,1
1.58801949,-5.630145073,1,-4.120543957,1,-6.934826374,1,0.052974872,1,0.027575448,1,0.002800426,1,0.538466156,1,-0.630739868,1,0.304217637,1
1.592020988,-5.603835106,1,-4.093910694,1,-6.927873611,1,0.052304555,1,0.027692607,1,-0.004452848,1,0.53864342,1,-0.630639553,1,0.304272801,1
1.59601891,-5.548197746,1,-4.092868328,1,-6.904950142,1,0.047728047,1,0.03057944,1,-0.008506273,1,0.538823843,1,-0.630533278,1,0.304315746,1
1.60001874,-5.572975159,1,-4.120712757,1,-6.938864231,1,0.048114587,1,0.024857929,1,-0.00994414,1,0.538999557,1,-0.630416453,1,0.304342568,1
1.604020476,-5.580484867,1,-4.12735796,1,-6.94302845,1,0.039401136,1,0.021269402,1,-0.009026423,1,0.539152384,1,-0.630313754,1,0.304357111,1
1.608018398,-5.563012123,1,-4.161256313,1,-6.938542366,1,0.034437768,1,0.025913781,1,-0.010873226,1,0.539294839,1,-0.630211115,1,0.304371238,1
1.61201787,-5.576991081,1,-4.216854095,1,-6.970845222,1,0.031614691,1,0.023234986,1,-0.011435422,1,0.53941071,1,-0.630100787,1,0.304393351,1
1.616019964,-5.581218719,1,-4.233867168,1,-6.925501347,1,0.022621144,1,0.024126245,1,-0.009576648,1,0.539505005,1,-0.629999638,1,0.304406226,1
1.620017886,-5.607192039,1,-4.201532841,1,-6.916426182,1,0.02196615,1,0.022006802,1,-0.006821996,1,0.539578259,1,-0.629905343,1,0.304421246,1
1.624017358,-5.601270199,1,-4.14677906,1,-6.941816807,1,0.013838345,1,0.023595728,1,-0.010831805,1,0.539650738,1,-0.629803061,1,0.304432631,1
1.628019214,-5.599252224,1,-4.097882748,1,-6.939908981,1,0.015246457,1,0.020801958,1,-0.011024497,1,0.539706171,1,-0.62970072,1,0.304448634,1
1.632016897,-5.541395187,1,-4.051940441,1,-6.957778931,1,0.015536285,1,0.025109643,1,-0.012676977,1,0.539769888,1,-0.629599512,1,0.304448605,1
1.636016607,-5.601399422,1,-4.080979347,1,-6.957561493,1,0.013202627,1,0.017512294,1,-0.010967189,1,0.539829135,1,-0.629503131,1,0.304445416,1
1.640018463,-5.597023487,1,-4.137775421,1,-6.951367855,1,0.020267747,1,0.016397972,1,-0.012014328,1,0.539894044,1,-0.629420042,1,0.304436386,1
1.644016147,-5.560379982,1,-4.126838207,1,-6.945365429,1,0.014000331,1,0.020410543,1,-0.01322751,1,0.539967537,1,-0.629329443,1,0.304412305,1
1.648015857,-5.555661678,1,-4.146020889,1,-6.973586082,1,0.014720115,1,0.014358291,1,-0.010053379,1,0.540023744,1,-0.629243195,1,0.304410934,1
1.652023792,-5.612155914,1,-4.131136894,1,-6.969862461,1,0.019729361,1,0.016985061,1,-0.004073079,1,0.54008919,1,-0.629163802,1,0.304415822,1
1.656027675,-5.620047092,1,-4.134093285,1,-6.945429325,1,0.029593959,1,0.016612416,1,-0.00426151,1,0.540178657,1,-0.629091382,1,0.304436117,1
1.660027623,-5.625467777,1,-4.09022665,1,-6.964996338,1,0.040940709,1,0.022165697,1,-0.000853408,1,0.540300846,1,-0.629022419,1,0.304473817,1
1.664029479,-5.629684925,1,-4.059947491,1,-6.940127373,1,0.04756631,1,0.01931092,1,0.001167473,1,0.540452778,1,-0.628955662,1,0.304521918,1
1.668027401,-5.573099136,1,-4.030246258,1,-6.917032719,1,0.058270827,1,0.023838485,1,0.002725618,1,0.540625274,1,-0.628885746,1,0.304587901,1
1.672027111,-5.62349987,1,-4.093524456,1,-6.915261269,1,0.05861536,1,0.025840061,1,0.000213278,1,0.540815055,1,-0.628806531,1,0.304651469,1
1.676028967,-5.632823944,1,-4.10953331,1,-6.917894363,1,0.062325671,1,0.028585155,1,-0.00356739,1,0.541023135,1,-0.628710568,1,0.304723501,1
1.680026889,-5.64665556,1,-4.153324127,1,-6.941676617,1,0.085310481,1,0.036480766,1,0.005622015,1,0.541255355,1,-0.628605366,1,0.304830372,1
1.684026599,-5.639683247,1,-4.089715004,1,-6.982703209,1,0.106197901,1,0.044721588,1,0.01678005,1,0.541548193,1,-0.628493428,1,0.30497247,1
1.688028216,-5.694287777,1,-4.011416912,1,-6.934520245,1,0.123734035,1,0.050501529,1,0.022386013,1,0.541887641,1,-0.628369987,1,0.305175424,1
1.692026138,-5.698091984,1,-3.98004961,1,-6.897364616,1,0.135383949,1,0.056302253,1,0.022449052,1,0.542275846,1,-0.628236175,1,0.3054021,1
1.696025848,-5.681075096,1,-3.993630171,1,-6.906059265,1,0.141369969,1,0.064199917,1,0.016584856,1,0.542703211,1,-0.628068686,1,0.305631846,1
1.700027704,-5.654588699,1,-4.000252247,1,-6.939546108,1,0.144448861,1,0.069423862,1,0.001354358,1,0.543142915,1,-0.627857983,1,0.305848777,1
1.704025626,-5.659817219,1,-4.024392128,1,-6.922035217,1,0.134922177,1,0.06859532,1,-0.004962288,1,0.543597341,1,-0.627619565,1,0.306028128,1
1.708025336,-5.597152233,1,-4.031226158,1,-6.895026684,1,0.133555666,1,0.070489138,1,-0.01036392,1,0.544045269,1,-0.627364278,1,0.306175649,1
1.712027192,-5.513130188,1,-4.026770115,1,-6.926245689,1,0.127127007,1,0.070803501,1,-0.018479172,1,0.544505239,1,-0.627099872,1,0.306290507,1
1.716024876,-5.443330288,1,-4.09286356,1,-6.898456097,1,0.125025064,1,0.062095497,1,-0.016155552,1,0.544965744,1,-0.626844704,1,0.306373596,1
1.720024347,-5.41270113,1,-4.279658794,1,-6.937496185,1,0.117511444,1,0.059144314,1,-0.021194536,1,0.545411766,1,-0.626596332,1,0.306442797,1
1.724026084,-5.36480999,1,-4.342859268,1,-6.941198349,1,0.110858701,1,0.052673776,1,-0.022131117,1,0.545844316,1,-0.626365542,1,0.306491166,1
1.728023767,-5.396626472,1,-4.416602135,1,-6.921506882,1,0.098641515,1,0.044346366,1,-0.014297162,1,0.546233416,1,-0.626163781,1,0.306538284,1
1.732023597,-5.50532198,1,-4.392108917,1,-6.932956219,1,0.088298708,1,0.040081393,1,-0.013744782,1,0.546579957,1,-0.625995517,1,0.306593657,1
1.736025333,-5.477012157,1,-4.377858639,1,-6.855380535,1,0.076463267,1,0.036313832,1,-0.004811902,1,0.546872199,1,-0.625853658,1,0.306649745,1
1.740023017,-5.555109024,1,-4.341800213,1,-6.869758606,1,0.077760421,1,0.03601547,1,-0.006317344,1,0.547147334,1,-0.625716627,1,0.306706488,1
1.744022727,-5.587445259,1,-4.196938038,1,-6.932432652,1,0.081813313,1,0.039495643,1,0.002482023,1,0.547412515,1,-0.625578463,1,0.30679962,1
1.748024583,-5.628713131,1,-4.033189774,1,-6.942183018,1,0.092145145,1,0.041363787,1,0.00102526,1,0.547697783,1,-0.625446022,1,0.306907117,1
1.752022266,-5.634025574,1,-4.028690815,1,-6.960149288,1,0.100354075,1,0.041817367,1,0.002078683,1,0.548019111,1,-0.62530905,1,0.307014644,1
1.756021976,-5.640959263,1,-4.03832674,1,-6.938353062,1,0.108785242,1,0.04502409,1,0.000913312,1,0.548364997,1,-0.625155866,1,0.307123959,1
1.760023832,-5.603830338,1,-4.085969448,1,-6.951582909,1,0.116783358,1,0.04586868,1,-0.004928336,1,0.54874295,1,-0.624997854,1,0.307230562,1
1.764021754,-5.610486031,1,-4.005760193,1,-6.976809502,1,0.116949029,1,0.050296273,1,-0.008443847,1,0.549156368,1,-0.624825954,1,0.307331741,1
1.768021464,-5.581736565,1,-4.044310093,1,-6.966955185,1,0.116571359,1,0.049635772,1,-0.010844792,1,0.549572051,1,-0.624633908,1,0.307417035,1
1.7720294,-5.571484089,1,-4.097984314,1,-6.938517094,1,0.115984239,1,0.049208649,1,-0.015995026,1,0.549996138,1,-0.624440134,1,0.307493329,1
1.776033521,-5.598847389,1,-4.225635052,1,-6.95750761,1,0.108181141,1,0.047689226,1,-0.015901415,1,0.550411344,1,-0.624241948,1,0.307558894,1
1.780033588,-5.52147007,1,-4.269050121,1,-6.882383823,1,0.105617821,1,0.048228636,1,-0.018301405,1,0.550818682,1,-0.624048889,1,0.307598412,1
1.784035087,-5.566886425,1,-4.310172558,1,-6.882231236,1,0.096705273,1,0.044861984,1,-0.021884795,1,0.551195621,1,-0.623844683,1,0.307641268,1
1.788033009,-5.554404736,1,-4.349387646,1,-6.881869316,1,0.089578494,1,0.048276596,1,-0.022662075,1,0.55154562,1,-0.623633146,1,0.307666421,1
1.792032719,-5.53738308,1,-4.342058182,1,-6.908567905,1,0.080512024,1,0.042364616,1,-0.024911636,1,0.551866472,1,-0.623430908,1,0.307684273,1
1.796034813,-5.545385838,1,-4.297059059,1,-6.841599464,1,0.068135828,1,0.047874577,1,-0.022476548,1,0.552155972,1,-0.623222172,1,0.307706416,1
1.800032735,-5.543745995,1,-4.275293827,1,-6.879305363,1,0.063128591,1,0.04783728,1,-0.022383733,1,0.552405894,1,-0.623007476,1,0.307728559,1
1.804032207,-5.599331856,1,-4.239398003,1,-6.915920258,1,0.056472849,1,0.048048936,1,-0.025156021,1,0.552631021,1,-0.622800767,1,0.307753265,1
1.808034062,-5.534700871,1,-4.221434593,1,-6.880696774,1,0.05120543,1,0.047831237,1,-0.025708983,1,0.552835047,1,-0.622585654,1,0.30777806,1
1.812031984,-5.535374165,1,-4.234749794,1,-6.893261433,1,0.053023085,1,0.04935668,1,-0.025270149,1,0.553035676,1,-0.622368395,1,0.307799906,1
1.816031456,-5.48691082,1,-4.184623241,1,-6.900366783,1,0.052324265,1,0.052479126,1,-0.021723425,1,0.553218722,1,-0.622148216,1,0.307834923,1
1.820033312,-5.452590942,1,-4.210930347,1,-6.937474251,1,0.057286743,1,0.045469999,1,-0.022488844,1,0.553413093,1,-0.62193501,1,0.307871222,1
1.824030995,-5.402431965,1,-4.255017757,1,-6.943056107,1,0.052092753,1,0.0441362,1,-0.021874459,1,0.553618193,1,-0.621733785,1,0.307893515,1
1.828030705,-5.416516781,1,-4.254589558,1,-6.90218401,1,0.048755813,1,0.044569831,1,-0.016733021,1,0.553709865,1,-0.620881498,1,0.306876183,1
1.832032561,-5.419020653,1,-4.355830669,1,-6.907195568,1,0.05363575,1,0.037181541,1,-0.013753779,1,0.553895235,1,-0.620705843,1,0.306915164,1
1.836030245,-5.353359699,1,-4.402939796,1,-6.891640186,1,0.041067109,1,0.038352113,1,-0.01521028,1,0.554060876,1,-0.620543897,1,0.306953937,1
1.840029955,-5.368049145,1,-4.418660641,1,-6.869787693,1,0.038335957,1,0.03313211,1,-0.010711832,1,0.554198742,1,-0.620394945,1,0.307000458,1
1.844031692,-5.41503334,1,-4.492141247,1,-6.895601749,1,0.031697698,1,0.027664451,1,-0.004389294,1,0.554315567,1,-0.620273411,1,0.30705142,1
1.848029494,-5.395900726,1,-4.468041897,1,-6.914126396,1,0.024684958,1,0.026513612,1,0.000189536,1,0.554392636,1,-0.620175183,1,0.307113409,1
1.852029204,-5.428094387,1,-4.470846176,1,-6.903922558,1,0.015955124,1,0.019440377,1,0.003653575,1,0.554439783,1,-0.620099723,1,0.307179034,1
1.856030941,-5.439472675,1,-4.39542675,1,-6.924607754,1,0.010975952,1,0.018712727,1,0.000148579,1,0.554461896,1,-0.62003696,1,0.307238817,1
1.860028982,-5.441044331,1,-4.289540291,1,-6.929688931,1,0.004715348,1,0.016315708,1,0.003634596,1,0.554452002,1,-0.619986117,1,0.30730021,1
1.864028692,-5.475921154,1,-4.288262844,1,-6.972847939,1,0.006283496,1,0.015465714,1,0.006317498,1,0.554435134,1,-0.619942904,1,0.307360828,1
1.868030429,-5.512794018,1,-4.217595577,1,-6.980427742,1,0.005552733,1,0.017159808,1,0.006748595,1,0.554427207,1,-0.619904816,1,0.307418942,1
1.87202847,-5.555177689,1,-4.190545559,1,-6.973218918,1,0.014806619,1,0.012619958,1,0.009787243,1,0.554428518,1,-0.619870126,1,0.307481825,1
1.876027942,-5.549389839,1,-4.143152237,1,-6.978919029,1,0.0165429,1,0.013478263,1,-0.001554906,1,0.554456472,1,-0.619837403,1,0.307534486,1
1.880029678,-5.506361485,1,-4.16439724,1,-6.961523533,1,0.020262662,1,0.010289977,1,0.001717669,1,0.554504693,1,-0.619796395,1,0.307571709,1
1.8840276,-5.480981827,1,-4.196479321,1,-6.982889175,1,0.019901924,1,0.013157839,1,0.000628194,1,0.554570973,1,-0.619766057,1,0.307604313,1
1.88802743,-5.510626793,1,-4.275686264,1,-6.98252058,1,0.024001691,1,0.007303148,1,-0.002815066,1,0.554635465,1,-0.619727254,1,0.307639837,1
1.892035365,-5.536554337,1,-4.300282955,1,-6.934500217,1,0.02310488,1,0.011144793,1,-0.001281629,1,0.554714918,1,-0.619685769,1,0.307665408,1
1.896039367,-5.52609396,1,-4.336846828,1,-6.886238575,1,0.024176318,1,0.011374522,1,0.008858459,1,0.554796815,1,-0.619653463,1,0.307711303,1
1.900039434,-5.494808197,1,-4.322326183,1,-6.908473969,1,0.025703227,1,0.014422256,1,0.006535604,1,0.554859996,1,-0.619629383,1,0.307767272,1
1.904041171,-5.505167484,1,-4.348333836,1,-6.897281647,1,0.023193888,1,0.013733107,1,0.00521285,1,0.554923236,1,-0.619595766,1,0.307824612,1
1.908038855,-5.507106781,1,-4.356145859,1,-6.900170326,1,0.018366164,1,0.012483904,1,0.011462232,1,0.554954529,1,-0.619569004,1,0.307898045,1
1.912038445,-5.506693363,1,-4.329823494,1,-6.890556812,1,0.01560564,1,0.012636868,1,0.013560094,1,0.554969847,1,-0.61954248,1,0.307986438,1
1.916040182,-5.543719292,1,-4.29499054,1,-6.876390934,1,0.008593502,1,0.017926514,1,0.012021445,1,0.554967701,1,-0.619515121,1,0.308078408,1
1.920037866,-5.538144588,1,-4.278617859,1,-6.908033371,1,0.012891161,1,0.019861722,1,0.011984698,1,0.554955542,1,-0.61948508,1,0.308178246,1
1.924037576,-5.519022465,1,-4.229667664,1,-6.887771606,1,0.010610222,1,0.019566571,1,0.012462359,1,0.554946005,1,-0.619446874,1,0.308285624,1
1.928039432,-5.503712654,1,-4.291098595,1,-6.879233837,1,0.009108142,1,0.017402282,1,0.012219056,1,0.554925025,1,-0.619407237,1,0.30839169,1
1.932037115,-5.450088501,1,-4.31041193,1,-6.913622379,1,0.004310143,1,0.023634098,1,0.017059768,1,0.554892063,1,-0.619370759,1,0.308503538,1
1.936036825,-5.452865601,1,-4.311380863,1,-6.949298859,1,0.001015223,1,0.019228788,1,0.013334246,1,0.554834485,1,-0.619332016,1,0.308617771,1
1.940038443,-5.444442749,1,-4.298336506,1,-6.965820313,1,-0.004394557,1,0.015057344,1,0.019138496,1,0.554769278,1,-0.61930722,1,0.30872944,1
1.944036126,-5.477722645,1,-4.331946373,1,-6.906676769,1,-0.005481198,1,0.015033113,1,0.01942287,1,0.554686725,1,-0.619298577,1,0.308850586,1
1.948035836,-5.446410656,1,-4.351221561,1,-6.932718754,1,-0.008939168,1,0.012256056,1,0.025732527,1,0.554594576,1,-0.619298995,1,0.308970988,1
1.952037573,-5.407189369,1,-4.379752636,1,-6.908370495,1,-0.014249397,1,0.009901681,1,0.021570859,1,0.55447644,1,-0.619315505,1,0.309094965,1
1.956035614,-5.400313377,1,-4.380240917,1,-6.930823803,1,-0.014239664,1,0.006443502,1,0.027333453,1,0.554349899,1,-0.619340241,1,0.309215903,1
1.960035324,-5.383882046,1,-4.36801672,1,-6.941196442,1,-0.018528135,1,0.004088831,1,0.030671513,1,0.554199576,1,-0.619372785,1,0.309348524,1
1.964037061,-5.42416048,1,-4.305450916,1,-6.970610142,1,-0.021173121,1,0.002471597,1,0.031669889,1,0.554040492,1,-0.619430721,1,0.30948168,1
1.968035102,-5.421521187,1,-4.266901016,1,-6.962711334,1,-0.025506964,1,-0.00240429,1,0.028647205,1,0.553873062,1,-0.619493604,1,0.309611201,1
1.972034812,-5.442154884,1,-4.228312016,1,-6.986746788,1,-0.021673867,1,-0.005836757,1,0.03205042,1,0.553703606,1,-0.619572163,1,0.309730113,1
1.97603631,-5.440380096,1,-4.231098652,1,-6.963787556,1,-0.027671257,1,-0.006428575,1,0.03209088,1,0.553540885,1,-0.619664311,1,0.30983901,1
1.980033994,-5.426008224,1,-4.261563301,1,-6.956906319,1,-0.024979072,1,-0.01324839,1,0.032871813,1,0.553367972,1,-0.619763792,1,0.309954643,1
1.984033585,-5.443173885,1,-4.311905384,1,-7.006742477,1,-0.030436756,1,-0.01690504,1,0.034088798,1,0.553199291,1,-0.619883657,1,0.3100577,1
1.988035321,-5.434581757,1,-4.269886971,1,-6.968145847,1,-0.030236859,1,-0.016540211,1,0.033204906,1,0.553029418,1,-0.620009422,1,0.310150981,1
1.992033005,-5.472678185,1,-4.281801224,1,-6.967532635,1,-0.036916286,1,-0.02369325,1,0.038605791,1,0.552839577,1,-0.620153129,1,0.310250819,1
1.996032476,-5.4559021,1,-4.273216248,1,-6.976512909,1,-0.036486719,1,-0.020973748,1,0.035212778,1,0.552639961,1,-0.620297492,1,0.310348928,1
2.000034332,-5.481999397,1,-4.235136986,1,-7.010087013,1,-0.037273861,1,-0.026561011,1,0.033394273,1,0.55244863,1,-0.620446086,1,0.310429692,1
2.004031897,-5.478678703,1,-4.177996635,1,-6.933431625,1,-0.043643709,1,-0.025581101,1,0.033334214,1,0.552236855,1,-0.620606303,1,0.310516238,1
2.008031845,-5.522538662,1,-4.172847748,1,-6.940457821,1,-0.043375332,1,-0.029104616,1,0.028386289,1,0.552037597,1,-0.620768368,1,0.310581267,1
2.012039661,-5.522889614,1,-4.203726768,1,-6.916069984,1,-0.044958618,1,-0.027302112,1,0.026331229,1,0.551831901,1,-0.620928705,1,0.31062901,1
2.016043425,-5.50407362,1,-4.206172943,1,-6.978226185,1,-0.051100094,1,-0.033446163,1,0.028415309,1,0.551608741,1,-0.621089041,1,0.310679257,1
2.020043612,-5.495176792,1,-4.265242577,1,-6.938561916,1,-0.049645688,1,-0.035065595,1,0.025369942,1,0.551379323,1,-0.621256709,1,0.31070751,1
2.024045229,-5.525524616,1,-4.264079571,1,-6.920462132,1,-0.05990738,1,-0.03733379,1,0.026935238,1,0.551144183,1,-0.621443272,1,0.310729921,1
2.028043032,-5.486262321,1,-4.296719551,1,-6.914656162,1,-0.063088037,1,-0.037233122,1,0.024994971,1,0.550894976,1,-0.621619999,1,0.310742438,1
2.032042742,-5.531318665,1,-4.303277016,1,-6.870025635,1,-0.071844205,1,-0.038952772,1,0.025549402,1,0.550622106,1,-0.621817112,1,0.310755849,1
2.036044598,-5.548303604,1,-4.257838726,1,-6.889945984,1,-0.077487767,1,-0.039379381,1,0.021423047,1,0.550335407,1,-0.622000098,1,0.31075269,1
2.040042162,-5.574385643,1,-4.218672752,1,-6.910830021,1,-0.080829248,1,-0.040818695,1,0.02375144,1,0.550035596,1,-0.622182488,1,0.310746074,1
2.044041872,-5.550633907,1,-4.215509415,1,-6.910482407,1,-0.080415696,1,-0.035459764,1,0.021485435,1,0.549721777,1,-0.622363687,1,0.310748786,1
2.048043728,-5.527644157,1,-4.213285446,1,-6.95202446,1,-0.080525264,1,-0.034088399,1,0.022360561,1,0.549404681,1,-0.622532547,1,0.310733408,1
2.052041769,-5.552906513,1,-4.234868526,1,-6.935783386,1,-0.08834707,1,-0.036931388,1,0.020625655,1,0.549078822,1,-0.622699857,1,0.310728252,1
2.056041479,-5.663405418,1,-4.213002205,1,-6.957132816,1,-0.082863338,1,-0.03617432,1,0.020895384,1,0.548744559,1,-0.622867584,1,0.310724676,1
2.060043097,-5.557122231,1,-4.192007542,1,-6.905409336,1,-0.083771288,1,-0.040243424,1,0.017623894,1,0.548414052,1,-0.623026609,1,0.31071353,1
2.064040899,-5.569335938,1,-4.245569229,1,-6.884531975,1,-0.084454797,1,-0.030058809,1,0.019049263,1,0.548079133,1,-0.623181581,1,0.310707271,1
2.068040609,-5.565402031,1,-4.277909279,1,-6.917469978,1,-0.086356327,1,-0.028023107,1,0.01788152,1,0.547741354,1,-0.623328984,1,0.310704917,1
2.072042465,-5.496011734,1,-4.31941843,1,-6.917331219,1,-0.085023664,1,-0.031661876,1,0.021163981,1,0.547383249,1,-0.623476863,1,0.310710788,1
2.076040506,-5.517043591,1,-4.292263031,1,-6.946064472,1,-0.089422628,1,-0.030351587,1,0.025000947,1,0.547059953,1,-0.622930706,1,0.310744137,1
2.080039978,-5.544233322,1,-4.238081455,1,-6.94997263,1,-0.089905605,1,-0.029474849,1,0.017991722,1,0.546701968,1,-0.6229918,1,0.309725046,1
2.084041834,-5.55098629,1,-4.21892643,1,-6.995658875,1,-0.085259363,1,-0.030466517,1,0.025341891,1,0.546332061,1,-0.623133779,1,0.309747547,1
2.088039398,-5.557768822,1,-4.231056213,1,-6.931200027,1,-0.089997329,1,-0.026554439,1,0.020275,1,0.545963287,1,-0.623282373,1,0.309769332,1
2.09203887,-5.503274918,1,-4.251802444,1,-6.986918926,1,-0.08599849,1,-0.029995399,1,0.025853114,1,0.545593262,1,-0.623426914,1,0.3097983,1
2.096040726,-5.535348415,1,-4.317430973,1,-6.985912323,1,-0.089883864,1,-0.030852037,1,0.029114224,1,0.545217514,1,-0.623582065,1,0.3098315,1
2.10003829,-5.533343315,1,-4.327519417,1,-6.955138683,1,-0.095644511,1,-0.028945748,1,0.025049286,1,0.544828176,1,-0.623739839,1,0.309869289,1
2.104038,-5.53088665,1,-4.351822376,1,-6.948796749,1,-0.094234027,1,-0.027957663,1,0.032224447,1,0.544427276,1,-0.623904705,1,0.309914649,1
2.108039618,-5.552404404,1,-4.29629612,1,-6.957850456,1,-0.097702876,1,-0.030453881,1,0.036030211,1,0.544000149,1,-0.624073088,1,0.309980214,1
2.11203742,-5.56019783,1,-4.292099953,1,-6.991152763,1,-0.101202898,1,-0.030888779,1,0.04091553,1,0.543551087,1,-0.624258697,1,0.310059339,1
2.11603713,-5.542592049,1,-4.322463036,1,-6.967319965,1,-0.098464072,1,-0.028926473,1,0.042115107,1,0.543095112,1,-0.624454319,1,0.310153961,1
2.120038986,-5.535616398,1,-4.330676079,1,-6.973103046,1,-0.105728984,1,-0.029551271,1,0.047117967,1,0.542613029,1,-0.624646842,1,0.310269266,1
2.124036789,-5.545884132,1,-4.378134727,1,-6.910291672,1,-0.10651622,1,-0.032283124,1,0.051264338,1,0.54210043,1,-0.624852955,1,0.310411423,1
2.128036499,-5.558528423,1,-4.409142017,1,-6.889903069,1,-0.115202017,1,-0.027044125,1,0.060097519,1,0.541565895,1,-0.625067353,1,0.310568511,1
2.132044315,-5.519247532,1,-4.422265053,1,-6.890031815,1,-0.11808233,1,-0.026790563,1,0.063548207,1,0.540999234,1,-0.625288367,1,0.310753226,1
2.136048079,-5.527813911,1,-4.442346096,1,-6.920657158,1,-0.124911703,1,-0.02304912,1,0.072554916,1,0.540386856,1,-0.62550813,1,0.310974002,1
2.140048027,-5.509003162,1,-4.421594143,1,-6.918068409,1,-0.128049254,1,-0.025155185,1,0.075521633,1,0.539738238,1,-0.625739098,1,0.311225206,1
2.144049883,-5.516806126,1,-4.446196556,1,-6.882476807,1,-0.135190666,1,-0.024977567,1,0.080575466,1,0.539046645,1,-0.62598443,1,0.311496615,1
2.148047686,-5.532735348,1,-4.437852859,1,-6.8983531,1,-0.139705986,1,-0.023877213,1,0.089393452,1,0.538314223,1,-0.62622726,1,0.311802864,1
2.152047396,-5.555413723,1,-4.43997097,1,-6.878551006,1,-0.146322608,1,-0.016154939,1,0.095325373,1,0.537542403,1,-0.626472771,1,0.312146664,1
2.156049252,-5.548433781,1,-4.360088348,1,-6.926335335,1,-0.151870847,1,-0.010181164,1,0.096080504,1,0.536728203,1,-0.626715064,1,0.312521696,1
2.160047054,-5.520802021,1,-4.319358349,1,-6.911035061,1,-0.153792635,1,-0.009272294,1,0.101136804,1,0.535897255,1,-0.626951635,1,0.312912464,1
2.164046764,-5.506592751,1,-4.311486721,1,-6.970180511,1,-0.158092245,1,-0.008940469,1,0.11272195,1,0.535014391,1,-0.627205133,1,0.313347757,1
2.168048382,-5.551158428,1,-4.386146545,1,-6.949866295,1,-0.162522912,1,-0.009348173,1,0.113501333,1,0.534098864,1,-0.627458394,1,0.31379813,1
2.172046423,-5.554746628,1,-4.407973289,1,-6.937958241,1,-0.172837302,1,-0.008745626,1,0.118391417,1,0.533151686,1,-0.627726138,1,0.314277291,1
2.176046133,-5.533298969,1,-4.371105194,1,-6.910280228,1,-0.178284377,1,-0.003344603,1,0.126261383,1,0.532156587,1,-0.627985001,1,0.314787865,1
2.180047512,-5.506733894,1,-4.343564987,1,-6.934119701,1,-0.186095431,1,-0.00176773,1,0.13303116,1,0.53111434,1,-0.628258586,1,0.315339625,1
2.184045553,-5.585330486,1,-4.305317402,1,-6.925949574,1,-0.183825791,1,-1.56E-06,1,0.13950561,1,0.530044615,1,-0.628536582,1,0.315913081,1
2.188045025,-5.557946682,1,-4.192211628,1,-6.982728004,1,-0.188357472,1,-0.001640303,1,0.141228929,1,0.528944671,1,-0.628815174,1,0.316509008,1
2.192046881,-5.60513401,1,-4.11308527,1,-6.95356226,1,-0.189592868,1,0.001581299,1,0.137323141,1,0.527831614,1,-0.629095435,1,0.317115128,1
2.196044445,-5.593176842,1,-4.017466545,1,-7.018507481,1,-0.190368369,1,0.005816702,1,0.144248053,1,0.526709914,1,-0.629367888,1,0.317728639,1
2.200043917,-5.625451565,1,-3.905002356,1,-7.019146919,1,-0.191120178,1,-0.001669257,1,0.140065849,1,0.525588214,1,-0.629643679,1,0.318342507,1
2.204045773,-5.596055031,1,-3.914167881,1,-7.041334629,1,-0.182877511,1,0.00500982,1,0.141519576,1,0.524490893,1,-0.6299209,1,0.318950713,1
2.208043575,-5.614830971,1,-3.883677483,1,-7.091156483,1,-0.177489847,1,-0.000905793,1,0.14160639,1,0.523412406,1,-0.630199432,1,0.319551229,1
2.212043285,-5.619547367,1,-3.984754801,1,-7.048891544,1,-0.179403856,1,0.001387591,1,0.138179317,1,0.522347331,1,-0.630481601,1,0.320145249,1
2.216045141,-5.593852043,1,-3.944976091,1,-7.114548683,1,-0.173330665,1,-0.005640285,1,0.136907369,1,0.521302164,1,-0.630762696,1,0.320724338,1
2.220042706,-5.570927143,1,-3.930509806,1,-7.078718185,1,-0.170150697,1,-0.005515268,1,0.134524658,1,0.52027303,1,-0.631055653,1,0.321302772,1
2.224042416,-5.591767788,1,-3.946328878,1,-7.152979851,1,-0.172347173,1,-0.012250876,1,0.137638435,1,0.519255221,1,-0.631369054,1,0.321871996,1
2.228044271,-5.590878963,1,-3.979345083,1,-7.16220665,1,-0.16593504,1,-0.015842792,1,0.135706306,1,0.518255174,1,-0.631691694,1,0.322431266,1
2.232042074,-5.59519577,1,-3.978720665,1,-7.130051613,1,-0.161467642,1,-0.02635999,1,0.139969438,1,0.517277956,1,-0.632040441,1,0.322972357,1
2.236041784,-5.554521561,1,-3.981728792,1,-7.128894329,1,-0.159579858,1,-0.032120623,1,0.131573588,1,0.516324282,1,-0.632403433,1,0.323496878,1
2.240043163,-5.57218504,1,-3.916486502,1,-7.21414423,1,-0.15438731,1,-0.040894616,1,0.133035854,1,0.515411913,1,-0.632782161,1,0.323978245,1
2.244041204,-5.600783825,1,-3.755343437,1,-7.287752628,1,-0.148353085,1,-0.047196612,1,0.129330128,1,0.514542401,1,-0.63319087,1,0.324433863,1
2.248040915,-5.606382847,1,-3.681786776,1,-7.362922192,1,-0.139534459,1,-0.054278679,1,0.124431238,1,0.513719141,1,-0.633612096,1,0.324860454,1
2.252048731,-5.606792927,1,-3.680717707,1,-7.347018719,1,-0.124249123,1,-0.060621861,1,0.122488648,1,0.512960851,1,-0.634057045,1,0.325246453,1
2.256052494,-5.653533936,1,-3.710128307,1,-7.397553444,1,-0.122541733,1,-0.075482823,1,0.114401564,1,0.512263179,1,-0.634527445,1,0.325586975,1
2.260052204,-5.70479393,1,-3.751124382,1,-7.339105129,1,-0.111481905,1,-0.077632345,1,0.114248537,1,0.511623025,1,-0.635023177,1,0.325897157,1
2.264053822,-5.741247654,1,-3.80128026,1,-7.416382313,1,-0.09503077,1,-0.086454228,1,0.103199735,1,0.511038363,1,-0.635528862,1,0.326166689,1
2.268051624,-5.727164268,1,-3.771766663,1,-7.40314436,1,-0.099649891,1,-0.09797392,1,0.102034271,1,0.510514736,1,-0.63605994,1,0.326390833,1
2.272051096,-5.699276924,1,-3.883183718,1,-7.419265747,1,-0.090105534,1,-0.101761617,1,0.099069327,1,0.510027945,1,-0.636604428,1,0.326586097,1
2.276052713,-5.660113335,1,-3.886613846,1,-7.366799355,1,-0.092065237,1,-0.109716356,1,0.106166065,1,0.5095734,1,-0.637170792,1,0.326764643,1
2.280050516,-5.632400036,1,-3.943115234,1,-7.39993763,1,-0.078279451,1,-0.113066763,1,0.104462028,1,0.509126544,1,-0.637771428,1,0.326944053,1
2.284049988,-5.733816147,1,-3.8838346,1,-7.419546604,1,-0.078546807,1,-0.122931793,1,0.101971589,1,0.508711398,1,-0.638391912,1,0.327107817,1
2.288051605,-5.629952908,1,-4.021701336,1,-7.390263557,1,-0.065246835,1,-0.131718293,1,0.103950642,1,0.508362591,1,-0.639039576,1,0.327243626,1
2.292049408,-5.696516037,1,-4.119365215,1,-7.217987537,1,-0.071494967,1,-0.140447259,1,0.102822222,1,0.508018613,1,-0.639709949,1,0.327362835,1
2.29604888,-5.716474533,1,-4.201828003,1,-7.302663326,1,-0.072233029,1,-0.14740248,1,0.10307876,1,0.507667542,1,-0.640412986,1,0.3274616,1
2.300050735,-5.498749733,1,-4.230428219,1,-7.307631493,1,-0.062249225,1,-0.161136121,1,0.106385,1,0.507335067,1,-0.64114356,1,0.32755512,1
2.3040483,-5.393722534,1,-4.189059734,1,-7.482299805,1,-0.064534679,1,-0.171362475,1,0.109117776,1,0.507033408,1,-0.641936004,1,0.327633321,1
2.308047771,-5.048548698,1,-4.140947342,1,-7.797719955,1,-0.048735455,1,-0.195838705,1,0.125760287,1,0.50676769,1,-0.642796814,1,0.327707231,1
2.312049627,-4.957634926,1,-4.116065502,1,-7.95112896,1,-0.039152753,1,-0.228921324,1,0.139323518,1,0.506552458,1,-0.643789589,1,0.327768207,1
2.31604743,-5.065263271,1,-4.19788599,1,-7.868523121,1,-0.016325863,1,-0.26436466,1,0.154979944,1,0.506413996,1,-0.644941628,1,0.327805102,1
2.32004714,-4.907119274,1,-4.411035061,1,-8.079257965,1,-0.018870953,1,-0.293658197,1,0.165910244,1,0.50633806,1,-0.646227777,1,0.327819049,1
2.324048996,-4.773130894,1,-4.301625729,1,-8.239257813,1,0.006615113,1,-0.338570058,1,0.190021709,1,0.506304443,1,-0.647685051,1,0.327832222,1
2.32804656,-4.890059948,1,-4.109027386,1,-8.517655373,1,0.047809809,1,-0.397125423,1,0.211245954,1,0.506462514,1,-0.649285913,1,0.326776445,1
2.33204627,-4.687512875,1,-4.287044048,1,-8.795825958,1,0.082810104,1,-0.453511596,1,0.242448777,1,0.506756186,1,-0.651201606,1,0.326734453,1
2.336048126,-4.040937424,1,-4.508661747,1,-9.623473167,1,0.117131606,1,-0.542840838,1,0.295473069,1,0.507167161,1,-0.653460026,1,0.326696932,1
2.340045929,-3.865852833,1,-4.597127914,1,-9.992744446,1,0.186715469,1,-0.641958058,1,0.367691636,1,0.507753074,1,-0.656164289,1,0.326706588,1
2.344045639,-3.49156785,1,-5.843705654,1,-10.38203526,1,0.273362845,1,-0.774764717,1,0.496161968,1,0.508599043,1,-0.659484982,1,0.326853871,1
2.348047018,-3.129865885,1,-6.631253242,1,-10.61883831,1,0.380677104,1,-0.884762526,1,0.680449665,1,0.509565055,1,-0.663516283,1,0.327396244,1
2.352045059,-2.786368608,1,-8.16613102,1,-9.943185806,1,0.398532093,1,-1.008008718,1,0.872629046,1,0.51049906,1,-0.668336511,1,0.328477889,1
2.356044531,-3.399246454,1,-8.188386917,1,-9.541991234,1,0.406589448,1,-1.146150827,1,1.030094504,1,0.511131406,1,-0.673953056,1,0.330034107,1
2.360046148,-4.915647984,1,-7.995635986,1,-10.03571415,1,0.454867423,1,-1.285599589,1,1.112761021,1,0.511740029,1,-0.680318832,1,0.331824005,1
2.364043951,-6.199296951,1,-6.906276226,1,-10.18963814,1,0.464428246,1,-1.40765357,1,1.098836064,1,0.51259917,1,-0.687187672,1,0.33339107,1
2.368043661,-7.156140804,1,-6.017436504,1,-10.06060219,1,0.461163431,1,-1.438929915,1,1.043443084,1,0.513660312,1,-0.694281697,1,0.33461076,1
2.372051716,-7.574418545,1,-7.651344299,1,-10.81356144,1,0.449335843,1,-1.455595136,1,1.078469276,1,0.514823258,1,-0.701385677,1,0.335676908,1
2.376055479,-6.19267416,1,-8.507019997,1,-10.32479382,1,0.37605077,1,-1.566773653,1,1.142962217,1,0.515695333,1,-0.708822191,1,0.336855471,1
2.380055189,-6.755153656,1,-8.265964508,1,-9.727089882,1,0.3511796,1,-1.632149458,1,1.194641352,1,0.516355932,1,-0.716706574,1,0.338043094,1
2.384057045,-8.961322784,1,-8.31842804,1,-10.24771595,1,0.265500814,1,-1.637660742,1,1.227684498,1,0.516719162,1,-0.724780083,1,0.339382112,1
2.388054848,-9.012130737,1,-8.885638237,1,-10.01364899,1,0.130047634,1,-1.684540272,1,1.256253719,1,0.516605139,1,-0.733017206,1,0.340763599,1
2.392054319,-8.03818512,1,-8.107717514,1,-10.14870071,1,-0.007794386,1,-1.704969168,1,1.278757572,1,0.515886247,1,-0.741413772,1,0.342195988,1
2.396056175,-9.386194229,1,-8.071582794,1,-10.10211849,1,-0.115780935,1,-1.744372725,1,1.332120657,1,0.514608443,1,-0.749979734,1,0.3437244,1
2.400053978,-9.942957878,1,-8.746874809,1,-9.287904739,1,-0.300224751,1,-1.759175897,1,1.428362608,1,0.512515903,1,-0.75880307,1,0.34559387,1
2.40405345,-10.69520092,1,-8.871211052,1,-9.144292831,1,-0.495049059,1,-1.742600083,1,1.499318838,1,0.509296954,1,-0.76780653,1,0.34795171,1
2.408055305,-10.62042332,1,-8.165224075,1,-9.189717293,1,-0.69466424,1,-1.767958283,1,1.441884041,1,0.505176008,1,-0.776809812,1,0.350407124,1
2.412053108,-11.93882942,1,-8.778790474,1,-9.042115211,1,-0.746140242,1,-1.772943974,1,1.329387546,1,0.500839233,1,-0.785686016,1,0.35242033,1
2.416052818,-16.52623749,1,-9.098707199,1,-10.03574276,1,-0.725324571,1,-1.677497506,1,1.171602964,1,0.496777594,1,-0.794200838,1,0.353966951,1
2.420054197,-17.20515442,1,-10.33293819,1,-12.06938934,1,-0.720134795,1,-1.395608425,1,0.950992107,1,0.49309051,1,-0.801665246,1,0.355138093,1
2.424052,-14.78460121,1,-10.61055374,1,-12.91429329,1,-0.838077366,1,-1.076990485,1,0.709585786,1,0.489361227,1,-0.807584286,1,0.356010735,1
2.42805171,-11.93111992,1,-9.287808418,1,-12.92206955,1,-0.897268713,1,-0.865869224,1,0.498078793,1,0.485517561,1,-0.812112153,1,0.356468648,1
2.432053566,-9.469712257,1,-8.054114342,1,-12.23922729,1,-0.85866636,1,-0.780481458,1,0.363173813,1,0.482010454,1,-0.815802276,1,0.356451452,1
2.43605113,-6.035544395,1,-7.352717876,1,-11.00261784,1,-0.810953259,1,-0.777012467,1,0.304805875,1,0.478964895,1,-0.819153309,1,0.356044352,1
2.44005084,-3.011710167,1,-6.969483376,1,-10.20710564,1,-0.761916995,1,-0.827518523,1,0.297006369,1,0.476270318,1,-0.822536111,1,0.355431169,1
2.444052696,-2.085834265,1,-6.670830727,1,-9.932729721,1,-0.715886891,1,-0.908328891,1,0.345677882,1,0.473813176,1,-0.826218307,1,0.35475564,1
2.448050737,-1.977229834,1,-6.62251997,1,-10.12521458,1,-0.650721788,1,-0.978510618,1,0.420754015,1,0.471477509,1,-0.830274582,1,0.354221046,1
2.452050447,-2.014017582,1,-6.643510818,1,-10.03436947,1,-0.597579658,1,-1.034131527,1,0.491307229,1,0.469205081,1,-0.834703982,1,0.353930891,1
2.456052303,-1.970187664,1,-6.553142548,1,-9.901002884,1,-0.565220594,1,-1.037714839,1,0.55331403,1,0.466869175,1,-0.83935082,1,0.353936493,1
2.460050106,-1.807968378,1,-6.66207552,1,-9.971414566,1,-0.540884316,1,-1.010623097,1,0.589170992,1,0.464443266,1,-0.844046474,1,0.354244202,1
2.464049816,-1.679702401,1,-6.574384689,1,-10.49817944,1,-0.547118843,1,-0.921402931,1,0.593774199,1,0.461802214,1,-0.848570406,1,0.354858994,1
2.468051672,-1.587939858,1,-6.747441292,1,-10.13612175,1,-0.519191682,1,-0.906293809,1,0.619000018,1,0.459101975,1,-0.852945507,1,0.355658531,1
2.472049713,-1.831345558,1,-6.987941265,1,-10.58469772,1,-0.535187423,1,-0.805249572,1,0.616423905,1,0.456166595,1,-0.857115269,1,0.356762528,1
2.476049185,-1.671563864,1,-7.08036375,1,-10.70840073,1,-0.557084024,1,-0.694280386,1,0.569236517,1,0.453045845,1,-0.860854506,1,0.358010769,1
2.480051041,-1.171890497,1,-6.632174015,1,-10.64000797,1,-0.548589468,1,-0.570607305,1,0.503559411,1,0.449850321,1,-0.864076257,1,0.359302431,1
2.484048605,-0.556500614,1,-6.241774082,1,-10.55301571,1,-0.53338182,1,-0.462479532,1,0.427567661,1,0.44676137,1,-0.86674881,1,0.360520065,1
2.488048315,0.103332087,1,-6.018596649,1,-10.41055012,1,-0.508494318,1,-0.369683713,1,0.361034662,1,0.443844587,1,-0.86892736,1,0.361620635,1
2.492050171,0.808291197,1,-5.852851868,1,-10.23736191,1,-0.474497616,1,-0.272367984,1,0.280197114,1,0.441142559,1,-0.870623589,1,0.362573504,1
2.496053934,1.213211417,1,-5.766381264,1,-10.0585289,1,-0.438648671,1,-0.193546355,1,0.196902335,1,0.438752234,1,-0.871873617,1,0.363307834,1
2.500053644,1.464763761,1,-5.642276287,1,-9.851024628,1,-0.397475898,1,-0.114603028,1,0.108060643,1,0.436733723,1,-0.872702897,1,0.363768399,1
2.5040555,1.855580807,1,-5.629562378,1,-9.623260498,1,-0.371320486,1,-0.052609373,1,0.027268261,1,0.435056478,1,-0.873117805,1,0.363942444,1
2.508053303,2.129192352,1,-5.54447031,1,-9.505247116,1,-0.343939334,1,0.020697456,1,-0.059336007,1,0.433724761,1,-0.873141527,1,0.363819957,1
2.512053013,2.066542149,1,-5.464853287,1,-9.325510979,1,-0.326919764,1,0.086679101,1,-0.143414408,1,0.432722777,1,-0.872781396,1,0.363382041,1
2.516054869,2.075922489,1,-5.295462132,1,-9.312582016,1,-0.310762912,1,0.167681724,1,-0.23215431,1,0.432006389,1,-0.87199831,1,0.362650931,1
2.520052433,2.086365461,1,-5.106776237,1,-9.175930023,1,-0.306509048,1,0.244062871,1,-0.322078913,1,0.431562573,1,-0.87079823,1,0.361630291,1
2.524052143,2.122084618,1,-4.956065655,1,-9.15166378,1,-0.289617151,1,0.328865111,1,-0.407705218,1,0.431384981,1,-0.869148314,1,0.360313773,1
2.528053999,2.144317627,1,-4.758895397,1,-8.91856575,1,-0.271620393,1,0.410419226,1,-0.477828145,1,0.431425661,1,-0.867057562,1,0.358779818,1
2.532051802,2.328779221,1,-4.614783287,1,-8.936152458,1,-0.251798719,1,0.493483156,1,-0.548642337,1,0.431685835,1,-0.864535034,1,0.357063949,1
2.536051512,2.431009054,1,-4.536893845,1,-8.912559509,1,-0.220708996,1,0.57657069,1,-0.61393857,1,0.432150006,1,-0.861613393,1,0.355200201,1
2.540053129,2.557505608,1,-4.484264374,1,-8.897428513,1,-0.199586064,1,0.650464594,1,-0.66361475,1,0.432804763,1,-0.858310282,1,0.353226125,1
2.54405117,2.613450289,1,-4.492078304,1,-8.860253334,1,-0.175695926,1,0.714037418,1,-0.706748486,1,0.433597773,1,-0.854677558,1,0.351183534,1
2.54805088,2.43449688,1,-4.316912651,1,-8.802599907,1,-0.155097097,1,0.77925694,1,-0.742941201,1,0.434497654,1,-0.850743592,1,0.349099666,1
2.552052736,2.458135366,1,-4.325984001,1,-8.881643295,1,-0.134565711,1,0.853658199,1,-0.77496326,1,0.435494363,1,-0.846495986,1,0.347001135,1
2.556050777,2.207589865,1,-4.193558216,1,-8.747314453,1,-0.107140563,1,0.918776453,1,-0.8114205,1,0.436564952,1,-0.841953337,1,0.344914377,1
2.560050488,2.084632635,1,-4.18197298,1,-8.766684532,1,-0.08546,1,0.996374786,1,-0.849912763,1,0.437715828,1,-0.837070167,1,0.342854083,1
2.564052105,1.838857412,1,-4.209301472,1,-8.754351616,1,-0.06167084,1,1.068570614,1,-0.881185234,1,0.438947082,1,-0.831869423,1,0.340804517,1
2.568050146,1.560902953,1,-4.010673046,1,-8.819945335,1,-0.044820812,1,1.147894263,1,-0.931436479,1,0.44025889,1,-0.826316059,1,0.338736832,1
2.572049618,1.533624411,1,-3.963706255,1,-8.754255295,1,-0.02746602,1,1.230168819,1,-0.974988699,1,0.441637903,1,-0.820389926,1,0.336660743,1
2.576051474,1.560886502,1,-3.783329487,1,-8.812679291,1,-0.009101351,1,1.306313276,1,-1.023793578,1,0.44734174,1,-0.79881072,1,0.338953853,1
2.580049515,1.562276721,1,-3.747032404,1,-8.731736183,1,0.003604087,1,1.376968384,1,-1.062796474,1,0.448856562,1,-0.792100787,1,0.335955739,1
2.584048986,1.445453882,1,-3.613702059,1,-8.639220238,1,0.020994933,1,1.43370831,1,-1.101636052,1,0.450371593,1,-0.785157084,1,0.333871782,1
2.588050604,1.433559656,1,-3.319543839,1,-8.527266502,1,0.043946188,1,1.486850023,1,-1.136444926,1,0.45198831,1,-0.777944207,1,0.331765443,1
2.592048407,1.407118559,1,-3.26867938,1,-8.437178612,1,0.069303252,1,1.544194698,1,-1.166712284,1,0.45367977,1,-0.77047801,1,0.329670846,1
2.596047878,1.150347352,1,-2.939844847,1,-8.373733521,1,0.090398364,1,1.595274448,1,-1.194114208,1,0.455414772,1,-0.76276052,1,0.32761991,1
2.600049734,1.116112828,1,-3.032359362,1,-8.220301628,1,0.10808678,1,1.65683949,1,-1.208832741,1,0.457182884,1,-0.754804254,1,0.325630993,1
2.604047298,1.197437406,1,-3.070809841,1,-8.068808556,1,0.12079367,1,1.70610249,1,-1.221686244,1,0.458935082,1,-0.746614695,1,0.323721141,1
2.608047009,1.006270409,1,-2.953010559,1,-8.033789635,1,0.131070703,1,1.760721803,1,-1.227234483,1,0.460648656,1,-0.738220453,1,0.321938217,1
2.612048864,1.086406112,1,-2.857472897,1,-8.009206772,1,0.138734445,1,1.804299831,1,-1.225090384,1,0.462291807,1,-0.729648709,1,0.320297539,1
2.616052389,0.714101851,1,-2.803827047,1,-7.816394329,1,0.168573722,1,1.865043163,1,-1.223672032,1,0.463895619,1,-0.720910549,1,0.31881091,1
2.620052576,0.695511341,1,-2.93250823,1,-7.787171841,1,0.182024464,1,1.91348958,1,-1.196854711,1,0.465425849,1,-0.711989284,1,0.317563981,1
2.624054193,0.435042173,1,-2.827132702,1,-7.863489628,1,0.202307403,1,1.971501589,1,-1.18433547,1,0.466838121,1,-0.70290935,1,0.316566229,1
2.628051996,0.192713022,1,-2.940295935,1,-7.846149445,1,0.220582083,1,2.028642178,1,-1.163003445,1,0.468184829,1,-0.693658113,1,0.315792501,1
2.632051706,-0.064006075,1,-3.003549099,1,-7.826720715,1,0.246173143,1,2.086391687,1,-1.136185646,1,0.469439179,1,-0.68423599,1,0.315295428,1
2.636053562,-0.232997641,1,-2.854181767,1,-7.979447365,1,0.287704736,1,2.155921698,1,-1.116631269,1,0.470644593,1,-0.674628079,1,0.315070361,1
2.640051365,-0.544146538,1,-2.896534204,1,-8.016421318,1,0.322912216,1,2.210772038,1,-1.099889278,1,0.471850246,1,-0.664834976,1,0.315091372,1
2.644051313,-0.849537909,1,-2.995094061,1,-8.131308556,1,0.371006548,1,2.283395052,1,-1.083858728,1,0.473086059,1,-0.654842794,1,0.315334439,1
2.648052692,-0.940816283,1,-3.031987906,1,-8.147104263,1,0.410883278,1,2.350652695,1,-1.072996259,1,0.474351645,1,-0.644639134,1,0.315820575,1
2.652050495,-1.258350372,1,-3.113090515,1,-8.22724247,1,0.463279754,1,2.416975975,1,-1.051916718,1,0.475674421,1,-0.634220243,1,0.316537857,1
2.656050205,-1.940850496,1,-3.202987432,1,-8.291576385,1,0.474758327,1,2.483718634,1,-1.065132856,1,0.477008581,1,-0.623572707,1,0.317445755,1
2.660051823,-1.929922462,1,-3.475172997,1,-8.284892082,1,0.489429921,1,2.559617043,1,-1.066141605,1,0.478325933,1,-0.612653196,1,0.318489432,1
2.664049625,-2.077685118,1,-3.526956081,1,-8.257613182,1,0.496653646,1,2.624938726,1,-1.071976185,1,0.479608297,1,-0.601469636,1,0.319702387,1
2.668049335,-2.12568903,1,-3.551903009,1,-8.203891754,1,0.50108093,1,2.689518929,1,-1.079069972,1,0.480855405,1,-0.590054035,1,0.321034223,1
2.672051191,-2.146483421,1,-3.524244785,1,-8.139815331,1,0.493744433,1,2.736834049,1,-1.0848037,1,0.482048124,1,-0.57842952,1,0.322455287,1
2.676049232,-2.140120029,1,-3.300337076,1,-8.135065079,1,0.504049659,1,2.778024435,1,-1.094643474,1,0.483225793,1,-0.56663996,1,0.323950469,1
2.680048704,-2.228609324,1,-3.259974718,1,-8.082127571,1,0.527621448,1,2.814214706,1,-1.088481903,1,0.484444201,1,-0.55471468,1,0.325533658,1
2.684050322,-2.446559429,1,-3.062819481,1,-8.120905876,1,0.570115089,1,2.841917753,1,-1.088635325,1,0.485778034,1,-0.542683303,1,0.327203989,1
2.688048124,-2.793969393,1,-2.988425016,1,-8.094353676,1,0.620589018,1,2.870019436,1,-1.102218628,1,0.487280071,1,-0.530538619,1,0.328907073,1
2.692047596,-3.163045168,1,-2.970643282,1,-8.238688469,1,0.669022143,1,2.892745018,1,-1.119949937,1,0.48899883,1,-0.518271923,1,0.330623627,1
2.696049452,-3.595865726,1,-3.086051702,1,-8.177908897,1,0.715153277,1,2.930100203,1,-1.1452986,1,0.490928203,1,-0.505862057,1,0.33232075,1
2.700047016,-3.787455797,1,-3.205611467,1,-8.136964798,1,0.73674494,1,2.961238623,1,-1.183332801,1,0.49304086,1,-0.493284523,1,0.33398515,1
2.704046965,-4.022778034,1,-3.437108755,1,-8.191617966,1,0.764422238,1,2.993080139,1,-1.217438579,1,0.495299667,1,-0.48051551,1,0.335599482,1
2.708048582,-4.242851257,1,-3.739334822,1,-8.129283905,1,0.76308924,1,3.017951012,1,-1.242651939,1,0.497635245,1,-0.467600197,1,0.337168545,1
2.712046385,-4.428156376,1,-3.77492094,1,-8.112545967,1,0.772185564,1,3.048980474,1,-1.272240996,1,0.500012457,1,-0.454534113,1,0.338717163,1
2.716046095,-4.754840851,1,-3.692666292,1,-8.263595581,1,0.776460409,1,3.075463772,1,-1.309662938,1,0.502455711,1,-0.441312075,1,0.340232342,1
2.720047951,-5.052529335,1,-3.614573002,1,-8.325093269,1,0.79480195,1,3.098255157,1,-1.346752167,1,0.504991233,1,-0.427945793,1,0.341679692,1
2.724045515,-5.337534428,1,-3.538002014,1,-8.357447624,1,0.805428684,1,3.115569115,1,-1.387103915,1,0.507629931,1,-0.414416552,1,0.343049914,1
2.728045225,-5.461067677,1,-3.55077076,1,-8.278308868,1,0.82233876,1,3.131363153,1,-1.430547714,1,0.51037842,1,-0.400756627,1,0.344319522,1
2.732047081,-5.546327114,1,-3.585310936,1,-8.227742195,1,0.832783818,1,3.128972054,1,-1.471287966,1,0.513245583,1,-0.386985689,1,0.345475078,1
2.736050844,-5.618192673,1,-3.520653725,1,-8.152089119,1,0.850749433,1,3.111983299,1,-1.506497383,1,0.516228795,1,-0.373187423,1,0.346513987,1
2.740050793,-5.589409351,1,-3.562803984,1,-8.107229233,1,0.867212355,1,3.075086355,1,-1.534939289,1,0.51934582,1,-0.359404862,1,0.347417921,1
2.744052172,-5.660256386,1,-3.67502284,1,-8.005955696,1,0.878901482,1,3.025001287,1,-1.557286024,1,0.522566259,1,-0.345740646,1,0.348186046,1
2.748050213,-5.830112457,1,-3.711587906,1,-8.03085041,1,0.883802593,1,2.955196142,1,-1.562859058,1,0.525889456,1,-0.332260281,1,0.348806977,1
2.752049923,-6.076104641,1,-3.716481924,1,-7.953978539,1,0.888234079,1,2.873334169,1,-1.561869979,1,0.529278159,1,-0.319045424,1,0.349308014,1
2.75605154,-6.288664341,1,-3.704375982,1,-7.859238148,1,0.894100726,1,2.781114817,1,-1.553191662,1,0.53272754,1,-0.306134403,1,0.349681377,1
2.760049105,-6.344521999,1,-3.603032351,1,-7.794037819,1,0.892100811,1,2.677409172,1,-1.543604016,1,0.536234558,1,-0.293586791,1,0.349913538,1
2.764048576,-6.526868343,1,-3.688165665,1,-7.764226437,1,0.883726358,1,2.554480791,1,-1.513445735,1,0.539758086,1,-0.281471908,1,0.350028038,1
2.768050432,-6.802426338,1,-3.771540165,1,-7.637255192,1,0.872595012,1,2.427295446,1,-1.480291486,1,0.543266058,1,-0.269847393,1,0.350026786,1
2.772048473,-7.244734287,1,-3.884301662,1,-7.641805172,1,0.853376806,1,2.312837362,1,-1.438667536,1,0.546733856,1,-0.258708119,1,0.349949539,1
2.776048183,-7.677612305,1,-3.914618254,1,-7.594662666,1,0.834114015,1,2.1990273,1,-1.394156218,1,0.550136805,1,-0.24805443,1,0.349812388,1
2.780049801,-8.283195496,1,-3.884096622,1,-7.59969759,1,0.807765305,1,2.099842072,1,-1.35421896,1,0.553466916,1,-0.237852499,1,0.349630147,1
2.784047604,-8.719423294,1,-3.90634346,1,-7.719844341,1,0.788412571,1,2.019253731,1,-1.313411713,1,0.556709707,1,-0.228043005,1,0.349428177,1
2.788047075,-9.395178795,1,-3.727113962,1,-7.730095387,1,0.76194346,1,1.945945144,1,-1.283863902,1,0.559854567,1,-0.218575656,1,0.349218786,1
2.792048931,-9.831789017,1,-3.360760689,1,-7.717266083,1,0.75365901,1,1.889021516,1,-1.265064001,1,0.562936127,1,-0.209370643,1,0.348982513,1
2.796046495,-10.15138245,1,-2.983077049,1,-7.72049284,1,0.756119728,1,1.834958434,1,-1.25221312,1,0.566007257,1,-0.200392231,1,0.3487086,1
2.800046444,-10.46075535,1,-2.48528409,1,-7.75026083,1,0.770875394,1,1.791217804,1,-1.253612399,1,0.569120109,1,-0.191573262,1,0.348383486,1
2.804048061,-10.70583725,1,-1.970493555,1,-7.666547775,1,0.803610206,1,1.751248956,1,-1.269177675,1,0.572353005,1,-0.182884663,1,0.347953528,1
2.808045864,-10.9206953,1,-1.871811748,1,-7.332013607,1,0.824602127,1,1.705582619,1,-1.280259371,1,0.575705588,1,-0.174309433,1,0.347412944,1
2.812045574,-10.76787949,1,-2.077043056,1,-6.95194149,1,0.826223671,1,1.648898363,1,-1.278406262,1,0.579126835,1,-0.165888742,1,0.346775413,1
2.816047192,-10.7958374,1,-2.444483757,1,-6.645904541,1,0.801070809,1,1.563719869,1,-1.252756476,1,0.582511485,1,-0.157726586,1,0.346059144,1
2.820044756,-11.04925156,1,-2.055269957,1,-5.896574974,1,0.748933911,1,1.476489782,1,-1.226885557,1,0.585723579,1,-0.149934396,1,0.345266581,1
2.824044466,-10.67371845,1,-2.40709424,1,-5.912228584,1,0.686388314,1,1.353836775,1,-1.185213208,1,0.588728786,1,-0.142527938,1,0.344380498,1
2.828046322,-10.99044132,1,-2.259311914,1,-5.258124352,1,0.61104238,1,1.215853095,1,-1.11514008,1,0.591432214,1,-0.135615617,1,0.342694879,1
2.832044363,-11.23688412,1,-1.994029999,1,-4.812984943,1,0.547751844,1,1.075445294,1,-1.044283986,1,0.593885243,1,-0.129393503,1,0.341664135,1
2.836044073,-11.38401318,1,-1.530417204,1,-4.438067913,1,0.49349919,1,0.921496034,1,-0.975889444,1,0.596103311,1,-0.123820864,1,0.340556979,1
2.840045929,-11.81021118,1,-1.172989726,1,-4.200480461,1,0.457262039,1,0.759598017,1,-0.902764499,1,0.5981462,1,-0.118926741,1,0.339340985,1
2.844043732,-12.33626747,1,-0.853021026,1,-3.971739531,1,0.431952804,1,0.601852059,1,-0.831543565,1,0.600068569,1,-0.114720382,1,0.338005304,1
2.848043203,-12.92350674,1,-0.512264729,1,-3.732867479,1,0.398934454,1,0.456959069,1,-0.768415272,1,0.601896763,1,-0.111159414,1,0.33655405,1
2.852045059,-13.5678997,1,-0.542081058,1,-3.439439535,1,0.382060468,1,0.323582858,1,-0.700821102,1,0.60362941,1,-0.108205728,1,0.335007221,1
2.856048584,-14.26613235,1,-0.71206212,1,-3.167054415,1,0.358022541,1,0.222640306,1,-0.629975438,1,0.605282366,1,-0.105801255,1,0.333432734,1
2.860048294,-14.9376421,1,-1.013790727,1,-2.852538347,1,0.329160661,1,0.147983134,1,-0.557113588,1,0.606817722,1,-0.103846677,1,0.331899881,1
2.86405015,-15.51261425,1,-0.991158009,1,-2.667568922,1,0.290105104,1,0.080199704,1,-0.482730418,1,0.608213544,1,-0.102292806,1,0.330442101,1
2.868047953,-15.80425835,1,-0.901882112,1,-2.512909651,1,0.246717542,1,0.028068155,1,-0.404101104,1,0.60941565,1,-0.101095073,1,0.329114944,1
2.872047424,-15.79985142,1,-0.563511014,1,-2.306272984,1,0.202887714,1,-0.029564155,1,-0.325868785,1,0.610436797,1,-0.100261435,1,0.327907026,1
2.876049042,-15.56344604,1,-0.178544134,1,-2.017027617,1,0.168386042,1,-0.100886226,1,-0.250075698,1,0.611292243,1,-0.099809065,1,0.326812267,1
2.880046844,-15.12746906,1,0.04009125,1,-1.603713632,1,0.14803873,1,-0.190286443,1,-0.162566692,1,0.612018824,1,-0.099806234,1,0.325798571,1
2.884046316,-14.55519962,1,0.040923093,1,-1.211221457,1,0.119495191,1,-0.300884992,1,-0.061272167,1,0.61265105,1,-0.100344889,1,0.324868858,1
2.888048172,-13.98886204,1,-0.103958406,1,-0.79222852,1,0.078134745,1,-0.442380607,1,0.052856166,1,0.613144875,1,-0.10154739,1,0.323995113,1
2.892045736,-13.60210609,1,-0.360533297,1,-0.426474273,1,0.025999939,1,-0.602617562,1,0.180933371,1,0.613445938,1,-0.103523813,1,0.323169947,1
2.896045685,-13.38913345,1,-0.65242213,1,-0.10782598,1,-0.03699632,1,-0.775582671,1,0.317481995,1,0.613503456,1,-0.106347449,1,0.322390497,1
2.900047302,-13.35806656,1,-1.001157045,1,0.195897773,1,-0.10868746,1,-0.94160682,1,0.456822097,1,0.613287449,1,-0.110054046,1,0.321670771,1
2.904045105,-13.35279369,1,-1.424851894,1,0.247013301,1,-0.18828842,1,-1.111936688,1,0.589516163,1,0.612761199,1,-0.11461848,1,0.321011811,1
2.908044815,-11.97704315,1,-2.403194666,1,-1.955041766,1,-0.250136554,1,-1.269086599,1,0.756346762,1,0.611935914,1,-0.120031893,1,0.320448637,1
2.912046671,15.62766266,1,-0.335746825,1,-13.56740379,1,1.070465446,1,-1.758450389,1,1.421181083,1,0.613091588,1,-0.127241448,1,0.320700526,1
2.916044235,-3.725185633,1,-1.655712247,1,-10.91745853,1,0.636799872,1,-2.356244802,1,1.586129904,1,0.617299736,1,-0.137828618,1,0.32078445,1
2.920043945,6.192008495,1,-13.38438606,1,-9.609177589,1,-0.115913905,1,-1.876115918,1,1.348366261,1,0.617797613,1,-0.14810583,1,0.320629478,1
2.924045563,14.08046532,1,-19.29514885,1,-10.62501144,1,0.263482094,1,-1.999337912,1,1.583387375,1,0.618267119,1,-0.157629639,1,0.320899069,1
2.928043604,6.29688406,1,-20.37799835,1,-12.33715248,1,-0.245323494,1,-1.989707708,1,1.895503759,1,0.618166089,1,-0.168322191,1,0.321935058,1
2.932043314,6.696883678,1,-19.54521561,1,-10.72555351,1,-0.596731126,1,-1.933760405,1,2.113108397,1,0.616111696,1,-0.179303154,1,0.323993802,1
2.936044693,8.215062141,1,-14.97867107,1,-10.38079357,1,-0.818098068,1,-2.129650354,1,2.370171309,1,0.61267364,1,-0.191069409,1,0.326699913,1
2.940042496,6.023599148,1,-8.758948326,1,-10.1354084,1,-0.704009712,1,-2.496406317,1,2.518842697,1,0.609163165,1,-0.204281211,1,0.329560518,1
2.944042206,2.52112031,1,-8.605744362,1,-8.404269218,1,-0.819580674,1,-2.977419853,1,2.458121538,1,0.605627358,1,-0.218957335,1,0.331544101,1
2.9480443,-0.573345661,1,-8.537230492,1,-7.08298254,1,-0.827849388,1,-3.319510937,1,2.405543327,1,0.60216248,1,-0.234869674,1,0.332415402,1
2.952042341,-3.585571766,1,-7.73602581,1,-6.841497421,1,-0.922726035,1,-3.722773314,1,2.359947205,1,0.598668933,1,-0.251876146,1,0.332327008,1
2.956042051,-7.594549179,1,-7.415275097,1,-6.667667866,1,-1.007965684,1,-4.007145882,1,2.28682065,1,0.595103145,1,-0.269934952,1,0.331252217,1
2.960043669,-9.651999474,1,-5.306155682,1,-7.715514183,1,-0.989130259,1,-4.096218109,1,2.208833456,1,0.591512263,1,-0.288444698,1,0.329546362,1
2.964041471,-11.65320969,1,-3.72193718,1,-9.462424278,1,-0.84868592,1,-4.095077515,1,2.059480429,1,0.588478625,1,-0.306804389,1,0.327479303,1
2.968040943,-10.66957283,1,-0.779076457,1,-11.59862995,1,-0.605696678,1,-4.059238434,1,1.890786767,1,0.586334884,1,-0.324775159,1,0.324907064,1
2.972042799,-12.61302376,1,-1.122847795,1,-12.3830719,1,-0.52649051,1,-4.039471149,1,1.784385324,1,0.585062802,1,-0.342334658,1,0.321850866,1
2.976046324,-13.6179781,1,-0.555878937,1,-12.50890064,1,-0.394294083,1,-3.76561451,1,1.734693408,1,0.58423382,1,-0.359242588,1,0.318903714,1
2.980045795,-14.73487282,1,-0.830319643,1,-12.56453705,1,-0.269964844,1,-3.492010832,1,1.787047029,1,0.583740175,1,-0.37523365,1,0.316610098,1
2.984047651,-15.186409,1,-0.71113193,1,-12.13663864,1,-0.224274948,1,-3.146816254,1,1.890496254,1,0.583215177,1,-0.390356302,1,0.315319151,1
2.988045216,-14.39444351,1,0.427555948,1,-11.85196972,1,-0.096947573,1,-2.787626028,1,1.974810719,1,0.582570493,1,-0.404523671,1,0.315258205,1
2.992045164,-13.88412762,1,0.323177546,1,-11.40339184,1,0.082127072,1,-2.514889956,1,1.970942736,1,0.582218826,1,-0.417705268,1,0.316082835,1
2.996046782,-13.40495205,1,-1.78787148,1,-10.61262226,1,0.167696536,1,-2.305698395,1,2.001484394,1,0.58210367,1,-0.430119246,1,0.317534775,1
3.000044584,-12.79251194,1,-3.808402061,1,-9.210251808,1,0.281484246,1,-2.07818222,1,1.942649961,1,0.582134843,1,-0.441777617,1,0.319528222,1
3.004044294,-14.11849213,1,-7.3618536,1,-8.51583004,1,0.248625875,1,-1.934398651,1,1.883347631,1,0.582290649,1,-0.45266664,1,0.321702093,1
3.00804615,-14.17900276,1,-9.803197861,1,-6.689059258,1,0.120933436,1,-1.696578145,1,1.725914121,1,0.582017362,1,-0.462720752,1,0.323989511,1
3.012043715,-13.73977375,1,-11.45290947,1,-5.749720573,1,-0.032334518,1,-1.514947653,1,1.575493455,1,0.581201136,1,-0.471728921,1,0.326226175,1
3.016043425,-11.81441116,1,-11.84580994,1,-5.197574139,1,-0.198873386,1,-1.374704123,1,1.370699525,1,0.579847813,1,-0.479759961,1,0.32821697,1
3.02004528,-11.14878654,1,-11.79738331,1,-4.629026413,1,-0.428201914,1,-1.283188939,1,1.274806142,1,0.577787638,1,-0.487118572,1,0.329913259,1
3.024043322,-9.351694107,1,-10.51776218,1,-4.757245541,1,-0.617229998,1,-1.187022567,1,1.153879523,1,0.574945331,1,-0.493883967,1,0.331480831,1
3.028043032,-8.041965485,1,-8.57933712,1,-5.869345665,1,-0.75595504,1,-1.15053463,1,1.099911928,1,0.571534753,1,-0.500255048,1,0.332888126,1
3.032044888,-7.844676018,1,-6.514903545,1,-6.738726616,1,-0.856487453,1,-1.036439657,1,1.098745584,1,0.567562461,1,-0.50633049,1,0.334388256,1
3.03604269,-7.302134514,1,-4.203635216,1,-7.925073147,1,-0.890209258,1,-0.896625817,1,1.108500957,1,0.563120008,1,-0.511954129,1,0.336278111,1
3.0400424,-7.899118423,1,-2.969170809,1,-8.737343788,1,-0.876489878,1,-0.780416846,1,1.128232121,1,0.558457017,1,-0.517175317,1,0.338586271,1
3.044044256,-8.064950943,1,-2.648363113,1,-8.574221611,1,-0.8481462,1,-0.641314447,1,1.126030803,1,0.553670466,1,-0.521968544,1,0.341264427,1
3.048042297,-7.700363159,1,-3.08153224,1,-8.058934212,1,-0.832649946,1,-0.526245773,1,1.107284307,1,0.548828304,1,-0.52628994,1,0.344265044,1
3.052042007,-7.014893055,1,-3.838049412,1,-7.485379219,1,-0.834627211,1,-0.4543401,1,1.064651132,1,0.543915093,1,-0.53020668,1,0.347395062,1
3.056043863,-6.232130527,1,-4.906874657,1,-7.121948242,1,-0.848970175,1,-0.438293457,1,1.015286088,1,0.539001107,1,-0.533869684,1,0.350460649,1
3.060041666,-6.43787384,1,-5.707035065,1,-6.960484505,1,-0.891411066,1,-0.43013519,1,0.967779279,1,0.534023821,1,-0.537389517,1,0.353385985,1
3.064041138,-6.399731636,1,-6.486214161,1,-6.911869049,1,-0.948076785,1,-0.392181039,1,0.923743188,1,0.528908432,1,-0.54072839,1,0.356197238,1
3.068042994,-6.211875916,1,-6.24113369,1,-7.028102875,1,-0.994926929,1,-0.36190787,1,0.904658318,1,0.52356869,1,-0.543859065,1,0.35901022,1
3.072040796,-7.243391037,1,-6.161599159,1,-7.368581772,1,-1.046480417,1,-0.302537888,1,0.863348782,1,0.518037379,1,-0.546768188,1,0.361822635,1
3.076040506,-7.609926701,1,-4.405704021,1,-7.931672573,1,-1.063758969,1,-0.224646002,1,0.838045359,1,0.512303531,1,-0.549362063,1,0.364680231,1
3.080042124,-6.887746334,1,-2.561718941,1,-8.608290672,1,-1.029280901,1,-0.167379186,1,0.793037057,1,0.506664157,1,-0.551556826,1,0.366835833,1
3.084039927,-6.127176285,1,-1.370943546,1,-8.697299957,1,-0.967142999,1,-0.138028234,1,0.774916589,1,0.501149833,1,-0.553611875,1,0.369712472,1
3.088039637,-5.94090414,1,-1.322239637,1,-8.9911623,1,-0.882777929,1,-0.132891819,1,0.732260168,1,0.495971233,1,-0.555519402,1,0.372530699,1
3.092041492,-7.254796028,1,-1.968316674,1,-8.944725037,1,-0.799739957,1,-0.091415986,1,0.662055373,1,0.491210192,1,-0.557255924,1,0.3751553,1
3.096045017,-6.639797211,1,-1.804347396,1,-8.730537415,1,-0.730762601,1,-0.060029458,1,0.612684548,1,0.486832291,1,-0.558705151,1,0.377658844,1
3.100044727,-5.926755905,1,-2.437384844,1,-8.019238472,1,-0.649612606,1,-0.078573421,1,0.569576144,1,0.482871443,1,-0.560057282,1,0.379956484,1
3.104046583,-4.934720516,1,-3.160616398,1,-7.672558784,1,-0.617015481,1,-0.109881155,1,0.544050634,1,0.479202092,1,-0.561418235,1,0.382086098,1
3.108044386,-4.609958172,1,-3.335387707,1,-7.995520115,1,-0.570686102,1,-0.14309299,1,0.535369635,1,0.47577095,1,-0.562863648,1,0.384064049,1
3.112044096,-4.454784393,1,-3.227645874,1,-8.302398682,1,-0.539958477,1,-0.172856256,1,0.524196565,1,0.472530186,1,-0.564382851,1,0.385956228,1
3.116045713,-4.334736347,1,-3.052668095,1,-8.375464439,1,-0.507894039,1,-0.228987172,1,0.516626894,1,0.469480455,1,-0.56605047,1,0.387723207,1
3.120043755,-4.965264797,1,-2.82106781,1,-8.503588676,1,-0.475493103,1,-0.266060054,1,0.495004863,1,0.466648519,1,-0.567851067,1,0.38933143,1
3.124043465,-6.219156742,1,-2.408994675,1,-8.932492256,1,-0.406929463,1,-0.267717987,1,0.451687068,1,0.464113295,1,-0.569653451,1,0.390767843,1
3.128045321,-4.601476669,1,-2.220355749,1,-8.459195137,1,-0.375420123,1,-0.300858945,1,0.44670096,1,0.461840451,1,-0.57144326,1,0.392075151,1
3.132043362,-4.577420712,1,-2.492272139,1,-8.560795784,1,-0.336466908,1,-0.347817212,1,0.427536428,1,0.459761888,1,-0.573386431,1,0.393261611,1
3.136043072,-4.629559994,1,-2.843780041,1,-8.66026783,1,-0.289472699,1,-0.389949113,1,0.410165995,1,0.457967937,1,-0.575451791,1,0.394283175,1
3.140044689,-4.480091572,1,-2.878501177,1,-8.414988518,1,-0.24164924,1,-0.445876718,1,0.400968969,1,0.456427425,1,-0.577667534,1,0.395136237,1
3.14404273,-4.770755768,1,-2.532876015,1,-8.363409042,1,-0.191486701,1,-0.487110913,1,0.389648914,1,0.455169946,1,-0.580036163,1,0.395849138,1
3.148042202,-5.103317261,1,-2.458344221,1,-8.496897697,1,-0.133377999,1,-0.522289753,1,0.382592201,1,0.45419997,1,-0.582544327,1,0.396435916,1
3.152044058,-5.702196121,1,-2.346629143,1,-8.261024475,1,-0.080462441,1,-0.524830937,1,0.362518728,1,0.453489423,1,-0.585082769,1,0.396943569,1
3.156041622,-5.229794502,1,-2.383329153,1,-8.06641674,1,-0.028058201,1,-0.567023098,1,0.33662948,1,0.453064442,1,-0.587646842,1,0.397311091,1
3.160041571,-5.763176441,1,-2.250527859,1,-8.136346817,1,0.019423209,1,-0.568942666,1,0.316340595,1,0.452921212,1,-0.590272069,1,0.397527367,1
3.164043188,-5.890501499,1,-2.179536581,1,-8.025588036,1,0.071996652,1,-0.567110658,1,0.292461514,1,0.453046381,1,-0.592853427,1,0.397648811,1
3.168041229,-5.877173901,1,-2.482003212,1,-7.674966335,1,0.103633046,1,-0.581431568,1,0.271647155,1,0.453395396,1,-0.595422983,1,0.397655189,1
3.172041178,-6.489577293,1,-3.019396544,1,-7.347811699,1,0.124173,1,-0.562646449,1,0.254450798,1,0.453892618,1,-0.597943068,1,0.397581965,1
3.176043034,-5.839734077,1,-3.353588343,1,-7.117914677,1,0.139135793,1,-0.561214983,1,0.233869016,1,0.454503775,1,-0.600383699,1,0.397438169,1
3.180040598,-5.769806862,1,-3.34413147,1,-7.308543205,1,0.133731559,1,-0.551875293,1,0.241325036,1,0.455123782,1,-0.602797627,1,0.397298425,1
3.184040546,-5.792000771,1,-3.289393187,1,-7.350836754,1,0.134231478,1,-0.542289197,1,0.250400573,1,0.455748558,1,-0.605206549,1,0.39717856,1
3.188042164,-5.753197193,1,-3.472006321,1,-7.191040039,1,0.130647272,1,-0.544833779,1,0.247064829,1,0.45631063,1,-0.607594311,1,0.397105753,1
3.192039967,-5.916070938,1,-3.634565353,1,-7.166815281,1,0.125331268,1,-0.537584305,1,0.247076273,1,0.456869781,1,-0.609968662,1,0.397031307,1
3.196039677,-5.92381525,1,-3.631369829,1,-7.230721474,1,0.1198323,1,-0.522013903,1,0.242248178,1,0.457402706,1,-0.612301707,1,0.396968633,1
3.200041533,-6.02121973,1,-3.470613956,1,-7.296822548,1,0.115656361,1,-0.51980865,1,0.219230264,1,0.457924694,1,-0.614581525,1,0.396864712,1
3.204039335,-5.801980019,1,-3.032312632,1,-7.483642578,1,0.133373201,1,-0.51430583,1,0.20061785,1,0.45854637,1,-0.616805673,1,0.396668494,1
3.208039284,-5.903228283,1,-2.631853104,1,-7.808398247,1,0.153205633,1,-0.512142181,1,0.171100304,1,0.459280729,1,-0.618980467,1,0.396365732,1
3.212040901,-6.200840473,1,-2.432016373,1,-7.754094124,1,0.182262644,1,-0.505429506,1,0.130383894,1,0.460217416,1,-0.621073782,1,0.395916998,1
3.216045141,-6.168489456,1,-2.525961876,1,-7.588860512,1,0.200478539,1,-0.499826401,1,0.081326023,1,0.46134454,1,-0.623060763,1,0.395284802,1
3.22004509,-6.017661572,1,-2.662425995,1,-7.564761639,1,0.22067681,1,-0.500573814,1,0.064051308,1,0.462654501,1,-0.624971569,1,0.39449957,1
3.224046946,-5.851187229,1,-2.935984373,1,-7.575404644,1,0.23101227,1,-0.472544283,1,0.057331562,1,0.46402514,1,-0.626812816,1,0.393707246,1
3.228044748,-5.632140636,1,-3.515789747,1,-7.512702465,1,0.232104391,1,-0.461012781,1,0.059172414,1,0.465406358,1,-0.628576398,1,0.392931908,1
3.232044458,-5.716217995,1,-4.287051678,1,-7.278104782,1,0.212028056,1,-0.449123234,1,0.050072186,1,0.466742486,1,-0.630293012,1,0.392163217,1
3.236046314,-5.676751137,1,-4.589820385,1,-7.163844109,1,0.191821784,1,-0.440954119,1,0.064473733,1,0.467969984,1,-0.631980538,1,0.391420305,1
3.240044117,-5.898928165,1,-4.661059856,1,-7.0133214,1,0.162658095,1,-0.425504327,1,0.068428718,1,0.469082654,1,-0.633645713,1,0.390734494,1
3.244043589,-5.69401741,1,-4.616356373,1,-7.074446678,1,0.136532754,1,-0.419106722,1,0.083350077,1,0.470051885,1,-0.635292292,1,0.39012444,1
3.248045206,-5.863157749,1,-4.562577248,1,-6.934381962,1,0.108947724,1,-0.407918274,1,0.091426864,1,0.470852911,1,-0.636926591,1,0.389588058,1
3.252043009,-5.856047153,1,-4.36175251,1,-6.856894493,1,0.083935872,1,-0.394762337,1,0.106756359,1,0.471526086,1,-0.638532519,1,0.389115393,1
3.25604248,-6.13774395,1,-4.309717655,1,-6.915091515,1,0.065957606,1,-0.382122427,1,0.121354394,1,0.472041667,1,-0.640115261,1,0.388744116,1
3.260044336,-6.066890717,1,-4.276380062,1,-6.579538822,1,0.037989482,1,-0.376260102,1,0.126174942,1,0.472439587,1,-0.641699493,1,0.388427377,1
3.264041901,-6.269742012,1,-4.106531143,1,-6.755781174,1,0.038060158,1,-0.357663989,1,0.133209035,1,0.472750336,1,-0.643240333,1,0.388173521,1
3.268041611,-6.02333498,1,-4.097241879,1,-6.752497196,1,0.034300193,1,-0.337258905,1,0.151907012,1,0.47298035,1,-0.644734919,1,0.388019383,1
3.272043467,-5.991338253,1,-4.207447052,1,-6.78546524,1,0.036556344,1,-0.33264634,1,0.154565707,1,0.473176539,1,-0.646217942,1,0.38793242,1
3.276041508,-6.028173447,1,-4.05839777,1,-6.720945358,1,0.038045201,1,-0.324804306,1,0.164962873,1,0.473339081,1,-0.647681415,1,0.387905926,1
3.280041218,-6.154759884,1,-3.775585175,1,-6.837129116,1,0.052758545,1,-0.308151633,1,0.168509662,1,0.473501056,1,-0.649111927,1,0.387916625,1
3.284043074,-5.99143219,1,-3.549753904,1,-7.027083874,1,0.066877849,1,-0.300241649,1,0.170326248,1,0.47370398,1,-0.650493026,1,0.387987733,1
3.288040638,-5.938109398,1,-3.414976358,1,-7.038902283,1,0.079265781,1,-0.285683095,1,0.166198134,1,0.473960042,1,-0.651860893,1,0.388061821,1
3.292040348,-5.889997005,1,-3.147013903,1,-7.451468945,1,0.112477124,1,-0.294732749,1,0.169800267,1,0.474278629,1,-0.653196931,1,0.38814804,1
3.296042204,-5.710654736,1,-3.292426109,1,-7.333810806,1,0.140696824,1,-0.302383393,1,0.167428344,1,0.474763155,1,-0.654566169,1,0.388213694,1
3.300040245,-5.81889534,1,-3.464957952,1,-7.18124485,1,0.146079585,1,-0.321538925,1,0.165178746,1,0.475313693,1,-0.655986011,1,0.388243854,1
3.304039955,-5.925632477,1,-3.416242361,1,-7.183875561,1,0.169355065,1,-0.329546213,1,0.168264225,1,0.475958139,1,-0.65745157,1,0.388238788,1
3.308041811,-5.998642445,1,-3.495473862,1,-7.06534481,1,0.156081393,1,-0.336447299,1,0.171691641,1,0.476624727,1,-0.658950448,1,0.388217986,1
3.312039614,-6.007325649,1,-3.266949654,1,-7.179768562,1,0.182952002,1,-0.33701086,1,0.169545278,1,0.477301687,1,-0.660455465,1,0.388198614,1
3.316039324,-5.774333954,1,-3.387557983,1,-7.173158169,1,0.201738641,1,-0.337404907,1,0.166704983,1,0.47810322,1,-0.661951482,1,0.388161004,1
3.32004118,-5.92284584,1,-3.494023085,1,-7.062468529,1,0.189842254,1,-0.352936089,1,0.164041892,1,0.478908032,1,-0.663485944,1,0.388102531,1
3.324039221,-5.95424366,1,-3.784366846,1,-6.898201466,1,0.196182713,1,-0.367339015,1,0.162406877,1,0.479769647,1,-0.665071249,1,0.387983054,1
3.328038931,-6.045640945,1,-4.098534584,1,-6.907022953,1,0.167651787,1,-0.369670063,1,0.178447947,1,0.478431523,1,-0.66667974,1,0.38844794,1
3.332040787,-5.851716518,1,-3.805337191,1,-6.818367958,1,0.132010713,1,-0.369605184,1,0.189119861,1,0.479050308,1,-0.668326616,1,0.388410389,1
3.33604455,-5.934079647,1,-3.602879286,1,-6.783595562,1,0.14163734,1,-0.361920297,1,0.194511309,1,0.479595333,1,-0.669991016,1,0.388407826,1
3.34004426,-5.951069355,1,-3.682399273,1,-6.88612175,1,0.139010012,1,-0.371199191,1,0.205056086,1,0.480125904,1,-0.671660364,1,0.388449669,1
3.344046116,-5.906404018,1,-3.621947289,1,-6.933287621,1,0.145797089,1,-0.374762297,1,0.207294449,1,0.480649054,1,-0.673359573,1,0.388503283,1
3.348043919,-5.911642075,1,-3.658097744,1,-7.041863441,1,0.147365525,1,-0.390965015,1,0.211327747,1,0.481219888,1,-0.675104976,1,0.388540745,1
3.352043629,-5.855108261,1,-3.946662664,1,-6.994331837,1,0.149106711,1,-0.391031295,1,0.221180379,1,0.48177287,1,-0.676891327,1,0.388595045,1
