Time,inertial-6253.76535:estCompensatedAccelX,inertial-6253.76535:estCompensatedAccelX:valid,inertial-6253.76535:estCompensatedAccelY,inertial-6253.76535:estCompensatedAccelY:valid,inertial-6253.76535:estCompensatedAccelZ,inertial-6253.76535:estCompensatedAccelZ:valid,inertial-6253.76535:estAngularRateX,inertial-6253.76535:estAngularRateX:valid,inertial-6253.76535:estAngularRateY,inertial-6253.76535:estAngularRateY:valid,inertial-6253.76535:estAngularRateZ,inertial-6253.76535:estAngularRateZ:valid,inertial-6253.76535:estRoll,inertial-6253.76535:estRoll:valid,inertial-6253.76535:estPitch,inertial-6253.76535:estPitch:valid,inertial-6253.76535:estYaw,inertial-6253.76535:estYaw:valid
0,-4.766536236,1,-2.472634554,1,-8.202588081,1,0.006781913,1,0.013248267,1,-0.001991714,1,0.363964349,1,-0.463270992,1,0.547435164,1
0.003997696,-4.756594658,1,-2.412069798,1,-8.210167885,1,0.007374427,1,0.006275005,1,-0.001841698,1,0.363983631,1,-0.463231504,1,0.547443092,1
0.00799744,-4.756385326,1,-2.427063227,1,-8.231379509,1,0.006604603,1,0.008178065,1,-0.002894663,1,0.364009529,1,-0.463190854,1,0.547447622,1
0.011999232,-4.755136013,1,-2.41972661,1,-8.248227119,1,0.006724274,1,0.006772174,1,-0.001618419,1,0.36403513,1,-0.463146329,1,0.547459781,1
0.015997184,-4.75357008,1,-2.42016983,1,-8.195681572,1,0.005855373,1,0.014043596,1,-0.004429461,1,0.36406678,1,-0.463098556,1,0.547453284,1
0.019996673,-4.776037216,1,-2.417964458,1,-8.242473602,1,0.008166896,1,0.010993426,1,-0.007148866,1,0.364099592,1,-0.463047475,1,0.547446012,1
0.023998208,-4.74095726,1,-2.424130678,1,-8.256510735,1,0.011528509,1,0.011461155,1,-0.002897409,1,0.364136904,1,-0.463002712,1,0.547455549,1
0.027995905,-4.717524052,1,-2.415850878,1,-8.245874405,1,0.007372613,1,0.013568569,1,-0.005270154,1,0.364176571,1,-0.462947458,1,0.547456145,1
0.031995393,-4.730677128,1,-2.461638451,1,-8.250330925,1,0.010126717,1,0.014263189,1,-0.003990768,1,0.36421144,1,-0.462890089,1,0.547467291,1
0.035996929,-4.775003433,1,-2.458810568,1,-8.211484909,1,0.012040908,1,0.016180854,1,-0.005588598,1,0.364256501,1,-0.462831467,1,0.547462761,1
0.039994624,-4.774394989,1,-2.435347557,1,-8.243753433,1,0.006433428,1,0.012460005,1,-0.005370077,1,0.364296526,1,-0.46277079,1,0.547463059,1
0.043994114,-4.767588139,1,-2.422139406,1,-8.255058289,1,0.011214948,1,0.013862102,1,-0.007582544,1,0.364333004,1,-0.462704659,1,0.547465146,1
0.047995649,-4.764307022,1,-2.436129093,1,-8.247843742,1,0.013459546,1,0.011640387,1,-0.00386488,1,0.364381194,1,-0.462651849,1,0.547458649,1
0.051993344,-4.748378754,1,-2.425846815,1,-8.251188278,1,0.012126397,1,0.015053203,1,-0.002624517,1,0.364429176,1,-0.462590426,1,0.547459364,1
0.055992831,-4.778322697,1,-2.429131508,1,-8.262696266,1,0.008863049,1,0.0136065,1,-0.006462236,1,0.364479125,1,-0.462541819,1,0.547452569,1
0.05999437,-4.760818005,1,-2.4526577,1,-8.270023346,1,0.014696882,1,0.013847198,1,-0.004088002,1,0.364522964,1,-0.462477386,1,0.547451258,1
0.063992321,-4.72217226,1,-2.416794062,1,-8.24493885,1,0.009272026,1,0.012003684,1,-0.004808973,1,0.364571422,1,-0.462428004,1,0.547452509,1
0.067991808,-4.72477293,1,-2.444776773,1,-8.264447212,1,0.006752876,1,0.013737388,1,-0.005847685,1,0.364612281,1,-0.462371618,1,0.547458947,1
0.071993858,-4.727750778,1,-2.451149702,1,-8.248019218,1,0.010257361,1,0.005978785,1,-0.00562583,1,0.364656776,1,-0.462321758,1,0.547454059,1
0.075991809,-4.757579803,1,-2.501993656,1,-8.221541405,1,0.012027404,1,0.010718025,1,-0.003411048,1,0.364706695,1,-0.462281018,1,0.547446609,1
0.079991296,-4.735262871,1,-2.487665176,1,-8.237855911,1,0.00779009,1,0.009453204,1,-0.00374657,1,0.364745408,1,-0.462237448,1,0.547449946,1
0.083993085,-4.720417976,1,-2.458225727,1,-8.251177788,1,0.006654353,1,0.009331607,1,0.001593651,1,0.364778876,1,-0.462200701,1,0.547449768,1
0.087990783,-4.759505272,1,-2.476821661,1,-8.251216888,1,0.008913741,1,0.010663575,1,-0.005064456,1,0.364808023,1,-0.46214807,1,0.547457278,1
0.09199027,-4.758516788,1,-2.449047327,1,-8.227101326,1,0.011307208,1,0.008979967,1,-0.001541408,1,0.364837825,1,-0.462103337,1,0.547460198,1
0.095992066,-4.741773605,1,-2.469578981,1,-8.219735146,1,0.007112525,1,0.013546677,1,-0.002365745,1,0.364867032,1,-0.462060124,1,0.547466099,1
0.09999565,-4.764890194,1,-2.468665838,1,-8.234946251,1,0.005271044,1,0.010893928,1,-0.004166197,1,0.364887774,1,-0.462020904,1,0.547477007,1
0.10399539,-4.745649338,1,-2.451714277,1,-8.237603188,1,0.007139697,1,0.010600924,1,-0.000746084,1,0.364907563,1,-0.461972088,1,0.54749018,1
0.10799744,-4.720333576,1,-2.477455854,1,-8.225315094,1,0.005125888,1,0.006847336,1,-0.001157859,1,0.364930809,1,-0.461925626,1,0.547495663,1
0.111995645,-4.726971626,1,-2.465385437,1,-8.227957726,1,0.004470563,1,0.011256723,1,-0.004410247,1,0.364947915,1,-0.461878866,1,0.547511935,1
0.115995392,-4.731968403,1,-2.471911192,1,-8.218204498,1,0.008348485,1,0.014039045,1,-0.002380002,1,0.364973962,1,-0.461837411,1,0.547513843,1
0.119997181,-4.740804672,1,-2.424142361,1,-8.253890991,1,0.005590264,1,0.010841036,1,-0.001659172,1,0.364988029,1,-0.461787701,1,0.547532856,1
0.123994879,-4.737673759,1,-2.408063412,1,-8.263220787,1,0.00696511,1,0.01442809,1,-0.001517107,1,0.364999771,1,-0.461745441,1,0.547541559,1
0.127994627,-4.706690311,1,-2.399101496,1,-8.240399361,1,0.007417887,1,0.010846062,1,-0.003604078,1,0.365021944,1,-0.461702108,1,0.547550023,1
0.131996423,-4.759141445,1,-2.416334867,1,-8.276644707,1,0.010262543,1,0.009247512,1,-0.001609768,1,0.365044296,1,-0.46166116,1,0.547560394,1
0.135994375,-4.761363029,1,-2.429197788,1,-8.2616539,1,0.006969295,1,0.008489337,1,-0.001516016,1,0.365073323,1,-0.46163103,1,0.547564507,1
0.139994115,-4.71423912,1,-2.410017014,1,-8.270551682,1,0.012195402,1,0.009721842,1,-0.003550844,1,0.365103185,1,-0.461594969,1,0.547570586,1
0.143995643,-4.713885307,1,-2.420702696,1,-8.273221016,1,0.010377804,1,0.00704802,1,-0.001624991,1,0.365139365,1,-0.461554766,1,0.547570944,1
0.147993594,-4.718963146,1,-2.418416739,1,-8.267845154,1,0.007066126,1,0.007913827,1,-0.001719522,1,0.365174085,1,-0.461524576,1,0.547573149,1
0.151993349,-4.710543633,1,-2.466192722,1,-8.230151176,1,0.007865593,1,0.009372577,1,-0.001107025,1,0.365206122,1,-0.461492956,1,0.547580004,1
0.155995131,-4.741959572,1,-2.464112759,1,-8.2446661,1,0.008678161,1,0.005938754,1,-0.00438989,1,0.365237951,1,-0.461471051,1,0.547575831,1
0.159993082,-4.750243664,1,-2.480726719,1,-8.23943615,1,0.00590706,1,0.009142873,1,0.000813922,1,0.365271807,1,-0.46144703,1,0.547576785,1
0.163992837,-4.763457298,1,-2.470296621,1,-8.25506115,1,0.008184448,1,0.009815977,1,0.000338446,1,0.365291715,1,-0.461417139,1,0.547596216,1
0.167994887,-4.727591515,1,-2.460251331,1,-8.262960434,1,0.008290367,1,0.00855287,1,-0.000113373,1,0.365322292,1,-0.461393058,1,0.547613561,1
0.171993092,-4.750006676,1,-2.45199132,1,-8.2567873,1,0.007190452,1,0.006015508,1,1.89E-05,1,0.365342677,1,-0.461365372,1,0.547630489,1
0.175992578,-4.737037182,1,-2.499685287,1,-8.240561485,1,0.007900062,1,0.006211255,1,-0.000531767,1,0.365363419,1,-0.461343437,1,0.547641873,1
0.179994375,-4.737245083,1,-2.466957808,1,-8.252061844,1,0.003093545,1,0.009624862,1,-0.000302116,1,0.365379632,1,-0.461313605,1,0.54765594,1
0.183992326,-4.745447636,1,-2.419553757,1,-8.250912666,1,0.006077989,1,0.003014739,1,0.003297088,1,0.365399599,1,-0.4612903,1,0.547661841,1
0.187992066,-4.754374981,1,-2.442486525,1,-8.243914604,1,0.004445069,1,0.006051087,1,-0.000567294,1,0.36541611,1,-0.461271435,1,0.547679067,1
0.191993862,-4.748260021,1,-2.431085348,1,-8.23470974,1,0.006429383,1,0.008625002,1,0.00376119,1,0.365435749,1,-0.461247563,1,0.547686756,1
0.195991546,-4.739148617,1,-2.446925879,1,-8.285189629,1,0.005790915,1,0.003819707,1,-0.002355685,1,0.363538086,1,-0.462443292,1,0.54790622,1
0.199991301,-4.707583904,1,-2.461734772,1,-8.286841393,1,0.006376486,1,0.007510421,1,0.003994564,1,0.363548815,1,-0.462426305,1,0.547917604,1
0.203993082,-4.75842905,1,-2.462934732,1,-8.279509544,1,0.005053312,1,0.004246979,1,0.00196952,1,0.363568991,1,-0.462421477,1,0.547929883,1
0.20799078,-4.744218349,1,-2.479652166,1,-8.269135475,1,0.001069915,1,0.003469941,1,0.002703702,1,0.363575846,1,-0.462415129,1,0.547949374,1
0.211990535,-4.736750603,1,-2.485923767,1,-8.241087914,1,0.002434845,1,0.001710869,1,0.004070757,1,0.363584131,1,-0.462411135,1,0.547962904,1
0.215992838,-4.73171854,1,-2.450094223,1,-8.266586304,1,0.003260097,1,0.002566326,1,0.005321984,1,0.363590837,1,-0.462410927,1,0.547981858,1
0.219996423,-4.720454693,1,-2.430724859,1,-8.249819756,1,0.000813003,1,0.001513947,1,0.005327223,1,0.363588631,1,-0.462410688,1,0.54800415,1
0.223996162,-4.735470772,1,-2.453035355,1,-8.248338699,1,0.004579795,1,0.003058016,1,0.001892526,1,0.363587856,1,-0.462410092,1,0.548031688,1
0.227997959,-4.762907028,1,-2.460775852,1,-8.248963356,1,0.004439394,1,-0.000624009,1,0.007299091,1,0.363588572,1,-0.462418884,1,0.548050821,1
0.23199591,-4.739335537,1,-2.437898397,1,-8.254750252,1,0.00495667,1,0.001377728,1,0.001526999,1,0.363595963,1,-0.462417841,1,0.548068941,1
0.235995397,-4.760457516,1,-2.467155933,1,-8.234071732,1,0.001748869,1,0.0018088,1,0.007706732,1,0.363597304,1,-0.462426513,1,0.548090696,1
0.239997178,-4.742481709,1,-2.446106434,1,-8.25403595,1,0.002772887,1,0.003299877,1,0.003640214,1,0.363597125,1,-0.462433577,1,0.548119724,1
0.24399513,-4.730788708,1,-2.442800999,1,-8.234127998,1,0.001276869,1,0.001342022,1,0.00597097,1,0.363596022,1,-0.462426484,1,0.548150837,1
0.247994617,-4.738549232,1,-2.449589252,1,-8.247358322,1,0.002340835,1,0.002557982,1,0.007226229,1,0.363592327,1,-0.462435901,1,0.548177123,1
0.25199616,-4.760518551,1,-2.421987534,1,-8.250330925,1,0.002147991,1,0.00102981,1,0.005395041,1,0.363602281,1,-0.462434173,1,0.548201084,1
0.255994111,-4.703602791,1,-2.457004786,1,-8.239262581,1,0.005944658,1,0.001794196,1,0.00228744,1,0.363611996,1,-0.462437242,1,0.548218846,1
0.259993613,-4.725636005,1,-2.416779518,1,-8.24559021,1,0.002944569,1,-0.000553717,1,0.00895775,1,0.363619387,1,-0.462435633,1,0.548235118,1
0.263995379,-4.734364033,1,-2.427633524,1,-8.206723213,1,0.007457373,1,0.000863201,1,0.00326186,1,0.363630414,1,-0.462426662,1,0.548267841,1
0.267993331,-4.73123312,1,-2.448539257,1,-8.232556343,1,0.00414096,1,0.000441067,1,0.002869327,1,0.363640487,1,-0.46242404,1,0.548280954,1
0.271992832,-4.722533703,1,-2.431146622,1,-8.23958683,1,0.003024249,1,0.005360908,1,0.00585165,1,0.363648772,1,-0.46242106,1,0.548301816,1
0.275994629,-4.779033184,1,-2.460186243,1,-8.240531921,1,0.006454645,1,0.003853891,1,0.001816269,1,0.363656044,1,-0.462414414,1,0.548321784,1
0.279992312,-4.774791718,1,-2.432240009,1,-8.254812241,1,0.005352967,1,0.006763714,1,0.002388352,1,0.363673449,1,-0.462406784,1,0.548337877,1
0.283991814,-4.749464989,1,-2.397162437,1,-8.256882668,1,0.004713445,1,0.000405821,1,-0.000477294,1,0.363686323,1,-0.462391943,1,0.548352599,1
0.28799361,-4.799395084,1,-2.431874514,1,-8.234019279,1,0.008202709,1,0.002197574,1,0.005957898,1,0.363706768,1,-0.462386608,1,0.548369348,1
0.291991562,-4.750632763,1,-2.411521196,1,-8.248929024,1,0.004238336,1,0.003446906,1,0.002692655,1,0.363730907,1,-0.462377131,1,0.548387647,1
0.295991302,-4.720256805,1,-2.415025473,1,-8.256774902,1,0.005679707,1,0.004492976,1,0.000199305,1,0.363755405,1,-0.462363839,1,0.548404694,1
0.299993098,-4.733855724,1,-2.438144922,1,-8.246827126,1,0.008177748,1,0.006450644,1,0.005146879,1,0.363779724,1,-0.462354034,1,0.548421919,1
0.303990781,-4.752078056,1,-2.442499399,1,-8.24247551,1,0.007470513,1,0.004232857,1,0.001556564,1,0.363798469,1,-0.462345958,1,0.548445761,1
0.307990521,-4.731203079,1,-2.468609571,1,-8.270503998,1,0.008061057,1,0.000363637,1,0.003371627,1,0.363824904,1,-0.46233958,1,0.548468709,1
0.311992317,-4.767082691,1,-2.478217363,1,-8.234224319,1,0.007913247,1,0.005096561,1,0.003782769,1,0.36383909,1,-0.462335646,1,0.548493505,1
0.315990031,-4.716554642,1,-2.433202982,1,-8.254005432,1,0.007641728,1,0.004206586,1,0.002777109,1,0.363857895,1,-0.462318182,1,0.548507094,1
0.319989771,-4.751530647,1,-2.458971024,1,-8.234104156,1,0.005769627,1,0.004561516,1,0.003904157,1,0.363871008,1,-0.462314308,1,0.54853034,1
0.323991567,-4.761207581,1,-2.453674793,1,-8.256550789,1,0.003136945,1,0.006447317,1,0.003109966,1,0.363878667,1,-0.462303251,1,0.548551679,1
0.327989519,-4.743819714,1,-2.460457325,1,-8.248093605,1,0.003475574,1,0.00222745,1,0.003146729,1,0.363892883,1,-0.462293833,1,0.548571289,1
0.331989259,-4.742569447,1,-2.479369164,1,-8.249385834,1,0.00530653,1,0.001716506,1,0.005634031,1,0.36390385,1,-0.462294191,1,0.548596799,1
0.335991055,-4.736235619,1,-2.458428383,1,-8.237913132,1,0.002672168,1,0.001573368,1,0.005600562,1,0.363914162,1,-0.462291092,1,0.548618495,1
0.339989007,-4.747829437,1,-2.496718884,1,-8.253577232,1,0.003046945,1,-0.000783833,1,0.003034156,1,0.363914669,1,-0.462287009,1,0.548637629,1
0.343994886,-4.756165028,1,-2.471347809,1,-8.239468575,1,0.003605278,1,0.001370634,1,0.005602454,1,0.363914579,1,-0.462288886,1,0.548664093,1
0.347996682,-4.744023323,1,-2.446415186,1,-8.227690697,1,0.002000541,1,0.000449496,1,0.005235326,1,0.363917172,1,-0.462282687,1,0.548689544,1
0.351994872,-4.748364449,1,-2.444401503,1,-8.246661186,1,-0.000562342,1,0.002858439,1,0.002604397,1,0.363916397,1,-0.462287724,1,0.548709989,1
0.355994374,-4.743490219,1,-2.458953381,1,-8.243250847,1,0.002083484,1,0.004160306,1,0.006238934,1,0.363911659,1,-0.462290049,1,0.548733413,1
0.35999617,-4.77585268,1,-2.472688675,1,-8.225461006,1,0.000173299,1,0.002360576,1,0.002891929,1,0.363903761,1,-0.462295115,1,0.548755348,1
0.363994122,-4.770977974,1,-2.461054087,1,-8.26477623,1,0.00148293,1,-0.000853116,1,0.00549031,1,0.363907695,1,-0.462292969,1,0.54877454,1
0.367993593,-4.753172398,1,-2.398816347,1,-8.268014908,1,-0.001482388,1,0.002961125,1,0.004598092,1,0.363900691,1,-0.462301195,1,0.548797548,1
0.371995389,-4.72385025,1,-2.419881582,1,-8.277581215,1,0.004174224,1,-0.001686826,1,0.005516287,1,0.363903433,1,-0.462296575,1,0.548820317,1
0.375993103,-4.72874403,1,-2.400384665,1,-8.277341843,1,0.010219174,1,0.001611134,1,0.003121924,1,0.36391297,1,-0.462304592,1,0.548839688,1
0.379992574,-4.745295048,1,-2.466404676,1,-8.282361031,1,0.001413077,1,0.004883696,1,0.005686868,1,0.363917649,1,-0.462301701,1,0.548860431,1
0.383994371,-4.735569477,1,-2.437303782,1,-8.261538506,1,0.003727413,1,-0.000440017,1,0.007453039,1,0.363923252,1,-0.462303251,1,0.548883915,1
0.387992054,-4.746831894,1,-2.40659976,1,-8.242609978,1,0.004465149,1,0.003725884,1,0.0052244,1,0.363928407,1,-0.462309629,1,0.548906088,1
0.391991794,-4.703504562,1,-2.450745106,1,-8.229968071,1,0.00521094,1,0.002518038,1,0.005261636,1,0.363937378,1,-0.462308913,1,0.548931956,1
0.395993859,-4.731072903,1,-2.414360762,1,-8.2689991,1,0.004160899,1,0.002756685,1,0.006280075,1,0.363944083,1,-0.462306887,1,0.548958957,1
0.399992317,-4.721323013,1,-2.45210886,1,-8.25256443,1,0.008279683,1,-0.002629412,1,0.002440671,1,0.363959014,1,-0.462315708,1,0.548980236,1
0.403992057,-4.737666607,1,-2.440657616,1,-8.237835884,1,0.003351623,1,-0.000895706,1,0.004254554,1,0.363980055,1,-0.462323844,1,0.548995912,1
0.407993853,-4.739912033,1,-2.473356485,1,-8.230195999,1,0.008167328,1,0.00373829,1,0.004926764,1,0.36399737,1,-0.462328255,1,0.549016118,1
0.411991566,-4.795061111,1,-2.453210354,1,-8.249973297,1,0.008254727,1,-0.000113028,1,0.009512303,1,0.364019096,1,-0.462328017,1,0.549049318,1
0.415991306,-4.728832245,1,-2.394179583,1,-8.336080551,1,0.00622039,1,-0.000442565,1,0.005421329,1,0.364039004,1,-0.462329596,1,0.549074769,1
0.419993341,-4.777452946,1,-2.439463377,1,-8.220471382,1,0.006182169,1,0.002083865,1,0.006815053,1,0.364052057,1,-0.462343335,1,0.549101174,1
0.423991561,-4.772743702,1,-2.426105976,1,-8.260585785,1,0.007424169,1,-0.002908684,1,0.005429928,1,0.364070714,1,-0.462350816,1,0.549123466,1
0.427991301,-4.741860867,1,-2.445650578,1,-8.230071068,1,0.007159405,1,-0.004534251,1,0.004751862,1,0.364084542,1,-0.462364674,1,0.549142718,1
0.431993097,-4.752834797,1,-2.426477194,1,-8.277015686,1,0.009530508,1,-0.001286841,1,0.00179016,1,0.364106834,1,-0.462373853,1,0.549162805,1
0.435991049,-4.751538754,1,-2.455669403,1,-8.245758057,1,0.007538902,1,-0.000562448,1,0.007687932,1,0.364123642,1,-0.462380618,1,0.549183607,1
0.43999052,-4.800508499,1,-2.419021368,1,-8.24503231,1,0.009912658,1,0.001743694,1,0.002190194,1,0.364134848,1,-0.46238032,1,0.549201906,1
0.443992317,-4.777146339,1,-2.452451706,1,-8.261194229,1,0.004557539,1,0.003123841,1,0.005885475,1,0.364155948,1,-0.462380499,1,0.54922241,1
0.447990268,-4.760897636,1,-2.444613457,1,-8.19329834,1,0.00940349,1,0.00033652,1,0.005194772,1,0.362228811,1,-0.463665068,1,0.549796164,1
0.451990008,-4.721318722,1,-2.468120337,1,-8.219443321,1,0.004018501,1,0.005784536,1,0.001619874,1,0.362295032,1,-0.463585019,1,0.549483955,1
0.455992073,-4.738892078,1,-2.475247145,1,-8.234822273,1,0.001259432,1,0.003372924,1,0.000970923,1,0.362312376,1,-0.463574648,1,0.549495995,1
0.459990025,-4.759150505,1,-2.433237314,1,-8.25661087,1,0.004685067,1,0.002511765,1,0.004459045,1,0.362322688,1,-0.46356383,1,0.549517095,1
0.463995904,-4.76304388,1,-2.405980349,1,-8.24182415,1,0.003459711,1,0.004055674,1,0.002358428,1,0.36232394,1,-0.463560462,1,0.549541473,1
0.467997938,-4.769016743,1,-2.417964458,1,-8.247611046,1,0.0025248,1,0.006890272,1,0.004971021,1,0.362332106,1,-0.463553339,1,0.549560189,1
0.471996158,-4.728296757,1,-2.415168285,1,-8.220861435,1,0.005685935,1,-0.001629058,1,0.004831501,1,0.362346143,1,-0.463543952,1,0.549577296,1
0.47599566,-4.751543522,1,-2.431714296,1,-8.261728287,1,0.007275481,1,0.006933569,1,-0.000755412,1,0.362362385,1,-0.46353212,1,0.549592376,1
0.479997963,-4.741436005,1,-2.412018538,1,-8.231292725,1,0.006267592,1,0.005097867,1,0.005282289,1,0.362384617,1,-0.463516474,1,0.549597919,1
0.483996421,-4.75001049,1,-2.430576801,1,-8.260494232,1,0.00673187,1,0.000268189,1,-0.000185639,1,0.362401783,1,-0.463510662,1,0.54961133,1
0.487996161,-4.744397163,1,-2.435991049,1,-8.25078392,1,0.009669552,1,0.006128007,1,0.000888028,1,0.362426639,1,-0.463498622,1,0.549618661,1
0.491997957,-4.753454208,1,-2.432970285,1,-8.277059555,1,0.005445848,1,-7.48E-05,1,0.000672233,1,0.362454355,1,-0.463490367,1,0.549632609,1
0.495995909,-4.764772415,1,-2.457697392,1,-8.251991272,1,0.010885222,1,0.002479302,1,0.005368154,1,0.362472087,1,-0.463481575,1,0.549649775,1
0.499995649,-4.759662628,1,-2.468485594,1,-8.276936531,1,0.007674229,1,0.004172262,1,0.001222016,1,0.362500787,1,-0.463476747,1,0.549665987,1
0.503997445,-4.750430584,1,-2.457342386,1,-8.215965271,1,0.00799096,1,0.005242771,1,0.001829392,1,0.362520128,1,-0.463468403,1,0.54968065,1
0.507995129,-4.75899601,1,-2.468334675,1,-8.269277573,1,0.00718376,1,0.00096106,1,0.000796872,1,0.36253953,1,-0.463467389,1,0.549698591,1
0.5119946,-4.730149269,1,-2.424987793,1,-8.24388504,1,0.004713025,1,0.005805513,1,0.004283721,1,0.362564504,1,-0.46345523,1,0.549709499,1
0.515996397,-4.786957741,1,-2.44631052,1,-8.2602911,1,0.00641841,1,0.00214798,1,0.004263025,1,0.362577677,1,-0.463450551,1,0.54973644,1
0.519994617,-4.732014656,1,-2.441042423,1,-8.241984367,1,0.005735646,1,0.003758699,1,0.004117467,1,0.362588614,1,-0.463445514,1,0.54976368,1
0.523994386,-4.771361351,1,-2.427561283,1,-8.236422539,1,0.00655498,1,0.004518702,1,0.002595544,1,0.362607032,1,-0.463434905,1,0.549774766,1
0.527995884,-4.744827271,1,-2.397747278,1,-8.257627487,1,0.007026943,1,0.002465146,1,0.001761302,1,0.362624228,1,-0.463429928,1,0.549786806,1
0.531993866,-4.764156342,1,-2.39845705,1,-8.255484581,1,0.006186509,1,0.001547006,1,0.003592344,1,0.362641722,1,-0.463418216,1,0.549798846,1
0.535993338,-4.752479553,1,-2.402593374,1,-8.237430573,1,0.007682675,1,0.005824675,1,0.000146634,1,0.362663746,1,-0.46340248,1,0.549810767,1
0.539994895,-4.746674061,1,-2.421861887,1,-8.247117996,1,0.008124456,1,0.00281565,1,-0.001049283,1,0.362691939,1,-0.463386744,1,0.549822032,1
0.543992817,-4.74669981,1,-2.409477472,1,-8.239805222,1,0.006093661,1,0.009040696,1,-5.70E-05,1,0.362719238,1,-0.463363469,1,0.549839318,1
0.547992349,-4.743942261,1,-2.425168753,1,-8.237034798,1,0.010882698,1,0.00781528,1,-0.001734522,1,0.362744063,1,-0.463337153,1,0.54985255,1
0.551994622,-4.728977203,1,-2.453204155,1,-8.217051506,1,0.006441846,1,0.007868852,1,0.003728617,1,0.362769306,1,-0.463304192,1,0.549868345,1
0.555992842,-4.742555141,1,-2.471740007,1,-8.246929169,1,0.008264448,1,0.004693472,1,0.001649073,1,0.362795115,1,-0.463288158,1,0.549885452,1
0.559992313,-4.746799469,1,-2.476746082,1,-8.235743523,1,0.005210907,1,0.004206287,1,0.001856412,1,0.362817347,1,-0.463267922,1,0.549904168,1
0.563994646,-4.771417618,1,-2.480581522,1,-8.215579033,1,0.00689718,1,0.00769024,1,-0.002082072,1,0.362837911,1,-0.463241518,1,0.549910724,1
0.567992806,-4.773243904,1,-2.499033689,1,-8.230999947,1,0.006996203,1,0.007679823,1,4.76E-05,1,0.362863421,1,-0.463211775,1,0.54992497,1
0.571992338,-4.738538265,1,-2.439481497,1,-8.243878365,1,0.006799674,1,0.006192511,1,-0.001250733,1,0.362887204,1,-0.463176906,1,0.54993695,1
0.575994134,-4.717131615,1,-2.4405725,1,-8.230302811,1,0.009267398,1,0.009471509,1,0.002175963,1,0.36290741,1,-0.463149816,1,0.549950302,1
0.579992056,-4.745525837,1,-2.409036636,1,-8.254076004,1,0.008381851,1,0.012450061,1,-0.004348353,1,0.362924278,1,-0.46311444,1,0.54996556,1
0.583997965,-4.750449181,1,-2.40593648,1,-8.25935936,1,0.00699431,1,0.010603886,1,0.002042963,1,0.36294809,1,-0.463070393,1,0.54997921,1
0.588,-4.764081955,1,-2.419214964,1,-8.269685745,1,0.008702946,1,0.010170186,1,-0.001436593,1,0.36297518,1,-0.463035285,1,0.549989641,1
0.591997981,-4.732856274,1,-2.398164749,1,-8.2586689,1,0.009507382,1,0.009449133,1,0.003019364,1,0.363000035,1,-0.462997913,1,0.550008178,1
0.595997691,-4.741831779,1,-2.43680644,1,-8.241696358,1,0.010219065,1,0.008724838,1,0.000133462,1,0.363028109,1,-0.462963015,1,0.550021887,1
0.600000024,-4.733934402,1,-2.438423634,1,-8.228111267,1,0.009819468,1,0.005698173,1,0.002704932,1,0.363064051,1,-0.462939084,1,0.550029576,1
0.603998184,-4.745131493,1,-2.434638739,1,-8.252799988,1,0.005257138,1,0.004885733,1,-1.62E-06,1,0.363095522,1,-0.462910682,1,0.550037622,1
0.607997954,-4.747395039,1,-2.428007841,1,-8.23991394,1,0.009581954,1,0.006443272,1,-1.87E-05,1,0.363120914,1,-0.462890089,1,0.550048947,1
0.61199975,-4.73597765,1,-2.452117205,1,-8.280140877,1,0.005608656,1,0.002727404,1,0.001270459,1,0.363150835,1,-0.462870359,1,0.550061941,1
0.615997672,-4.756201267,1,-2.411114931,1,-8.250812531,1,0.00915962,1,0.00434036,1,-0.003252066,1,0.36317879,1,-0.462847948,1,0.550068676,1
0.619997442,-4.771067142,1,-2.427085876,1,-8.256943703,1,0.012282716,1,0.003615869,1,-0.001427075,1,0.363217354,1,-0.462828934,1,0.550070822,1
0.623999238,-4.759798527,1,-2.467450142,1,-8.253383636,1,0.010683632,1,0.005897701,1,-0.001682271,1,0.363254637,1,-0.462810218,1,0.55007273,1
0.62799716,-4.768325329,1,-2.454216957,1,-8.258262634,1,0.006914443,1,0.002168458,1,-0.00121334,1,0.363286495,1,-0.462799281,1,0.550079703,1
0.631996691,-4.718502998,1,-2.495417356,1,-8.226194382,1,0.008529231,1,0.006611889,1,0.001686481,1,0.36331448,1,-0.462780684,1,0.550089717,1
0.635998487,-4.726771832,1,-2.503068209,1,-8.25835228,1,0.009645864,1,0.000947862,1,0.000384605,1,0.363347322,1,-0.462773472,1,0.550096035,1
0.639996648,-4.742937565,1,-2.484575033,1,-8.239555359,1,0.002471289,1,0.001568364,1,-0.001832207,1,0.363361776,1,-0.462763965,1,0.550116897,1
0.643996179,-4.739539146,1,-2.473552227,1,-8.22938633,1,0.005838263,1,0.001096506,1,0.003255062,1,0.363378644,1,-0.462756634,1,0.550124884,1
0.647997975,-4.721978664,1,-2.461091757,1,-8.251213074,1,0.009204461,1,-0.000343738,1,0.00285794,1,0.363398314,1,-0.462760925,1,0.550146043,1
0.651995897,-4.740809917,1,-2.436666012,1,-8.272674561,1,0.008072032,1,0.001093853,1,0.004061644,1,0.363415003,1,-0.46275723,1,0.550161362,1
0.655995369,-4.740171432,1,-2.466895819,1,-8.263171196,1,0.002261446,1,0.003666372,1,0.007563891,1,0.363419116,1,-0.462752342,1,0.550186396,1
0.659997463,-4.744900703,1,-2.462972879,1,-8.240876198,1,0.00357168,1,0.001784444,1,0.003096986,1,0.363431871,1,-0.462754279,1,0.550206184,1
0.663995385,-4.760344982,1,-2.470676661,1,-8.257034302,1,0.004600916,1,0.001793328,1,0.005317994,1,0.363437861,1,-0.462752223,1,0.550229192,1
0.667994857,-4.769054413,1,-2.467606068,1,-8.213261604,1,0.005356085,1,0.002712683,1,0.002888288,1,0.363454163,1,-0.462748796,1,0.550244212,1
0.671996653,-4.708393097,1,-2.432762623,1,-8.271399498,1,0.00142422,1,0.004060175,1,0.005767105,1,0.363466024,1,-0.462742627,1,0.550258398,1
0.675994635,-4.749940872,1,-2.394328833,1,-8.24922657,1,0.005091465,1,0.002505441,1,0.003151977,1,0.363475144,1,-0.462734103,1,0.550278485,1
0.679994345,-4.722946167,1,-2.450282574,1,-8.273306847,1,0.006910917,1,0.002456633,1,0.002714246,1,0.363500059,1,-0.462730914,1,0.55029273,1
0.683996439,-4.702697754,1,-2.449087143,1,-8.177618027,1,0.011066686,1,0.008973032,1,0.002511532,1,0.363526314,1,-0.462722659,1,0.55031085,1
0.687994599,-4.80698967,1,-2.435622454,1,-8.2846632,1,0.008968893,1,0.001281455,1,0.001826183,1,0.363557816,1,-0.462710202,1,0.550326586,1
0.691994905,-4.768968582,1,-2.405614614,1,-8.272699356,1,0.007497901,1,0.004481419,1,0.008520181,1,0.363592505,1,-0.462708145,1,0.550343454,1
0.695996702,-4.712983131,1,-2.447101116,1,-8.226457596,1,0.005689281,1,0.000556676,1,0.003824407,1,0.361756921,1,-0.463901043,1,0.550587535,1
0.699994385,-4.710613728,1,-2.428976774,1,-8.262756348,1,0.009854188,1,0.001747341,1,0.001342502,1,0.361791074,1,-0.463898927,1,0.550596058,1
0.704000235,-4.696612358,1,-2.483319998,1,-8.213946342,1,0.008386668,1,-0.004728746,1,0.004371868,1,0.361822963,1,-0.463901967,1,0.550606072,1
0.708002031,-4.758774757,1,-2.419644594,1,-8.263375282,1,0.004918446,1,-0.001435989,1,0.003230963,1,0.36183846,1,-0.463905901,1,0.550624967,1
0.712000251,-4.742164135,1,-2.435578346,1,-8.258200645,1,0.008825645,1,0.004731851,1,0.004598931,1,0.361875176,1,-0.463910282,1,0.550634861,1
0.715999722,-4.755177021,1,-2.452405453,1,-8.246192932,1,0.00617636,1,-0.001706586,1,0.000749107,1,0.361900747,1,-0.463907838,1,0.550657451,1
0.720001519,-4.742185593,1,-2.480451345,1,-8.263273239,1,0.006180365,1,-0.001567509,1,0.003633302,1,0.36192587,1,-0.463914454,1,0.550669968,1
0.723999739,-4.733268261,1,-2.502072811,1,-8.222005844,1,0.006411897,1,0.001058471,1,0.004207608,1,0.361949503,1,-0.46391046,1,0.550687194,1
0.727999508,-4.749287128,1,-2.489439964,1,-8.256176949,1,0.001901967,1,0.002956396,1,0.002165275,1,0.361964166,1,-0.463909805,1,0.550703526,1
0.732001305,-4.777368546,1,-2.493008137,1,-8.209691048,1,0.003616389,1,0.001085997,1,0.004818922,1,0.361965537,1,-0.463912487,1,0.550722897,1
0.735999227,-4.75488472,1,-2.472202539,1,-8.221341133,1,0.0060119,1,0.002511902,1,0.005303874,1,0.36198023,1,-0.463912547,1,0.550743401,1
0.739998698,-4.749423981,1,-2.410747766,1,-8.252127647,1,0.000594677,1,0.002184712,1,0.003951515,1,0.361988068,1,-0.463910699,1,0.550766408,1
0.744000494,-4.73501873,1,-2.419713259,1,-8.224804878,1,0.002688891,1,0.001002363,1,0.004326795,1,0.36199379,1,-0.463910937,1,0.550781548,1
0.747998476,-4.753642082,1,-2.40309906,1,-8.250535011,1,0.005199004,1,0.002142914,1,0.000796205,1,0.362006605,1,-0.463913649,1,0.550800622,1
0.751997948,-4.777157784,1,-2.434857845,1,-8.225473404,1,0.005198171,1,-0.000133035,1,0.005902471,1,0.362011254,1,-0.463917047,1,0.550820112,1
0.755999744,-4.761167049,1,-2.433073044,1,-8.250199318,1,0.00764802,1,0.004636153,1,0.005369597,1,0.362026632,1,-0.463917226,1,0.550843954,1
0.759997427,-4.766847134,1,-2.419543743,1,-8.278783798,1,0.00632532,1,0.000946019,1,0.004140448,1,0.362045228,1,-0.463916272,1,0.550861716,1
0.763996899,-4.729112625,1,-2.408001423,1,-8.241362572,1,0.00558625,1,0.003602152,1,0.00369149,1,0.36206013,1,-0.463908643,1,0.550882638,1
0.767998695,-4.779382229,1,-2.448099613,1,-8.251138687,1,0.005123422,1,-0.001087165,1,0.00137056,1,0.36207664,1,-0.463916928,1,0.550901473,1
0.771996677,-4.733244419,1,-2.444048643,1,-8.251680374,1,0.006197835,1,0.000275988,1,0.000408687,1,0.362096965,1,-0.463924408,1,0.550911427,1
0.775996387,-4.765299797,1,-2.420182943,1,-8.265884399,1,0.008283827,1,0.004599628,1,0.002599203,1,0.362116575,1,-0.463923186,1,0.550928891,1
0.779998183,-4.760783672,1,-2.455189466,1,-8.219519615,1,0.008107749,1,-0.002271313,1,0.005298157,1,0.362134576,1,-0.463929862,1,0.550945342,1
0.783995926,-4.682569504,1,-2.466157198,1,-8.217079163,1,0.007562521,1,-0.001846233,1,0.006807425,1,0.362155735,1,-0.46393171,1,0.550961971,1
0.787995636,-4.805743217,1,-2.384122372,1,-8.268062592,1,0.008839517,1,-0.004595579,1,0.002201463,1,0.36217922,1,-0.463950187,1,0.550980389,1
0.791997433,-4.806063175,1,-2.393820763,1,-8.196066856,1,0.004889163,1,0.003711933,1,0.005264434,1,0.362200677,1,-0.463953316,1,0.551000178,1
0.795995116,-4.741326332,1,-2.413636208,1,-8.253236771,1,0.012817821,1,0.003762678,1,0.001922219,1,0.3622334,1,-0.463935226,1,0.551019847,1
0.799994886,-4.76131916,1,-2.448245049,1,-8.273427963,1,0.007407719,1,-0.000272071,1,0.003292202,1,0.362263143,1,-0.463934958,1,0.551029742,1
0.803996682,-4.753088951,1,-2.426878929,1,-8.232340813,1,0.008550608,1,0.001882031,1,0.000340115,1,0.362290919,1,-0.463930726,1,0.551036656,1
0.807994604,-4.749916553,1,-2.418981552,1,-8.248354912,1,0.008645942,1,0.001844575,1,0.003245697,1,0.36231184,1,-0.46393168,1,0.551051617,1
0.811994135,-4.772217751,1,-2.486556768,1,-8.243396759,1,0.001320026,1,0.001272404,1,0.002860407,1,0.362330437,1,-0.46392554,1,0.551062703,1
0.815995932,-4.764732361,1,-2.481703997,1,-8.225150108,1,0.005047098,1,-0.001504161,1,0.000104475,1,0.362353623,1,-0.463920474,1,0.55106777,1
0.819993854,-4.727423191,1,-2.438148499,1,-8.211109161,1,0.003971654,1,0.005483252,1,0.00325914,1,0.362367451,1,-0.463914365,1,0.551089883,1
0.823999465,-4.717875004,1,-2.464582443,1,-8.242921829,1,0.002862113,1,0.00401768,1,0.002711492,1,0.362385333,1,-0.463904113,1,0.551107347,1
0.828001261,-4.752639771,1,-2.447012186,1,-8.259208679,1,0.012049797,1,0.003011178,1,-0.001742276,1,0.362399131,1,-0.463895828,1,0.551124454,1
0.831999242,-4.774921894,1,-2.417667389,1,-8.266406059,1,0.005974652,1,0.006818235,1,0.002788053,1,0.362435222,1,-0.463876486,1,0.551133931,1
0.835998714,-4.794148922,1,-2.403919935,1,-8.251301765,1,0.007818073,1,0.006117881,1,0.00356574,1,0.362451226,1,-0.463857472,1,0.55115658,1
0.84000051,-4.784105778,1,-2.394100189,1,-8.274856567,1,0.007263097,1,0.002099025,1,0.000296496,1,0.362478733,1,-0.463839352,1,0.551169872,1
0.843998194,-4.776396751,1,-2.408619404,1,-8.240012169,1,0.013423106,1,0.009950696,1,-0.000555611,1,0.36250788,1,-0.463824272,1,0.551187873,1
0.847997725,-4.734169006,1,-2.447211742,1,-8.228964806,1,0.009096443,1,0.00618344,1,0.000598798,1,0.36253494,1,-0.463796765,1,0.551193058,1
0.851999462,-4.778301239,1,-2.434782743,1,-8.239979744,1,0.005008857,1,0.008046855,1,-0.001575865,1,0.362568676,1,-0.463774413,1,0.551203489,1
0.855997443,-4.782998562,1,-2.420937538,1,-8.215615273,1,0.010160455,1,0.005215785,1,0.002591816,1,0.362596333,1,-0.463753074,1,0.551214576,1
0.859996915,-4.742028713,1,-2.428422928,1,-8.237426758,1,0.010318583,1,0.006258825,1,-0.00019473,1,0.362629116,1,-0.46373269,1,0.551231384,1
0.863998711,-4.731789589,1,-2.409893751,1,-8.243825912,1,0.013945477,1,0.008015796,1,0.001317606,1,0.362673163,1,-0.463716716,1,0.551238596,1
0.867996395,-4.743193626,1,-2.423971891,1,-8.248688698,1,0.012681627,1,0.005240468,1,0.003443827,1,0.362710595,1,-0.463689446,1,0.551248193,1
0.871996164,-4.741464138,1,-2.433066607,1,-8.225166321,1,0.009637422,1,0.00739978,1,-0.003759233,1,0.362755179,1,-0.46366632,1,0.551249981,1
0.875997961,-4.78727293,1,-2.439614534,1,-8.221815109,1,0.009248277,1,0.008254876,1,0.000725298,1,0.362796605,1,-0.463637531,1,0.551258266,1
0.879995883,-4.77437973,1,-2.471316338,1,-8.233682632,1,0.009743894,1,0.006407123,1,-0.004853175,1,0.362836659,1,-0.463606358,1,0.551267266,1
0.883995652,-4.7541008,1,-2.448945522,1,-8.252396584,1,0.013017063,1,0.007504457,1,-0.002038472,1,0.36288178,1,-0.463579446,1,0.551265299,1
0.887997448,-4.768631935,1,-2.446503401,1,-8.233265877,1,0.011481286,1,0.008365776,1,-0.002681296,1,0.36292237,1,-0.463546932,1,0.551274657,1
0.891995132,-4.766031265,1,-2.456012249,1,-8.244148254,1,0.010996388,1,0.008087361,1,-0.002485472,1,0.36296609,1,-0.463508666,1,0.551274896,1
0.895994604,-4.769066334,1,-2.456620693,1,-8.234534264,1,0.009078383,1,0.009519897,1,0.000623766,1,0.363005102,1,-0.463479161,1,0.551281869,1
0.8999964,-4.770746231,1,-2.473055601,1,-8.232232094,1,0.005059705,1,0.011567198,1,-0.002392513,1,0.363037407,1,-0.463437766,1,0.551293612,1
0.903994381,-4.7299366,1,-2.479891539,1,-8.269740105,1,0.007092046,1,0.009802537,1,-0.001444169,1,0.363063514,1,-0.463398814,1,0.551294684,1
0.907993853,-4.742972851,1,-2.467494488,1,-8.215913773,1,0.006546195,1,0.010969968,1,-0.001438088,1,0.363085747,1,-0.463351458,1,0.551308215,1
0.911995649,-4.748763561,1,-2.44237566,1,-8.231356621,1,0.005305228,1,0.012003021,1,-0.003741625,1,0.363107324,1,-0.463313282,1,0.551316082,1
0.915993571,-4.733109951,1,-2.438350677,1,-8.245203972,1,0.007964371,1,0.008703994,1,-0.004487679,1,0.363130599,1,-0.463271707,1,0.551320851,1
0.919993103,-4.74252224,1,-2.451586485,1,-8.267346382,1,0.008798048,1,0.008733515,1,0.000993873,1,0.363162458,1,-0.463240862,1,0.551330805,1
0.923994899,-4.721357822,1,-2.438332319,1,-8.257518768,1,0.008425847,1,0.009495582,1,0.002462057,1,0.363181531,1,-0.463210315,1,0.551348388,1
0.927992821,-4.77388525,1,-2.440591335,1,-8.26812458,1,0.007388494,1,0.005651515,1,-0.001961745,1,0.363200665,1,-0.463178784,1,0.551360846,1
0.931992292,-4.767388344,1,-2.478760719,1,-8.240265846,1,0.004307463,1,0.00822003,1,0.000641121,1,0.363217413,1,-0.463152528,1,0.551368415,1
0.935994387,-4.739052296,1,-2.438188553,1,-8.274672508,1,0.003812097,1,0.00874101,1,0.0009977,1,0.363236398,1,-0.463120311,1,0.551373482,1
0.939992547,-4.758833408,1,-2.41089797,1,-8.25527668,1,0.005425811,1,0.00622757,1,-0.000899944,1,0.363252282,1,-0.463095546,1,0.551384568,1
0.943998218,-4.778642654,1,-2.432924271,1,-8.269556046,1,0.006264549,1,0.006332688,1,-0.000652318,1,0.361418188,1,-0.46432364,1,0.551935971,1
0.948000014,-4.760395527,1,-2.401172638,1,-8.249609947,1,0.007498303,1,0.013148676,1,-0.00170984,1,0.36149776,1,-0.464213133,1,0.551604509,1
0.951997936,-4.731566906,1,-2.389488935,1,-8.277320862,1,0.012526904,1,0.002244422,1,-0.0058745,1,0.36153388,1,-0.464184254,1,0.5516029,1
0.955997467,-4.767305374,1,-2.440349817,1,-8.242470741,1,0.011442326,1,0.006793457,1,-0.003959464,1,0.361584187,1,-0.464159548,1,0.551591635,1
0.959999204,-4.730079651,1,-2.477080822,1,-8.217999458,1,0.012507554,1,0.003686784,1,-0.001539235,1,0.361631036,1,-0.464136362,1,0.551601171,1
0.963996947,-4.740824699,1,-2.421545744,1,-8.23797226,1,0.010882359,1,0.004387896,1,-0.001628349,1,0.361670971,1,-0.464109868,1,0.551599205,1
0.967996657,-4.778079987,1,-2.438779116,1,-8.24382019,1,0.008173483,1,0.008783285,1,-0.002160039,1,0.361706853,1,-0.464081883,1,0.551605165,1
0.971998453,-4.760077,1,-2.449621916,1,-8.22591877,1,0.009230194,1,0.007267912,1,-0.001657359,1,0.361747891,1,-0.464054644,1,0.55159831,1
0.975996137,-4.759629726,1,-2.459264517,1,-8.207448006,1,0.009121496,1,0.009768236,1,-0.007450409,1,0.36178726,1,-0.464017063,1,0.551597893,1
0.979995668,-4.749222755,1,-2.440745831,1,-8.212032318,1,0.00931922,1,0.009364417,1,-0.00616652,1,0.361828268,1,-0.463974059,1,0.551592767,1
0.983997464,-4.767816544,1,-2.427430391,1,-8.187459946,1,0.014238779,1,0.01129297,1,-0.006533786,1,0.361858934,1,-0.463927865,1,0.551593184,1
0.987995148,-4.745236397,1,-2.390067577,1,-8.225587845,1,0.013155349,1,0.011338077,1,-0.002944085,1,0.361912817,1,-0.46387583,1,0.551587522,1
0.991994858,-4.763128757,1,-2.382809162,1,-8.252767563,1,0.014094384,1,0.011503099,1,-0.004913391,1,0.361966342,1,-0.463819981,1,0.551581264,1
0.995996654,-4.743821144,1,-2.416039467,1,-8.228125572,1,0.012397705,1,0.011860427,1,-0.007400814,1,0.362025023,1,-0.463772804,1,0.551576257,1
0.999994636,-4.733129978,1,-2.387834072,1,-8.221381187,1,0.013517415,1,0.014328407,1,-0.010883022,1,0.362079561,1,-0.463707596,1,0.551568687,1
1.003994107,-4.779080868,1,-2.442599297,1,-8.24284935,1,0.015226905,1,0.018328134,1,-0.004171879,1,0.362142563,1,-0.46364215,1,0.551559269,1
1.007995963,-4.726052761,1,-2.441832304,1,-8.241099358,1,0.017756745,1,0.014378985,1,-0.008316847,1,0.362208307,1,-0.463578939,1,0.551553488,1
1.011993885,-4.752839088,1,-2.44173336,1,-8.243082047,1,0.01636567,1,0.012598095,1,-0.005340562,1,0.362273633,1,-0.463516861,1,0.551542699,1
1.015993357,-4.713431835,1,-2.4933815,1,-8.256299973,1,0.012174529,1,0.014216876,1,-0.004257334,1,0.362325311,1,-0.463452756,1,0.551541865,1
1.019995093,-4.697081566,1,-2.463139057,1,-8.239404678,1,0.012037661,1,0.012363294,1,-0.003472937,1,0.362385839,1,-0.463404626,1,0.55153805,1
1.023993134,-4.708638191,1,-2.496590137,1,-8.228475571,1,0.011119518,1,0.015127605,1,-0.007714672,1,0.362426788,1,-0.463350147,1,0.551535308,1
1.027992606,-4.744074821,1,-2.47166419,1,-8.262043953,1,0.013060628,1,0.011352424,1,-0.001901995,1,0.362480164,1,-0.463297069,1,0.551532567,1
1.031994343,-4.742785454,1,-2.470928431,1,-8.25739193,1,0.012660434,1,0.012358402,1,-0.007906708,1,0.362530589,1,-0.463245124,1,0.551529348,1
1.035992265,-4.756388187,1,-2.492142916,1,-8.246424675,1,0.011929048,1,0.012139011,1,-0.007312089,1,0.362582445,1,-0.46319437,1,0.551528335,1
1.039991856,-4.72676754,1,-2.481148958,1,-8.28942585,1,0.013578868,1,0.013219245,1,-0.003594154,1,0.36262551,1,-0.463140756,1,0.551532388,1
1.043993831,-4.718516827,1,-2.446617603,1,-8.244239807,1,0.010768713,1,0.00994303,1,-0.001099793,1,0.362668097,1,-0.463092923,1,0.551537693,1
1.047991753,-4.736751556,1,-2.478364229,1,-8.264793396,1,0.012359679,1,0.006686428,1,-0.005265945,1,0.362713456,1,-0.463046342,1,0.551534712,1
1.051991343,-4.773763657,1,-2.434767485,1,-8.24696064,1,0.011547972,1,0.014107775,1,-0.006811372,1,0.362769186,1,-0.463003904,1,0.551523089,1
1.05599308,-4.741392136,1,-2.460936785,1,-8.2695961,1,0.007290717,1,0.009467181,1,-0.004288089,1,0.362817466,1,-0.462954402,1,0.551522017,1
1.059991002,-4.733707428,1,-2.446490765,1,-8.260955811,1,0.015071505,1,0.010310174,1,-0.006692908,1,0.36286059,1,-0.462911129,1,0.551513553,1
1.063997149,-4.70250082,1,-2.478380919,1,-8.244996071,1,0.009795127,1,0.007830574,1,-0.000830835,1,0.362908602,1,-0.462868959,1,0.551507115,1
1.067999244,-4.735005856,1,-2.464071035,1,-8.258856773,1,0.014797601,1,0.008224912,1,-0.004757655,1,0.36295861,1,-0.462836891,1,0.55150944,1
1.071997166,-4.743972778,1,-2.502137184,1,-8.242281914,1,0.008167112,1,0.005692257,1,-0.002338212,1,0.363001883,1,-0.462809443,1,0.551503778,1
1.075996876,-4.753501892,1,-2.469021559,1,-8.249277115,1,0.013496736,1,0.006266551,1,-0.001649262,1,0.363041341,1,-0.462781668,1,0.551502526,1
1.079998732,-4.741663456,1,-2.483904362,1,-8.260868073,1,0.008321403,1,0.006820856,1,-0.004614159,1,0.363090158,1,-0.462753922,1,0.551489532,1
1.083996415,-4.749533653,1,-2.445864201,1,-8.260168076,1,0.005273255,1,0.005438401,1,-0.003437594,1,0.363128453,1,-0.462724447,1,0.551477849,1
1.087996125,-4.723027229,1,-2.436523676,1,-8.234387398,1,0.010703478,1,0.00899853,1,-0.003325222,1,0.363171399,1,-0.462691665,1,0.551476598,1
1.091997981,-4.750485897,1,-2.451642036,1,-8.249948502,1,0.011146974,1,0.010450082,1,-0.006573009,1,0.363216341,1,-0.462652415,1,0.551472962,1
1.095995903,-4.747918129,1,-2.418330669,1,-8.266434669,1,0.01075412,1,0.008285747,1,-0.002953376,1,0.363259882,1,-0.462613702,1,0.551474631,1
1.099995375,-4.735114574,1,-2.441671133,1,-8.227941513,1,0.012214392,1,0.010407645,1,-0.003109769,1,0.363311768,1,-0.462572902,1,0.551467955,1
1.103996873,-4.75257349,1,-2.455561399,1,-8.227454185,1,0.008668771,1,0.005605388,1,-0.004688375,1,0.363359183,1,-0.462532699,1,0.551462114,1
1.107994914,-4.733721733,1,-2.460731745,1,-8.239095688,1,0.014934452,1,0.011225728,1,-0.003980789,1,0.363401532,1,-0.462499857,1,0.551461637,1
1.111994386,-4.762127876,1,-2.443173647,1,-8.254894257,1,0.009412044,1,0.006917223,1,-0.005717846,1,0.363453269,1,-0.462464035,1,0.551451564,1
1.115995884,-4.73077631,1,-2.44375515,1,-8.235338211,1,0.010821166,1,0.007612601,1,-0.005552715,1,0.363496274,1,-0.462431848,1,0.551451504,1
1.119993806,-4.771082878,1,-2.459441185,1,-8.243229866,1,0.012275573,1,0.00934628,1,-0.003893503,1,0.363539279,1,-0.462391496,1,0.551452577,1
1.123993397,-4.772748947,1,-2.457567453,1,-8.233784676,1,0.009700589,1,0.007733155,1,-0.003493073,1,0.363580525,1,-0.462353259,1,0.551450193,1
1.127995133,-4.740596294,1,-2.417276621,1,-8.211380959,1,0.011447139,1,0.01103084,1,-0.005946939,1,0.363626242,1,-0.46230948,1,0.551450014,1
1.131993055,-4.748795986,1,-2.387350559,1,-8.231861115,1,0.011867659,1,0.011691939,1,-0.003301217,1,0.363670468,1,-0.462259501,1,0.551454306,1
1.135992527,-4.745563507,1,-2.410955191,1,-8.252473831,1,0.013239903,1,0.014085101,1,-0.008246472,1,0.363720894,1,-0.462201715,1,0.551452577,1
1.139994383,-4.747376919,1,-2.380151272,1,-8.219927788,1,0.014482403,1,0.011207833,1,-0.006356253,1,0.363784015,1,-0.462143987,1,0.551444769,1
1.143992305,-4.747885227,1,-2.424038887,1,-8.230841637,1,0.014236719,1,0.013226966,1,-0.00640833,1,0.363844514,1,-0.46208483,1,0.551440001,1
1.147991776,-4.746168613,1,-2.380267859,1,-8.237018585,1,0.013912195,1,0.014850365,1,-0.011277013,1,0.36390245,1,-0.462015122,1,0.551429689,1
1.151993632,-4.756097317,1,-2.417756796,1,-8.220454216,1,0.016129863,1,0.017960563,1,-0.010315053,1,0.363968015,1,-0.461931348,1,0.551416278,1
1.155991554,-4.750007629,1,-2.382474899,1,-8.212327957,1,0.021148711,1,0.017965183,1,-0.012359135,1,0.364039123,1,-0.46185264,1,0.551403284,1
1.159991264,-4.754602909,1,-2.338403225,1,-8.195246696,1,0.020163566,1,0.020455785,1,-0.011945665,1,0.364133805,1,-0.461758912,1,0.551381469,1
1.16399312,-4.749312878,1,-2.350917101,1,-8.219996452,1,0.020096641,1,0.022797072,1,-0.016963063,1,0.364221692,1,-0.461657643,1,0.551357806,1
1.167990804,-4.730900288,1,-2.371156216,1,-8.234946251,1,0.025046594,1,0.022616716,1,-0.014107479,1,0.364331782,1,-0.46155256,1,0.551327646,1
1.171990514,-4.756491661,1,-2.369973421,1,-8.22543335,1,0.029338438,1,0.025222288,1,-0.018530618,1,0.364445984,1,-0.461443424,1,0.551297843,1
1.17599237,-4.748635769,1,-2.395813942,1,-8.219630241,1,0.026954155,1,0.028692711,1,-0.015630584,1,0.364576101,1,-0.461326063,1,0.551259279,1
1.179990053,-4.755518436,1,-2.46281743,1,-8.226730347,1,0.031315152,1,0.02594489,1,-0.020957857,1,0.364711344,1,-0.461203307,1,0.55121088,1
1.183995962,-4.747841358,1,-2.451668739,1,-8.205831528,1,0.028058629,1,0.024820425,1,-0.022729862,1,0.364848673,1,-0.461075425,1,0.551166654,1
1.187997699,-4.726668358,1,-2.432371855,1,-8.18027401,1,0.024692792,1,0.031526562,1,-0.017636584,1,0.36497438,1,-0.46094054,1,0.551121294,1
1.191995621,-4.729692459,1,-2.378452539,1,-8.187671661,1,0.029787969,1,0.030823613,1,-0.019929927,1,0.365105212,1,-0.460796446,1,0.551089764,1
1.195995092,-4.773628712,1,-2.374352932,1,-8.175580978,1,0.027386988,1,0.037383616,1,-0.024395121,1,0.363429457,1,-0.461828232,1,0.551259458,1
1.199996948,-4.743452549,1,-2.361841917,1,-8.175896645,1,0.029709745,1,0.041075196,1,-0.023694159,1,0.363561511,1,-0.461645722,1,0.551225901,1
1.20399487,-4.791872025,1,-2.345475197,1,-8.168633461,1,0.030389277,1,0.041421186,1,-0.027126487,1,0.363704503,1,-0.461459577,1,0.551178098,1
1.20799458,-4.759689808,1,-2.297233343,1,-8.171748161,1,0.036640406,1,0.049908388,1,-0.029969346,1,0.363863319,1,-0.461253107,1,0.551126063,1
1.211996436,-4.719559193,1,-2.288406849,1,-8.168321609,1,0.038475785,1,0.048414294,1,-0.034165345,1,0.364033639,1,-0.46102047,1,0.551077843,1
1.215994358,-4.686752319,1,-2.279359341,1,-8.205655098,1,0.041909326,1,0.058797173,1,-0.036406126,1,0.364223123,1,-0.460766882,1,0.551016748,1
1.21999383,-4.665177345,1,-2.263043404,1,-8.196408272,1,0.049714822,1,0.064123578,1,-0.037070166,1,0.364435852,1,-0.460482091,1,0.55096221,1
1.223995924,-4.790010929,1,-2.226797581,1,-8.178429604,1,0.054760739,1,0.061320797,1,-0.041974235,1,0.364673793,1,-0.460207075,1,0.550899267,1
1.227993846,-4.749997616,1,-2.410876513,1,-8.22556591,1,0.058293719,1,0.058544241,1,-0.037679471,1,0.364929646,1,-0.459921837,1,0.550821185,1
1.231993318,-4.761363983,1,-2.416933775,1,-8.269833565,1,0.059071727,1,0.065409601,1,-0.044989549,1,0.365202397,1,-0.459624141,1,0.550741315,1
1.235995173,-4.724332809,1,-2.514225483,1,-8.245092392,1,0.057804335,1,0.0622494,1,-0.045438446,1,0.365475237,1,-0.459318459,1,0.550655425,1
1.239993095,-4.661659718,1,-2.557782173,1,-8.249285698,1,0.057355896,1,0.067839243,1,-0.040586114,1,0.365740478,1,-0.45901081,1,0.550576329,1
1.243992567,-4.748523712,1,-2.658615828,1,-8.236153603,1,0.055760119,1,0.071451761,1,-0.040188409,1,0.365996659,1,-0.458701283,1,0.550516248,1
1.247994423,-4.725531578,1,-2.623475552,1,-8.250132561,1,0.049181938,1,0.070370406,1,-0.038401213,1,0.366229266,1,-0.458388329,1,0.550456822,1
1.251992345,-4.774805546,1,-2.673539877,1,-8.253304482,1,0.045236941,1,0.071210526,1,-0.040050544,1,0.366441607,1,-0.458063543,1,0.550402224,1
1.255992055,-4.690475941,1,-2.689445734,1,-8.221824646,1,0.038353831,1,0.072535276,1,-0.036229156,1,0.366629183,1,-0.457741052,1,0.550364196,1
1.259993911,-4.713496685,1,-2.622728586,1,-8.214537621,1,0.036827531,1,0.071086526,1,-0.033561274,1,0.366800129,1,-0.457424223,1,0.550322831,1
1.263991833,-4.7170825,1,-2.614621401,1,-8.23004055,1,0.036143038,1,0.072990388,1,-0.038185403,1,0.366954207,1,-0.457105577,1,0.550291598,1
1.267991543,-4.707273006,1,-2.575069904,1,-8.237537384,1,0.029037487,1,0.073948815,1,-0.029576443,1,0.367086291,1,-0.456778288,1,0.550278962,1
1.271993399,-4.727853775,1,-2.528210878,1,-8.274805069,1,0.030878866,1,0.079122186,1,-0.029088331,1,0.367209882,1,-0.456453294,1,0.550264597,1
1.275991082,-4.726633549,1,-2.497243404,1,-8.279047012,1,0.027678737,1,0.078259267,1,-0.033564068,1,0.367323309,1,-0.456115544,1,0.550269008,1
1.279990554,-4.712661266,1,-2.483027935,1,-8.265089035,1,0.028498007,1,0.075483352,1,-0.031430312,1,0.367442459,1,-0.455774426,1,0.55025965,1
1.28399229,-4.718107224,1,-2.542570829,1,-8.274946213,1,0.030078283,1,0.077775002,1,-0.029700007,1,0.367557257,1,-0.455437839,1,0.550264001,1
1.287990212,-4.67173481,1,-2.551154375,1,-8.270323753,1,0.0286375,1,0.080739126,1,-0.031989556,1,0.367672324,1,-0.455099881,1,0.550262749,1
1.291989803,-4.689561844,1,-2.529256344,1,-8.282125473,1,0.024539093,1,0.078085184,1,-0.026368821,1,0.36778301,1,-0.454759657,1,0.550259471,1
1.29599154,-4.660229206,1,-2.533863783,1,-8.298445702,1,0.024785738,1,0.079422913,1,-0.029840158,1,0.36787492,1,-0.45442158,1,0.550264478,1
1.299989462,-4.666934967,1,-2.499381304,1,-8.313246727,1,0.025687577,1,0.07864584,1,-0.026958913,1,0.367976844,1,-0.454080969,1,0.550266385,1
1.303995132,-4.65841341,1,-2.482242584,1,-8.308003426,1,0.025297774,1,0.077701047,1,-0.026457293,1,0.368072569,1,-0.453750074,1,0.550276339,1
1.307996869,-4.68600893,1,-2.504330873,1,-8.303677559,1,0.025709184,1,0.077317648,1,-0.027900705,1,0.368174136,1,-0.453414023,1,0.550282001,1
1.31199491,-4.66149807,1,-2.547177553,1,-8.310009956,1,0.025671758,1,0.079506658,1,-0.025866663,1,0.368268192,1,-0.45307976,1,0.550292134,1
1.315994382,-4.642508507,1,-2.58178854,1,-8.277127266,1,0.024769822,1,0.080778964,1,-0.029807908,1,0.36835736,1,-0.452750564,1,0.55030483,1
1.319996119,-4.648993492,1,-2.556510925,1,-8.284727097,1,0.024236994,1,0.076690629,1,-0.024782635,1,0.368442714,1,-0.452420533,1,0.550325871,1
1.32399416,-4.60309267,1,-2.543764353,1,-8.305353165,1,0.01900135,1,0.075178325,1,-0.024413975,1,0.368517458,1,-0.452099383,1,0.550345004,1
1.327993631,-4.627454281,1,-2.497249842,1,-8.348109245,1,0.019832883,1,0.072753347,1,-0.025182579,1,0.368590266,1,-0.451796234,1,0.550368965,1
1.331995368,-4.609951019,1,-2.507872581,1,-8.335845947,1,0.024241393,1,0.0731804,1,-0.017933235,1,0.368670106,1,-0.451492131,1,0.550392926,1
1.335993052,-4.633162022,1,-2.422404051,1,-8.33389473,1,0.020454528,1,0.070627652,1,-0.020826491,1,0.368745416,1,-0.451198697,1,0.550421,1
1.339992523,-4.605968475,1,-2.488334656,1,-8.349171638,1,0.024552612,1,0.068438329,1,-0.019896649,1,0.368831784,1,-0.450913697,1,0.550448775,1
1.343994379,-4.587406158,1,-2.502618551,1,-8.331878662,1,0.029173514,1,0.063031085,1,-0.018345011,1,0.36891818,1,-0.450635046,1,0.550480068,1
1.347992063,-4.606368542,1,-2.519858599,1,-8.348743439,1,0.026875788,1,0.063777573,1,-0.017216608,1,0.369016945,1,-0.450374603,1,0.550505757,1
1.351991773,-4.595065594,1,-2.566185713,1,-8.377417564,1,0.027365934,1,0.058205441,1,-0.013552276,1,0.369106233,1,-0.450123161,1,0.550542593,1
1.355993629,-4.591712475,1,-2.557466507,1,-8.324790955,1,0.02425985,1,0.058001183,1,-0.012389105,1,0.369185507,1,-0.449881613,1,0.550580859,1
1.359991312,-4.59952116,1,-2.571196318,1,-8.36482811,1,0.02749344,1,0.057549547,1,-0.011227642,1,0.369274527,1,-0.449648857,1,0.550622523,1
1.363990784,-4.604980946,1,-2.533069611,1,-8.384417534,1,0.026836738,1,0.051261999,1,-0.01098771,1,0.369355798,1,-0.449429095,1,0.550667107,1
1.367992282,-4.594426632,1,-2.618596077,1,-8.404865265,1,0.027079636,1,0.04914951,1,-0.010226183,1,0.36944437,1,-0.449233532,1,0.550706983,1
1.371989965,-4.595962524,1,-2.570863724,1,-8.357328415,1,0.028228853,1,0.042439178,1,-0.011158217,1,0.369534731,1,-0.449051082,1,0.550741434,1
1.375989795,-4.606987,1,-2.555074215,1,-8.375109673,1,0.026710525,1,0.037373595,1,-0.006121861,1,0.369639456,1,-0.448893011,1,0.550769448,1
1.379991531,-4.616835594,1,-2.589424849,1,-8.335982323,1,0.025016205,1,0.031226637,1,-0.006949854,1,0.369731992,1,-0.448750436,1,0.550791025,1
1.383989453,-4.57473135,1,-2.654497862,1,-8.341184616,1,0.023980847,1,0.031683143,1,-0.005065224,1,0.369814068,1,-0.448625207,1,0.550827622,1
1.387989283,-4.54292345,1,-2.668463707,1,-8.359334946,1,0.01910699,1,0.026762698,1,-0.002523352,1,0.369885653,1,-0.448514283,1,0.550871193,1
1.391991019,-4.545464039,1,-2.644379377,1,-8.359843254,1,0.017583925,1,0.021555627,1,0.00377572,1,0.369940966,1,-0.44843024,1,0.550917804,1
1.395988941,-4.565531254,1,-2.662425756,1,-8.408120155,1,0.015471693,1,0.016393308,1,0.004262732,1,0.369986415,1,-0.448363602,1,0.550963163,1
1.399988532,-4.595900536,1,-2.587746143,1,-8.38257885,1,0.01332752,1,0.011916237,1,0.009057317,1,0.370021999,1,-0.448321044,1,0.551015377,1
1.40399003,-4.579875469,1,-2.624334335,1,-8.372693062,1,0.010884931,1,0.009788319,1,0.010585407,1,0.370056748,1,-0.44829458,1,0.551065385,1
1.407987952,-4.528508663,1,-2.579558134,1,-8.383607864,1,0.016920516,1,0.001996907,1,0.013943166,1,0.370099008,1,-0.448293924,1,0.551113963,1
1.411987424,-4.52865696,1,-2.579225302,1,-8.373141289,1,0.016073186,1,-0.002618776,1,0.012908565,1,0.370148718,1,-0.448309243,1,0.551162243,1
1.41598928,-4.563288212,1,-2.591599464,1,-8.439103127,1,0.019329531,1,-0.009484673,1,0.011827067,1,0.370203435,1,-0.448346525,1,0.551197767,1
1.419986963,-4.501825333,1,-2.639489651,1,-8.414556503,1,0.018336155,1,-0.0171126,1,0.01567159,1,0.370268941,1,-0.448414475,1,0.551234484,1
1.423986673,-4.530761719,1,-2.593644381,1,-8.434635162,1,0.021102661,1,-0.021786947,1,0.018419193,1,0.370315254,1,-0.448514819,1,0.551280797,1
1.427994609,-4.565056801,1,-2.618166447,1,-8.475701332,1,0.014671192,1,-0.031765897,1,0.017080603,1,0.370376348,1,-0.448637277,1,0.551310062,1
1.431998491,-4.557964802,1,-2.635681391,1,-8.41270256,1,0.014284842,1,-0.034667976,1,0.025086639,1,0.370425642,1,-0.448790729,1,0.551345825,1
1.435998201,-4.563691139,1,-2.596117973,1,-8.412966728,1,0.017882148,1,-0.046471234,1,0.02122004,1,0.370475531,1,-0.448970497,1,0.551379323,1
1.440000057,-4.616992474,1,-2.557701588,1,-8.459190369,1,0.02047128,1,-0.051869359,1,0.025492661,1,0.37055397,1,-0.449187845,1,0.551394105,1
1.443997979,-4.605046749,1,-2.637691259,1,-8.439734459,1,0.018278994,1,-0.058668166,1,0.023993179,1,0.368839264,1,-0.45058769,1,0.551971018,1
1.447997689,-4.578395844,1,-2.603390932,1,-8.440180779,1,0.020229649,1,-0.067770138,1,0.027878981,1,0.368957698,1,-0.450774312,1,0.551636338,1
1.451999784,-4.561707497,1,-2.599028111,1,-8.444958687,1,0.019195244,1,-0.072490796,1,0.028882865,1,0.369030297,1,-0.451075375,1,0.551636755,1
1.455997705,-4.519120216,1,-2.605033875,1,-8.457882881,1,0.020576749,1,-0.084004529,1,0.03235187,1,0.369103253,1,-0.45141387,1,0.551642597,1
1.459997416,-4.595559597,1,-2.702718496,1,-8.470952988,1,0.010235747,1,-0.088494204,1,0.036938831,1,0.369172394,1,-0.451791584,1,0.551640332,1
1.463999271,-4.580062866,1,-2.682292461,1,-8.439426422,1,0.015688784,1,-0.100915365,1,0.031300671,1,0.369226366,1,-0.452194422,1,0.551638782,1
1.467996955,-4.582152367,1,-2.745311737,1,-8.483272552,1,0.010744728,1,-0.107395977,1,0.037910685,1,0.369287372,1,-0.452630073,1,0.551622927,1
1.471996427,-4.604773998,1,-2.798505545,1,-8.449460983,1,0.000538686,1,-0.114942811,1,0.044649251,1,0.369317472,1,-0.453101784,1,0.551621318,1
1.475997925,-4.596866131,1,-2.860745907,1,-8.463376045,1,0.000994056,1,-0.12277922,1,0.047388092,1,0.369333059,1,-0.453601092,1,0.551616728,1
1.479995608,-4.617351532,1,-2.984547377,1,-8.488888741,1,-0.012759791,1,-0.129525378,1,0.052966636,1,0.369308054,1,-0.454134881,1,0.551625669,1
1.48399508,-4.623850822,1,-2.900371075,1,-8.428543091,1,-0.019603349,1,-0.13419345,1,0.058496639,1,0.369234979,1,-0.454705536,1,0.55164206,1
1.487996697,-4.671260357,1,-3.133418322,1,-8.562103271,1,-0.037939575,1,-0.138600111,1,0.062301371,1,0.369125903,1,-0.455304682,1,0.551675558,1
1.491994619,-4.704719067,1,-3.062103987,1,-8.470602036,1,-0.04244459,1,-0.151312724,1,0.071129799,1,0.368935525,1,-0.455947697,1,0.551718235,1
1.495994091,-4.659229279,1,-3.142591476,1,-8.530984879,1,-0.062417265,1,-0.161964625,1,0.075792074,1,0.368693322,1,-0.45663169,1,0.551781595,1
1.499995589,-4.689998627,1,-3.128091574,1,-8.585076332,1,-0.072297581,1,-0.170480162,1,0.085829407,1,0.368397176,1,-0.457371086,1,0.551847756,1
1.50399363,-4.691010475,1,-3.244650126,1,-8.539230347,1,-0.091955267,1,-0.186795399,1,0.093889043,1,0.368035674,1,-0.458169758,1,0.551931262,1
1.507993102,-4.61438036,1,-3.191763639,1,-8.586380959,1,-0.098628007,1,-0.198423371,1,0.09978959,1,0.367620796,1,-0.45901823,1,0.552023053,1
1.511994839,-4.559863091,1,-3.108978748,1,-8.679162979,1,-0.100488402,1,-0.218525231,1,0.111124203,1,0.367164254,1,-0.459948242,1,0.552139401,1
1.51599288,-4.413626671,1,-3.030972242,1,-8.874747276,1,-0.101789065,1,-0.238207504,1,0.132755041,1,0.366701961,1,-0.460972369,1,0.552270293,1
1.519992352,-4.2672019,1,-3.119846821,1,-9.050104141,1,-0.08796192,1,-0.285064518,1,0.145990252,1,0.366267741,1,-0.462142736,1,0.552427292,1
1.523994088,-3.874228716,1,-3.007714987,1,-9.244481087,1,-0.078590885,1,-0.353030294,1,0.177617714,1,0.365857482,1,-0.463570714,1,0.552598834,1
1.527991772,-3.977095604,1,-3.352329493,1,-9.299916267,1,-0.068404801,1,-0.428774148,1,0.214869186,1,0.365489811,1,-0.465312183,1,0.552778244,1
1.531991243,-3.904266834,1,-4.198244095,1,-9.440365791,1,-0.049322926,1,-0.519053221,1,0.277795911,1,0.365151644,1,-0.467420399,1,0.55303812,1
1.535993099,-3.699995518,1,-4.283588409,1,-9.396317482,1,-0.001080282,1,-0.610951424,1,0.356031567,1,0.364849091,1,-0.469999701,1,0.553448141,1
1.539990783,-3.792809248,1,-4.146924496,1,-9.143673897,1,0.083977662,1,-0.621237755,1,0.427658677,1,0.364712685,1,-0.47286728,1,0.554105639,1
1.543990493,-4.420897484,1,-4.34596014,1,-9.152321815,1,0.095149852,1,-0.61918515,1,0.454660445,1,0.364696026,1,-0.475824893,1,0.554977119,1
1.54799819,-4.508457184,1,-3.690908909,1,-9.645468712,1,0.101555333,1,-0.636175454,1,0.435130835,1,0.36466229,1,-0.478800595,1,0.5558514,1
1.552002072,-3.572253466,1,-3.77413106,1,-10.72212601,1,0.148225725,1,-0.710725427,1,0.443357855,1,0.364800811,1,-0.481932402,1,0.556620002,1
1.556002021,-3.127573967,1,-3.962820292,1,-10.72826672,1,0.156747743,1,-0.79458952,1,0.482450426,1,0.3650828,1,-0.48541382,1,0.557346582,1
1.560003877,-3.792304277,1,-4.777977943,1,-11.28176022,1,0.205915928,1,-0.895678043,1,0.545562208,1,0.365427196,1,-0.489315391,1,0.558166802,1
1.56400156,-3.623460293,1,-5.654833794,1,-12.25307655,1,0.197140008,1,-0.978328645,1,0.600923955,1,0.365828335,1,-0.493645936,1,0.559057236,1
1.56800127,-4.223372936,1,-5.861605167,1,-12.79451942,1,0.161026984,1,-1.12029922,1,0.616140544,1,0.366100699,1,-0.498430371,1,0.559971571,1
1.572003126,-5.508813381,1,-5.289423466,1,-13.0600729,1,0.212949827,1,-1.280877352,1,0.638038516,1,0.366529882,1,-0.503834009,1,0.560656607,1
1.576001048,-6.829374313,1,-4.968645096,1,-12.37573719,1,0.253274411,1,-1.446470618,1,0.760816097,1,0.367111742,1,-0.50988543,1,0.561371922,1
1.58000052,-6.875821114,1,-5.701974392,1,-11.82645607,1,0.17037946,1,-1.505339622,1,0.905596852,1,0.367418468,1,-0.516611934,1,0.562503994,1
1.584002018,-8.978515625,1,-5.369552135,1,-10.84183311,1,0.091103382,1,-1.614055872,1,1.044994235,1,0.367126346,1,-0.52383405,1,0.564105451,1
1.588000059,-10.41309738,1,-5.784432888,1,-10.07387161,1,-0.052403904,1,-1.648905754,1,1.267735243,1,0.366080582,1,-0.531582117,1,0.566387117,1
1.591999531,-11.97813988,1,-6.809971809,1,-10.14863205,1,-0.336244345,1,-1.662176728,1,1.485954642,1,0.363696754,1,-0.539752483,1,0.56961745,1
1.596001029,-13.60614109,1,-7.549462795,1,-10.54118347,1,-0.664329171,1,-1.605428219,1,1.627993822,1,0.35954392,1,-0.548101902,1,0.573758423,1
1.599998713,-14.06275654,1,-7.274945259,1,-11.16261673,1,-0.97136724,1,-1.493866444,1,1.707036138,1,0.353758872,1,-0.556233466,1,0.578551412,1
1.603998184,-17.47495842,1,-5.818742275,1,-13.04554939,1,-1.210521817,1,-1.29047358,1,1.743993044,1,0.346482307,1,-0.56389904,1,0.583965719,1
1.60800004,-18.82313538,1,-5.175934792,1,-15.77925968,1,-1.292509556,1,-0.889241517,1,1.683455348,1,0.338262439,1,-0.570343196,1,0.589883208,1
1.611997962,-16.54759407,1,-5.408261299,1,-16.58563042,1,-1.295811534,1,-0.466799438,1,1.569089413,1,0.329687357,1,-0.575021923,1,0.596135855,1
1.615997434,-12.76708317,1,-5.333642483,1,-15.82043743,1,-1.272339106,1,-0.148131892,1,1.494425178,1,0.321031094,1,-0.578104377,1,0.602597713,1
1.619999766,-9.032107353,1,-5.304262638,1,-14.3979845,1,-1.269598007,1,0.036085077,1,1.485611558,1,0.31229049,1,-0.580135286,1,0.60927701,1
1.623997927,-5.994627476,1,-5.536552429,1,-12.98668385,1,-1.275303602,1,0.107976362,1,1.548843622,1,0.303356946,1,-0.581678212,1,0.616286457,1
1.627997398,-3.96864295,1,-5.819746971,1,-11.86369133,1,-1.293468833,1,0.098510072,1,1.653794885,1,0.294112027,1,-0.583157897,1,0.623754263,1
1.631999254,-2.963436127,1,-5.196315289,1,-11.30653191,1,-1.27169919,1,0.043486368,1,1.780024767,1,0.284560561,1,-0.584822476,1,0.631735265,1
1.635996938,-3.463783979,1,-5.440478802,1,-11.39383125,1,-1.214607596,1,-0.045532703,1,1.898700833,1,0.274908721,1,-0.586881757,1,0.64023602,1
1.639996648,-2.030870676,1,-6.113005638,1,-10.23962021,1,-1.199195862,1,-0.061796337,1,1.923431754,1,0.265191227,1,-0.589138627,1,0.64902252,1
1.643998504,-1.083149433,1,-6.471455097,1,-10.03274727,1,-1.194190502,1,-0.106954567,1,1.934053779,1,0.255470932,1,-0.591442287,1,0.657892525,1
1.647996187,-2.035569191,1,-6.671812534,1,-11.31607819,1,-1.210436344,1,-0.104100928,1,1.93603158,1,0.245669633,1,-0.593798876,1,0.666825056,1
1.651995897,-2.235344172,1,-7.514636993,1,-11.54685688,1,-1.232242465,1,-0.043393876,1,1.872566938,1,0.235815421,1,-0.595913291,1,0.675685048,1
1.655997992,-1.726732254,1,-7.082010269,1,-11.71477318,1,-1.258427501,1,0.061420083,1,1.763653159,1,0.226009384,1,-0.597568691,1,0.684268951,1
1.659995914,0.082943171,1,-6.911448956,1,-10.4673357,1,-1.206439018,1,0.088033311,1,1.669269919,1,0.2165066,1,-0.598735988,1,0.692446172,1
1.663995624,0.367459208,1,-6.511919498,1,-10.52799416,1,-1.184330106,1,0.132134438,1,1.585746169,1,0.207297057,1,-0.599687278,1,0.700267076,1
1.668003321,1.048614979,1,-6.674966335,1,-10.46505356,1,-1.142654061,1,0.180456713,1,1.480879664,1,0.198452935,1,-0.600316644,1,0.707702935,1
1.672007442,1.673893809,1,-6.397076607,1,-10.11771488,1,-1.07258606,1,0.22324197,1,1.366693616,1,0.190071344,1,-0.600613534,1,0.71467185,1
1.67600739,2.540723324,1,-6.08275938,1,-9.647047043,1,-0.976264238,1,0.24676469,1,1.250598431,1,0.182337433,1,-0.600657344,1,0.721106052,1
1.680009246,3.159238338,1,-5.936736107,1,-9.167272568,1,-0.888044596,1,0.246408284,1,1.157120228,1,0.175252631,1,-0.600541592,1,0.727057934,1
1.684007168,3.835123062,1,-5.928585529,1,-8.861744881,1,-0.803409457,1,0.23808223,1,1.055763125,1,0.168773293,1,-0.60034734,1,0.732542932,1
1.688006639,4.235554218,1,-5.990055084,1,-8.629878998,1,-0.722981572,1,0.215127677,1,0.949648917,1,0.162904382,1,-0.600104332,1,0.737528265,1
1.692008138,4.420519352,1,-6.075137615,1,-8.38181591,1,-0.658520162,1,0.186870322,1,0.849248111,1,0.157618359,1,-0.599880934,1,0.741999865,1
1.69600594,4.611005783,1,-6.110120773,1,-8.147497177,1,-0.609635293,1,0.142186224,1,0.748644531,1,0.152930155,1,-0.599666476,1,0.745507002,1
1.700005412,4.631994724,1,-6.011582375,1,-8.033555031,1,-0.564122975,1,0.104182325,1,0.650143683,1,0.148635358,1,-0.599609971,1,0.748947382,1
1.704007149,4.533564091,1,-5.925414085,1,-8.045525551,1,-0.526888788,1,0.074636698,1,0.551741242,1,0.144783571,1,-0.59962374,1,0.751899064,1
1.708004832,4.311491013,1,-5.694204807,1,-8.183214188,1,-0.465451181,1,0.048741106,1,0.436043203,1,0.141446546,1,-0.599659681,1,0.75430578,1
1.712004304,4.01752615,1,-5.462851048,1,-8.338611603,1,-0.39721933,1,0.058643755,1,0.320299894,1,0.138670966,1,-0.599658906,1,0.75615865,1
1.71600616,3.708543062,1,-5.221085548,1,-8.42371273,1,-0.316014469,1,0.086889215,1,0.194801629,1,0.136515379,1,-0.599528849,1,0.757444978,1
1.720003843,3.593578577,1,-5.014229298,1,-8.534683228,1,-0.223848969,1,0.12913534,1,0.068448514,1,0.135030657,1,-0.599179327,1,0.758151591,1
1.724003315,3.398469687,1,-4.904557705,1,-8.72317791,1,-0.133596897,1,0.185881257,1,-0.067941248,1,0.134254396,1,-0.59855926,1,0.758261263,1
1.728005171,3.272406101,1,-4.801980019,1,-8.873314857,1,-0.035348102,1,0.25456813,1,-0.205811217,1,0.13422291,1,-0.597611725,1,0.757748127,1
1.732002854,3.131824732,1,-4.638938904,1,-9.074043274,1,0.05939294,1,0.33306247,1,-0.355708748,1,0.134922683,1,-0.596290529,1,0.756593227,1
1.736002564,3.161221981,1,-4.41824007,1,-9.223989487,1,0.146527007,1,0.424245059,1,-0.507781148,1,0.136358038,1,-0.594550073,1,0.754768014,1
1.740004659,3.265265226,1,-4.14670372,1,-9.229318619,1,0.228020862,1,0.512059093,1,-0.670500219,1,0.13851735,1,-0.592374802,1,0.752247214,1
1.744002581,3.344075918,1,-3.988692284,1,-9.166374207,1,0.296834826,1,0.606666028,1,-0.822768748,1,0.141338229,1,-0.589745879,1,0.749058843,1
1.748002291,3.49065733,1,-3.860370636,1,-9.053546906,1,0.352756083,1,0.686031818,1,-0.966567934,1,0.144765511,1,-0.586677551,1,0.745241404,1
1.752004147,3.727671146,1,-3.69233036,1,-8.879664421,1,0.385157168,1,0.760901392,1,-1.094650149,1,0.148663655,1,-0.58320266,1,0.740866065,1
1.75600183,3.980730057,1,-3.50660634,1,-8.740479469,1,0.40913251,1,0.816848397,1,-1.204404354,1,0.152928472,1,-0.579399288,1,0.735991418,1
1.760001302,4.006696701,1,-3.317332268,1,-8.624768257,1,0.427633375,1,0.859706759,1,-1.297640324,1,0.157484084,1,-0.575307906,1,0.730710149,1
1.764003038,3.955285788,1,-3.131690741,1,-8.535309792,1,0.443996519,1,0.902078807,1,-1.379864931,1,0.162277415,1,-0.570967376,1,0.725087941,1
1.76800108,3.932095051,1,-2.910289764,1,-8.515515327,1,0.459018975,1,0.939112663,1,-1.444323421,1,0.167255685,1,-0.566397905,1,0.719192982,1
1.772001028,3.736657858,1,-2.67958498,1,-8.600903511,1,0.480212599,1,0.96833688,1,-1.497727036,1,0.172391474,1,-0.561648369,1,0.713097095,1
1.776002526,3.346891165,1,-2.612157106,1,-8.766975403,1,0.499401033,1,1.008041978,1,-1.543853045,1,0.177670315,1,-0.556707025,1,0.706843019,1
1.780000567,2.775107145,1,-2.491805553,1,-8.969717026,1,0.53329885,1,1.055142522,1,-1.585324764,1,0.183096677,1,-0.551534176,1,0.700471222,1
1.784000039,2.127565622,1,-2.503612995,1,-9.207839966,1,0.558538854,1,1.130704999,1,-1.625399113,1,0.188646898,1,-0.546058595,1,0.694018304,1
1.788007736,1.516180515,1,-2.534836531,1,-9.487634659,1,0.584713697,1,1.229997635,1,-1.661635756,1,0.194287881,1,-0.54017812,1,0.687532246,1
1.792011738,1.044055939,1,-2.583244324,1,-9.706008911,1,0.603921235,1,1.339488387,1,-1.694163322,1,0.199988633,1,-0.533825994,1,0.681038618,1
1.796011806,0.726417899,1,-2.56247735,1,-9.917833328,1,0.629846632,1,1.460333347,1,-1.719818711,1,0.205718011,1,-0.526964188,1,0.674582839,1
1.800013304,0.457245529,1,-2.489985228,1,-10.06992912,1,0.650547504,1,1.582987666,1,-1.742373943,1,0.211459622,1,-0.51957041,1,0.668210864,1
1.804011226,0.313947856,1,-2.394872665,1,-10.12413692,1,0.673165798,1,1.701121926,1,-1.757304192,1,0.217193186,1,-0.511657,1,0.661951542,1
1.808010697,0.203931108,1,-2.313309193,1,-10.08437252,1,0.696621895,1,1.814585924,1,-1.769426703,1,0.222907931,1,-0.503247201,1,0.655840218,1
1.812012553,0.307553381,1,-2.310348272,1,-9.785277367,1,0.716473401,1,1.917932153,1,-1.764625907,1,0.228570119,1,-0.49440521,1,0.649903178,1
1.816010475,0.278114557,1,-2.308816671,1,-9.833942413,1,0.737164736,1,1.987233043,1,-1.758030295,1,0.23418133,1,-0.485187411,1,0.644162238,1
1.820010185,0.409246087,1,-2.343651295,1,-9.630644798,1,0.75550282,1,2.054447651,1,-1.741676807,1,0.239735544,1,-0.475684702,1,0.638625681,1
1.824012041,0.598422468,1,-2.43486619,1,-9.424023628,1,0.760184169,1,2.097030401,1,-1.723005414,1,0.245176241,1,-0.465953946,1,0.633317411,1
1.828009725,0.764490962,1,-2.445796967,1,-9.210442543,1,0.761105597,1,2.12949729,1,-1.695549965,1,0.250473708,1,-0.456079692,1,0.628246665,1
1.832009196,0.816645384,1,-2.434551477,1,-9.076199532,1,0.769546509,1,2.139119148,1,-1.667901754,1,0.255664825,1,-0.446126908,1,0.62337774,1
1.836011291,0.848769069,1,-2.30111599,1,-8.996937752,1,0.783329427,1,2.141608477,1,-1.641463876,1,0.260760337,1,-0.436159134,1,0.618719816,1
1.840009212,0.851657748,1,-2.222960949,1,-8.922002792,1,0.806530058,1,2.129683971,1,-1.615917802,1,0.265809894,1,-0.426220685,1,0.614248276,1
1.844008923,0.72007817,1,-2.149570465,1,-8.915781975,1,0.844534159,1,2.112016439,1,-1.590294361,1,0.270865172,1,-0.416334063,1,0.609936178,1
1.848010778,0.491779983,1,-2.142613173,1,-8.932807922,1,0.885596156,1,2.100091219,1,-1.5731318,1,0.275988281,1,-0.40651983,1,0.605781972,1
1.852008462,0.28329283,1,-2.19909668,1,-9.002841949,1,0.949194849,1,2.089179516,1,-1.554619431,1,0.281234682,1,-0.396739185,1,0.601759613,1
1.856008172,-0.03159618,1,-2.289574862,1,-9.078355789,1,1.000409603,1,2.087694168,1,-1.540869236,1,0.28662616,1,-0.387000024,1,0.597871184,1
1.860010028,-0.321411371,1,-2.394630194,1,-9.242569923,1,1.061865687,1,2.075804234,1,-1.533593893,1,0.292160541,1,-0.37726444,1,0.594095588,1
1.864007711,-0.692005694,1,-2.471507311,1,-9.410173416,1,1.114529014,1,2.090098858,1,-1.531567216,1,0.297856212,1,-0.367513657,1,0.590408802,1
1.868007421,-1.164558411,1,-2.506067038,1,-9.606133461,1,1.165457606,1,2.100162745,1,-1.53503406,1,0.303694725,1,-0.357700169,1,0.586794972,1
1.87200892,-1.573069692,1,-2.646973133,1,-9.700140953,1,1.200384378,1,2.130915642,1,-1.538806081,1,0.309646606,1,-0.347780287,1,0.583269238,1
1.876006961,-1.889129758,1,-2.803365946,1,-9.817513466,1,1.225959897,1,2.172057152,1,-1.552781343,1,0.315674186,1,-0.337694377,1,0.57982415,1
1.880006671,-2.057489395,1,-2.835779428,1,-9.91686058,1,1.253755212,1,2.219436884,1,-1.557167888,1,0.321733057,1,-0.327407002,1,0.576488376,1
1.884008169,-2.152883291,1,-2.869879961,1,-9.951581001,1,1.256783962,1,2.26598978,1,-1.572672844,1,0.327782631,1,-0.316908419,1,0.573242128,1
1.888006091,-2.055015326,1,-2.91765213,1,-9.855876923,1,1.254343271,1,2.298020124,1,-1.577592254,1,0.333772451,1,-0.306226999,1,0.570100009,1
1.89200592,-2.030912399,1,-2.884430408,1,-9.786523819,1,1.249646783,1,2.321857691,1,-1.581514478,1,0.33969304,1,-0.295415998,1,0.567055464,1
1.896007657,-1.879425287,1,-2.868598461,1,-9.607420921,1,1.233082056,1,2.327009201,1,-1.57423985,1,0.345502526,1,-0.284533739,1,0.564114392,1
1.900005579,-1.737141728,1,-2.814943552,1,-9.538730621,1,1.223552346,1,2.331732988,1,-1.563927531,1,0.351199955,1,-0.273633003,1,0.561287642,1
1.90400517,-1.696679711,1,-2.766284227,1,-9.47349453,1,1.215726733,1,2.309335232,1,-1.538680911,1,0.356794238,1,-0.262775242,1,0.558589697,1
1.908013105,-1.687325716,1,-2.787640095,1,-9.489376068,1,1.208728433,1,2.279956818,1,-1.507472873,1,0.362291157,1,-0.252039969,1,0.556027114,1
1.912016869,-1.838322759,1,-2.727307081,1,-9.574866295,1,1.215233207,1,2.245672226,1,-1.475431323,1,0.367731571,1,-0.241453335,1,0.553605676,1
1.916016936,-2.302840471,1,-2.77697134,1,-9.772799492,1,1.234715462,1,2.210347414,1,-1.443815231,1,0.373173535,1,-0.231041193,1,0.551321805,1
1.920018673,-2.756719828,1,-2.802401543,1,-9.894183159,1,1.258602381,1,2.188350439,1,-1.424173355,1,0.378653169,1,-0.220753834,1,0.54914856,1
1.924016595,-3.32054615,1,-2.927733898,1,-10.06111813,1,1.276833534,1,2.18087101,1,-1.415334105,1,0.384165823,1,-0.210529506,1,0.547082126,1
1.928016424,-3.895927191,1,-3.010064602,1,-10.30446053,1,1.287350416,1,2.185834169,1,-1.412597537,1,0.389699847,1,-0.200309187,1,0.545108318,1
1.932018399,-4.298037529,1,-3.169674873,1,-10.44960976,1,1.300416827,1,2.204294205,1,-1.41534245,1,0.395245254,1,-0.19004339,1,0.54320848,1
1.93601644,-4.679273129,1,-3.201909542,1,-10.67669106,1,1.309183598,1,2.230995893,1,-1.427778602,1,0.40079999,1,-0.179667801,1,0.54137212,1
1.94001615,-5.013278961,1,-3.106142998,1,-10.8575325,1,1.324216843,1,2.258145094,1,-1.448662043,1,0.406372517,1,-0.169156373,1,0.53959012,1
1.944018126,-5.237586498,1,-2.925670385,1,-10.88784695,1,1.338812828,1,2.288869143,1,-1.470229626,1,0.41198346,1,-0.15849565,1,0.537831366,1
1.948016167,-5.374974251,1,-2.789373398,1,-10.85180759,1,1.362988949,1,2.307962179,1,-1.499855161,1,0.417705655,1,-0.147619233,1,0.536189139,1
1.952015877,-5.304781914,1,-2.690740585,1,-10.7116251,1,1.377221704,1,2.325727224,1,-1.527885199,1,0.423434019,1,-0.136676371,1,0.534435034,1
1.956017613,-5.205234528,1,-2.416407347,1,-10.61757088,1,1.385782719,1,2.324485779,1,-1.555143237,1,0.42919609,1,-0.125650063,1,0.532655597,1
1.960015416,-5.053050041,1,-2.099502325,1,-10.47525501,1,1.410307527,1,2.307531595,1,-1.577759504,1,0.434996456,1,-0.114609867,1,0.530826628,1
1.964015126,-4.958372116,1,-1.747567415,1,-10.30233669,1,1.433431745,1,2.277169228,1,-1.590606451,1,0.440886706,1,-0.103612661,1,0.528961241,1
1.968016863,-4.865643024,1,-1.660258055,1,-10.08503437,1,1.442357302,1,2.245476723,1,-1.601252317,1,0.446827918,1,-0.092705823,1,0.527063727,1
1.972014904,-4.87988615,1,-1.753475666,1,-9.872986794,1,1.444715738,1,2.193440199,1,-1.602558017,1,0.452772379,1,-0.081928425,1,0.525150716,1
1.976014614,-4.998757362,1,-2.056475401,1,-9.789355278,1,1.424768448,1,2.144470453,1,-1.587396741,1,0.458667278,1,-0.071324795,1,0.523235917,1
1.980016112,-4.975714207,1,-2.237186909,1,-9.646305084,1,1.363441706,1,2.08365345,1,-1.564710617,1,0.464371026,1,-0.060947988,1,0.521357,1
1.984014034,-4.956608772,1,-2.251217127,1,-9.59880352,1,1.294081092,1,2.011486053,1,-1.542913318,1,0.46979779,1,-0.05083622,1,0.519483089,1
1.988013864,-4.965644836,1,-2.06504488,1,-9.572361946,1,1.225387931,1,1.936743617,1,-1.512128234,1,0.474923581,1,-0.041019235,1,0.517628372,1
1.9920156,-5.014441013,1,-1.884597301,1,-9.519318581,1,1.16162324,1,1.848540068,1,-1.482134938,1,0.479762137,1,-0.031544134,1,0.515788674,1
1.996013522,-5.228282452,1,-1.80092001,1,-9.408120155,1,1.116481662,1,1.767534733,1,-1.445389032,1,0.484363079,1,-0.02242478,1,0.513961554,1
2.000013351,-5.533525944,1,-1.664691448,1,-9.437997818,1,1.078941345,1,1.688038588,1,-1.403969646,1,0.488778383,1,-0.013654046,1,0.512153924,1
2.004015207,-6.063568592,1,-1.588939309,1,-9.368483543,1,1.057749748,1,1.621946335,1,-1.37130785,1,0.493075788,1,-0.005193518,1,0.510389984,1
2.008012772,-6.490166187,1,-1.510658145,1,-9.260891914,1,1.043735743,1,1.57358253,1,-1.336294055,1,0.497280777,1,0.003002209,1,0.508667409,1
2.012012482,-6.83347559,1,-1.519598722,1,-9.148386955,1,1.020124435,1,1.530869722,1,-1.301206708,1,0.501403868,1,0.010982854,1,0.507011652,1
2.016014338,-7.022900581,1,-1.571468592,1,-8.915427208,1,1.000571728,1,1.486894131,1,-1.264028788,1,0.505426288,1,0.018742573,1,0.505421042,1
2.020012379,-7.185083389,1,-1.49834156,1,-8.630076408,1,0.973992467,1,1.441775918,1,-1.223824263,1,0.509338975,1,0.026279971,1,0.503906906,1
2.02401185,-7.242380142,1,-1.406399608,1,-8.237904549,1,0.945244372,1,1.402559161,1,-1.181011915,1,0.513127863,1,0.033592209,1,0.502490044,1
2.028019667,-7.165090561,1,-1.29330349,1,-7.805502892,1,0.905406773,1,1.358007431,1,-1.128629684,1,0.516788423,1,0.040675703,1,0.501197755,1
2.032023668,-6.878553391,1,-1.186908841,1,-7.398605824,1,0.867235839,1,1.304866076,1,-1.062355876,1,0.52028805,1,0.047475453,1,0.500035226,1
2.036023617,-6.631776333,1,-0.924037814,1,-7.042917728,1,0.832924545,1,1.230942249,1,-0.999990821,1,0.523632944,1,0.053937294,1,0.498984993,1
2.040025234,-6.299045563,1,-0.67350626,1,-6.645656109,1,0.790313721,1,1.149350166,1,-0.918682158,1,0.526819825,1,0.059984908,1,0.4980582,1
2.044023037,-6.139706135,1,-0.467370749,1,-6.311230659,1,0.760281801,1,1.044034958,1,-0.832578003,1,0.529870272,1,0.065538488,1,0.497232169,1
2.048022747,-6.113280773,1,-0.29491812,1,-6.07282114,1,0.724098444,1,0.93074584,1,-0.750991285,1,0.532794833,1,0.07055416,1,0.496506959,1
2.052024603,-6.177659512,1,-0.28776148,1,-5.884689808,1,0.689022362,1,0.81988579,1,-0.662551403,1,0.535575449,1,0.075005457,1,0.495862186,1
2.056022167,-6.28456831,1,-0.334826529,1,-5.794859409,1,0.651307225,1,0.711492121,1,-0.582951903,1,0.538223803,1,0.078904942,1,0.49529022,1
2.060022116,-6.6967659,1,-0.419862568,1,-5.782142639,1,0.608022392,1,0.61008966,1,-0.513058305,1,0.540693223,1,0.082294233,1,0.494755447,1
2.064023495,-7.149953365,1,-0.494693607,1,-5.879836559,1,0.547119796,1,0.527304471,1,-0.471191436,1,0.542966664,1,0.085250936,1,0.494242221,1
2.068021536,-7.522591114,1,-0.53201282,1,-5.927502155,1,0.475952715,1,0.456210434,1,-0.43770498,1,0.544978142,1,0.087873749,1,0.493700713,1
2.072021246,-7.78649807,1,-0.52116555,1,-5.895093918,1,0.396412969,1,0.401205301,1,-0.427662611,1,0.546667755,1,0.090239227,1,0.493096888,1
2.076022863,-7.766850471,1,-0.444542527,1,-5.750899315,1,0.312923551,1,0.351401687,1,-0.41189599,1,0.548030376,1,0.092400312,1,0.492446631,1
2.080020666,-7.631206512,1,-0.308419138,1,-5.544184208,1,0.223128662,1,0.288283795,1,-0.405055523,1,0.54903549,1,0.0943496,1,0.491716713,1
2.084020376,-7.45835638,1,-0.270864725,1,-5.244497299,1,0.141360343,1,0.214955613,1,-0.380983442,1,0.549692452,1,0.096029282,1,0.49090308,1
2.088022232,-7.221803188,1,-0.252692252,1,-5.051104069,1,0.062429689,1,0.121895015,1,-0.346356124,1,0.550007641,1,0.097374663,1,0.490001619,1
2.092020273,-7.284117699,1,-0.248294055,1,-4.846451283,1,-0.009427417,1,0.011942981,1,-0.30031538,1,0.550021529,1,0.098275632,1,0.489046812,1
2.096019983,-7.592096329,1,-0.25886631,1,-4.696025848,1,-0.078234926,1,-0.094021149,1,-0.237068325,1,0.549736142,1,0.098694213,1,0.48803556,1
2.100021839,-7.923080921,1,-0.321297973,1,-4.592091084,1,-0.138467833,1,-0.192599118,1,-0.173890933,1,0.549205661,1,0.098640002,1,0.48702237,1
2.104019642,-8.310043335,1,-0.459056675,1,-4.519332886,1,-0.194155186,1,-0.27955085,1,-0.116312474,1,0.548446238,1,0.098133937,1,0.48602733,1
2.108019114,-8.650158882,1,-0.634475529,1,-4.474509239,1,-0.251009613,1,-0.352023482,1,-0.047430292,1,0.547457397,1,0.097216822,1,0.485084772,1
2.112020969,-8.91686821,1,-0.733204544,1,-4.416367054,1,-0.303155154,1,-0.429067969,1,0.021235546,1,0.546277285,1,0.09590704,1,0.484226167,1
2.116018772,-9.126794815,1,-0.710852504,1,-4.389985561,1,-0.34694919,1,-0.50168401,1,0.088810965,1,0.544897079,1,0.094201796,1,0.483443797,1
2.120018244,-9.286478996,1,-0.702048838,1,-4.321718693,1,-0.376282781,1,-0.57789886,1,0.1535732,1,0.543384075,1,0.092097968,1,0.482738972,1
2.124019861,-9.572322845,1,-0.695431113,1,-4.30855751,1,-0.384937257,1,-0.654145241,1,0.217300937,1,0.541792989,1,0.089602187,1,0.482102215,1
2.128017664,-10.03378296,1,-0.786431015,1,-4.253294468,1,-0.38874808,1,-0.725458682,1,0.283921123,1,0.540192306,1,0.086716525,1,0.481536597,1
2.132017374,-10.69492817,1,-0.979863644,1,-4.21424818,1,-0.380371898,1,-0.784893751,1,0.336789429,1,0.53861165,1,0.083472222,1,0.481053859,1
2.13601923,-11.34576321,1,-1.288887382,1,-4.178902149,1,-0.369252235,1,-0.831982911,1,0.387651354,1,0.537075102,1,0.079954267,1,0.480643153,1
2.140016794,-11.90783024,1,-1.616436601,1,-4.207219601,1,-0.365095139,1,-0.864023447,1,0.430790275,1,0.535587311,1,0.076214105,1,0.480319738,1
2.144016743,4.139802933,1,-2.714444637,1,-7.928520203,1,-0.212282658,1,-1.214722753,1,0.813186765,1,0.534341216,1,0.071712807,1,0.480292976,1
2.148024321,-12.82548714,1,0.603361726,1,-4.705292225,1,0.104081877,1,-1.929935217,1,1.17082274,1,0.534385562,1,0.063877955,1,0.480412722,1
2.152027845,11.02310085,1,-6.141971111,1,-4.794710636,1,-0.520828724,1,-1.782562256,1,1.268705726,1,0.533533573,1,0.055043194,1,0.480862081,1
2.156027794,10.36886215,1,-11.30343628,1,-8.314432144,1,-0.449115485,1,-2.340662718,1,1.446053028,1,0.531525791,1,0.045267589,1,0.481392562,1
2.160029411,0.245029509,1,-10.92157555,1,-11.18736172,1,-0.596659064,1,-2.533400536,1,1.532213926,1,0.529546618,1,0.033679452,1,0.481520802,1
2.164027452,5.627061367,1,-10.14481068,1,-13.2437582,1,-0.81527096,1,-2.531071186,1,1.624976397,1,0.526693046,1,0.021809647,1,0.481886446,1
2.168027163,3.297056198,1,-10.61925602,1,-13.22250366,1,-0.952674031,1,-2.638684273,1,1.688184619,1,0.523170412,1,0.009503589,1,0.482463568,1
2.172029018,6.464853287,1,-8.498545647,1,-12.99806881,1,-0.812901855,1,-2.688953161,1,1.779986024,1,0.519553244,1,-0.003140291,1,0.483122498,1
2.176026821,2.416504383,1,-11.31133938,1,-13.15733719,1,-0.889245749,1,-3.037127256,1,1.738742948,1,0.516211331,1,-0.016610822,1,0.483597666,1
2.180026531,0.973093212,1,-10.04893589,1,-11.58675385,1,-0.9441154,1,-3.257902145,1,1.672429562,1,0.512536168,1,-0.030930428,1,0.483330071,1
2.184028149,0.914190352,1,-7.624322414,1,-9.763062477,1,-1.030341864,1,-3.622085094,1,1.647107482,1,0.508646965,1,-0.046125751,1,0.482402891,1
2.18802619,-2.278651714,1,-5.792873859,1,-8.992288589,1,-1.108216166,1,-3.95166564,1,1.633889198,1,0.504466772,1,-0.062591963,1,0.480772853,1
2.192025661,-4.712688923,1,-5.309083939,1,-9.595685959,1,-1.185767412,1,-4.212172985,1,1.616833329,1,0.500034153,1,-0.080056608,1,0.478586793,1
2.196027279,-6.554659843,1,-4.779810429,1,-10.99601746,1,-1.2061342,1,-4.350085258,1,1.549216628,1,0.495471865,1,-0.098069943,1,0.47656253,1
2.20002532,-10.79047298,1,-2.097395658,1,-13.77238369,1,-1.073486924,1,-4.36146307,1,1.418547153,1,0.491201669,1,-0.116261967,1,0.4735201,1
2.204024792,-15.9184761,1,-0.868650794,1,-15.55406952,1,-0.905226111,1,-4.103914738,1,1.164719701,1,0.487659216,1,-0.133702591,1,0.470073938,1
2.208026648,-17.4465313,1,1.720239282,1,-16.5267868,1,-0.625721216,1,-3.688982248,1,0.938965619,1,0.485113621,1,-0.149447292,1,0.466465563,1
2.212024689,-19.00427818,1,2.89636898,1,-16.47541428,1,-0.397238672,1,-3.259415627,1,0.763960242,1,0.483626962,1,-0.163338527,1,0.462930799,1
2.216024399,-17.20486641,1,2.753520966,1,-15.90501595,1,-0.248089194,1,-2.81675148,1,0.703250587,1,0.482890993,1,-0.175417349,1,0.459823608,1
2.220026016,-14.85971165,1,3.174139023,1,-14.74434662,1,-0.130068958,1,-2.444150209,1,0.774771154,1,0.482570201,1,-0.186100915,1,0.457505077,1
2.224023819,-11.46133995,1,2.963210821,1,-13.940341,1,-0.001959758,1,-2.149067879,1,0.889985561,1,0.482561201,1,-0.195750028,1,0.456166536,1
2.228023529,-8.643959045,1,2.301279068,1,-13.23250771,1,0.126438916,1,-1.929810286,1,1.009588003,1,0.482896864,1,-0.204721063,1,0.455752075,1
2.232025623,-6.627871037,1,0.466329396,1,-12.28091049,1,0.234479234,1,-1.765197992,1,1.090324044,1,0.483555883,1,-0.21320945,1,0.456062675,1
2.236023664,-5.17928648,1,-2.430302382,1,-11.32796001,1,0.286930501,1,-1.664393902,1,1.128090382,1,0.48446694,1,-0.221334159,1,0.456830323,1
2.240023613,-5.135297775,1,-5.210860729,1,-9.490627289,1,0.260140598,1,-1.590825677,1,1.133587718,1,0.48535189,1,-0.229227006,1,0.457844377,1
2.24402523,-3.782893419,1,-7.441735744,1,-7.845935822,1,0.210881665,1,-1.565161109,1,1.054751277,1,0.486068815,1,-0.236844599,1,0.458819926,1
2.248023033,-2.569624186,1,-8.236379623,1,-6.342805386,1,0.154111758,1,-1.63213563,1,0.959746599,1,0.486669838,1,-0.244367421,1,0.45940876,1
2.252022743,-1.970636129,1,-9.088150024,1,-5.49275589,1,0.03685325,1,-1.741978168,1,0.845023394,1,0.487041056,1,-0.252005398,1,0.459438682,1
2.256024599,-1.675913095,1,-9.734765053,1,-5.802200794,1,-0.114673987,1,-1.874042511,1,0.764565885,1,0.487051547,1,-0.25988844,1,0.458870888,1
2.26002264,-2.918830633,1,-9.026364326,1,-5.610743046,1,-0.303577989,1,-1.947851419,1,0.737700164,1,0.486462891,1,-0.268100768,1,0.457909733,1
2.26402235,-2.968603849,1,-7.974404335,1,-6.195635796,1,-0.421221405,1,-1.985237122,1,0.70362258,1,0.485324204,1,-0.276386112,1,0.456721634,1
2.268029928,-3.72369051,1,-6.111131668,1,-6.915976048,1,-0.531509578,1,-1.994168162,1,0.732411087,1,0.483766735,1,-0.284768164,1,0.455480963,1
2.27203393,-5.339587688,1,-5.390837669,1,-8.010621071,1,-0.688466609,1,-1.962439656,1,0.854280889,1,0.481574148,1,-0.293241858,1,0.454551369,1
2.276034117,-5.989954472,1,-3.951682568,1,-8.521155357,1,-0.791904688,1,-1.832227707,1,0.946819723,1,0.478666663,1,-0.301672488,1,0.454256147,1
2.280035734,-6.547482491,1,-3.539223433,1,-9.710576057,1,-0.802288234,1,-1.725629449,1,1.018738866,1,0.4754287,1,-0.30978021,1,0.454476595,1
2.284033775,-8.696154594,1,-3.284791708,1,-9.757037163,1,-0.866930366,1,-1.56035471,1,1.099094868,1,0.471856773,1,-0.317604721,1,0.455292881,1
2.288033485,-8.361065865,1,-3.593276024,1,-9.59859848,1,-0.886604428,1,-1.376265287,1,1.096875906,1,0.467899799,1,-0.324823886,1,0.456635267,1
2.292035341,-8.078510284,1,-4.157978058,1,-9.238476753,1,-0.907577813,1,-1.268655539,1,1.106305599,1,0.463810205,1,-0.331515372,1,0.458275497,1
2.296033382,-7.94205761,1,-4.796737194,1,-8.825418472,1,-0.993516684,1,-1.14439261,1,1.08381772,1,0.459388107,1,-0.337801546,1,0.460176587,1
2.300033331,-6.597309113,1,-5.438484669,1,-8.637052536,1,-1.030378222,1,-1.087001562,1,1.005905271,1,0.45469442,1,-0.343647361,1,0.462071747,1
2.304035187,-5.845242977,1,-5.589745522,1,-8.333580971,1,-1.072660923,1,-1.066782117,1,0.942978084,1,0.449923694,1,-0.34923014,1,0.463806629,1
2.30803299,-5.308146477,1,-5.237427235,1,-8.639595985,1,-1.1149683,1,-1.032380462,1,0.889582276,1,0.44499442,1,-0.354607522,1,0.465391964,1
2.312032461,-5.973360538,1,-4.171949863,1,-9.06637001,1,-1.136151075,1,-1.011041403,1,0.851181448,1,0.439982593,1,-0.359796137,1,0.466875196,1
2.316034317,-6.19429636,1,-3.398763895,1,-9.151352882,1,-1.163785696,1,-0.942563415,1,0.819403529,1,0.434846461,1,-0.36474359,1,0.468342632,1
2.320032358,-5.739393234,1,-2.238985538,1,-9.258060455,1,-1.138659835,1,-0.883490801,1,0.791628182,1,0.429696053,1,-0.36940521,1,0.469843417,1
2.324032307,-5.764259338,1,-1.410357237,1,-9.700515747,1,-1.103861332,1,-0.849264383,1,0.77938664,1,0.424640477,1,-0.373862356,1,0.471370459,1
2.328034163,-6.35281086,1,-1.445765734,1,-9.9186306,1,-1.085405231,1,-0.785180211,1,0.76468575,1,0.419681668,1,-0.378112316,1,0.472946435,1
2.332031727,-7.274327278,1,-1.975400329,1,-9.696433067,1,-1.075327992,1,-0.650124073,1,0.724971652,1,0.414703786,1,-0.381943703,1,0.474648297,1
2.336031437,-6.768399715,1,-1.334929109,1,-9.797206879,1,-1.014925599,1,-0.552891672,1,0.698425055,1,0.409858406,1,-0.385299355,1,0.47644484,1
2.340033293,-8.50161171,1,-1.208727002,1,-10.74430275,1,-0.961453855,1,-0.458503097,1,0.616495073,1,0.405233026,1,-0.388219893,1,0.478169739,1
2.344030857,-6.494828224,1,-0.500475347,1,-10.2531662,1,-0.83636272,1,-0.346400976,1,0.551723957,1,0.401014477,1,-0.390584707,1,0.479820907,1
2.348030806,-5.482196808,1,-0.361101151,1,-9.696077347,1,-0.760221779,1,-0.331932783,1,0.538932741,1,0.397200137,1,-0.392667711,1,0.48144123,1
2.352032423,-4.99858427,1,-0.748041093,1,-9.946850777,1,-0.667148054,1,-0.340328008,1,0.490702838,1,0.39376992,1,-0.394706368,1,0.482930928,1
2.356030464,-4.291052341,1,-1.439772844,1,-9.724594116,1,-0.59596324,1,-0.342094243,1,0.45978573,1,0.390733778,1,-0.396673203,1,0.484270006,1
2.360030174,-6.00695467,1,-1.933348894,1,-10.2410984,1,-0.513649404,1,-0.31173417,1,0.413930207,1,0.38804096,1,-0.398574799,1,0.485482544,1
2.364031792,-5.868914604,1,-2.021291256,1,-9.506404877,1,-0.428926617,1,-0.262778193,1,0.365026593,1,0.385729969,1,-0.400212288,1,0.486578554,1
2.368029594,-5.083612919,1,-2.542789459,1,-8.778370857,1,-0.394768357,1,-0.28414759,1,0.340751648,1,0.383713543,1,-0.401750803,1,0.487556368,1
2.372029543,-4.61536932,1,-2.613425493,1,-9.001886368,1,-0.36947903,1,-0.310097665,1,0.311376601,1,0.381853729,1,-0.403345078,1,0.488389045,1
2.376030922,-4.689858437,1,-2.39253664,1,-9.441898346,1,-0.310142219,1,-0.313658684,1,0.279072344,1,0.380224496,1,-0.404941678,1,0.48906967,1
2.380028963,-4.235363007,1,-1.770364404,1,-9.139135361,1,-0.272692353,1,-0.31734997,1,0.286433995,1,0.378811896,1,-0.406526268,1,0.489699721,1
2.384028673,-4.219948292,1,-1.675614238,1,-9.027910233,1,-0.235212788,1,-0.338974506,1,0.283261508,1,0.377549887,1,-0.408171415,1,0.490325451,1
2.388030529,-4.420808792,1,-1.941426277,1,-8.954062462,1,-0.192560002,1,-0.356967002,1,0.282241613,1,0.376462877,1,-0.409882337,1,0.490911245,1
2.392034292,-4.326113224,1,-2.03910327,1,-8.968969345,1,-0.159423113,1,-0.361701608,1,0.262454003,1,0.375543565,1,-0.411611885,1,0.491449594,1
2.396034002,-4.478713036,1,-2.21107316,1,-8.815446854,1,-0.121345334,1,-0.379955441,1,0.251811594,1,0.374799967,1,-0.413370311,1,0.491897374,1
2.400035858,-4.632784367,1,-2.117379904,1,-8.805010796,1,-0.089869134,1,-0.37705031,1,0.247245282,1,0.374210596,1,-0.415149033,1,0.492300689,1
2.404033422,-4.689750671,1,-1.90489006,1,-8.773848534,1,-0.067959026,1,-0.367248356,1,0.23868008,1,0.373728991,1,-0.416909188,1,0.492694914,1
2.408033133,-4.739646912,1,-1.59909296,1,-9.007562637,1,-0.022364549,1,-0.39431864,1,0.218219399,1,0.373428255,1,-0.41865328,1,0.493017793,1
2.41203475,-4.832056522,1,-1.474872828,1,-8.911162376,1,0.018650563,1,-0.397253156,1,0.196256518,1,0.373326182,1,-0.420431763,1,0.49323681,1
2.416032791,-5.19517231,1,-1.391898036,1,-8.991447449,1,0.066810749,1,-0.39095521,1,0.180352628,1,0.373437017,1,-0.422178149,1,0.493383974,1
2.420032501,-4.713775635,1,-1.430572271,1,-8.785887718,1,0.109943524,1,-0.400318742,1,0.16597949,1,0.37376219,1,-0.423892319,1,0.493448615,1
2.424034357,-4.532943249,1,-1.633617401,1,-8.759726524,1,0.137182057,1,-0.412391841,1,0.166832119,1,0.374248624,1,-0.42565006,1,0.493469507,1
2.428031921,-4.788817883,1,-1.877014995,1,-8.700612068,1,0.160864457,1,-0.411378682,1,0.161314487,1,0.374831527,1,-0.427423596,1,0.493481845,1
2.432031631,-4.725432396,1,-2.18088913,1,-8.641003609,1,0.183034778,1,-0.420734912,1,0.151233822,1,0.375534475,1,-0.429196656,1,0.493448019,1
2.436033487,-4.837368011,1,-2.523183584,1,-8.452411652,1,0.191302732,1,-0.425667942,1,0.149342313,1,0.376319766,1,-0.430984199,1,0.493369162,1
2.44003129,-4.867217541,1,-2.838908195,1,-8.366591454,1,0.19000569,1,-0.424650073,1,0.153159961,1,0.377116352,1,-0.432782501,1,0.493282884,1
2.444031,-4.885017872,1,-3.125409603,1,-8.247436523,1,0.176455215,1,-0.41961363,1,0.156652093,1,0.373572409,1,-0.442808121,1,0.493661016,1
2.448032856,-4.826689243,1,-3.404690266,1,-8.214129448,1,0.162872061,1,-0.410583168,1,0.161729872,1,0.374297768,1,-0.444476932,1,0.494324893,1
2.452030659,-4.908734798,1,-3.480120897,1,-8.162748337,1,0.140025765,1,-0.41214782,1,0.165560409,1,0.374902606,1,-0.446243972,1,0.494336665,1
2.456030369,-4.936744213,1,-3.40079236,1,-8.152040482,1,0.115600087,1,-0.401120543,1,0.171098322,1,0.375399202,1,-0.447992653,1,0.494375736,1
2.460032225,-5.034136295,1,-3.369513035,1,-8.153227806,1,0.0939698,1,-0.392484903,1,0.173234686,1,0.375797451,1,-0.449723721,1,0.494435102,1
2.464030266,-4.942681313,1,-3.296477079,1,-8.108483315,1,0.076906167,1,-0.389087349,1,0.174462184,1,0.376107395,1,-0.451435834,1,0.494518638,1
2.468029976,-4.914822578,1,-3.229245663,1,-8.124836922,1,0.057306603,1,-0.384896576,1,0.175552621,1,0.376335204,1,-0.453127742,1,0.49461776,1
2.472031832,-4.845033646,1,-3.077926874,1,-8.135519981,1,0.036686413,1,-0.375708371,1,0.178074226,1,0.376476258,1,-0.454802722,1,0.494724303,1
2.476029634,-4.860363483,1,-2.953728676,1,-8.208924294,1,0.02585436,1,-0.373481631,1,0.18479386,1,0.376547933,1,-0.456455708,1,0.494861037,1
2.480029106,-4.702923298,1,-2.772875547,1,-8.184202194,1,0.011633366,1,-0.352117032,1,0.181883171,1,0.376544088,1,-0.458079249,1,0.495038331,1
2.4840312,-4.811687469,1,-2.769900322,1,-8.212685585,1,0.014184272,1,-0.378666818,1,0.166703939,1,0.376546621,1,-0.459695309,1,0.495157599,1
2.488029242,-4.664022923,1,-3.010514736,1,-8.298480988,1,-0.002301991,1,-0.370345235,1,0.164753824,1,0.376537561,1,-0.461337388,1,0.495230019,1
2.492028713,-4.988436699,1,-2.865157604,1,-8.184263229,1,-0.005007781,1,-0.363222033,1,0.161780044,1,0.376498163,1,-0.462954611,1,0.495306551,1
2.496030807,-4.837947845,1,-2.764927626,1,-8.15504837,1,-0.004690227,1,-0.373900533,1,0.159529403,1,0.376445025,1,-0.464547336,1,0.495372921,1
2.500028849,-4.702431679,1,-2.598145247,1,-8.289521217,1,-0.006881466,1,-0.37180531,1,0.15853858,1,0.376403451,1,-0.466167271,1,0.495423079,1
2.50402832,-4.835782051,1,-2.637246132,1,-8.289988518,1,-0.010695181,1,-0.377381891,1,0.159082562,1,0.376359731,1,-0.467796028,1,0.495464385,1
2.508030176,-4.772721291,1,-2.890262365,1,-8.117591858,1,-0.010487659,1,-0.376445174,1,0.1555859,1,0.376304984,1,-0.469427615,1,0.495499581,1
2.512033701,-4.843465805,1,-2.895159245,1,-8.082780838,1,-0.020276658,1,-0.373515457,1,0.152444407,1,0.376229376,1,-0.471055925,1,0.495527267,1
2.516033649,-5.00308466,1,-2.892367363,1,-8.075731277,1,-0.028668547,1,-0.357679158,1,0.153062686,1,0.376118898,1,-0.472640812,1,0.49556461,1
2.520035267,-4.995944023,1,-2.884189606,1,-7.910744667,1,-0.040897004,1,-0.353203326,1,0.146930367,1,0.375965416,1,-0.474177003,1,0.495597869,1
2.52403307,-5.035046101,1,-2.951787472,1,-7.931184769,1,-0.059096418,1,-0.336890489,1,0.153105766,1,0.375731766,1,-0.475677252,1,0.495664358,1
2.52803278,-5.090515137,1,-3.026751995,1,-7.835752964,1,-0.076290503,1,-0.320932001,1,0.162542209,1,0.375404775,1,-0.477125764,1,0.495787472,1
2.532034636,-5.058135986,1,-3.065061331,1,-7.837123871,1,-0.095029436,1,-0.295905262,1,0.175277799,1,0.374970436,1,-0.478520125,1,0.495982081,1
2.5360322,-5.011471272,1,-3.152666807,1,-7.847416878,1,-0.119472444,1,-0.274046719,1,0.184664637,1,0.37441045,1,-0.479848683,1,0.496264935,1
2.54003191,-5.478255749,1,-3.191063404,1,-7.638778687,1,-0.147196218,1,-0.226826146,1,0.21948801,1,0.373696864,1,-0.481105566,1,0.496690661,1
2.544033527,-4.724653721,1,-2.979570866,1,-8.011949539,1,-0.150939867,1,-0.245047867,1,0.210802943,1,0.372868538,1,-0.482254833,1,0.49719578,1
2.548031569,-5.064522743,1,-3.063136578,1,-7.794131756,1,-0.162323713,1,-0.225023165,1,0.226477861,1,0.372007608,1,-0.483459413,1,0.49772644,1
2.552031279,-5.004964828,1,-2.991867065,1,-7.799552917,1,-0.174365193,1,-0.20786351,1,0.235232398,1,0.371031284,1,-0.484597951,1,0.498360276,1
2.556032658,-5.189253807,1,-2.78124547,1,-7.890739918,1,-0.179419309,1,-0.197235271,1,0.240704015,1,0.37000221,1,-0.485695362,1,0.499031872,1
2.560030699,-5.169345379,1,-2.640851736,1,-7.939211845,1,-0.183892131,1,-0.183413878,1,0.242342159,1,0.368941128,1,-0.486747503,1,0.499744892,1
2.564030409,-5.585679531,1,-2.582730055,1,-8.018767357,1,-0.196748957,1,-0.168609664,1,0.259238482,1,0.367829919,1,-0.487756938,1,0.500508249,1
2.568032026,-4.472576618,1,-2.659762621,1,-7.906048298,1,-0.189250767,1,-0.137255356,1,0.237826988,1,0.366641819,1,-0.488651991,1,0.501354873,1
2.572029591,-5.181987762,1,-2.398532629,1,-7.985973358,1,-0.187666073,1,-0.156955615,1,0.242300853,1,0.365532666,1,-0.489572108,1,0.502118111,1
2.576029301,-5.089736462,1,-2.449027061,1,-7.957587719,1,-0.18576014,1,-0.13908428,1,0.24352622,1,0.364412844,1,-0.490460753,1,0.502911747,1
2.580030918,-4.98990202,1,-2.371419191,1,-8.078344345,1,-0.180034593,1,-0.132809296,1,0.244457588,1,0.36329478,1,-0.491319895,1,0.503729045,1
2.584028721,-5.2870965,1,-2.375673532,1,-7.977453709,1,-0.190860286,1,-0.109683767,1,0.256631702,1,0.362150401,1,-0.492138356,1,0.504588425,1
2.588028431,-4.626671791,1,-2.178873062,1,-8.208093643,1,-0.174137175,1,-0.12326844,1,0.235123634,1,0.361003101,1,-0.49289614,1,0.505446494,1
2.592030287,-4.989042759,1,-2.248995304,1,-8.110879898,1,-0.167586878,1,-0.119831085,1,0.24113825,1,0.359939784,1,-0.493704706,1,0.506261826,1
2.59602809,-4.834679127,1,-2.567300081,1,-8.133402824,1,-0.174073681,1,-0.115459882,1,0.242765725,1,0.358867586,1,-0.494483113,1,0.507101417,1
2.600027561,-4.830766201,1,-2.596786022,1,-8.042537689,1,-0.193833455,1,-0.11044424,1,0.243019521,1,0.357714355,1,-0.495256364,1,0.507956088,1
2.604029417,-4.741652012,1,-2.615895748,1,-8.144851685,1,-0.185192376,1,-0.121724337,1,0.247581303,1,0.356551409,1,-0.496035218,1,0.508801758,1
2.60802722,-4.921718121,1,-2.648683548,1,-8.072867393,1,-0.198842347,1,-0.115128785,1,0.265522838,1,0.355357707,1,-0.496834397,1,0.509706199,1
2.61202693,-5.06751442,1,-2.68936801,1,-8.012927055,1,-0.206016093,1,-0.104132354,1,0.272874951,1,0.354086161,1,-0.497615308,1,0.510679722,1
2.616028786,-4.873037338,1,-2.884654284,1,-7.898972988,1,-0.22053872,1,-0.092787504,1,0.281999111,1,0.352747142,1,-0.498363376,1,0.511706471,1
2.62002635,-5.184895039,1,-2.652406693,1,-7.868645191,1,-0.228001893,1,-0.094427705,1,0.284910291,1,0.351340353,1,-0.499110222,1,0.512774527,1
2.62402606,-5.26645422,1,-2.530869484,1,-7.858051777,1,-0.230256721,1,-0.079774193,1,0.304349691,1,0.349891186,1,-0.499836087,1,0.513889015,1
2.628027678,-5.135614872,1,-2.505677223,1,-7.863536835,1,-0.241689369,1,-0.057704054,1,0.308484286,1,0.348359764,1,-0.50050962,1,0.515104115,1
2.632031202,-5.299427986,1,-2.193184853,1,-7.897933483,1,-0.244551823,1,-0.055247769,1,0.31195268,1,0.346787035,1,-0.501152873,1,0.516341686,1
2.636030912,-5.206153393,1,-2.366437197,1,-7.886909485,1,-0.262244374,1,-0.039240416,1,0.311251283,1,0.345178425,1,-0.501754999,1,0.517600417,1
2.64003253,-5.063745022,1,-2.262618542,1,-7.88476181,1,-0.271453619,1,-0.03930955,1,0.301813811,1,0.343494445,1,-0.50231874,1,0.518855751,1
2.644030571,-5.093482494,1,-2.241873264,1,-8.008038521,1,-0.271468103,1,-0.036603171,1,0.310594738,1,0.341802955,1,-0.502883136,1,0.520116866,1
2.648030281,-5.064528465,1,-2.250923395,1,-7.972864151,1,-0.279231042,1,-0.026668023,1,0.314654052,1,0.340066701,1,-0.503423095,1,0.521415889,1
2.652031898,-4.953700542,1,-2.276931524,1,-8.085982323,1,-0.274296761,1,-0.028642643,1,0.316165626,1,0.338326395,1,-0.503935218,1,0.522733212,1
2.65602994,-4.990532398,1,-2.266257524,1,-8.136152267,1,-0.276503086,1,-0.027780887,1,0.324569613,1,0.336572111,1,-0.504467905,1,0.524076581,1
2.66002965,-4.817586422,1,-2.205023766,1,-8.237462044,1,-0.27555269,1,-0.03244948,1,0.331280947,1,0.334813476,1,-0.505005956,1,0.525441647,1
2.664031506,-4.839810371,1,-2.216088772,1,-8.307067871,1,-0.262128323,1,-0.044193059,1,0.333173543,1,0.333064973,1,-0.505583286,1,0.526829004,1
2.668029547,-4.838745594,1,-2.23010087,1,-8.41480732,1,-0.249729246,1,-0.059232697,1,0.343487561,1,0.331366718,1,-0.50620985,1,0.528217554,1
2.672029018,-4.730679989,1,-2.535032988,1,-8.4445467,1,-0.254444182,1,-0.070948564,1,0.3560929,1,0.329682291,1,-0.506906211,1,0.529628515,1
2.676030636,-4.654150486,1,-2.531174898,1,-8.507261276,1,-0.276929289,1,-0.101496316,1,0.361332119,1,0.327908993,1,-0.507681847,1,0.531059027,1
2.680028677,-4.820491314,1,-2.449685574,1,-8.493639946,1,-0.267810971,1,-0.121448889,1,0.378517807,1,0.326111853,1,-0.50858444,1,0.532505631,1
2.684028387,-4.747934818,1,-2.474256277,1,-8.479075432,1,-0.263566405,1,-0.134633422,1,0.388838232,1,0.324333489,1,-0.509561658,1,0.533970237,1
2.688030481,-4.832634449,1,-2.401529551,1,-8.527558327,1,-0.259981334,1,-0.164261699,1,0.397860229,1,0.322569907,1,-0.510611355,1,0.535455108,1
2.692028522,-4.922399044,1,-2.263226986,1,-8.623054504,1,-0.255400419,1,-0.185834944,1,0.413620323,1,0.320792317,1,-0.511785865,1,0.536967337,1
2.696028233,-4.84743309,1,-2.667852402,1,-8.716795921,1,-0.28293699,1,-0.208300114,1,0.426046103,1,0.318249345,1,-0.513924539,1,0.539252579,1
2.70002985,-4.721282005,1,-2.245616913,1,-8.771715164,1,-0.294789881,1,-0.245090097,1,0.433428645,1,0.316325545,1,-0.5153144,1,0.540800869,1
2.704027653,-4.671292782,1,-1.862251043,1,-8.953899384,1,-0.274281412,1,-0.278845608,1,0.436137944,1,0.314451396,1,-0.516852438,1,0.542317569,1
2.708027363,-4.661097527,1,-1.865732431,1,-9.034480095,1,-0.266057938,1,-0.324645549,1,0.442840308,1,0.312614888,1,-0.518537879,1,0.543824911,1
2.712029219,-4.63830471,1,-1.796972752,1,-9.167834282,1,-0.259599179,1,-0.378015548,1,0.444401205,1,0.310836673,1,-0.52041477,1,0.54527235,1
2.716026783,-4.632845879,1,-1.734433293,1,-9.306088448,1,-0.256258488,1,-0.432168722,1,0.458609045,1,0.309102654,1,-0.522511661,1,0.546684802,1
2.72002697,-4.495150566,1,-1.969907999,1,-9.420778275,1,-0.25360465,1,-0.487323791,1,0.462848783,1,0.307402372,1,-0.524832368,1,0.548061609,1
2.724028587,-4.387518883,1,-1.771488667,1,-9.440542221,1,-0.25787285,1,-0.557175577,1,0.460590363,1,0.305711329,1,-0.527381599,1,0.549372315,1
2.72802639,-4.478426456,1,-1.52895534,1,-9.558635712,1,-0.254302084,1,-0.630110085,1,0.461753219,1,0.304076433,1,-0.530211091,1,0.550586998,1
2.7320261,-4.560387135,1,-1.482726574,1,-9.620707512,1,-0.247714654,1,-0.704891503,1,0.462380618,1,0.302517176,1,-0.533316076,1,0.551701367,1
2.736027956,-4.672413826,1,-1.415415645,1,-9.675642014,1,-0.245641544,1,-0.775394738,1,0.464708894,1,0.301005423,1,-0.536695957,1,0.552741826,1
2.740025759,-4.786835194,1,-1.640136242,1,-9.705827713,1,-0.239464954,1,-0.836962581,1,0.474991769,1,0.299541205,1,-0.54033643,1,0.553724587,1
2.744025707,-4.526572227,1,-1.994636774,1,-9.54251194,1,-0.245103538,1,-0.922171295,1,0.473302484,1,0.298106819,1,-0.544255018,1,0.554633021,1
2.748027086,-4.798098087,1,-1.788640857,1,-9.564705849,1,-0.244457692,1,-0.997876644,1,0.496613532,1,0.296684802,1,-0.548498273,1,0.555483878,1
2.752031088,-5.070347786,1,-1.942056537,1,-9.615019798,1,-0.249152318,1,-1.06905663,1,0.518296599,1,0.29523927,1,-0.553050041,1,0.556356311,1
2.756030798,-4.861423969,1,-2.346509457,1,-9.633603096,1,-0.25583455,1,-1.135270119,1,0.531913042,1,0.2937994,1,-0.557887197,1,0.557207525,1
2.760032415,-4.785444736,1,-3.031722307,1,-9.625034332,1,-0.328089654,1,-1.223410368,1,0.562786102,1,0.292171717,1,-0.563032985,1,0.558081031,1
2.764030457,-4.673438072,1,-2.584914207,1,-9.571313858,1,-0.362294942,1,-1.303380728,1,0.59079814,1,0.290304244,1,-0.568526983,1,0.558968186,1
2.768030405,-4.647104263,1,-2.587014675,1,-9.753314972,1,-0.381543845,1,-1.383218884,1,0.622700214,1,0.288307011,1,-0.574379981,1,0.559900105,1
2.772032499,-5.037770271,1,-3.094995022,1,-9.842420578,1,-0.423951656,1,-1.467627883,1,0.665374339,1,0.286141992,1,-0.580573261,1,0.56092459,1
2.77603054,-4.779724121,1,-3.519223213,1,-9.838312149,1,-0.505022883,1,-1.551267505,1,0.694008231,1,0.283689529,1,-0.587123156,1,0.562015951,1
2.780030012,-4.822991371,1,-3.228572607,1,-10.14952755,1,-0.573185742,1,-1.657791138,1,0.733744085,1,0.280897439,1,-0.594075024,1,0.563155293,1
2.78403163,-4.7110219,1,-3.287738323,1,-10.19595337,1,-0.644810259,1,-1.758294106,1,0.777548015,1,0.277771771,1,-0.601469278,1,0.564391792,1
2.788029671,-4.469171047,1,-3.588531971,1,-10.39188099,1,-0.698447347,1,-1.861909866,1,0.808885038,1,0.274338663,1,-0.609307647,1,0.565702379,1
2.792029142,-4.554868221,1,-3.547982216,1,-10.6265173,1,-0.734187722,1,-1.990401506,1,0.867298126,1,0.270658582,1,-0.617617488,1,0.567118108,1
2.796030998,-4.684900284,1,-4.063863754,1,-10.92337036,1,-0.76771301,1,-2.098697186,1,0.92590785,1,0.266745985,1,-0.626461864,1,0.568691611,1
2.800029039,-5.113305092,1,-4.540525436,1,-11.43433571,1,-0.81518507,1,-2.206919432,1,1.002300978,1,0.262518018,1,-0.635795116,1,0.570501447,1
2.804028749,-4.541981697,1,-5.171504021,1,-10.7421875,1,-0.906039,1,-2.349651575,1,1.105297565,1,0.257794261,1,-0.645656347,1,0.572646558,1
2.808030367,-4.479963779,1,-5.458874226,1,-11.07548904,1,-1.01092732,1,-2.527744055,1,1.210488915,1,0.252429664,1,-0.656251848,1,0.575188935,1
2.81202817,-5.014787197,1,-5.433959007,1,-11.11478043,1,-1.114123702,1,-2.700932503,1,1.343115568,1,0.246335119,1,-0.667667031,1,0.57817775,1
2.816028118,-4.683177471,1,-5.535125732,1,-11.03900719,1,-1.195461273,1,-2.869783163,1,1.476832271,1,0.239473835,1,-0.679825902,1,0.581753671,1
2.820029974,-4.54650259,1,-5.722900867,1,-11.43529129,1,-1.271327853,1,-3.057053328,1,1.614799857,1,0.231887862,1,-0.692788601,1,0.585947514,1
2.824027538,-4.990789413,1,-5.874543667,1,-11.80472088,1,-1.324205637,1,-3.19640708,1,1.742778778,1,0.223571032,1,-0.706485987,1,0.590800345,1
2.828027487,-4.122040749,1,-5.730212212,1,-11.83753395,1,-1.364952803,1,-3.406245708,1,1.905771494,1,0.214519262,1,-0.720947742,1,0.596417487,1
2.832029104,-5.15165472,1,-6.283047199,1,-12.30540371,1,-1.433153272,1,-3.586969137,1,2.069626331,1,0.204580218,1,-0.736311257,1,0.602949739,1
2.836027145,-4.639864922,1,-6.027242184,1,-12.29054737,1,-1.464020133,1,-3.783695459,1,2.209135056,1,0.193740085,1,-0.752420306,1,0.610386908,1
2.840026855,-5.305229664,1,-6.036287785,1,-12.96115208,1,-1.492868185,1,-4.019195557,1,2.371069431,1,0.182019651,1,-0.769488931,1,0.618794024,1
2.844028473,-5.270432472,1,-6.839473724,1,-12.6168642,1,-1.56205368,1,-4.144513607,1,2.528004408,1,0.169251442,1,-0.787257612,1,0.628314018,1
2.848026037,-5.34220314,1,-7.508011818,1,-13.48714638,1,-1.685738802,1,-4.328827381,1,2.70516181,1,0.154972121,1,-0.805682242,1,0.639208257,1
2.852025747,-6.2488451,1,-7.465637207,1,-12.86483574,1,-1.73718822,1,-4.431156635,1,2.762620449,1,0.139293388,1,-0.824550033,1,0.651175022,1
2.856027365,-5.785328865,1,-7.645095348,1,-14.18313217,1,-2.025529861,1,-4.679323673,1,3.135811806,1,0.121436492,1,-0.844230175,1,0.665096104,1
2.860025406,-4.221373081,1,-7.840976715,1,-14.06889439,1,-2.13215065,1,-4.853970528,1,3.373410225,1,0.100661553,1,-0.864554882,1,0.681568623,1
2.864025116,-5.583391666,1,-8.228001595,1,-14.24390221,1,-2.196074724,1,-5.100978851,1,3.613356829,1,0.077421822,1,-0.885659277,1,0.700564027,1
2.868026972,-10.9102087,1,-7.864656448,1,-13.89095211,1,-2.277975798,1,-5.075519562,1,3.698998213,1,0.051801361,1,-0.906999111,1,0.721892893,1
2.872030497,-14.29885483,1,-6.18109417,1,-14.93642712,1,-2.338530064,1,-4.923852444,1,3.656114817,1,0.024327893,1,-0.927521706,1,0.74485743,1
2.876030207,-14.48347759,1,-5.469202518,1,-15.02187157,1,-2.295621634,1,-4.811049938,1,3.616216898,1,-0.004472065,1,-0.94713515,1,0.769052029,1
2.880032063,-14.0306015,1,-5.816147804,1,-14.51493263,1,-2.146898508,1,-4.735171318,1,3.75343442,1,-0.034717277,1,-0.965935051,1,0.795177817,1
2.884029627,-13.64967918,1,-3.660775661,1,-16.34220123,1,-1.842139959,1,-4.646850109,1,3.874975443,1,-0.06672699,1,-0.983865917,1,0.824156165,1
2.888029099,-13.95965385,1,-3.62399292,1,-15.42948341,1,-1.511816978,1,-4.710821152,1,3.803843975,1,-0.099278584,1,-1.001232743,1,0.85500145,1
2.892030954,-13.41944504,1,-4.983935356,1,-15.73281288,1,-1.193709731,1,-4.756884575,1,3.80231595,1,-0.132113248,1,-1.018300891,1,0.887444794,1
2.896028996,-13.83216381,1,-7.196074009,1,-15.15955067,1,-1.062170148,1,-4.750404358,1,3.893941402,1,-0.16644831,1,-1.034803271,1,0.922288358,1
2.900028706,-13.40753269,1,-7.108764648,1,-14.95139503,1,-1.242927909,1,-4.790908337,1,4.080011368,1,-0.203911394,1,-1.050652623,1,0.960378647,1
2.904030561,-16.26315117,1,-7.916150093,1,-15.64765263,1,-1.340906024,1,-4.68640852,1,4.182260036,1,-0.245286688,1,-1.065454602,1,1.001892686,1
2.908028126,-17.5902195,1,-10.43657207,1,-14.15768051,1,-1.562075019,1,-4.485230446,1,4.333966732,1,-0.290009797,1,-1.078685403,1,1.046322227,1
2.912027836,-16.33579445,1,-11.72594929,1,-12.56391716,1,-2.146179438,1,-4.293682575,1,4.485050678,1,-0.33943215,1,-1.089900136,1,1.093902826,1
2.916029692,-17.95694542,1,-11.3623867,1,-12.95816708,1,-2.686249971,1,-4.010387421,1,4.396488667,1,-0.393032968,1,-1.099092007,1,1.143260002,1
2.920027494,-18.80413628,1,-8.071870804,1,-13.24099159,1,-3.005903721,1,-3.427398443,1,4.151296616,1,-0.447397232,1,-1.105763078,1,1.191373467,1
2.924027205,-19.14334297,1,-3.723139524,1,-15.39880085,1,-3.025638342,1,-2.739789009,1,3.868707418,1,-0.499402314,1,-1.109420061,1,1.235888958,1
2.928028822,-17.79600143,1,-1.090687275,1,-17.97667694,1,-2.631563902,1,-2.119612932,1,3.550301552,1,-0.546451867,1,-1.110396504,1,1.275703669,1
2.932026863,-14.19983196,1,-1.920407176,1,-19.58592415,1,-2.056958437,1,-1.561369181,1,3.194351673,1,-0.586591423,1,-1.109352112,1,1.310065866,1
2.936026573,-17.97627831,1,3.062788248,1,-17.69817924,1,-1.406833291,1,-1.415453076,1,3.098707676,1,-0.621073782,1,-1.107007265,1,1.340751886,1
2.940028429,-18.66521263,1,0.637480199,1,-19.53075981,1,-0.698671043,1,-0.981122732,1,2.877952099,1,-0.650059581,1,-1.103909612,1,1.368597031,1
2.944026709,-4.964861393,1,-6.520433426,1,-14.45510864,1,-0.428620309,1,-0.711726248,1,2.732197285,1,-0.673662364,1,-1.099583745,1,1.392623782,1
2.948026657,0.863371432,1,-9.925151825,1,-9.313310623,1,-0.315686315,1,-0.870733678,1,2.568516016,1,-0.694801927,1,-1.0950526,1,1.415295362,1
2.952028275,-5.679987431,1,-10.59405899,1,-10.46493435,1,-0.274157196,1,-1.039325476,1,2.412501812,1,-0.715487123,1,-1.09160459,1,1.437322378,1
2.956025839,-7.376255989,1,-10.93008614,1,-12.09720898,1,-0.491411626,1,-0.927023888,1,2.275602102,1,-0.735442162,1,-1.088322759,1,1.458132267,1
2.960025311,-7.142384529,1,-11.44892025,1,-11.96714306,1,-0.659280837,1,-0.822070837,1,2.040136576,1,-0.754400134,1,-1.085021377,1,1.476909518,1
2.964027166,-7.996632576,1,-12.02126312,1,-12.18745232,1,-0.719525576,1,-0.633966506,1,1.710055232,1,-0.771265984,1,-1.081953287,1,1.492854714,1
2.968024731,-7.408908844,1,-11.81290531,1,-12.45587826,1,-0.762654245,1,-0.378289163,1,1.372392774,1,-0.785129786,1,-1.079071045,1,1.50520277,1
2.972024202,-6.459409714,1,-11.34434032,1,-12.86799812,1,-0.778460801,1,-0.110915042,1,1.033207297,1,-0.795817256,1,-1.076342583,1,1.513839245,1
2.976026058,-6.001460552,1,-11.23753643,1,-12.71007156,1,-0.753587306,1,0.183389008,1,0.683854222,1,-0.803145409,1,-1.073777437,1,1.518669844,1
2.980023861,-5.227217674,1,-11.00219917,1,-12.27574921,1,-0.706005573,1,0.466997564,1,0.338386536,1,-0.806946635,1,-1.071401358,1,1.519677401,1
2.984023333,-3.779793501,1,-10.86463928,1,-11.63734913,1,-0.657178819,1,0.724239409,1,0.021473775,1,-0.807429254,1,-1.069234252,1,1.517109752,1
2.988025188,-1.972612381,1,-10.62171268,1,-10.86979675,1,-0.614024162,1,0.948576152,1,-0.276182503,1,-0.804930091,1,-1.067287683,1,1.511352062,1
2.992028713,-0.217488885,1,-10.29313183,1,-10.08074856,1,-0.578322172,1,1.112289071,1,-0.545234859,1,-0.79986012,1,-1.065605521,1,1.502836585,1
2.996028662,1.020774364,1,-9.868103027,1,-9.486359596,1,-0.54235816,1,1.238982201,1,-0.789252818,1,-0.792653561,1,-1.064222455,1,1.49202919,1
3.000030518,2.043108463,1,-9.239720345,1,-8.877579689,1,-0.508303583,1,1.338535309,1,-1.00158298,1,-0.783625722,1,-1.063123226,1,1.479290962,1
3.004028082,2.83514142,1,-8.524130821,1,-8.408982277,1,-0.451723278,1,1.42627573,1,-1.190653324,1,-0.772953212,1,-1.062260866,1,1.464879155,1
3.008028269,3.350079775,1,-7.82652998,1,-8.063696861,1,-0.364047289,1,1.499518514,1,-1.357783079,1,-0.760745525,1,-1.06159246,1,1.449018002,1
3.012029886,3.6844666,1,-7.134990692,1,-7.762018681,1,-0.263851672,1,1.577792168,1,-1.50781846,1,-0.746969819,1,-1.061032534,1,1.431794763,1
3.016027689,3.90289402,1,-6.53674984,1,-7.609195232,1,-0.136096776,1,1.656905293,1,-1.642710805,1,-0.731659174,1,-1.060503125,1,1.41332233,1
3.020027399,3.863513231,1,-6.040550709,1,-7.549266338,1,0.005534662,1,1.728633761,1,-1.762569904,1,-0.714800417,1,-1.0599401,1,1.3936975,1
3.024029016,3.849823475,1,-5.529965401,1,-7.443641186,1,0.154090092,1,1.821519613,1,-1.866078854,1,-0.696426988,1,-1.059253335,1,1.372995615,1
3.028026819,3.727857351,1,-5.194533348,1,-7.346292496,1,0.304314733,1,1.922206521,1,-1.951382399,1,-0.676541805,1,-1.058312774,1,1.351234794,1
3.032026529,3.954793215,1,-4.869080544,1,-7.126224041,1,0.455848515,1,2.019866943,1,-2.035261393,1,-0.655258417,1,-1.057038307,1,1.328552246,1
3.036028147,3.842228174,1,-4.616366863,1,-7.155786037,1,0.603489161,1,2.121874332,1,-2.096809387,1,-0.632664621,1,-1.055377483,1,1.305029988,1
3.040026188,3.796884775,1,-4.366547108,1,-7.152047634,1,0.74683851,1,2.218459129,1,-2.140228271,1,-0.608930886,1,-1.053251266,1,1.280844212,1
3.04402566,3.692423344,1,-4.011692047,1,-7.054759979,1,0.885886431,1,2.314740896,1,-2.166207314,1,-0.584243834,1,-1.050583839,1,1.25618279,1
3.048027277,3.559005737,1,-3.866615534,1,-7.022042274,1,1.017069578,1,2.417292595,1,-2.173850536,1,-0.558852255,1,-1.047321796,1,1.231275439,1
3.052025318,3.487139463,1,-3.682245731,1,-7.123834133,1,1.149059176,1,2.500058889,1,-2.180572033,1,-0.532866716,1,-1.043434858,1,1.206241846,1
3.05602479,3.167266607,1,-3.518265009,1,-7.197254181,1,1.271246314,1,2.596901417,1,-2.175912142,1,-0.506454527,1,-1.038917422,1,1.181244373,1
3.060026646,2.746346951,1,-3.4062078,1,-7.32365799,1,1.391484857,1,2.695661306,1,-2.163460493,1,-0.479757071,1,-1.033701301,1,1.156411171,1
3.06402421,2.520936251,1,-3.215747118,1,-7.407278061,1,1.510099292,1,2.801563501,1,-2.157619476,1,-0.452854156,1,-1.027763963,1,1.131793022,1
3.068024158,2.049688816,1,-3.153786182,1,-7.571707726,1,1.615125299,1,2.904991865,1,-2.15315032,1,-0.425804436,1,-1.02110517,1,1.107444882,1
3.072025776,1.535822749,1,-3.148314238,1,-7.720119476,1,1.709616899,1,3.009945631,1,-2.15019393,1,-0.398730218,1,-1.013722062,1,1.083433151,1
3.076023579,1.36769104,1,-2.99850893,1,-7.808192253,1,1.801519513,1,3.113418341,1,-2.169528723,1,-0.371660709,1,-1.005607724,1,1.059752941,1
3.08002305,1.035630345,1,-2.863145828,1,-7.960226059,1,1.884862781,1,3.207355738,1,-2.182464838,1,-0.344644368,1,-0.99681586,1,1.036428332,1
3.084024906,0.785607398,1,-2.757161617,1,-8.019086838,1,1.962057829,1,3.306474447,1,-2.213130236,1,-0.317745149,1,-0.987333238,1,1.01348412,1
3.08802247,0.407334924,1,-2.623641729,1,-8.109967232,1,2.040544271,1,3.402406693,1,-2.245741606,1,-0.290967584,1,-0.977200508,1,0.990922213,1
3.092022181,0.023476014,1,-2.474915981,1,-8.222189903,1,2.115892649,1,3.491096497,1,-2.27990365,1,-0.264358819,1,-0.966423392,1,0.968768835,1
3.096024036,-0.444022268,1,-2.401883602,1,-8.305988312,1,2.192338467,1,3.578932047,1,-2.338752508,1,-0.237902582,1,-0.955030799,1,0.947007656,1
3.100021839,-1.00992012,1,-2.355992556,1,-8.480658531,1,2.256638765,1,3.664688587,1,-2.400789499,1,-0.211595014,1,-0.943011642,1,0.925591528,1
3.104021549,-1.614413857,1,-2.419740677,1,-8.595925331,1,2.30905056,1,3.764886856,1,-2.471810341,1,-0.185489282,1,-0.930370986,1,0.904529512,1
3.108023405,-1.967307091,1,-2.524271011,1,-8.665008545,1,2.351068974,1,3.855068922,1,-2.540837526,1,-0.15964523,1,-0.917078376,1,0.883810222,1
3.11202693,-2.252407789,1,-2.486000061,1,-8.757933617,1,2.380629063,1,3.940264702,1,-2.62631321,1,-0.134088129,1,-0.903170407,1,0.863433957,1
3.116026878,-2.517785549,1,-2.416161537,1,-8.838129044,1,2.408361197,1,4.019377708,1,-2.716832876,1,-0.108858585,1,-0.888669252,1,0.843389034,1
3.120028496,-2.854424477,1,-2.399282217,1,-8.97837925,1,2.430437088,1,4.091896057,1,-2.79916954,1,-0.083979905,1,-0.873583913,1,0.823684752,1
3.124026299,-2.931366205,1,-2.232087374,1,-9.095088005,1,2.455855608,1,4.157013416,1,-2.893550396,1,-0.059478991,1,-0.857931674,1,0.804334462,1
3.128026009,-3.222993851,1,-2.096168756,1,-9.308932304,1,2.494133949,1,4.216486931,1,-2.981024981,1,-0.035321992,1,-0.841772735,1,0.785362065,1
3.132027626,-3.557285547,1,-1.851388216,1,-9.566239357,1,2.539063931,1,4.263431072,1,-3.074313641,1,-0.011495087,1,-0.825108707,1,0.766775191,1
3.136025667,-3.976215839,1,-1.664231658,1,-9.824861526,1,2.589408875,1,4.322536945,1,-3.159177065,1,0.012017735,1,-0.807933509,1,0.748573363,1
3.140025377,-4.178244114,1,-1.428150654,1,-10.03914165,1,2.659981251,1,4.386641026,1,-3.254597425,1,0.035268858,1,-0.790216327,1,0.7307809,1
3.144027233,-4.532683849,1,-1.359670281,1,-10.20752525,1,2.732377768,1,4.433922768,1,-3.338689804,1,0.058304768,1,-0.771985054,1,0.713388324,1
3.148025036,-4.743285656,1,-1.309533715,1,-10.36438179,1,2.797970295,1,4.484595299,1,-3.421940088,1,0.081076123,1,-0.75324744,1,0.696441889,1
3.152024508,-4.977343082,1,-1.332834959,1,-10.4798727,1,2.85818243,1,4.523654938,1,-3.500745773,1,0.103551149,1,-0.734027267,1,0.679967165,1
3.156026363,-4.91703558,1,-1.391735554,1,-10.51358223,1,2.903580904,1,4.56788063,1,-3.572493076,1,0.12566565,1,-0.714336276,1,0.663978994,1
3.160024166,-5.046757698,1,-1.562908173,1,-10.54451466,1,2.942532539,1,4.590441704,1,-3.633178711,1,0.14737834,1,-0.694237411,1,0.648505628,1
3.164023638,-5.200369835,1,-1.741213202,1,-10.62107563,1,2.959461689,1,4.604074955,1,-3.678948641,1,0.168614239,1,-0.673759103,1,0.633587837,1
3.168025255,-5.043336391,1,-1.756164193,1,-10.61196804,1,2.955253839,1,4.621157646,1,-3.720535517,1,0.189246833,1,-0.652977169,1,0.619270265,1
3.172023058,-5.282160282,1,-1.80777967,1,-10.94658661,1,2.965066195,1,4.603407383,1,-3.753920555,1,0.209325597,1,-0.631936193,1,0.605532348,1
3.17602253,-5.60350132,1,-1.838409662,1,-11.19233894,1,2.968265533,1,4.600741863,1,-3.773891687,1,0.22883898,1,-0.610702693,1,0.592381656,1
3.180024385,-5.908417702,1,-1.819235682,1,-11.55494785,1,2.971805096,1,4.597661018,1,-3.785966396,1,0.247800857,1,-0.589248955,1,0.579840422,1
3.18402195,-6.329409122,1,-1.849419951,1,-12.02205276,1,2.98849678,1,4.598426819,1,-3.800737143,1,0.266260296,1,-0.567613065,1,0.567895472,1
3.18802166,-6.881330967,1,-1.812776089,1,-12.55787849,1,3.022931337,1,4.624031067,1,-3.81222415,1,0.284282029,1,-0.54572916,1,0.556542158,1
3.192023516,-7.396166325,1,-1.721306205,1,-13.15445995,1,3.06922102,1,4.657412529,1,-3.840977192,1,0.30196774,1,-0.523543179,1,0.545744181,1
3.196021318,-7.736920357,1,-1.595357895,1,-13.69894695,1,3.120157719,1,4.696249008,1,-3.876524687,1,0.319570154,1,-0.50098753,1,0.53567946,1
3.200021029,-8.003394127,1,-1.457044005,1,-14.24070644,1,3.181124687,1,4.729121685,1,-3.918404818,1,0.336805284,1,-0.47811681,1,0.525843322,1
3.204022884,-8.162792206,1,-1.310942173,1,-14.72496986,1,3.245876551,1,4.757641792,1,-3.974231005,1,0.353908539,1,-0.454918116,1,0.516406059,1
3.208020449,-8.395642281,1,-1.262189746,1,-15.21542454,1,3.306132793,1,4.761797428,1,-4.025457859,1,0.37091893,1,-0.431450218,1,0.507329166,1
3.212020397,-8.697027206,1,-1.423372626,1,-15.50047207,1,3.370791912,1,4.760225296,1,-4.075029373,1,0.387848258,1,-0.407756239,1,0.498580098,1
3.216022253,-8.841194153,1,-1.78229332,1,-15.81885242,1,3.408660173,1,4.734476566,1,-4.124162197,1,0.404672623,1,-0.383907139,1,0.490133941,1
3.220020294,-9.166837692,1,-1.969095945,1,-16.1966877,1,3.419611931,1,4.688132763,1,-4.181796074,1,0.421313852,1,-0.359972835,1,0.481927246,1
3.224020004,-9.507633209,1,-2.090673685,1,-16.62132072,1,3.393577099,1,4.614040375,1,-4.246418476,1,0.437697798,1,-0.336036921,1,0.473865807,1
3.228021622,-9.96084404,1,-2.14690733,1,-17.01880646,1,3.348585606,1,4.517447948,1,-4.32392025,1,0.45373264,1,-0.31216827,1,0.465850651,1
3.232025623,-10.92965412,1,-2.318325043,1,-17.28253746,1,3.277780771,1,4.402057171,1,-4.393224716,1,0.469356269,1,-0.288420141,1,0.457833737,1
3.236025572,-11.97546577,1,-2.358201742,1,-17.67546272,1,3.190205097,1,4.282161236,1,-4.452132225,1,0.484493345,1,-0.264859587,1,0.449777663,1
3.240027189,-13.45972919,1,-1.944158316,1,-18.13361359,1,3.100726366,1,4.16310358,1,-4.501437664,1,0.49909541,1,-0.241513416,1,0.44170332,1
3.244024992,-15.46375751,1,-1.300031304,1,-18.55080414,1,3.034083366,1,4.048011303,1,-4.524726391,1,0.513191521,1,-0.218416363,1,0.433651984,1
3.24802494,-18.17844009,1,-0.529013216,1,-18.65313911,1,3.017267227,1,3.993695974,1,-4.517824173,1,0.526903331,1,-0.195491627,1,0.425752848,1
3.252026558,-20.75115585,1,0.161977321,1,-18.44280052,1,3.05862546,1,3.982722759,1,-4.495709419,1,0.540435314,1,-0.172590554,1,0.418211639,1
3.256024599,-23.3232708,1,-0.165568352,1,-17.72444153,1,3.078760386,1,4.008051395,1,-4.431146622,1,0.553850174,1,-0.149670213,1,0.411162674,1
3.260024309,-25.58069229,1,-1.020800829,1,-16.39956093,1,3.026606083,1,4.062298775,1,-4.340684414,1,0.566957951,1,-0.126662582,1,0.404816747,1
3.264026165,-26.70238304,1,-1.471541047,1,-14.31942749,1,2.902656794,1,4.069377422,1,-4.199622631,1,0.579475641,1,-0.103713058,1,0.399246454,1
3.268023729,-27.64999008,1,-0.553970039,1,-12.08106136,1,2.741228104,1,3.999968529,1,-4.014547348,1,0.591220737,1,-0.08117184,1,0.394445926,1
3.272023439,-28.16550827,1,0.94338733,1,-9.437537193,1,2.596970797,1,3.838280916,1,-3.782144308,1,0.602174938,1,-0.059420276,1,0.390355408,1
3.276025295,-28.34554291,1,3.149553299,1,-6.834868431,1,2.502600431,1,3.593565226,1,-3.503150463,1,0.612538397,1,-0.0388714,1,0.386874437,1
3.280023098,-27.82968712,1,5.591636658,1,-4.158459187,1,2.480073452,1,3.272428751,1,-3.176089764,1,0.622569382,1,-0.019914683,1,0.383931607,1
3.284022808,-27.25499153,1,8.422678947,1,-2.271269083,1,2.534590244,1,2.842815876,1,-2.818490267,1,0.632612348,1,-0.002956253,1,0.381404877,1
3.288024664,-26.38829041,1,10.8596859,1,-0.784772635,1,2.655080318,1,2.358740568,1,-2.452755451,1,0.642964721,1,0.011678536,1,0.379126549,1
3.292022228,-25.48264313,1,13.38356876,1,-0.067854114,1,2.8452878,1,1.841727138,1,-2.109698057,1,0.653918326,1,0.023876563,1,0.376933217,1
3.296021938,-25.30148125,1,15.48748779,1,0.145928785,1,3.037976265,1,1.333629966,1,-1.809676051,1,0.66561234,1,0.033676349,1,0.374636829,1
3.300024033,-25.81405449,1,16.51723289,1,0.031993136,1,3.19566083,1,0.886552274,1,-1.562513709,1,0.678004444,1,0.041333925,1,0.372119248,1
3.304022074,-27.33646011,1,16.58249474,1,-0.375515759,1,3.249133825,1,0.535870671,1,-1.383330584,1,0.690812409,1,0.047231175,1,0.369346797,1
3.308021784,-29.59122658,1,14.70311642,1,-0.361551404,1,3.11744976,1,0.300053209,1,-1.22306776,1,0.703458548,1,0.051820602,1,0.366403997,1
3.312023401,-31.1830864,1,12.45719528,1,-0.537128806,1,2.766111135,1,0.126422256,1,-1.085021377,1,0.715115845,1,0.055473313,1,0.3634606,1
3.316021204,-32.27225494,1,9.706537247,1,-0.113477059,1,2.193834305,1,0.012161774,1,-0.934027612,1,0.724912047,1,0.058329988,1,0.360585451,1
3.320020914,-32.033535,1,7.426914215,1,0.380901694,1,1.475718379,1,-0.078703783,1,-0.726174235,1,0.732128561,1,0.060464326,1,0.358014226,1
3.324023008,-30.8670063,1,5.667640686,1,1.083990455,1,0.661840618,1,-0.176529095,1,-0.463492721,1,0.736271977,1,0.061694834,1,0.355889022,1
3.328021288,-29.76802635,1,5.005032539,1,1.508093238,1,-0.097025074,1,-0.28106612,1,-0.116912127,1,0.737284541,1,0.061817534,1,0.354398489,1
3.33202076,-28.6344986,1,5.459534168,1,1.360097289,1,-0.722905457,1,-0.407570213,1,0.278317451,1,0.735567093,1,0.060582969,1,0.353709936,1
3.336022377,-27.74220085,1,6.146956444,1,1.214014411,1,-1.153346419,1,-0.524067163,1,0.706422746,1,0.731780708,1,0.057887133,1,0.353917032,1
3.34002018,-26.78776169,1,6.412970066,1,0.771455228,1,-1.405099034,1,-0.63162148,1,1.141339183,1,0.726687431,1,0.053693458,1,0.355125904,1
3.34401989,-25.73841858,1,5.95001173,1,0.114740491,1,-1.498966217,1,-0.734914184,1,1.548847556,1,0.72094965,1,0.048073918,1,0.357355535,1
3.348021746,-25.37540436,1,4.751814365,1,-0.279218942,1,-1.485478163,1,-0.78196919,1,1.917765379,1,0.715101242,1,0.041210372,1,0.36058712,1
3.352025509,-24.54874039,1,2.705525875,1,-0.743139386,1,-1.461418748,1,-0.781258345,1,2.234529018,1,0.709367335,1,0.033402137,1,0.364829242,1
3.356025457,-18.41963768,1,-3.835857153,1,-5.513575554,1,-1.597067237,1,-0.809732676,1,2.486777782,1,0.703537226,1,0.024873078,1,0.369977981,1
3.360027075,5.065648556,1,-12.76819038,1,-11.0143528,1,-2.117218256,1,-1.115768433,1,2.96905756,1,0.696067095,1,0.015086224,1,0.375939965,1
