Time,inertial-6253.76535:estCompensatedAccelX,inertial-6253.76535:estCompensatedAccelX:valid,inertial-6253.76535:estCompensatedAccelY,inertial-6253.76535:estCompensatedAccelY:valid,inertial-6253.76535:estCompensatedAccelZ,inertial-6253.76535:estCompensatedAccelZ:valid,inertial-6253.76535:estAngularRateX,inertial-6253.76535:estAngularRateX:valid,inertial-6253.76535:estAngularRateY,inertial-6253.76535:estAngularRateY:valid,inertial-6253.76535:estAngularRateZ,inertial-6253.76535:estAngularRateZ:valid,inertial-6253.76535:estRoll,inertial-6253.76535:estRoll:valid,inertial-6253.76535:estPitch,inertial-6253.76535:estPitch:valid,inertial-6253.76535:estYaw,inertial-6253.76535:estYaw:valid
0,-5.571278572,1,-3.227395058,1,-7.43416357,1,-0.005017911,1,0.01013695,1,-0.00531418,1,0.420393735,1,-0.596755326,1,-0.364937246,1
0.004001536,-5.560919285,1,-3.235648632,1,-7.433861256,1,0.003690567,1,0.008090432,1,-0.004809486,1,0.420391142,1,-0.596721411,1,-0.364943057,1
0.007999232,-5.562817574,1,-3.287991047,1,-7.432359695,1,0.000855116,1,0.007379548,1,-0.007531055,1,0.420394361,1,-0.596678019,1,-0.364943802,1
0.011998976,-5.526123047,1,-3.301504612,1,-7.468549252,1,-0.000396702,1,0.009232368,1,-0.005415347,1,0.420396149,1,-0.596638024,1,-0.364953518,1
0.016000511,-5.549031258,1,-3.23888588,1,-7.443776608,1,-0.003640007,1,0.008908079,1,-0.003388355,1,0.420393646,1,-0.596602261,1,-0.364963949,1
0.019998208,-5.558666229,1,-3.226903677,1,-7.46638155,1,0.000713126,1,0.003965975,1,-0.002542466,1,0.420266569,1,-0.596643567,1,-0.364901245,1
0.023997951,-5.57700634,1,-3.221321821,1,-7.422132492,1,-0.000493043,1,0.005350634,1,-0.003734648,1,0.420243382,1,-0.596565187,1,-0.364960909,1
0.027999744,-5.55646801,1,-3.249574423,1,-7.400668144,1,0.001883667,1,0.006893273,1,-0.008084454,1,0.42024675,1,-0.596528053,1,-0.364964098,1
0.031997696,-5.530350685,1,-3.230569363,1,-7.397786617,1,0.00118014,1,0.005554436,1,-0.002241218,1,0.420255423,1,-0.596490443,1,-0.364983559,1
0.035997439,-5.532326221,1,-3.257834435,1,-7.447066784,1,-0.001445485,1,0.004589265,1,-0.006294834,1,0.420272589,1,-0.596461356,1,-0.365004718,1
0.039998975,-5.531106949,1,-3.262650728,1,-7.440031052,1,-0.001689393,1,0.003232269,1,-0.003377619,1,0.42027095,1,-0.596436679,1,-0.365011573,1
0.043996673,-5.517850399,1,-3.286414623,1,-7.433534622,1,0.001381708,1,0.003085288,1,-0.005363986,1,0.420272827,1,-0.59640801,1,-0.365019739,1
0.04799616,-5.53758049,1,-3.273720741,1,-7.437366009,1,0.00057592,1,0.006053787,1,-0.002306284,1,0.420276076,1,-0.596380472,1,-0.365027428,1
0.051997952,-5.565313816,1,-3.285688639,1,-7.432180405,1,-0.003149911,1,0.007324411,1,-0.004550689,1,0.420273542,1,-0.59634757,1,-0.365034163,1
0.055995647,-5.513401985,1,-3.255735636,1,-7.420628548,1,-0.001367733,1,0.003296382,1,-0.005527324,1,0.420270383,1,-0.596321702,1,-0.365041196,1
0.059995137,-5.529196739,1,-3.267302513,1,-7.427351475,1,0.000212339,1,0.004124186,1,-0.004517832,1,0.420266777,1,-0.596297503,1,-0.365047157,1
0.063996926,-5.522929668,1,-3.256299019,1,-7.415532589,1,-0.005585843,1,0.00630755,1,-0.006673614,1,0.420261979,1,-0.596269608,1,-0.365055352,1
0.067994624,-5.532639503,1,-3.244914532,1,-7.432912827,1,-0.002369391,1,0.007907402,1,-0.002591359,1,0.420247525,1,-0.596235931,1,-0.365055382,1
0.071994111,-5.537954807,1,-3.263042212,1,-7.433288574,1,-0.001257409,1,0.00723837,1,-0.005941434,1,0.420249462,1,-0.596209407,1,-0.365066111,1
0.075995907,-5.52669239,1,-3.252123833,1,-7.406908035,1,-0.003852873,1,0.003082698,1,-0.004517854,1,0.420249075,1,-0.596179783,1,-0.365072787,1
0.079993598,-5.540070057,1,-3.241303444,1,-7.424142838,1,-0.001286489,1,0.00833355,1,-0.003139037,1,0.420237958,1,-0.596154392,1,-0.365074724,1
0.083993345,-5.539353371,1,-3.238461494,1,-7.419086933,1,-0.000618341,1,0.001889535,1,-0.005845325,1,0.420243204,1,-0.596131921,1,-0.365090311,1
0.087994881,-5.549620628,1,-3.257505178,1,-7.424563408,1,-0.000853785,1,0.005765227,1,-0.003688717,1,0.420243829,1,-0.596105754,1,-0.365099877,1
0.091998465,-5.543359756,1,-3.247330189,1,-7.439516544,1,-0.003389585,1,0.00619838,1,-0.006866623,1,0.420241326,1,-0.59607935,1,-0.36510703,1
0.095998205,-5.537477493,1,-3.254751205,1,-7.409088135,1,1.53E-06,1,0.009105389,1,-0.001176998,1,0.420239121,1,-0.59604913,1,-0.365111232,1
0.100000001,-5.555887222,1,-3.159915924,1,-7.415064335,1,-0.002796852,1,0.005393564,1,-0.004097769,1,0.420227706,1,-0.596018851,1,-0.365107179,1
0.103997692,-5.554680347,1,-3.205524921,1,-7.425158024,1,-0.002139605,1,0.007559897,1,0.000578303,1,0.420231104,1,-0.595996797,1,-0.36511445,1
0.10799744,-5.590129852,1,-3.148840427,1,-7.429971695,1,0.00179846,1,0.006466513,1,-0.003895433,1,0.420235693,1,-0.595970631,1,-0.365112811,1
0.111998975,-5.537569523,1,-3.208840132,1,-7.422923565,1,0.00478396,1,0.002290584,1,-0.005712072,1,0.420251667,1,-0.59594363,1,-0.365120798,1
0.115996674,-5.535795212,1,-3.279687405,1,-7.429925919,1,0.003925372,1,0.004530408,1,-0.007562041,1,0.42027092,1,-0.595921636,1,-0.365134656,1
0.119996674,-5.528999329,1,-3.279562235,1,-7.41976738,1,0.00191866,1,-2.91E-05,1,-0.003566318,1,0.42029652,1,-0.595898688,1,-0.365156293,1
0.12399821,-5.522781849,1,-3.265339136,1,-7.402702808,1,0.004568128,1,0.004341442,1,-0.00729491,1,0.420324683,1,-0.595888615,1,-0.365182668,1
0.127996162,-5.519064903,1,-3.264760494,1,-7.446918011,1,0.003065363,1,-0.003499924,1,-0.006981045,1,0.420347035,1,-0.595873833,1,-0.36519897,1
0.131995648,-5.497466087,1,-3.244690657,1,-7.42397213,1,0.000744354,1,0.002332684,1,-0.000647502,1,0.420368373,1,-0.595864773,1,-0.365215331,1
0.135997191,-5.515781879,1,-3.264260054,1,-7.433388233,1,0.004518365,1,0.001654205,1,-0.004386767,1,0.42038852,1,-0.595856428,1,-0.365234137,1
0.139995143,-5.508511066,1,-3.2931633,1,-7.428606033,1,0.001216006,1,-0.000532475,1,-0.003615713,1,0.420402586,1,-0.59585011,1,-0.365244269,1
0.143994629,-5.508351803,1,-3.299725056,1,-7.456205845,1,-0.000730225,1,0.001120266,1,-0.003942834,1,0.420422554,1,-0.595845759,1,-0.365258813,1
0.147996411,-5.539857388,1,-3.22129178,1,-7.416974545,1,0.001110536,1,-1.34E-05,1,0.002288052,1,0.420430571,1,-0.595836341,1,-0.365270525,1
0.151994109,-5.544599056,1,-3.249464035,1,-7.434905052,1,-0.000765328,1,0.002546289,1,-0.000672197,1,0.420439035,1,-0.595834374,1,-0.365273833,1
0.155993596,-5.582731247,1,-3.252618074,1,-7.427202702,1,0.000555192,1,-0.001443103,1,-0.002359884,1,0.420452774,1,-0.595820248,1,-0.365285873,1
0.159995392,-5.530114174,1,-3.223198891,1,-7.424697399,1,0.003898417,1,-0.001195826,1,-0.002368311,1,0.420470774,1,-0.595811129,1,-0.365300715,1
0.16399309,-5.554418087,1,-3.259979248,1,-7.386799812,1,0.001475727,1,0.001987967,1,4.15E-05,1,0.420474291,1,-0.595808864,1,-0.365301192,1
0.167992577,-5.532016277,1,-3.259719849,1,-7.415866852,1,0.00181549,1,2.06E-05,1,-0.00092576,1,0.420489222,1,-0.595795214,1,-0.365301549,1
0.171994373,-5.539868355,1,-3.247286797,1,-7.373848438,1,0.006556671,1,0.000750047,1,-0.002366741,1,0.42050761,1,-0.595782042,1,-0.365308404,1
0.175992057,-5.54460001,1,-3.230657578,1,-7.413066387,1,0.004859232,1,0.00216323,1,0.000986685,1,0.420524627,1,-0.595775247,1,-0.365307152,1
0.179991812,-5.526494026,1,-3.214458704,1,-7.458006859,1,0.004676159,1,0.003709175,1,-0.005258043,1,0.420551062,1,-0.595766187,1,-0.365319312,1
0.18399334,-5.544121742,1,-3.191038847,1,-7.469594479,1,0.008076209,1,-0.004404881,1,-0.005637561,1,0.420603484,1,-0.59576118,1,-0.365355462,1
0.187991038,-5.556723118,1,-3.127984762,1,-7.463993549,1,0.009979101,1,-0.005627425,1,-0.010497069,1,0.420666099,1,-0.59576118,1,-0.365395486,1
0.191990778,-5.512816906,1,-3.143023729,1,-7.46547842,1,0.014414562,1,-0.002581145,1,-0.009660048,1,0.420747519,1,-0.595762253,1,-0.365445942,1
0.195992574,-5.541131973,1,-3.179583311,1,-7.430650234,1,0.019738887,1,-0.009577054,1,-0.011710932,1,0.420841932,1,-0.595768929,1,-0.365502834,1
0.199990273,-5.551199436,1,-3.215844154,1,-7.430586815,1,0.017689524,1,-0.0064784,1,-0.012538343,1,0.420947194,1,-0.595775723,1,-0.365570307,1
0.203990012,-5.521528244,1,-3.24397707,1,-7.4407897,1,0.018810317,1,-0.00862617,1,-0.014080645,1,0.421049803,1,-0.595784485,1,-0.365638196,1
0.207991555,-5.563686371,1,-3.256007433,1,-7.451908588,1,0.015999656,1,-0.005011778,1,-0.010581468,1,0.421153367,1,-0.595797896,1,-0.365706563,1
0.211995393,-5.558940887,1,-3.240164518,1,-7.452962875,1,0.016687267,1,-0.00893599,1,-0.014290252,1,0.421266139,1,-0.59581238,1,-0.365786016,1
0.215995386,-5.541333675,1,-3.243381262,1,-7.431403637,1,0.018071219,1,-0.005069731,1,-0.012482423,1,0.421374619,1,-0.595817506,1,-0.365858346,1
0.219996929,-5.575964928,1,-3.268399715,1,-7.408075809,1,0.016093241,1,-0.007548215,1,-0.014037857,1,0.421480775,1,-0.595828474,1,-0.36593467,1
0.223994881,-5.537172794,1,-3.270042896,1,-7.410362244,1,0.014709482,1,-0.009209788,1,-0.012569211,1,0.421603382,1,-0.595834136,1,-0.366017163,1
0.227994367,-5.529742241,1,-3.263429403,1,-7.401163578,1,0.020109614,1,-0.010003084,1,-0.013686777,1,0.421713531,1,-0.595838368,1,-0.366093755,1
0.23199591,-5.572154045,1,-3.311699867,1,-7.424154758,1,0.01429862,1,-0.00502036,1,-0.011497516,1,0.421827823,1,-0.595846653,1,-0.366169989,1
0.235993862,-5.54248333,1,-3.319305658,1,-7.411509514,1,0.012716437,1,-0.009159889,1,-0.012931153,1,0.421930283,1,-0.59585923,1,-0.366241097,1
0.239993349,-5.560900688,1,-3.298752785,1,-7.423121452,1,0.015931463,1,-0.006411213,1,-0.011280346,1,0.422021151,1,-0.595859885,1,-0.36631006,1
0.24399513,-5.526382923,1,-3.294615269,1,-7.433889866,1,0.013221403,1,-0.008680942,1,-0.01314728,1,0.422111511,1,-0.595874667,1,-0.366374969,1
0.247992828,-5.547438622,1,-3.291949987,1,-7.417063713,1,0.013996268,1,-0.002519182,1,-0.010326579,1,0.422195494,1,-0.595881462,1,-0.366434813,1
0.251992315,-5.496474266,1,-3.308371782,1,-7.413825989,1,0.01140382,1,-0.00705528,1,-0.008528338,1,0.422272533,1,-0.595892072,1,-0.366488367,1
0.255994111,-5.520703316,1,-3.250063181,1,-7.406601906,1,0.01112055,1,-0.006380381,1,-0.010809359,1,0.422339618,1,-0.595906734,1,-0.366539985,1
0.259991795,-5.544035435,1,-3.264470816,1,-7.413446426,1,0.010744001,1,-0.005824189,1,-0.012115221,1,0.422413021,1,-0.595921993,1,-0.36659649,1
0.263991296,-5.536618233,1,-3.275645971,1,-7.397705555,1,0.004142357,1,-0.004904264,1,-0.00643221,1,0.422478139,1,-0.595924199,1,-0.36665079,1
0.267993093,-5.573845387,1,-3.28588295,1,-7.388820648,1,0.011161607,1,-0.00399666,1,-0.007419634,1,0.422532886,1,-0.595924616,1,-0.366693079,1
0.271990776,-5.573486328,1,-3.262507439,1,-7.403580189,1,0.007482546,1,-0.006933656,1,-0.00505824,1,0.422436655,1,-0.59594661,1,-0.366722405,1
0.275990516,-5.574223518,1,-3.270056248,1,-7.42275095,1,0.006988135,1,-0.005125966,1,-0.007775177,1,0.42248559,1,-0.595954359,1,-0.366763234,1
0.279992312,-5.572668552,1,-3.254297256,1,-7.403321743,1,0.005974709,1,-0.006809162,1,-0.005129337,1,0.42253089,1,-0.595959485,1,-0.366803527,1
0.283990026,-5.53835392,1,-3.255500317,1,-7.41573143,1,0.006491501,1,-0.005125204,1,-0.002098635,1,0.422572464,1,-0.595976233,1,-0.366835773,1
0.287989765,-5.50361824,1,-3.288396358,1,-7.391077042,1,0.003658481,1,-0.0065306,1,-0.007664468,1,0.422611177,1,-0.59599483,1,-0.366865546,1
0.291991293,-5.564547539,1,-3.285072565,1,-7.404785633,1,0.005076476,1,-0.007267616,1,-0.005978714,1,0.422653943,1,-0.596007049,1,-0.366906077,1
0.295989007,-5.536371708,1,-3.291135073,1,-7.39496851,1,0.005882445,1,-0.003235026,1,-0.004171751,1,0.422691852,1,-0.596018314,1,-0.36693567,1
0.299988478,-5.544866085,1,-3.262006521,1,-7.408412457,1,0.005038482,1,-0.007082473,1,-0.003537605,1,0.422733843,1,-0.596030772,1,-0.366969615,1
0.303990006,-5.545155525,1,-3.262734175,1,-7.375014782,1,-0.001926363,1,-0.006043304,1,-0.00053875,1,0.422760218,1,-0.596046925,1,-0.366994083,1
0.307987958,-5.535812855,1,-3.279767036,1,-7.415626049,1,0.002192497,1,-0.010619749,1,-0.002154584,1,0.422781169,1,-0.59606719,1,-0.367012143,1
0.311987698,-5.538776398,1,-3.274635077,1,-7.408194542,1,0.004225805,1,-0.006012331,1,-0.003066858,1,0.422810256,1,-0.59608835,1,-0.367034316,1
0.315989256,-5.535576344,1,-3.289668083,1,-7.422922611,1,0.002528059,1,-0.008426754,1,0.000657206,1,0.422829777,1,-0.59610939,1,-0.367058396,1
0.319987208,-5.52910471,1,-3.32307601,1,-7.431668758,1,0.00076484,1,-0.00638116,1,-0.001596237,1,0.42285347,1,-0.596139073,1,-0.367077976,1
0.323986679,-5.528334618,1,-3.311961889,1,-7.399598598,1,0.002921275,1,-0.004733622,1,0.005720986,1,0.422859907,1,-0.596170306,1,-0.367090583,1
0.327988237,-5.559431553,1,-3.27412796,1,-7.420552254,1,-0.002239593,1,-0.007696905,1,-0.000374224,1,0.422865331,1,-0.596192002,1,-0.367103547,1
0.33199206,-5.543948174,1,-3.272952557,1,-7.396585464,1,-0.002784419,1,-0.005897281,1,-0.001982465,1,0.42287311,1,-0.596216679,1,-0.367114663,1
0.3359918,-5.521645546,1,-3.264027357,1,-7.401056767,1,-0.00155923,1,-0.007419211,1,0.000206324,1,0.42287907,1,-0.596243978,1,-0.367129177,1
0.339993596,-5.537190914,1,-3.252959967,1,-7.388129711,1,-0.003410555,1,-0.009227081,1,0.002205103,1,0.422869623,1,-0.596278012,1,-0.367124081,1
0.343991548,-5.563888073,1,-3.287335634,1,-7.411231041,1,-0.001593528,1,-0.006172399,1,0.003720262,1,0.4228701,1,-0.596313238,1,-0.367132217,1
0.347991049,-5.548100948,1,-3.270432711,1,-7.40185976,1,-0.005892947,1,-0.008266051,1,0.000251474,1,0.422857374,1,-0.596337676,1,-0.367128193,1
0.351992846,-5.543261051,1,-3.290838003,1,-7.412168503,1,-0.002865375,1,-0.006614157,1,0.006263031,1,0.422853649,1,-0.596370697,1,-0.367139101,1
0.355991036,-5.527474403,1,-3.258179188,1,-7.381986618,1,-0.003202227,1,-0.006354261,1,0.002448444,1,0.422841758,1,-0.596400499,1,-0.367137074,1
0.359990537,-5.575994968,1,-3.250042677,1,-7.411397457,1,-0.003363794,1,-0.011859866,1,0.007554404,1,0.422839791,1,-0.596441865,1,-0.367148727,1
0.363992333,-5.549352169,1,-3.270458221,1,-7.395237446,1,-0.003064707,1,-0.00697708,1,0.002976742,1,0.422825307,1,-0.596482217,1,-0.367144108,1
0.367990017,-5.56029129,1,-3.286161423,1,-7.419624805,1,-0.000246108,1,-0.007657869,1,0.007684696,1,0.422820181,1,-0.596520305,1,-0.367149651,1
0.371989757,-5.569128513,1,-3.309507608,1,-7.405384541,1,-0.003704742,1,-0.004331824,1,0.004791151,1,0.422795475,1,-0.596552849,1,-0.367142856,1
0.375991285,-5.578336239,1,-3.295669556,1,-7.416306496,1,-0.001757844,1,-0.004652828,1,0.001956156,1,0.422777623,1,-0.596576452,1,-0.367137849,1
0.379988998,-5.553802013,1,-3.308573723,1,-7.411205292,1,-0.00147181,1,-0.00854623,1,0.006875162,1,0.42276901,1,-0.596608996,1,-0.367130101,1
0.383988738,-5.537227631,1,-3.254878998,1,-7.426781178,1,-0.0025442,1,-0.008013775,1,0.00323772,1,0.422750533,1,-0.596652925,1,-0.367123485,1
0.387990266,-5.538685799,1,-3.23666954,1,-7.397722721,1,-0.002178262,1,-0.009099216,1,0.007622916,1,0.422736973,1,-0.596689403,1,-0.367119223,1
0.391987979,-5.536045551,1,-3.26199007,1,-7.418150425,1,-0.002084555,1,-0.007042455,1,0.006218523,1,0.422728479,1,-0.596734285,1,-0.367112368,1
0.395987719,-5.552475929,1,-3.269637346,1,-7.405740261,1,0.000725623,1,-0.007999174,1,0.001031263,1,0.422723234,1,-0.596763968,1,-0.367103845,1
0.399989247,-5.58656311,1,-3.276749611,1,-7.412495136,1,0.005071478,1,-0.006848789,1,0.006090682,1,0.422730744,1,-0.596807301,1,-0.367104352,1
0.403987199,-5.519258022,1,-3.282312155,1,-7.414402962,1,-0.001973439,1,-0.013479373,1,0.004108929,1,0.422719419,1,-0.596847057,1,-0.367091954,1
0.407986701,-5.5515728,1,-3.295392513,1,-7.412912369,1,0.001702893,1,-0.009508769,1,0.003884713,1,0.422727555,1,-0.596889615,1,-0.367096364,1
0.411988229,-5.537782669,1,-3.299090862,1,-7.407711506,1,-0.004114861,1,-0.012345609,1,0.008147037,1,0.422724217,1,-0.596941769,1,-0.367091298,1
0.41598618,-5.546665192,1,-3.314761877,1,-7.400472164,1,-0.001914308,1,-0.014768092,1,0.004099156,1,0.422714978,1,-0.596996605,1,-0.367086679,1
0.419985652,-5.494486809,1,-3.303273439,1,-7.402299881,1,-0.002968424,1,-0.012643887,1,0.00990106,1,0.422705889,1,-0.597057402,1,-0.367083788,1
0.42398721,-5.54200983,1,-3.248939753,1,-7.427015305,1,-0.001378395,1,-0.010836501,1,0.006969935,1,0.422691077,1,-0.597111166,1,-0.367071509,1
0.427985162,-5.542292595,1,-3.275275946,1,-7.391945362,1,0.00085418,1,-0.013633197,1,0.010040218,1,0.422678143,1,-0.59716785,1,-0.367065668,1
0.43198514,-5.566816807,1,-3.314917803,1,-7.394113064,1,0.001021865,1,-0.010778265,1,0.005536858,1,0.422664881,1,-0.597229183,1,-0.367052108,1
0.435987204,-5.567834377,1,-3.303045988,1,-7.358241081,1,-0.007111263,1,-0.014014628,1,0.012736984,1,0.422636211,1,-0.597288907,1,-0.367029637,1
0.439985394,-5.576332092,1,-3.2755723,1,-7.38558054,1,-0.005409074,1,-0.00963562,1,0.007984456,1,0.422605842,1,-0.597344756,1,-0.367006123,1
0.443984896,-5.594225407,1,-3.259865761,1,-7.38172102,1,-0.002460889,1,-0.008628529,1,0.013591969,1,0.422580063,1,-0.597403049,1,-0.366989851,1
0.447986424,-5.584211349,1,-3.254565716,1,-7.378333092,1,-0.008178659,1,-0.007082365,1,0.010388875,1,0.422539294,1,-0.597453475,1,-0.366957963,1
0.451990008,-5.566266537,1,-3.239626646,1,-7.399330139,1,-0.005182455,1,-0.011742733,1,0.007637058,1,0.422504306,1,-0.597495377,1,-0.366934836,1
0.455989748,-5.573390484,1,-3.248624802,1,-7.390624523,1,-0.008605546,1,-0.007097456,1,0.011451975,1,0.422458082,1,-0.597544551,1,-0.366904318,1
0.459991544,-5.573997974,1,-3.229761124,1,-7.380265236,1,-0.004126112,1,-0.006548287,1,0.005682123,1,0.422412187,1,-0.597589016,1,-0.36687696,1
0.463989258,-5.568046093,1,-3.215428591,1,-7.385338306,1,-0.005863477,1,-0.004927795,1,0.007817499,1,0.422373444,1,-0.597626209,1,-0.366847754,1
0.467988998,-5.559003353,1,-3.200725555,1,-7.390965939,1,-0.004497251,1,-0.00823928,1,0.008286308,1,0.422331333,1,-0.597658992,1,-0.366823137,1
0.471990526,-5.547764778,1,-3.233597517,1,-7.435667992,1,-0.001883451,1,-0.004694352,1,0.004861371,1,0.422307283,1,-0.597695947,1,-0.366804063,1
0.475988209,-5.523618221,1,-3.230230808,1,-7.436923504,1,-0.003178175,1,-0.007928982,1,0.005564153,1,0.422292471,1,-0.597731292,1,-0.366797984,1
0.479987979,-5.537879467,1,-3.247593164,1,-7.431981564,1,-0.001021885,1,-0.008260249,1,0.008963691,1,0.422270328,1,-0.597768009,1,-0.366773248,1
0.483989507,-5.544719219,1,-3.235462904,1,-7.447305679,1,-0.001433391,1,-0.007785758,1,0.006259613,1,0.422247171,1,-0.597807109,1,-0.366756201,1
0.48798719,-5.578869343,1,-3.246851206,1,-7.39793539,1,-0.002858271,1,-0.010095837,1,0.004440965,1,0.4222323,1,-0.59784466,1,-0.366742969,1
0.49198693,-5.558450222,1,-3.205692768,1,-7.431638241,1,0.003096229,1,-0.007163861,1,0.007301154,1,0.422219574,1,-0.597886086,1,-0.36672774,1
0.495988488,-5.542719364,1,-3.231821537,1,-7.410231113,1,-0.000592648,1,-0.006373161,1,0.007360146,1,0.422220707,1,-0.597921789,1,-0.366721183,1
0.49998644,-5.577958107,1,-3.244903088,1,-7.406766891,1,0.001572896,1,-0.007933361,1,0.007933099,1,0.422218859,1,-0.597959459,1,-0.366713047,1
0.503985941,-5.544251919,1,-3.270512342,1,-7.428170681,1,0.001284942,1,-0.008411007,1,0.004956799,1,0.42221871,1,-0.597999334,1,-0.366701961,1
0.50798744,-5.575899601,1,-3.278607845,1,-7.430669785,1,0.001655181,1,-0.009243191,1,0.00395304,1,0.422228694,1,-0.598035514,1,-0.366703302,1
0.511985421,-5.544986725,1,-3.250925541,1,-7.408554077,1,-0.002081767,1,-0.008795756,1,0.005473632,1,0.422225446,1,-0.598074555,1,-0.366697729,1
0.515985131,-5.577119827,1,-3.249837399,1,-7.413626194,1,-0.002242997,1,-0.005765226,1,0.004009183,1,0.422227204,1,-0.598110318,1,-0.366696239,1
0.519986928,-5.57637167,1,-3.271772623,1,-7.38113308,1,-0.000727292,1,-0.006218977,1,0.003258136,1,0.422122538,1,-0.598206103,1,-0.366643339,1
0.523985147,-5.586052418,1,-3.261267424,1,-7.414415836,1,0.002758922,1,-0.007149554,1,-6.30E-05,1,0.422108501,1,-0.598187506,1,-0.366693914,1
0.527984619,-5.54169035,1,-3.224815607,1,-7.357653618,1,-0.001374874,1,-0.006370804,1,0.000459555,1,0.422115266,1,-0.59821403,1,-0.366701186,1
0.531986415,-5.569874287,1,-3.23248291,1,-7.372979164,1,-0.002142483,1,-0.009080801,1,0.000880858,1,0.422113717,1,-0.59823972,1,-0.366704822,1
0.535984099,-5.570778847,1,-3.216002464,1,-7.423817635,1,0.00383891,1,-0.006907317,1,-0.003406544,1,0.422130525,1,-0.598266184,1,-0.366716743,1
0.53998363,-5.560308456,1,-3.197844028,1,-7.392580986,1,0.003602623,1,-0.004111762,1,-0.002943385,1,0.422151983,1,-0.598284483,1,-0.366741121,1
0.543985426,-5.598051071,1,-3.196175575,1,-7.396315575,1,0.006839116,1,-0.007104895,1,-0.004528425,1,0.422176659,1,-0.598302722,1,-0.366760015,1
0.547983348,-5.565537453,1,-3.173306227,1,-7.407211781,1,0.00738289,1,-0.007148977,1,-0.002730529,1,0.422224015,1,-0.598320723,1,-0.366798669,1
0.55198282,-5.562865257,1,-3.217106819,1,-7.438002586,1,0.007113321,1,-0.005602881,1,-0.009396167,1,0.422274321,1,-0.598338604,1,-0.366838157,1
0.555984616,-5.581467152,1,-3.194959164,1,-7.422442436,1,0.00763347,1,-0.00990584,1,-0.005921261,1,0.422330767,1,-0.598358035,1,-0.366885751,1
0.559982359,-5.541203976,1,-3.23870039,1,-7.41145277,1,0.010778407,1,-0.009390259,1,-0.006771194,1,0.422392786,1,-0.598380744,1,-0.366928697,1
0.563982069,-5.532936573,1,-3.241978645,1,-7.410952568,1,0.010563252,1,-0.012382277,1,-0.009477673,1,0.422459215,1,-0.598409295,1,-0.36698103,1
0.567983627,-5.527438641,1,-3.258990765,1,-7.41197443,1,0.009079605,1,-0.0120319,1,-0.002360462,1,0.422526538,1,-0.598441839,1,-0.367029905,1
0.571987212,-5.537605762,1,-3.230788708,1,-7.389826775,1,0.01227895,1,-0.01121205,1,-0.005736746,1,0.422600865,1,-0.598472893,1,-0.367085516,1
0.575986922,-5.532925129,1,-3.292171717,1,-7.42048502,1,0.006521767,1,-0.009506358,1,-0.002129688,1,0.422670126,1,-0.598505914,1,-0.367131531,1
0.57998848,-5.554768085,1,-3.265996695,1,-7.405753136,1,0.009797256,1,-0.013109937,1,-0.005648423,1,0.422736615,1,-0.598536491,1,-0.36718154,1
0.583986163,-5.569552898,1,-3.26878953,1,-7.411410332,1,0.011001764,1,-0.005871641,1,-0.006700332,1,0.422800332,1,-0.598569274,1,-0.367229819,1
0.587985635,-5.573694706,1,-3.262513161,1,-7.402376175,1,0.008320417,1,-0.009395106,1,-0.00709103,1,0.422871411,1,-0.598593891,1,-0.367281079,1
0.591987193,-5.572088242,1,-3.26306963,1,-7.406986713,1,0.009151917,1,-0.008600838,1,-0.006926732,1,0.422933578,1,-0.598623276,1,-0.367331028,1
0.595985174,-5.571042538,1,-3.249762535,1,-7.393615246,1,0.010505123,1,-0.008099154,1,-0.004189721,1,0.42299664,1,-0.598632872,1,-0.36737299,1
0.599984884,-5.576023102,1,-3.276870251,1,-7.394435883,1,0.007141599,1,-0.009514256,1,-0.009979017,1,0.42305243,1,-0.598650515,1,-0.367417186,1
0.603986442,-5.549790859,1,-3.286235332,1,-7.412031651,1,0.01088164,1,-0.009892527,1,-0.004334622,1,0.423115104,1,-0.598673046,1,-0.367461085,1
0.607984364,-5.570973396,1,-3.278846025,1,-7.384114265,1,0.006681579,1,-0.005399125,1,-0.003873349,1,0.42316404,1,-0.598689437,1,-0.367491692,1
0.611983895,-5.568263054,1,-3.269635201,1,-7.394290447,1,0.005023885,1,-0.007276549,1,-0.004536265,1,0.42321679,1,-0.598704934,1,-0.367523253,1
0.615985394,-5.569019794,1,-3.243448734,1,-7.397176743,1,0.006205516,1,-0.005239205,1,-0.006335623,1,0.423266739,1,-0.598715484,1,-0.367558897,1
0.619983077,-5.580925465,1,-3.260674477,1,-7.381737709,1,0.006101641,1,-0.006246295,1,-0.0094264,1,0.423321247,1,-0.598718762,1,-0.367602557,1
0.623982608,-5.546720505,1,-3.259118795,1,-7.41224432,1,0.008031253,1,-0.004964869,1,-0.012515349,1,0.423375845,1,-0.598725021,1,-0.367641449,1
0.627984405,-5.597531319,1,-3.286042929,1,-7.37808466,1,0.008580381,1,-0.003992272,1,-0.005697096,1,0.423438609,1,-0.598730206,1,-0.367692828,1
0.631982327,-5.575816631,1,-3.255643368,1,-7.399350166,1,0.010615885,1,-0.003433303,1,-0.010409938,1,0.42349717,1,-0.598731816,1,-0.367735028,1
0.635981798,-5.573167324,1,-3.248104811,1,-7.379145622,1,0.010021063,1,-0.00616895,1,-0.00499769,1,0.423559159,1,-0.598737657,1,-0.367782593,1
0.639983594,-5.553696632,1,-3.228794575,1,-7.396681309,1,0.009632176,1,-0.005759371,1,-0.011761535,1,0.423621535,1,-0.598747551,1,-0.367824137,1
0.643981338,-5.56861496,1,-3.227050543,1,-7.391245365,1,0.010478649,1,-0.002855896,1,-0.006835003,1,0.423680961,1,-0.598751307,1,-0.367877334,1
0.647980809,-5.583521366,1,-3.180001259,1,-7.393410206,1,0.014750786,1,-0.005336332,1,-0.012693893,1,0.423755288,1,-0.59875071,1,-0.367928505,1
0.651982605,-5.566449165,1,-3.179705143,1,-7.386731148,1,0.009533355,1,-0.005028586,1,-0.011535045,1,0.423835516,1,-0.598751783,1,-0.367982507,1
0.655980289,-5.616149902,1,-3.141582727,1,-7.414785385,1,0.017071947,1,-0.003041344,1,-0.012602078,1,0.423924744,1,-0.598745823,1,-0.368050814,1
0.659980059,-5.594074249,1,-3.133242369,1,-7.417049408,1,0.02231632,1,-0.001967933,1,-0.017698277,1,0.424041271,1,-0.598741293,1,-0.368117571,1
0.663981557,-5.572027683,1,-3.116964579,1,-7.400355816,1,0.023563623,1,-0.002611021,1,-0.017476998,1,0.424181461,1,-0.598734021,1,-0.368206263,1
0.66797924,-5.554935932,1,-3.133059025,1,-7.402216911,1,0.02652557,1,-0.007981016,1,-0.02453736,1,0.424341947,1,-0.598724246,1,-0.368305981,1
0.67197901,-5.581179142,1,-3.152927399,1,-7.423820019,1,0.030991271,1,-0.006773049,1,-0.021229669,1,0.424526781,1,-0.598707676,1,-0.368421912,1
0.675980806,-5.605865955,1,-3.179595709,1,-7.422496796,1,0.032855611,1,-0.007990086,1,-0.02325011,1,0.424723119,1,-0.598690271,1,-0.368537813,1
0.679978728,-5.55848217,1,-3.214344978,1,-7.379162312,1,0.034555543,1,-0.002916688,1,-0.025047628,1,0.424923241,1,-0.598670363,1,-0.368654311,1
0.683978498,-5.577260017,1,-3.255350351,1,-7.379243851,1,0.03492583,1,-0.006473297,1,-0.024184955,1,0.425128192,1,-0.598650277,1,-0.368771911,1
0.687980056,-5.560468674,1,-3.281962633,1,-7.378350258,1,0.034113921,1,-0.004545611,1,-0.025815051,1,0.425337017,1,-0.598628938,1,-0.368900537,1
0.691977978,-5.571344852,1,-3.343655825,1,-7.373404503,1,0.035511285,1,-0.003772008,1,-0.023764219,1,0.425540775,1,-0.598607123,1,-0.369017065,1
0.695983887,-5.580789089,1,-3.312099934,1,-7.373564243,1,0.028132204,1,-0.004016902,1,-0.027163787,1,0.425739169,1,-0.59857893,1,-0.369132131,1
0.699985683,-5.585551739,1,-3.368742704,1,-7.348986626,1,0.032247916,1,-0.00308108,1,-0.024125546,1,0.425931096,1,-0.598542333,1,-0.369254947,1
0.703983843,-5.564764977,1,-3.372769356,1,-7.401443005,1,0.028549777,1,-0.001648047,1,-0.023640223,1,0.426116675,1,-0.598518252,1,-0.36936295,1
0.707983375,-5.574781418,1,-3.404502392,1,-7.389480591,1,0.02982223,1,-0.003662111,1,-0.020944854,1,0.426290959,1,-0.598490894,1,-0.36947152,1
0.711984873,-5.574251175,1,-3.353369474,1,-7.376918316,1,0.026150312,1,-0.003012333,1,-0.019555379,1,0.426447511,1,-0.598464966,1,-0.369564116,1
0.715982854,-5.598742485,1,-3.37577939,1,-7.346792221,1,0.021533908,1,-0.0034781,1,-0.017202191,1,0.426587492,1,-0.598441422,1,-0.36964488,1
0.719982326,-5.571741581,1,-3.392454863,1,-7.354153156,1,0.021585787,1,-0.002457854,1,-0.012714539,1,0.426707834,1,-0.598419666,1,-0.369709969,1
0.723984122,-5.569292068,1,-3.384411335,1,-7.400362015,1,0.018148167,1,0.001048637,1,-0.015761869,1,0.426826596,1,-0.598394454,1,-0.369776905,1
0.727981806,-5.575531483,1,-3.40602088,1,-7.391510487,1,0.013791865,1,-0.000296243,1,-0.01053031,1,0.426914543,1,-0.598379493,1,-0.369827121,1
0.731981337,-5.54931879,1,-3.417552948,1,-7.395432949,1,0.016590549,1,-0.001448904,1,-0.005139371,1,0.426983893,1,-0.598376691,1,-0.369861841,1
0.735983133,-5.572106361,1,-3.435085773,1,-7.387797356,1,0.009415917,1,-0.000266577,1,-0.004535913,1,0.427044153,1,-0.598373413,1,-0.36988759,1
0.739980817,-5.537495136,1,-3.421128273,1,-7.414607048,1,0.001215325,1,-0.003886973,1,-0.000377404,1,0.427072644,1,-0.598373234,1,-0.369899333,1
0.743980289,-5.58706522,1,-3.392620087,1,-7.388579369,1,0.003600869,1,-0.006074524,1,0.001789124,1,0.42709434,1,-0.598385572,1,-0.369914323,1
0.747982085,-5.578444481,1,-3.389938831,1,-7.396695614,1,-0.00178504,1,-0.001753621,1,0.00452953,1,0.427087158,1,-0.598398447,1,-0.369900167,1
0.751979768,-5.555037022,1,-3.363558531,1,-7.416753769,1,-0.005615283,1,-0.002327082,1,0.005265294,1,0.427072585,1,-0.598413825,1,-0.3698861,1
0.755979538,-5.556302547,1,-3.347513199,1,-7.415477753,1,-0.006650119,1,-0.004008648,1,0.007645142,1,0.427042544,1,-0.598438978,1,-0.369867116,1
0.759981334,-5.555078983,1,-3.33904314,1,-7.429902554,1,-0.007507876,1,-0.001341457,1,0.008770318,1,0.427004486,1,-0.598463058,1,-0.369839311,1
0.763979256,-5.531535149,1,-3.291780233,1,-7.423079967,1,-0.009527421,1,-0.00460601,1,0.008362348,1,0.426959962,1,-0.59849298,1,-0.36980316,1
0.767979026,-5.528065681,1,-3.278577805,1,-7.390155315,1,-0.004488128,1,-0.009242053,1,0.008701374,1,0.426922262,1,-0.598531902,1,-0.369779587,1
0.771980822,-5.592475891,1,-3.262092113,1,-7.437653065,1,-0.007015452,1,-0.005918054,1,0.009649361,1,0.426752061,1,-0.598585844,1,-0.36973384,1
0.775978506,-5.548885822,1,-3.296933651,1,-7.412680626,1,-0.00519515,1,-0.009343336,1,0.0084553,1,0.426704705,1,-0.598626912,1,-0.369705677,1
0.779978216,-5.562927723,1,-3.273929596,1,-7.418591022,1,-0.009565307,1,-0.008630966,1,0.011816242,1,0.426670521,1,-0.598673403,1,-0.369677186,1
0.783979774,-5.581306458,1,-3.289014101,1,-7.407860279,1,-0.006681508,1,-0.006336912,1,0.006319621,1,0.426631302,1,-0.598724186,1,-0.369658053,1
0.787977755,-5.54815197,1,-3.283603668,1,-7.444396496,1,-0.005012272,1,-0.010866554,1,0.010818104,1,0.426590592,1,-0.598772526,1,-0.369627953,1
0.791977465,-5.569360256,1,-3.268661022,1,-7.43857193,1,-0.001360492,1,-0.01198652,1,0.009957997,1,0.426558167,1,-0.598829687,1,-0.369606555,1
0.795979023,-5.596542835,1,-3.26653266,1,-7.384604454,1,-0.0018473,1,-0.01127407,1,0.00428287,1,0.426543444,1,-0.598890364,1,-0.369583726,1
0.799976945,-5.575712681,1,-3.258213997,1,-7.421298027,1,-0.005226041,1,-0.01433109,1,0.012943222,1,0.426516831,1,-0.598953962,1,-0.369569927,1
0.803976476,-5.578975677,1,-3.260485888,1,-7.382918358,1,0.002736513,1,-0.01199285,1,0.006512084,1,0.426508039,1,-0.599012494,1,-0.369561851,1
0.807977974,-5.543911457,1,-3.308719158,1,-7.347475052,1,0.0006204,1,-0.013467317,1,0.007624885,1,0.426509857,1,-0.599075973,1,-0.36955741,1
0.811975658,-5.76563549,1,-3.244149685,1,-7.514625072,1,0.002390921,1,-0.014468919,1,0.010241887,1,0.426509947,1,-0.599131286,1,-0.369545102,1
0.815981328,-5.548139095,1,-3.254178524,1,-7.364945889,1,-0.001934036,1,-0.019651234,1,0.006106683,1,0.426505387,1,-0.599211752,1,-0.369548678,1
0.819983125,-5.560122013,1,-3.28763175,1,-7.351009369,1,-0.003289229,1,-0.014977691,1,0.008686729,1,0.426508605,1,-0.599294126,1,-0.369553447,1
0.823981047,-5.504478931,1,-3.278572321,1,-7.40753603,1,0.00130126,1,-0.021474468,1,0.006060025,1,0.426517576,1,-0.599371076,1,-0.369554788,1
0.827980518,-5.552307606,1,-3.320670128,1,-7.359127998,1,-0.004241431,1,-0.016955951,1,0.008779746,1,0.426506519,1,-0.599455416,1,-0.369551212,1
0.831982315,-5.558416843,1,-3.348013639,1,-7.429794312,1,0.001162486,1,-0.019007135,1,0.009760624,1,0.426500976,1,-0.599529564,1,-0.369551539,1
0.835980058,-5.588666916,1,-3.308632374,1,-7.374258518,1,-0.003422529,1,-0.016399208,1,0.007788594,1,0.426494002,1,-0.59960568,1,-0.369541347,1
0.839979768,-5.597447395,1,-3.303680897,1,-7.324446201,1,-0.001392734,1,-0.016726989,1,0.010145043,1,0.426477075,1,-0.599680364,1,-0.369534075,1
0.843981564,-5.539940834,1,-3.355458736,1,-7.362766266,1,-0.004292659,1,-0.01320608,1,0.013975426,1,0.426456153,1,-0.599752307,1,-0.369511187,1
0.847979248,-5.596899033,1,-3.299438238,1,-7.374323368,1,-0.004858022,1,-0.015456413,1,0.008832463,1,0.426425815,1,-0.599829257,1,-0.369489193,1
0.851979017,-5.557319641,1,-3.301395893,1,-7.350842476,1,-0.008671672,1,-0.015202529,1,0.012769404,1,0.426396787,1,-0.599907219,1,-0.369481683,1
0.855980814,-5.594782352,1,-3.2507689,1,-7.365979671,1,-0.004465301,1,-0.017077297,1,0.013480528,1,0.426357895,1,-0.599982142,1,-0.369455218,1
0.859978735,-5.630598068,1,-3.24904108,1,-7.382971764,1,-0.009396341,1,-0.013005085,1,0.01480117,1,0.426316768,1,-0.600055039,1,-0.369425714,1
0.863978505,-5.565692425,1,-3.278775215,1,-7.362305641,1,-0.004198143,1,-0.016528169,1,0.008006056,1,0.426286072,1,-0.600129128,1,-0.369404197,1
0.867980301,-5.556036472,1,-3.26793766,1,-7.358288765,1,-0.006224375,1,-0.011764807,1,0.015575632,1,0.426242113,1,-0.600205541,1,-0.369381785,1
0.871977985,-5.580672741,1,-3.30278635,1,-7.364053726,1,-0.003227985,1,-0.013945247,1,0.007297311,1,0.426208735,1,-0.600271046,1,-0.369357049,1
0.875977755,-5.546015739,1,-3.324146509,1,-7.396085739,1,-0.008961361,1,-0.014084179,1,0.010691258,1,0.426174045,1,-0.600336969,1,-0.369334847,1
0.879979253,-5.515169621,1,-3.334736824,1,-7.3592906,1,-0.004224189,1,-0.012954793,1,0.013067701,1,0.426134259,1,-0.60040164,1,-0.36930865,1
0.883977234,-5.627337456,1,-3.304341078,1,-7.365717888,1,-0.005913844,1,-0.015473363,1,0.015550024,1,0.426093787,1,-0.600470543,1,-0.369274378,1
0.887976944,-5.60760355,1,-3.332536459,1,-7.355334759,1,-0.009089271,1,-0.014015914,1,0.01754564,1,0.426043153,1,-0.600545526,1,-0.369241953,1
0.891978502,-5.528845787,1,-3.277881145,1,-7.335223198,1,-0.008552163,1,-0.008413752,1,0.01250882,1,0.425976843,1,-0.600608587,1,-0.369190872,1
0.895976424,-5.580054283,1,-3.280916214,1,-7.343601227,1,-0.011669412,1,-0.01013877,1,0.014924738,1,0.425913751,1,-0.600666821,1,-0.369144708,1
0.899975955,-5.564836502,1,-3.247484922,1,-7.354276657,1,-0.012613939,1,-0.007966618,1,0.016755875,1,0.425841361,1,-0.600729346,1,-0.36909461,1
0.903977454,-5.585506916,1,-3.253086329,1,-7.368076324,1,-0.00952306,1,-0.01140259,1,0.01423592,1,0.425762892,1,-0.600787997,1,-0.369035244,1
0.907975435,-5.580340385,1,-3.238055944,1,-7.358465672,1,-0.007655496,1,-0.008273677,1,0.018391073,1,0.425694436,1,-0.600850344,1,-0.368981719,1
0.911974907,-5.570942879,1,-3.235117197,1,-7.380255222,1,-0.011980018,1,-0.001431082,1,0.012193129,1,0.425628185,1,-0.600897312,1,-0.368934989,1
0.915976703,-5.574233055,1,-3.200037718,1,-7.404459,1,-0.007314037,1,-0.010191329,1,0.012810624,1,0.425563097,1,-0.600948334,1,-0.368887305,1
0.919974685,-5.58435154,1,-3.202126741,1,-7.399376392,1,-0.005196725,1,-0.010156845,1,0.010512276,1,0.425515473,1,-0.600999355,1,-0.368845195,1
0.923974156,-5.58268404,1,-3.242380857,1,-7.371803284,1,-0.006043416,1,-0.010449676,1,0.012015282,1,0.425467014,1,-0.601058364,1,-0.368809164,1
0.927975953,-5.567639351,1,-3.210463762,1,-7.384702682,1,-0.004817974,1,-0.006588342,1,0.010362059,1,0.42543608,1,-0.601103425,1,-0.368783057,1
0.931973636,-5.572964191,1,-3.233998775,1,-7.373432636,1,-0.000895951,1,-0.00571827,1,0.008630602,1,0.425401598,1,-0.601142228,1,-0.368750215,1
0.935979247,-5.587076187,1,-3.256582499,1,-7.354234219,1,0.00068295,1,-0.006670818,1,0.009671719,1,0.425385386,1,-0.601186872,1,-0.368723333,1
0.939981043,-5.58701086,1,-3.261454582,1,-7.374582291,1,-0.003826403,1,-0.009455697,1,0.009612569,1,0.425360382,1,-0.601232648,1,-0.368694484,1
0.943978727,-5.574967384,1,-3.261084318,1,-7.380249977,1,-0.003370915,1,-0.00686565,1,0.00586242,1,0.425345957,1,-0.601279497,1,-0.368679762,1
0.947978497,-5.594908237,1,-3.259515524,1,-7.374481201,1,-0.002942604,1,-0.01097043,1,0.009361323,1,0.425331742,1,-0.601322532,1,-0.368659943,1
0.951980293,-5.601472855,1,-3.269790173,1,-7.419102669,1,-0.000430079,1,-0.01117929,1,0.008259429,1,0.425319195,1,-0.601371884,1,-0.368648887,1
0.955977976,-5.57381916,1,-3.270559788,1,-7.397389889,1,0.000864526,1,-0.010264479,1,0.008714314,1,0.425310969,1,-0.601427555,1,-0.368630767,1
0.959977746,-5.639642239,1,-3.284908056,1,-7.386914253,1,-0.000328758,1,-0.012629061,1,0.013106561,1,0.425298989,1,-0.601484537,1,-0.368616819,1
0.963979244,-5.638011932,1,-3.295052528,1,-7.34347868,1,0.00159155,1,-0.010680774,1,0.00634029,1,0.425285965,1,-0.601541519,1,-0.368589342,1
0.967976987,-5.599149704,1,-3.303285599,1,-7.366732121,1,-0.006236682,1,-0.008577396,1,0.00681557,1,0.425276041,1,-0.601603389,1,-0.368575573,1
0.971976697,-5.600481987,1,-3.266672134,1,-7.392508507,1,0.002401744,1,-0.010856112,1,0.012530555,1,0.425258905,1,-0.601660907,1,-0.36855641,1
0.975978255,-5.584930897,1,-3.276153803,1,-7.378055573,1,-0.000936716,1,-0.010579194,1,0.010391511,1,0.425242186,1,-0.601724148,1,-0.368530273,1
0.979976177,-5.597840309,1,-3.28729105,1,-7.397413731,1,0.004421632,1,-0.011596381,1,0.009427598,1,0.425236613,1,-0.601787448,1,-0.36850515,1
0.983975708,-5.614878178,1,-3.280326843,1,-7.363000393,1,0.002314009,1,-0.015135101,1,0.013585904,1,0.425229907,1,-0.601857901,1,-0.368474483,1
0.987977207,-5.605876446,1,-3.296392679,1,-7.365777016,1,0.001001658,1,-0.013434495,1,0.014858046,1,0.425209194,1,-0.601926923,1,-0.36844936,1
0.991975188,-5.616986275,1,-3.265572309,1,-7.370997906,1,-0.000655199,1,-0.015039752,1,0.01330966,1,0.425196052,1,-0.601996124,1,-0.368417799,1
0.995974898,-5.614623547,1,-3.276559353,1,-7.392559052,1,-0.003004569,1,-0.01549367,1,0.010369747,1,0.42517224,1,-0.602075636,1,-0.36839664,1
0.999976456,-5.636077404,1,-3.284003496,1,-7.379212856,1,-0.000721923,1,-0.010313416,1,0.015185111,1,0.425138682,1,-0.602149785,1,-0.368358344,1
1.003974438,-5.589198589,1,-3.304359913,1,-7.388933659,1,-0.001128771,1,-0.016049106,1,0.013034343,1,0.425113201,1,-0.602220654,1,-0.368327737,1
1.007973909,-5.580883503,1,-3.287666559,1,-7.369410515,1,-0.006770046,1,-0.014447792,1,0.015909024,1,0.425082505,1,-0.60229975,1,-0.368297577,1
1.011975646,-5.589190006,1,-3.308171988,1,-7.391168118,1,-0.003820029,1,-0.012422754,1,0.014914556,1,0.42502892,1,-0.602368712,1,-0.368248969,1
1.015973687,-5.606491089,1,-3.23247838,1,-7.388584614,1,-0.002483629,1,-0.010452763,1,0.017506853,1,0.424985915,1,-0.602451503,1,-0.368202686,1
1.019973159,-5.588848114,1,-3.245019913,1,-7.37351656,1,-0.004895505,1,-0.011490045,1,0.018955255,1,0.424836457,1,-0.602593482,1,-0.368099868,1
1.023974895,-5.545449734,1,-3.262070179,1,-7.394536018,1,-0.003176341,1,-0.011980671,1,0.017760416,1,0.424763501,1,-0.602614224,1,-0.368093491,1
1.027972579,-5.567017555,1,-3.272025108,1,-7.37456274,1,-0.007041971,1,-0.014998951,1,0.018078804,1,0.424717903,1,-0.602687299,1,-0.368037313,1
1.031972051,-5.551936626,1,-3.264059782,1,-7.373505592,1,-0.002453547,1,-0.01406658,1,0.015640559,1,0.424678355,1,-0.602766633,1,-0.367989182,1
1.035973907,-5.616206646,1,-3.270720959,1,-7.373631954,1,-0.004313938,1,-0.01097634,1,0.016920399,1,0.424640626,1,-0.602841139,1,-0.367945492,1
1.03997159,-5.563463211,1,-3.269027948,1,-7.324991226,1,-0.002655069,1,-0.012633088,1,0.017047334,1,0.424585879,1,-0.602913141,1,-0.367892295,1
1.0439713,-5.61495924,1,-3.317776918,1,-7.360588551,1,-0.010826748,1,-0.013250084,1,0.017479543,1,0.424530387,1,-0.602982998,1,-0.367847443,1
1.047973156,-5.604973793,1,-3.271821737,1,-7.35033989,1,-0.006724767,1,-0.010686526,1,0.023523787,1,0.424464881,1,-0.60305959,1,-0.367781937,1
1.05197084,-5.585381508,1,-3.280302525,1,-7.388951778,1,-0.006974654,1,-0.009412175,1,0.017743174,1,0.424405843,1,-0.603129923,1,-0.367718637,1
1.055976748,-5.595106602,1,-3.26244092,1,-7.3620224,1,-0.005387874,1,-0.010874751,1,0.018559098,1,0.424345732,1,-0.603196323,1,-0.367662013,1
1.059978485,-5.641119957,1,-3.278909445,1,-7.361747265,1,-0.008012215,1,-0.008528336,1,0.015128218,1,0.424289614,1,-0.603266776,1,-0.367603123,1
1.063976169,-5.626987934,1,-3.281291246,1,-7.352711201,1,-0.009871962,1,-0.008903593,1,0.015628742,1,0.424226493,1,-0.603337944,1,-0.367551684,1
1.067975879,-5.642429829,1,-3.293440342,1,-7.398067474,1,-0.006799595,1,-0.013600058,1,0.019309646,1,0.424161851,1,-0.603410065,1,-0.36749205,1
1.071977496,-5.626880646,1,-3.283860683,1,-7.375057697,1,-0.004057473,1,-0.013255091,1,0.019544115,1,0.42409879,1,-0.603484511,1,-0.367434233,1
1.07597518,-5.605651855,1,-3.235826015,1,-7.408511162,1,-0.007795342,1,-0.01210885,1,0.015702141,1,0.424037516,1,-0.603553832,1,-0.367373109,1
1.07997489,-5.617673397,1,-3.233005285,1,-7.389346123,1,-0.009990991,1,-0.008917043,1,0.021240519,1,0.423980266,1,-0.603621244,1,-0.36731118,1
1.083976507,-5.671462059,1,-3.267006159,1,-7.433345318,1,-0.005813366,1,-0.010752564,1,0.019067954,1,0.423912197,1,-0.603685796,1,-0.367245495,1
1.087974429,-5.598372936,1,-3.229576111,1,-7.402136803,1,-0.009125208,1,-0.008850407,1,0.016763141,1,0.423844635,1,-0.603758395,1,-0.367186069,1
1.091974139,-5.617154598,1,-3.242494583,1,-7.40287447,1,-0.00513586,1,-0.013789545,1,0.023373647,1,0.423791379,1,-0.603836834,1,-0.367128849,1
1.095975637,-5.667724609,1,-3.271191835,1,-7.359259129,1,-0.006089435,1,-0.010273892,1,0.019869035,1,0.423718274,1,-0.603914559,1,-0.367057562,1
1.099973321,-5.613053799,1,-3.283163786,1,-7.370634079,1,-0.009949261,1,-0.014232761,1,0.021179268,1,0.423641175,1,-0.603986323,1,-0.366992116,1
1.103972912,-5.677252769,1,-3.27493453,1,-7.328621864,1,-0.007199891,1,-0.00631542,1,0.023798021,1,0.423558176,1,-0.604058862,1,-0.366915405,1
1.107974648,-5.630891323,1,-3.271441936,1,-7.331782341,1,-0.010610195,1,-0.007083122,1,0.024999706,1,0.423470765,1,-0.604124665,1,-0.36682573,1
1.111972332,-5.625138283,1,-3.269692183,1,-7.342354774,1,-0.007276696,1,-0.007160785,1,0.023458796,1,0.423377514,1,-0.604182601,1,-0.366727829,1
1.115971565,-5.640782356,1,-3.252683163,1,-7.37367487,1,-0.01396891,1,-0.006828788,1,0.02281623,1,0.423275113,1,-0.604240596,1,-0.366635323,1
1.119973063,-5.620773315,1,-3.252001047,1,-7.369970322,1,-0.011634724,1,-0.003619764,1,0.02251553,1,0.423163384,1,-0.604291975,1,-0.366545498,1
1.123970866,-5.653862,1,-3.239472866,1,-7.32991457,1,-0.011902995,1,0.000967009,1,0.020972963,1,0.423064828,1,-0.604335189,1,-0.366455555,1
1.127970338,-5.615812778,1,-3.307952881,1,-7.337001324,1,-0.017794918,1,-0.001609824,1,0.022153411,1,0.422953159,1,-0.60436666,1,-0.366352141,1
1.131972075,-5.578944683,1,-3.337997198,1,-7.392597198,1,-0.016469017,1,0.003683738,1,0.023283696,1,0.42283237,1,-0.604396343,1,-0.36624974,1
1.135969758,-5.570844173,1,-3.279120445,1,-7.406855106,1,-0.020644257,1,-0.000490083,1,0.026032362,1,0.422698438,1,-0.604438007,1,-0.366135418,1
1.13996923,-5.583649635,1,-3.262122869,1,-7.394069672,1,-0.016243819,1,-0.00036358,1,0.027513795,1,0.422561944,1,-0.604480863,1,-0.366017163,1
1.143970847,-5.628762245,1,-3.233547688,1,-7.38268137,1,-0.019595807,1,-0.000845449,1,0.02561295,1,0.422423422,1,-0.60452956,1,-0.365904033,1
1.147968292,-5.630809784,1,-3.242034435,1,-7.405092716,1,-0.014646379,1,-0.003232486,1,0.025303483,1,0.42228508,1,-0.604578614,1,-0.365784645,1
1.151967764,-5.62025547,1,-3.228422642,1,-7.381930828,1,-0.015845835,1,-0.002766646,1,0.02885139,1,0.422165155,1,-0.604629576,1,-0.365685582,1
1.155969262,-5.593434334,1,-3.260407448,1,-7.423590183,1,-0.019670295,1,-0.001620376,1,0.02469768,1,0.422032326,1,-0.604682624,1,-0.365576684,1
1.159966707,-5.618822575,1,-3.237804174,1,-7.41878891,1,-0.016419051,1,-0.006353633,1,0.023987379,1,0.421906322,1,-0.604739606,1,-0.365475237,1
1.163966179,-5.596449375,1,-3.282549858,1,-7.425158978,1,-0.01616938,1,-0.005577924,1,0.025346762,1,0.4217906,1,-0.604794383,1,-0.365372658,1
1.167967796,-5.608587265,1,-3.330225706,1,-7.393188953,1,-0.021624239,1,-0.008015713,1,0.027305499,1,0.421655238,1,-0.604859889,1,-0.36526075,1
1.17196548,-5.614161491,1,-3.309995413,1,-7.385509491,1,-0.023277406,1,-0.002909434,1,0.030708577,1,0.421506882,1,-0.604922473,1,-0.365143836,1
1.175971031,-5.614284992,1,-3.280804634,1,-7.377503395,1,-0.024498168,1,-0.010345421,1,0.031181898,1,0.421344995,1,-0.604993105,1,-0.365019828,1
1.179972649,-5.633619308,1,-3.281075001,1,-7.34738636,1,-0.024027325,1,-0.005577277,1,0.027824733,1,0.421183199,1,-0.605061233,1,-0.364903092,1
1.183970332,-5.646659851,1,-3.270967245,1,-7.375085354,1,-0.025469972,1,-0.00416968,1,0.02924969,1,0.42101717,1,-0.605127931,1,-0.364777833,1
1.187969804,-5.634379387,1,-3.240782022,1,-7.343757629,1,-0.028159199,1,-0.005696929,1,0.025945563,1,0.420854002,1,-0.605194151,1,-0.364659429,1
1.191971064,-5.612294197,1,-3.279139042,1,-7.367606163,1,-0.027724456,1,-0.003693432,1,0.031107828,1,0.420681,1,-0.605254591,1,-0.364539742,1
1.195968747,-5.600165367,1,-3.241253614,1,-7.349119186,1,-0.027370052,1,-0.001838579,1,0.027130429,1,0.420496255,1,-0.605315506,1,-0.364415169,1
1.199968219,-5.613519192,1,-3.263974905,1,-7.34258461,1,-0.029234223,1,-0.00059621,1,0.02491492,1,0.420313537,1,-0.605367184,1,-0.364296377,1
1.203969836,-5.602040291,1,-3.26740694,1,-7.391548157,1,-0.032986302,1,-0.001293341,1,0.031816583,1,0.420116723,1,-0.60542208,1,-0.364161372,1
1.20796752,-5.601849079,1,-3.283995867,1,-7.358229637,1,-0.030979715,1,-0.001890816,1,0.030909631,1,0.419914782,1,-0.605481744,1,-0.364029706,1
1.211966991,-5.597370625,1,-3.254637718,1,-7.348147392,1,-0.033349682,1,-0.004080197,1,0.031528074,1,0.419717699,1,-0.605545759,1,-0.363893211,1
1.21596849,-5.604724884,1,-3.205568075,1,-7.37857151,1,-0.032089941,1,-0.002411314,1,0.028418228,1,0.419512093,1,-0.605603278,1,-0.363764405,1
1.219965935,-5.610370159,1,-3.21846652,1,-7.394214153,1,-0.031169839,1,-0.00186286,1,0.029157095,1,0.419306427,1,-0.605656028,1,-0.363631666,1
1.223965406,-5.601937771,1,-3.16952014,1,-7.368677139,1,-0.031582467,1,-0.00048855,1,0.02856677,1,0.419104218,1,-0.605710387,1,-0.363497257,1
1.227967024,-5.569759369,1,-3.172305107,1,-7.408089161,1,-0.030917954,1,-0.005383013,1,0.0272028,1,0.418911248,1,-0.605765462,1,-0.363372743,1
1.231964469,-5.629707336,1,-3.121767759,1,-7.428774834,1,-0.030059373,1,-0.00532672,1,0.028204001,1,0.418727398,1,-0.60583061,1,-0.363259614,1
1.235964179,-5.631325245,1,-3.090269566,1,-7.423191547,1,-0.027303658,1,-0.004830285,1,0.021585807,1,0.418553948,1,-0.605886161,1,-0.363154322,1
1.239965677,-5.624575138,1,-3.084447145,1,-7.406966209,1,-0.019544302,1,-0.006849492,1,0.025369385,1,0.418402791,1,-0.605946898,1,-0.363053381,1
1.243963361,-5.65592289,1,-3.095939636,1,-7.37808466,1,-0.01802589,1,-0.004193258,1,0.025483303,1,0.418268621,1,-0.60600543,1,-0.362962604,1
1.247962832,-5.675463676,1,-3.133065462,1,-7.349982738,1,-0.022180324,1,-0.001857675,1,0.018299369,1,0.418136954,1,-0.606049061,1,-0.362877756,1
1.25196445,-5.729886532,1,-3.201331615,1,-7.297179699,1,-0.021179676,1,-0.002351838,1,0.022712778,1,0.418014467,1,-0.606097996,1,-0.362803698,1
1.255962133,-5.686128616,1,-3.259245396,1,-7.321233749,1,-0.022625199,1,-0.001869812,1,0.02262271,1,0.41787526,1,-0.60613811,1,-0.362706184,1
1.259961605,-5.696723461,1,-3.239002228,1,-7.272572041,1,-0.022681965,1,0.005659005,1,0.024651874,1,0.41771999,1,-0.606168747,1,-0.362598598,1
1.263962865,-5.663949013,1,-3.265738487,1,-7.296812534,1,-0.028813129,1,0.008306609,1,0.025647325,1,0.417549074,1,-0.60618186,1,-0.362478763,1
1.267960548,-5.669203758,1,-3.265102386,1,-7.306742668,1,-0.027420942,1,0.009817086,1,0.027127501,1,0.417362183,1,-0.606186807,1,-0.362347007,1
1.27196002,-5.687630177,1,-3.256624937,1,-7.309366703,1,-0.031613693,1,0.012607065,1,0.025912603,1,0.417152107,1,-0.606187105,1,-0.362204671,1
1.275961399,-5.646765232,1,-3.252383709,1,-7.346006393,1,-0.041290741,1,0.01993238,1,0.024822926,1,0.416804254,1,-0.606186628,1,-0.362039387,1
1.279959083,-5.662501812,1,-3.250398397,1,-7.310192585,1,-0.037936497,1,0.023184812,1,0.028297566,1,0.416573226,1,-0.606157005,1,-0.361883163,1
1.283958554,-5.666587353,1,-3.224088907,1,-7.336669445,1,-0.038678374,1,0.021559365,1,0.029702269,1,0.416321754,1,-0.606124818,1,-0.361706018,1
1.287960052,-5.660740852,1,-3.215637922,1,-7.350628376,1,-0.037805777,1,0.026720053,1,0.02912258,1,0.416066885,1,-0.606080651,1,-0.361532569,1
1.291957498,-5.636054993,1,-3.205809116,1,-7.346004963,1,-0.043606751,1,0.026242942,1,0.029208809,1,0.415799409,1,-0.60602659,1,-0.361348689,1
1.29596293,-5.659949303,1,-3.145991325,1,-7.374991894,1,-0.035468273,1,0.02750084,1,0.029447168,1,0.41553539,1,-0.605980635,1,-0.361164689,1
1.299964428,-5.639444828,1,-3.111916542,1,-7.364055157,1,-0.040890794,1,0.029487243,1,0.027978081,1,0.41527462,1,-0.605917752,1,-0.36098519,1
1.303962111,-5.591230869,1,-3.096384525,1,-7.369941711,1,-0.039054345,1,0.027407721,1,0.024974838,1,0.415024966,1,-0.605858266,1,-0.360816121,1
1.307961583,-5.624609947,1,-3.050145864,1,-7.429721832,1,-0.032977466,1,0.025876507,1,0.019240726,1,0.414801657,1,-0.605795145,1,-0.360658526,1
1.311963081,-5.641148567,1,-3.029234409,1,-7.437484264,1,-0.031243648,1,0.025828909,1,0.018382059,1,0.414590418,1,-0.605733752,1,-0.360520571,1
1.315960526,-5.599199772,1,-3.045669794,1,-7.424311638,1,-0.025487512,1,0.022456015,1,0.014540762,1,0.414414376,1,-0.605666518,1,-0.360405445,1
1.319960117,-5.618128777,1,-3.115707159,1,-7.426564217,1,-0.018706113,1,0.024762344,1,0.009369763,1,0.414256632,1,-0.605599344,1,-0.360294402,1
1.323961616,-5.602846622,1,-3.17381835,1,-7.468931675,1,-0.023169538,1,0.023149075,1,0.014643146,1,0.414113283,1,-0.605531633,1,-0.36019963,1
1.327959061,-5.571973801,1,-3.186244488,1,-7.448243141,1,-0.017645761,1,0.022146873,1,0.011616986,1,0.413977146,1,-0.605467021,1,-0.360103846,1
1.331958771,-5.584424496,1,-3.209622145,1,-7.424192905,1,-0.022815717,1,0.017099744,1,0.011849726,1,0.413846016,1,-0.605412662,1,-0.360012978,1
1.335960269,-5.575364113,1,-3.208443165,1,-7.436740398,1,-0.022112574,1,0.020957159,1,0.016582578,1,0.413714081,1,-0.605364859,1,-0.359921783,1
1.339957714,-5.6210742,1,-3.196475267,1,-7.431876183,1,-0.01940614,1,0.012418006,1,0.010474376,1,0.413573593,1,-0.605323017,1,-0.359830141,1
1.343957305,-5.64791584,1,-3.137553215,1,-7.390071869,1,-0.019994579,1,0.017119998,1,0.014477262,1,0.413448989,1,-0.605279446,1,-0.359749258,1
1.347958803,-5.632378578,1,-3.13318634,1,-7.395467758,1,-0.020692095,1,0.017207423,1,0.012301156,1,0.413322568,1,-0.605235696,1,-0.359659731,1
1.351956487,-5.630730152,1,-3.135128498,1,-7.430471897,1,-0.017097466,1,0.015690116,1,0.010706412,1,0.413206905,1,-0.605199754,1,-0.359591007,1
1.355955958,-5.619790077,1,-3.102013111,1,-7.45267725,1,-0.018492451,1,0.017081665,1,0.007472883,1,0.413096905,1,-0.605154693,1,-0.359516561,1
1.359957218,-5.585309505,1,-3.09394598,1,-7.445912838,1,-0.014858089,1,0.011618027,1,0.011216469,1,0.412990838,1,-0.605117261,1,-0.359439909,1
1.363954902,-5.637204647,1,-3.120400429,1,-7.470528126,1,-0.010308075,1,0.015415421,1,0.005649061,1,0.412912607,1,-0.605080724,1,-0.359390587,1
1.367954373,-5.579677582,1,-3.137289047,1,-7.454322338,1,-0.008854423,1,0.012058826,1,0.006561584,1,0.41283533,1,-0.605043828,1,-0.359333277,1
1.371955752,-5.575662136,1,-3.20644784,1,-7.415196896,1,-0.006279235,1,0.00714189,1,0.008197943,1,0.412767112,1,-0.605017662,1,-0.359285057,1
1.375953436,-5.618340492,1,-3.203716755,1,-7.396862984,1,-0.013123425,1,0.005019108,1,0.00833562,1,0.412697196,1,-0.605003834,1,-0.35922727,1
1.379952908,-5.619585037,1,-3.240152359,1,-7.406938553,1,-0.011810672,1,0.008632394,1,0.007590197,1,0.412622958,1,-0.604990482,1,-0.359170318,1
1.383954644,-5.619743824,1,-3.262635946,1,-7.378689289,1,-0.010868949,1,0.00994586,1,0.010752803,1,0.412553877,1,-0.60497272,1,-0.359123468,1
1.387952328,-5.615509987,1,-3.251466036,1,-7.400102139,1,-0.015043881,1,0.009487672,1,0.01337436,1,0.41247198,1,-0.604962111,1,-0.359056562,1
1.391951919,-5.630917072,1,-3.197971344,1,-7.391571045,1,-0.010862551,1,0.011663032,1,0.013871316,1,0.412366152,1,-0.604944706,1,-0.358980775,1
1.395953417,-5.615363598,1,-3.211451292,1,-7.419802666,1,-0.01595992,1,0.005182163,1,0.016023131,1,0.412252367,1,-0.604936242,1,-0.358902365,1
1.399950862,-5.654322147,1,-3.182404757,1,-7.393626213,1,-0.018707184,1,0.009312914,1,0.015090035,1,0.412146091,1,-0.604927301,1,-0.358823955,1
1.403950095,-5.599591255,1,-3.172123671,1,-7.38556242,1,-0.012831935,1,0.009755682,1,0.013472725,1,0.41202715,1,-0.60491389,1,-0.358736724,1
1.407951832,-5.604498386,1,-3.143030405,1,-7.434173107,1,-0.018132523,1,0.010538567,1,0.016720083,1,0.411904633,1,-0.604896903,1,-0.358641177,1
1.411949515,-5.582613468,1,-3.150954247,1,-7.430488586,1,-0.018103305,1,0.007237742,1,0.014544599,1,0.411776423,1,-0.604888439,1,-0.358549833,1
1.415955186,-5.601302147,1,-3.193080187,1,-7.43701601,1,-0.015689619,1,0.010100943,1,0.016592622,1,0.41165337,1,-0.604882598,1,-0.358460546,1
1.419956684,-5.578661442,1,-3.203167677,1,-7.419651985,1,-0.020933615,1,0.011102026,1,0.013142891,1,0.411534786,1,-0.604868412,1,-0.358380437,1
1.423954487,-5.606332779,1,-3.157737255,1,-7.393226147,1,-0.023119785,1,0.011357487,1,0.011185145,1,0.411406189,1,-0.604861736,1,-0.358304918,1
1.427953959,-5.586445332,1,-3.142418623,1,-7.414801121,1,-0.017369963,1,0.011376037,1,0.013180166,1,0.411287367,1,-0.604839265,1,-0.358224154,1
1.431955457,-5.550974846,1,-3.16033411,1,-7.407962799,1,-0.01914479,1,0.004986125,1,0.01541123,1,0.411169589,1,-0.604832411,1,-0.358147979,1
1.435952902,-5.538682938,1,-3.169412136,1,-7.435212135,1,-0.019586103,1,0.007276451,1,0.014073681,1,0.41106087,1,-0.60482949,1,-0.358080328,1
1.439952374,-5.551908016,1,-3.121495008,1,-7.460290432,1,-0.018971818,1,0.003771097,1,0.010789342,1,0.410944194,1,-0.604824901,1,-0.358008742,1
1.443953872,-5.606758118,1,-3.111676455,1,-7.437655449,1,-0.01633033,1,0.003243963,1,0.015164793,1,0.410847753,1,-0.604824841,1,-0.357945055,1
1.447951674,-5.615204811,1,-3.117861986,1,-7.45672369,1,-0.014686572,1,-0.000454538,1,0.014367362,1,0.410747826,1,-0.604834855,1,-0.357875615,1
1.451951385,-5.594981194,1,-3.154794931,1,-7.457448483,1,-0.011926608,1,0.003196957,1,0.012274679,1,0.410661638,1,-0.604848146,1,-0.35782212,1
1.455952883,-5.606606007,1,-3.189849854,1,-7.469471931,1,-0.012665636,1,-0.00328885,1,0.011669619,1,0.410582334,1,-0.604866982,1,-0.357767522,1
1.459950805,-5.599491119,1,-3.212311983,1,-7.450782299,1,-0.013613536,1,-0.001953827,1,0.015935004,1,0.410496235,1,-0.604897022,1,-0.357711941,1
1.463950396,-5.579699516,1,-3.228349924,1,-7.466089249,1,-0.01086927,1,-0.003633819,1,0.016132241,1,0.410416871,1,-0.604934514,1,-0.357661933,1
1.467951655,-5.610794067,1,-3.28335166,1,-7.487751484,1,-0.01755284,1,-0.008675301,1,0.017601568,1,0.410324991,1,-0.604989886,1,-0.357596397,1
1.471949339,-5.623968124,1,-3.27278018,1,-7.492703915,1,-0.015265358,1,-0.012292974,1,0.020555025,1,0.410224289,1,-0.605055451,1,-0.357533634,1
1.475948811,-5.612252712,1,-3.277598381,1,-7.4911623,1,-0.01443327,1,-0.014380445,1,0.022827648,1,0.410137296,1,-0.605142057,1,-0.35747546,1
1.479950309,-5.607973576,1,-3.278811455,1,-7.521291733,1,-0.018191218,1,-0.019403733,1,0.024085725,1,0.410021603,1,-0.605242431,1,-0.357395947,1
1.483947754,-5.631565571,1,-3.244887829,1,-7.44778347,1,-0.017711451,1,-0.017399963,1,0.029181071,1,0.409895986,1,-0.605364501,1,-0.357307434,1
1.487946987,-5.654229641,1,-3.264919996,1,-7.476986885,1,-0.021971365,1,-0.023530027,1,0.031472094,1,0.40977183,1,-0.605496526,1,-0.357229233,1
1.491948843,-5.678086758,1,-3.248999596,1,-7.474411964,1,-0.021068389,1,-0.030766008,1,0.028028317,1,0.409633636,1,-0.605639696,1,-0.357146114,1
1.495946527,-5.683228016,1,-3.133819342,1,-7.508873463,1,-0.020691007,1,-0.027245795,1,0.032381106,1,0.409501135,1,-0.605786443,1,-0.357065648,1
1.49994576,-5.679733753,1,-3.063927412,1,-7.546682835,1,-0.023658752,1,-0.031943139,1,0.026191667,1,0.409371674,1,-0.605947554,1,-0.356987119,1
1.503947258,-5.65964222,1,-3.005524635,1,-7.549908161,1,-0.014079613,1,-0.031848662,1,0.028888952,1,0.409266412,1,-0.606115639,1,-0.356926024,1
1.507944703,-5.709238052,1,-2.979505777,1,-7.5637393,1,-0.012153971,1,-0.042232636,1,0.019658491,1,0.409188688,1,-0.606292665,1,-0.356889516,1
1.511944175,-5.725069046,1,-3.002524137,1,-7.532489777,1,-0.009927564,1,-0.036635268,1,0.01760105,1,0.409132987,1,-0.606461644,1,-0.35687688,1
1.515945673,-5.821345329,1,-3.011867523,1,-7.507921696,1,-0.008311084,1,-0.045380879,1,0.008692134,1,0.409128368,1,-0.606634855,1,-0.356907308,1
1.519943118,-5.818198204,1,-3.037341833,1,-7.536795139,1,-0.004664902,1,-0.04164077,1,0.002190413,1,0.408998847,1,-0.606850386,1,-0.35689494,1
1.523942709,-5.793883324,1,-3.002277613,1,-7.576111794,1,0.000988986,1,-0.046672489,1,-0.003481693,1,0.409021437,1,-0.606961012,1,-0.357032061,1
1.527944207,-5.817525864,1,-3.003569365,1,-7.528551579,1,0.002955301,1,-0.048999764,1,-0.009391997,1,0.409103006,1,-0.607126713,1,-0.357153535,1
1.531941891,-5.820409775,1,-3.030184269,1,-7.514044285,1,0.003786667,1,-0.050117809,1,-0.013101479,1,0.409192652,1,-0.60728538,1,-0.357287467,1
1.535947561,-5.815068245,1,-3.042546034,1,-7.528928757,1,0.00257152,1,-0.048201941,1,-0.017882671,1,0.409307778,1,-0.607433915,1,-0.357461452,1
1.539949059,-5.834387302,1,-3.107687712,1,-7.515066624,1,0.006708486,1,-0.04487608,1,-0.027913179,1,0.409446239,1,-0.607568502,1,-0.357653558,1
1.543946743,-5.818602085,1,-3.189721584,1,-7.508852482,1,0.007113856,1,-0.042294271,1,-0.026694883,1,0.409597635,1,-0.607686698,1,-0.35786891,1
1.547946215,-5.720431328,1,-3.128288269,1,-7.602337837,1,0.008165156,1,-0.043432128,1,-0.029982593,1,0.409740239,1,-0.607796967,1,-0.358076394,1
1.551947474,-5.649098873,1,-3.312174559,1,-7.546600819,1,0.006184713,1,-0.048524465,1,-0.033509497,1,0.409915835,1,-0.60792017,1,-0.358302027,1
1.555945158,-5.595502853,1,-3.36046052,1,-7.552757263,1,0.000270871,1,-0.04752199,1,-0.028177939,1,0.410056889,1,-0.608049989,1,-0.358538508,1
1.559944749,-5.484119415,1,-3.468507767,1,-7.64738369,1,-0.008954185,1,-0.057159316,1,-0.022004921,1,0.410169542,1,-0.60821414,1,-0.35874474,1
1.563946247,-5.405375004,1,-3.585990667,1,-7.743517876,1,-0.004300279,1,-0.071879566,1,-0.014244148,1,0.410261452,1,-0.608417988,1,-0.358951569,1
1.567943931,-5.296543598,1,-3.745954275,1,-7.844700813,1,-0.016033135,1,-0.094657429,1,-0.002964779,1,0.410334229,1,-0.608703613,1,-0.35914737,1
1.571943402,-5.14987421,1,-3.901269436,1,-7.986384869,1,-0.0221899,1,-0.132214352,1,0.021912545,1,0.410355508,1,-0.609136045,1,-0.359322906,1
1.575944901,-5.056713581,1,-4.134594917,1,-7.995409489,1,-0.020835251,1,-0.175763756,1,0.055755973,1,0.410334438,1,-0.609757245,1,-0.359449595,1
1.579942703,-5.042943001,1,-4.554573059,1,-8.106570244,1,0.020897076,1,-0.216804549,1,0.119685404,1,0.410321623,1,-0.610610783,1,-0.359440565,1
1.583941936,-4.822066307,1,-4.748849869,1,-8.180821419,1,0.076344512,1,-0.25096342,1,0.192942008,1,0.410377026,1,-0.611710846,1,-0.359187096,1
1.587943435,-4.406502247,1,-4.900532246,1,-8.429626465,1,0.107455812,1,-0.313337922,1,0.276261926,1,0.410479486,1,-0.613117397,1,-0.358695269,1
1.59194088,-4.650517464,1,-4.880043507,1,-8.149975777,1,0.122026518,1,-0.3863343,1,0.344515741,1,0.410520017,1,-0.614900649,1,-0.357975602,1
1.595940351,-5.713092327,1,-4.634161949,1,-7.691934109,1,0.136887729,1,-0.401457846,1,0.358632296,1,0.410568863,1,-0.616929293,1,-0.357167721,1
1.59994185,-6.066263199,1,-4.613663197,1,-7.858531952,1,0.166656643,1,-0.380175292,1,0.362778246,1,0.410675287,1,-0.618929684,1,-0.356319636,1
1.603939533,-5.79428339,1,-3.898884773,1,-8.323967934,1,0.249971256,1,-0.372554362,1,0.378840178,1,0.410937101,1,-0.620909989,1,-0.355383933,1
1.607939363,-5.652685165,1,-3.526344776,1,-8.794304848,1,0.375190735,1,-0.394382,1,0.398120254,1,0.411623478,1,-0.622920811,1,-0.354392469,1
1.611940861,-5.411168098,1,-5.132846355,1,-8.604895592,1,0.339069009,1,-0.410463154,1,0.417499512,1,0.412469566,1,-0.625041604,1,-0.353341043,1
1.615938306,-5.41760397,1,-5.39185667,1,-8.365694046,1,0.260930002,1,-0.441749126,1,0.430672139,1,0.413016289,1,-0.62727493,1,-0.352261901,1
1.619937778,-6.126724243,1,-4.937106609,1,-8.900148392,1,0.268079728,1,-0.49384445,1,0.428785264,1,0.413465083,1,-0.629672289,1,-0.351248294,1
1.623939276,-5.832830906,1,-4.367797852,1,-9.034417152,1,0.283744335,1,-0.567187905,1,0.41585964,1,0.414062142,1,-0.632297218,1,-0.350381136,1
1.627936721,-6.246432304,1,-4.6766572,1,-9.195633888,1,0.289230049,1,-0.632632256,1,0.431080163,1,0.414800048,1,-0.635149837,1,-0.349692464,1
1.631936312,-8.052600861,1,-4.433632374,1,-9.021045685,1,0.292445511,1,-0.674893022,1,0.502248168,1,0.415478945,1,-0.638336897,1,-0.348887742,1
1.63593781,-7.028038979,1,-4.665357113,1,-9.051686287,1,0.347491622,1,-0.65110594,1,0.57863611,1,0.416068494,1,-0.641619682,1,-0.347748876,1
1.639935493,-7.261340618,1,-4.967216492,1,-8.640429497,1,0.347429365,1,-0.665767074,1,0.658177137,1,0.416560322,1,-0.645044208,1,-0.346223056,1
1.643934965,-7.04769659,1,-5.587594509,1,-8.72132206,1,0.290886611,1,-0.665314496,1,0.752486825,1,0.416726053,1,-0.648602426,1,-0.34436065,1
1.647936463,-7.552767277,1,-6.601621628,1,-8.599063873,1,0.161792353,1,-0.680582166,1,0.861721992,1,0.416222721,1,-0.652382672,1,-0.342018902,1
1.651934266,-7.911205769,1,-6.601003647,1,-10.29130745,1,-0.096192889,1,-0.625291884,1,0.92866534,1,0.414697409,1,-0.656281114,1,-0.339204609,1
1.655933738,-11.08753204,1,-7.117460728,1,-9.010928154,1,-0.177416414,1,-0.620305598,1,0.883960307,1,0.412388474,1,-0.660007834,1,-0.336332262,1
1.659941435,-9.276186943,1,-6.658934116,1,-9.04216671,1,-0.346075892,1,-0.638626814,1,0.933607996,1,0.409525752,1,-0.663800895,1,-0.333371252,1
1.66394496,-11.51385593,1,-7.182071686,1,-10.2869072,1,-0.539710283,1,-0.5558815,1,0.924508274,1,0.405806065,1,-0.66748029,1,-0.330227852,1
1.667944431,-13.42685604,1,-7.19862318,1,-10.97130013,1,-0.674043,1,-0.391473383,1,0.841253638,1,0.40139097,1,-0.670640886,1,-0.327032417,1
1.67194593,-12.10694408,1,-7.558251858,1,-11.95200634,1,-0.778945386,1,-0.187994704,1,0.716648996,1,0.396552026,1,-0.672914147,1,-0.3239308,1
1.675943375,-9.90348053,1,-7.500610352,1,-12.23333263,1,-0.909924388,1,-0.026882686,1,0.619365036,1,0.391331315,1,-0.674311161,1,-0.32098645,1
1.679942966,-7.909393311,1,-6.029149532,1,-11.85283279,1,-0.9947294,1,0.077513978,1,0.573955655,1,0.385699391,1,-0.675121427,1,-0.318119496,1
1.683944941,-5.464159966,1,-4.679987907,1,-11.41695976,1,-1.019154668,1,0.104515359,1,0.552841723,1,0.379867077,1,-0.675588369,1,-0.315258831,1
1.687942863,-3.646981239,1,-4.09357357,1,-11.03465462,1,-1.000940561,1,0.061050691,1,0.579139233,1,0.374039948,1,-0.676094413,1,-0.312413514,1
1.691942096,-2.75275135,1,-3.41900897,1,-10.95151043,1,-0.928225994,1,-0.010450289,1,0.640229285,1,0.368327677,1,-0.676875889,1,-0.309472173,1
1.695943713,-2.320804834,1,-3.321935415,1,-10.81796741,1,-0.829777896,1,-0.075801618,1,0.714543641,1,0.362829208,1,-0.678010166,1,-0.306295872,1
1.699941158,-1.947398186,1,-3.78322196,1,-10.5216608,1,-0.765442491,1,-0.135692313,1,0.799110651,1,0.357476473,1,-0.679477274,1,-0.302836418,1
1.70394063,-1.627175927,1,-4.074168205,1,-10.34290218,1,-0.734565139,1,-0.186602861,1,0.887969792,1,0.352094799,1,-0.681246519,1,-0.299058557,1
1.707942128,-1.512475967,1,-4.388920307,1,-10.43699932,1,-0.724400222,1,-0.23638384,1,0.957177103,1,0.346597254,1,-0.683309376,1,-0.294964403,1
1.711939573,-1.74439621,1,-4.85095787,1,-10.52867794,1,-0.743951082,1,-0.249409243,1,1.018871784,1,0.340885133,1,-0.685564637,1,-0.290563524,1
1.715939283,-1.88160181,1,-5.064723969,1,-10.63278103,1,-0.776777864,1,-0.238662109,1,1.06152904,1,0.334892958,1,-0.687865555,1,-0.285904765,1
1.719940901,-2.01930213,1,-5.103785038,1,-10.71863174,1,-0.806317389,1,-0.214408159,1,1.073444247,1,0.328649282,1,-0.690119624,1,-0.281058073,1
1.723938346,-2.093471766,1,-4.998602867,1,-10.77242374,1,-0.823448837,1,-0.167103752,1,1.079385281,1,0.322212636,1,-0.69223088,1,-0.27607432,1
1.727938056,-1.770914912,1,-4.861060619,1,-10.67480755,1,-0.824746132,1,-0.114431679,1,1.07575357,1,0.315658033,1,-0.694111824,1,-0.270978689,1
1.731939316,-1.335990667,1,-4.814672947,1,-10.48918343,1,-0.816785574,1,-0.072530642,1,1.064001918,1,0.309072793,1,-0.695792854,1,-0.265835255,1
1.735936999,-0.93047595,1,-4.773502827,1,-10.435215,1,-0.788931191,1,-0.040008295,1,1.041318178,1,0.302556932,1,-0.697279394,1,-0.260692865,1
1.739936471,-0.513068259,1,-4.765799999,1,-10.33698654,1,-0.755933821,1,-0.013271629,1,1.010714889,1,0.296202451,1,-0.698595941,1,-0.255609721,1
1.74393785,-0.307113051,1,-4.707787991,1,-10.26779556,1,-0.711029828,1,0.011311068,1,0.987568676,1,0.290045261,1,-0.699754953,1,-0.250615329,1
1.747935534,-0.173815206,1,-4.820764542,1,-10.22409058,1,-0.667655885,1,0.034782551,1,0.950900614,1,0.284133554,1,-0.700759232,1,-0.245719641,1
1.751935005,-0.113149405,1,-4.868021965,1,-10.21162796,1,-0.611160398,1,0.065046072,1,0.902707875,1,0.278511226,1,-0.701591134,1,-0.240967482,1
1.755936503,-0.087688789,1,-4.540174484,1,-10.3217802,1,-0.559890151,1,0.121448606,1,0.817002952,1,0.27323088,1,-0.702174902,1,-0.236460313,1
1.759934187,0.102820732,1,-4.610677719,1,-9.675749779,1,-0.479491025,1,0.142340228,1,0.782447517,1,0.268457711,1,-0.702511549,1,-0.232239157,1
1.763933659,-0.153943583,1,-4.459165096,1,-10.03589439,1,-0.405035913,1,0.191326976,1,0.719528675,1,0.264086127,1,-0.702673793,1,-0.228207707,1
1.767935276,-0.270634294,1,-4.635095596,1,-10.07389927,1,-0.366842985,1,0.251994312,1,0.645363867,1,0.260114014,1,-0.702532053,1,-0.224452838,1
1.771932721,0.076573923,1,-4.644943237,1,-9.971517563,1,-0.313612133,1,0.316062689,1,0.549209833,1,0.256539941,1,-0.701991498,1,-0.220992789,1
1.775932193,0.514036775,1,-4.586538315,1,-9.904935837,1,-0.259596735,1,0.371278614,1,0.470648348,1,0.253438145,1,-0.701170325,1,-0.217956468,1
1.77993989,0.638192415,1,-4.419098854,1,-9.772088051,1,-0.21191746,1,0.416407526,1,0.401726753,1,0.250730574,1,-0.700076461,1,-0.215233892,1
1.783943415,0.809382737,1,-4.172830582,1,-9.696722984,1,-0.164313793,1,0.47195223,1,0.327891618,1,0.248417035,1,-0.698709309,1,-0.212811545,1
1.787942886,1.051235199,1,-4.04668808,1,-9.598284721,1,-0.110667378,1,0.512622714,1,0.251284719,1,0.246501416,1,-0.697077632,1,-0.210703298,1
1.791944742,1.193528652,1,-3.807115316,1,-9.501218796,1,-0.059861165,1,0.555141091,1,0.179583296,1,0.245021477,1,-0.695220232,1,-0.208934993,1
1.795942426,1.351994276,1,-3.713878632,1,-9.453627586,1,-0.012202466,1,0.594035387,1,0.10777805,1,0.243947983,1,-0.693137646,1,-0.207484499,1
1.799942136,1.479221582,1,-3.636170626,1,-9.332698822,1,0.032434635,1,0.631164312,1,0.045529883,1,0.243249759,1,-0.690841377,1,-0.206328899,1
1.803943634,1.563231468,1,-3.514348984,1,-9.299674988,1,0.072740138,1,0.663125873,1,-0.015774315,1,0.242896244,1,-0.688341498,1,-0.205447748,1
1.807941079,1.551334143,1,-3.499414682,1,-9.297344208,1,0.11010059,1,0.697999775,1,-0.075713992,1,0.242882922,1,-0.685664594,1,-0.204843402,1
1.811940551,1.438099504,1,-3.429272175,1,-9.305985451,1,0.149333,1,0.734365284,1,-0.136899784,1,0.243175551,1,-0.682780147,1,-0.204487041,1
1.815942168,1.414773583,1,-3.385218382,1,-9.273873329,1,0.177725434,1,0.77380681,1,-0.191847742,1,0.243756205,1,-0.679688573,1,-0.204372972,1
1.819939613,1.379536867,1,-3.255012274,1,-9.274055481,1,0.208534151,1,0.822236061,1,-0.242329508,1,0.244588599,1,-0.676387191,1,-0.20446986,1
1.823939085,1.423238039,1,-3.241457224,1,-9.262308121,1,0.232298344,1,0.864577711,1,-0.296141446,1,0.245657504,1,-0.672857523,1,-0.204762086,1
1.827940583,1.41480732,1,-3.174624205,1,-9.209737778,1,0.259816378,1,0.908894598,1,-0.339767039,1,0.246941671,1,-0.669107318,1,-0.20523563,1
1.831938505,1.38855803,1,-3.093334913,1,-9.172635078,1,0.28476274,1,0.943833351,1,-0.378857076,1,0.248419374,1,-0.665163398,1,-0.205855995,1
1.835938096,1.435116053,1,-3.078152895,1,-9.143930435,1,0.307406306,1,0.981716454,1,-0.412322223,1,0.250070363,1,-0.66103816,1,-0.206613898,1
1.839939594,1.348013401,1,-3.073956251,1,-9.120969772,1,0.324746907,1,1.011469364,1,-0.451300383,1,0.251871586,1,-0.656749129,1,-0.207481787,1
1.843937278,1.159485579,1,-3.118535757,1,-9.135105133,1,0.348197341,1,1.045233369,1,-0.473701924,1,0.253803134,1,-0.652314961,1,-0.208442047,1
1.847936749,0.918454111,1,-3.18055439,1,-9.141414642,1,0.366689473,1,1.078426123,1,-0.49967587,1,0.255848914,1,-0.647718906,1,-0.209473506,1
1.851938009,0.731800556,1,-3.174006939,1,-9.142370224,1,0.383707374,1,1.11734426,1,-0.532244027,1,0.257992536,1,-0.642958462,1,-0.210556373,1
1.855935693,0.57911545,1,-3.192218065,1,-9.102740288,1,0.406032205,1,1.153200984,1,-0.543788493,1,0.260242164,1,-0.638008237,1,-0.211692125,1
1.859935284,0.433806896,1,-3.155914545,1,-9.162924767,1,0.429610461,1,1.195611358,1,-0.572049022,1,0.262607157,1,-0.632893264,1,-0.212862566,1
1.863937259,0.0637886,1,-3.198294401,1,-9.231900215,1,0.463245839,1,1.233499885,1,-0.593962729,1,0.265101135,1,-0.627598524,1,-0.214072779,1
1.867935181,-0.10948927,1,-3.286640167,1,-9.293558121,1,0.501605213,1,1.281664848,1,-0.606689751,1,0.26774171,1,-0.622108281,1,-0.215283498,1
1.871934772,-0.288342327,1,-3.252259493,1,-9.28800869,1,0.534528196,1,1.324174047,1,-0.633894861,1,0.270530701,1,-0.616425872,1,-0.216523111,1
1.87593627,-0.558508635,1,-3.321931124,1,-9.35132122,1,0.570829391,1,1.365327001,1,-0.668218374,1,0.273474306,1,-0.610545576,1,-0.217819184,1
1.879933953,-0.745182872,1,-3.412673473,1,-9.421030045,1,0.594893754,1,1.404751539,1,-0.697718501,1,0.276569784,1,-0.6044752,1,-0.219171852,1
1.883933425,-0.942091286,1,-3.507194996,1,-9.451856613,1,0.62008357,1,1.444397688,1,-0.726857901,1,0.279803276,1,-0.598218679,1,-0.220597595,1
1.887934923,-1.091892838,1,-3.560872078,1,-9.50797081,1,0.640713215,1,1.476478338,1,-0.764298499,1,0.283169508,1,-0.591776967,1,-0.222102031,1
1.891932726,-1.307374477,1,-3.618561983,1,-9.55857563,1,0.661025763,1,1.511252046,1,-0.806778014,1,0.28666234,1,-0.585152626,1,-0.223701119,1
1.895932198,-1.56582427,1,-3.704751968,1,-9.652194977,1,0.683429122,1,1.542405963,1,-0.850585997,1,0.290295959,1,-0.578349888,1,-0.225422025,1
1.899939895,-1.823302984,1,-3.722821951,1,-9.688881874,1,0.699962676,1,1.584810615,1,-0.899122059,1,0.294071674,1,-0.571351826,1,-0.227271631,1
1.903943658,-2.079122066,1,-3.814378738,1,-9.65853405,1,0.713550329,1,1.625581026,1,-0.952427864,1,0.297971189,1,-0.564134061,1,-0.229250237,1
1.907943726,-2.303253889,1,-3.857228518,1,-9.610172272,1,0.721888602,1,1.659397244,1,-1.003076553,1,0.301981956,1,-0.556703806,1,-0.23138234,1
1.911945224,-2.49274683,1,-3.926011086,1,-9.55462265,1,0.731040001,1,1.694532394,1,-1.059545517,1,0.306082338,1,-0.549053013,1,-0.233647838,1
1.915942669,-2.498086929,1,-3.987491846,1,-9.47796154,1,0.731187582,1,1.732754827,1,-1.109148026,1,0.310244679,1,-0.541205585,1,-0.236043453,1
1.919942141,-2.600883961,1,-3.999149323,1,-9.402980804,1,0.729718149,1,1.75914228,1,-1.149238944,1,0.314455271,1,-0.533167481,1,-0.23855269,1
1.923943639,-2.632492304,1,-3.963772535,1,-9.308243752,1,0.727811098,1,1.775686383,1,-1.189049602,1,0.318687558,1,-0.524991632,1,-0.241158038,1
1.927941322,-2.708889008,1,-3.899469614,1,-9.238718987,1,0.730208814,1,1.780365705,1,-1.216178894,1,0.322936386,1,-0.516715348,1,-0.243839338,1
1.931940913,-2.798027754,1,-3.864359617,1,-9.12687397,1,0.727289855,1,1.786984563,1,-1.243688822,1,0.327197254,1,-0.508384764,1,-0.246583983,1
1.935942173,-2.920033693,1,-3.805277586,1,-9.012535095,1,0.738036633,1,1.783479333,1,-1.264259338,1,0.331473291,1,-0.500004947,1,-0.249362141,1
1.939939857,-3.019316673,1,-3.776778221,1,-8.868668556,1,0.73694694,1,1.778995872,1,-1.273656011,1,0.335760832,1,-0.49161464,1,-0.252172381,1
1.943939328,-3.02842164,1,-3.720334768,1,-8.760419846,1,0.743884921,1,1.765794635,1,-1.281647086,1,0.340031534,1,-0.483234286,1,-0.254972309,1
1.947940826,-3.070628166,1,-3.677603483,1,-8.676651955,1,0.748672843,1,1.74461925,1,-1.280187845,1,0.344303966,1,-0.47489813,1,-0.257750779,1
1.95193851,-3.126687527,1,-3.618552923,1,-8.642296791,1,0.760109961,1,1.720182538,1,-1.275846124,1,0.348568887,1,-0.466647357,1,-0.26051265,1
1.955938101,-3.23451376,1,-3.604849339,1,-8.636278152,1,0.778774142,1,1.691802025,1,-1.267514586,1,0.352859914,1,-0.45850116,1,-0.263238728,1
1.959939837,-3.501800537,1,-3.564295053,1,-8.662112236,1,0.788793981,1,1.667358518,1,-1.263266444,1,0.357167721,1,-0.450450003,1,-0.265926093,1
1.963937521,-3.749522686,1,-3.617880344,1,-8.70932579,1,0.807413995,1,1.643326998,1,-1.260624528,1,0.361508369,1,-0.442487836,1,-0.268588781,1
1.967936754,-4.167822361,1,-3.715590954,1,-8.838849068,1,0.823157549,1,1.632611513,1,-1.255344033,1,0.365881681,1,-0.434584796,1,-0.271196693,1
1.971938252,-4.581994534,1,-3.822435617,1,-8.977406502,1,0.839442492,1,1.642901778,1,-1.253036022,1,0.370280534,1,-0.426678032,1,-0.273757637,1
1.975935698,-5.074486732,1,-3.831108809,1,-9.180325508,1,0.85416466,1,1.654729009,1,-1.260326266,1,0.374697894,1,-0.418709159,1,-0.27627039,1
1.979935288,-5.407037258,1,-3.859877825,1,-9.326996803,1,0.864272356,1,1.691923857,1,-1.277583718,1,0.379131883,1,-0.410614431,1,-0.278735697,1
1.983936787,-5.585669041,1,-3.8298769,1,-9.446652412,1,0.868929148,1,1.72736001,1,-1.295027494,1,0.383562863,1,-0.402359337,1,-0.28116411,1
1.987934232,-5.633921623,1,-3.915962696,1,-9.509784698,1,0.871157646,1,1.77259481,1,-1.315293074,1,0.387961447,1,-0.39391619,1,-0.283542752,1
1.991933703,-5.59508276,1,-3.996884346,1,-9.470038414,1,0.857109606,1,1.811029315,1,-1.322358131,1,0.392298728,1,-0.385282159,1,-0.285875112,1
1.995935202,-5.474488735,1,-3.984444618,1,-9.439518929,1,0.836845219,1,1.854931116,1,-1.331380606,1,0.396524131,1,-0.376474738,1,-0.288126647,1
1.999932647,-5.318170071,1,-3.886575699,1,-9.320691109,1,0.817798018,1,1.886014938,1,-1.324234486,1,0.400624394,1,-0.367507279,1,-0.290277243,1
2.003932238,-5.193510532,1,-3.70664072,1,-9.203668594,1,0.803607404,1,1.91754818,1,-1.326982141,1,0.404595256,1,-0.358426064,1,-0.292304933,1
2.007933617,-5.008476257,1,-3.480514526,1,-9.080723763,1,0.796160221,1,1.939898849,1,-1.306860924,1,0.40845412,1,-0.349257052,1,-0.294199288,1
2.011931419,-4.756454468,1,-3.349537373,1,-8.921956062,1,0.795467496,1,1.958400726,1,-1.281596899,1,0.412220895,1,-0.340052366,1,-0.295935899,1
2.015930891,-4.517138958,1,-3.260109901,1,-8.771018028,1,0.796505213,1,1.950254202,1,-1.243036628,1,0.415919065,1,-0.330874562,1,-0.29749772,1
2.019938469,-4.328347683,1,-3.218562841,1,-8.601128578,1,0.81083262,1,1.943437576,1,-1.198342204,1,0.419569314,1,-0.321775258,1,-0.298873127,1
2.023942471,-4.225636959,1,-3.234184027,1,-8.480244637,1,0.818663061,1,1.927339315,1,-1.152807117,1,0.42313835,1,-0.312732399,1,-0.300266266,1
2.027942181,-4.190359116,1,-3.214732885,1,-8.375597954,1,0.822521389,1,1.898899198,1,-1.099368572,1,0.426715404,1,-0.303903937,1,-0.301261127,1
2.031943798,-4.197546959,1,-3.195215464,1,-8.255648613,1,0.83215028,1,1.867776275,1,-1.046018362,1,0.430259377,1,-0.295271575,1,-0.302061081,1
2.035941362,-4.337902546,1,-3.228592634,1,-8.248317719,1,0.846279204,1,1.836338997,1,-0.983916044,1,0.433791846,1,-0.286848247,1,-0.302678704,1
2.039940834,-4.635516167,1,-3.201675177,1,-8.196372032,1,0.862802029,1,1.811739922,1,-0.937301338,1,0.437333345,1,-0.278618127,1,-0.303103745,1
2.043942213,-4.949808121,1,-3.161192179,1,-8.172951698,1,0.888865352,1,1.78968811,1,-0.885887921,1,0.440910071,1,-0.270555586,1,-0.303360403,1
2.047939777,-5.174263477,1,-3.147084475,1,-8.130724907,1,0.902600944,1,1.77669704,1,-0.840951383,1,0.444509834,1,-0.262623847,1,-0.303434938,1
2.051939249,-5.375404835,1,-3.179897547,1,-7.999487877,1,0.922775567,1,1.763812184,1,-0.80277741,1,0.448147535,1,-0.25481993,1,-0.303344309,1
2.055941105,-5.388373852,1,-3.192192078,1,-7.894284725,1,0.932156324,1,1.753980279,1,-0.754462063,1,0.451789647,1,-0.247124344,1,-0.303081214,1
2.059938908,-5.353317261,1,-3.162656307,1,-7.742707253,1,0.943397343,1,1.728991389,1,-0.713393867,1,0.455442309,1,-0.239573926,1,-0.302653283,1
2.063938141,-5.119926453,1,-3.026059866,1,-7.546732903,1,0.953103602,1,1.702451944,1,-0.663802862,1,0.459095001,1,-0.232194439,1,-0.302078485,1
2.06793952,-4.844348431,1,-2.901622057,1,-7.433742523,1,0.958060741,1,1.650027394,1,-0.617125154,1,0.462761492,1,-0.225056455,1,-0.301367581,1
2.071937084,-4.583813667,1,-2.811825991,1,-7.255343914,1,0.967071831,1,1.58950758,1,-0.564414918,1,0.466441572,1,-0.21819891,1,-0.300556242,1
2.075936317,-4.439799786,1,-2.720633745,1,-7.169727325,1,0.969991028,1,1.505785584,1,-0.514026642,1,0.470121026,1,-0.211692825,1,-0.299667209,1
2.079937696,-4.201764584,1,-2.572157383,1,-7.144880772,1,0.964645863,1,1.414777875,1,-0.472016066,1,0.473808646,1,-0.205594853,1,-0.298753649,1
2.083935261,-4.124137878,1,-2.468366623,1,-7.131955147,1,0.965918005,1,1.312101245,1,-0.431200236,1,0.477484971,1,-0.199917659,1,-0.297840893,1
2.087934732,-4.246641636,1,-2.575031996,1,-7.110496521,1,0.956430376,1,1.207430124,1,-0.391745269,1,0.481159627,1,-0.194691256,1,-0.296958268,1
2.09193635,-4.446659088,1,-2.771664381,1,-7.198472977,1,0.949690163,1,1.114481926,1,-0.353791893,1,0.484807611,1,-0.189894229,1,-0.296109825,1
2.095933676,-5.262938499,1,-3.051391125,1,-7.337326527,1,0.949555516,1,1.033769131,1,-0.330585539,1,0.488454431,1,-0.185477212,1,-0.295308799,1
2.099933147,-6.186024666,1,-3.113754272,1,-7.558605671,1,0.947802484,1,0.994284511,1,-0.336892188,1,0.492107898,1,-0.181280866,1,-0.294559479,1
2.103934765,-7.047782421,1,-3.010164738,1,-7.610907555,1,0.945994616,1,0.983321667,1,-0.362996519,1,0.495776922,1,-0.177137688,1,-0.293904483,1
2.107932091,-7.725680351,1,-3.136613369,1,-7.741794109,1,0.931324959,1,0.997372746,1,-0.413628787,1,0.499437362,1,-0.172911942,1,-0.293372452,1
2.111931562,-8.252436638,1,-3.238125086,1,-7.760560036,1,0.91457504,1,1.037802696,1,-0.482062668,1,0.503065765,1,-0.168486953,1,-0.292970538,1
2.11593318,-8.556018829,1,-3.412875175,1,-7.718056202,1,0.884862006,1,1.09822762,1,-0.565501869,1,0.506630838,1,-0.163740844,1,-0.292733729,1
2.119930983,-8.552565575,1,-3.545645475,1,-7.478455544,1,0.844917178,1,1.160963655,1,-0.643061399,1,0.510076165,1,-0.158615589,1,-0.292638242,1
2.123930454,-8.168625832,1,-3.691769361,1,-7.185928345,1,0.789301217,1,1.217735529,1,-0.718858719,1,0.513350487,1,-0.153123409,1,-0.292683274,1
2.127931833,-7.518682957,1,-3.74797368,1,-6.786371231,1,0.716460168,1,1.253798127,1,-0.776260436,1,0.516391814,1,-0.147356063,1,-0.292849898,1
2.131929636,-6.811472416,1,-3.705171347,1,-6.355478287,1,0.644307315,1,1.25152266,1,-0.810719609,1,0.519160509,1,-0.141422406,1,-0.293134511,1
2.135929108,-6.030180454,1,-3.497029543,1,-5.959888935,1,0.579565167,1,1.22117269,1,-0.830209076,1,0.521650612,1,-0.135496333,1,-0.293528199,1
2.139936686,-5.427352905,1,-3.179476261,1,-5.634392262,1,0.530700326,1,1.158758044,1,-0.826254308,1,0.523918986,1,-0.129705593,1,-0.294026405,1
2.143940449,-4.941607952,1,-2.845016479,1,-5.328357697,1,0.496738762,1,1.075453639,1,-0.807248175,1,0.526035786,1,-0.124197334,1,-0.294622213,1
2.14793992,-4.655088902,1,-2.535844326,1,-5.183820248,1,0.485950023,1,0.967071474,1,-0.77694273,1,0.528078258,1,-0.119070269,1,-0.29532361,1
2.151941299,-4.665358543,1,-2.334829807,1,-5.064731598,1,0.492586166,1,0.85071063,1,-0.746942699,1,0.530130029,1,-0.114389554,1,-0.296131849,1
2.155939102,-4.763016224,1,-2.252179146,1,-4.983537674,1,0.51020503,1,0.740246713,1,-0.716238499,1,0.532239497,1,-0.110159479,1,-0.297043443,1
2.159938335,-4.9548769,1,-2.285193443,1,-5.016172409,1,0.529852152,1,0.633079886,1,-0.686766803,1,0.534429073,1,-0.106362343,1,-0.298068821,1
2.163940191,-5.114708424,1,-2.396660566,1,-5.08440876,1,0.541297078,1,0.526955128,1,-0.662973404,1,0.536689401,1,-0.10299138,1,-0.299208105,1
2.167937756,-5.306642056,1,-2.464594364,1,-5.167350769,1,0.542667985,1,0.42995289,1,-0.648486674,1,0.538988173,1,-0.100011386,1,-0.300488323,1
2.171937227,-5.647960663,1,-2.580920458,1,-5.252027035,1,0.522654831,1,0.341347814,1,-0.635835469,1,0.541254461,1,-0.097386174,1,-0.301907897,1
2.175938845,-5.930234909,1,-2.734416008,1,-5.274306774,1,0.493167788,1,0.258255988,1,-0.633247614,1,0.543449163,1,-0.095057763,1,-0.303475857,1
2.179936171,-6.0189538,1,-2.928118467,1,-5.212400913,1,0.437139899,1,0.191701725,1,-0.631322384,1,0.545467973,1,-0.092987835,1,-0.305174649,1
2.183936119,-5.982378483,1,-3.117111444,1,-5.183338642,1,0.363605291,1,0.125292465,1,-0.621340692,1,0.547240555,1,-0.091147102,1,-0.306993425,1
2.187937498,-5.890780926,1,-3.210890055,1,-5.169490814,1,0.278313309,1,0.057540193,1,-0.606088877,1,0.548702419,1,-0.089547575,1,-0.308912605,1
2.191935062,-5.821809769,1,-3.210133076,1,-5.217026711,1,0.193559527,1,-0.007406241,1,-0.581919372,1,0.54981637,1,-0.088224009,1,-0.310899079,1
2.195934534,-5.847824097,1,-3.056009054,1,-5.231239796,1,0.132594824,1,-0.074136153,1,-0.556302309,1,0.550642133,1,-0.087178752,1,-0.312936872,1
2.199935913,-6.001108646,1,-2.826660872,1,-5.309001923,1,0.085623577,1,-0.133896872,1,-0.523818374,1,0.551249504,1,-0.086403117,1,-0.315008938,1
2.203933716,-6.225474834,1,-2.53694272,1,-5.298876762,1,0.062408205,1,-0.183090299,1,-0.498423368,1,0.551723242,1,-0.085872069,1,-0.31709224,1
2.207933187,-6.398972988,1,-2.408292294,1,-5.356740475,1,0.053954925,1,-0.22708489,1,-0.465040386,1,0.552126527,1,-0.085555986,1,-0.319175124,1
2.211935043,-6.511177063,1,-2.268236637,1,-5.325344563,1,0.047165807,1,-0.260772198,1,-0.438518405,1,0.552494764,1,-0.085434891,1,-0.321235508,1
2.215932846,-6.642457962,1,-2.269747972,1,-5.277275085,1,0.060191076,1,-0.295458704,1,-0.410445631,1,0.552882075,1,-0.08549311,1,-0.323271334,1
2.219932318,-6.715399742,1,-2.305733442,1,-5.250912666,1,0.071657002,1,-0.328454673,1,-0.372606546,1,0.553314269,1,-0.085728973,1,-0.32526803,1
2.223933697,-6.867275238,1,-2.345859289,1,-5.141963005,1,0.094604827,1,-0.351724386,1,-0.340554684,1,0.553813696,1,-0.086142205,1,-0.32721138,1
2.227931499,-7.122375965,1,-2.384248734,1,-5.043898106,1,0.103864104,1,-0.382662684,1,-0.304860383,1,0.554377556,1,-0.086704738,1,-0.329095185,1
2.231930971,-7.335760593,1,-2.3730762,1,-4.913787842,1,0.110864162,1,-0.405673116,1,-0.28242451,1,0.554973304,1,-0.087422915,1,-0.330929935,1
2.23593235,-7.483222961,1,-2.401659727,1,-4.744336605,1,0.116923325,1,-0.428715318,1,-0.250276715,1,0.555585265,1,-0.088280909,1,-0.332710505,1
2.239930153,-7.607183456,1,-2.455173731,1,-4.449122429,1,0.107084475,1,-0.457370073,1,-0.223995283,1,0.556193113,1,-0.089286633,1,-0.334456325,1
2.243929625,-7.531300545,1,-2.479676723,1,-4.249567032,1,0.088463113,1,-0.502678156,1,-0.192278311,1,0.55674386,1,-0.090483136,1,-0.336180866,1
2.247931242,-7.54365778,1,-2.488722563,1,-4.023593426,1,0.067737222,1,-0.560391307,1,-0.161879465,1,0.557214737,1,-0.091910467,1,-0.337917924,1
2.251928806,-7.757621765,1,-2.471636057,1,-3.769695282,1,0.035864301,1,-0.632457852,1,-0.132181659,1,0.55758667,1,-0.093622684,1,-0.339690745,1
2.25592804,-8.18017292,1,-2.383285761,1,-3.613307953,1,0.004344,1,-0.702512622,1,-0.106659189,1,0.557846069,1,-0.095634535,1,-0.341520548,1
2.259935379,-8.675117493,1,-2.369000435,1,-3.377826214,1,-0.029177072,1,-0.768675804,1,-0.084199056,1,0.557977557,1,-0.097923487,1,-0.343410403,1
2.263939142,-9.117435455,1,-2.417484999,1,-3.113987923,1,-0.071437106,1,-0.831450701,1,-0.06360928,1,0.557975411,1,-0.100487031,1,-0.345367789,1
2.267938614,0.318120718,1,-8.413576126,1,-11.13252735,1,-0.472264379,1,-0.999641001,1,0.059893604,1,0.557423294,1,-0.1034806,1,-0.34734723,1
2.271940708,6.38670969,1,-5.977301121,1,-6.868771076,1,-1.181582928,1,-1.90077877,1,0.149460822,1,0.55377394,1,-0.108417735,1,-0.349442005,1
2.275938511,-6.589666843,1,-5.962371349,1,-1.72062695,1,-1.240755677,1,-2.201624393,1,0.65569216,1,0.549487174,1,-0.11667639,1,-0.352495909,1
2.279938221,9.760141373,1,-5.113449574,1,-7.5329175,1,-1.314873219,1,-2.007406235,1,0.465657711,1,0.544546425,1,-0.124967635,1,-0.354875982,1
2.283939838,8.195372581,1,-5.252434731,1,-9.427742004,1,-1.259898424,1,-2.395136833,1,0.622601151,1,0.539827347,1,-0.133488044,1,-0.357634902,1
2.287937641,0.066814594,1,-5.298665047,1,-10.26920223,1,-1.39125514,1,-2.533476114,1,0.827399909,1,0.534816027,1,-0.143604457,1,-0.360242963,1
2.291937113,1.336335778,1,-5.910817623,1,-12.5904417,1,-1.254955173,1,-2.415649891,1,0.928868234,1,0.529824555,1,-0.153876647,1,-0.362258315,1
2.295938492,1.434367418,1,-7.522267818,1,-12.93761921,1,-1.310091615,1,-2.46812129,1,1.092520356,1,0.524992466,1,-0.164309517,1,-0.363695055,1
2.299936056,1.15408051,1,-6.20443821,1,-10.56603622,1,-1.371523023,1,-2.528426409,1,1.28135097,1,0.519724309,1,-0.17534402,1,-0.364584029,1
2.303935528,3.642388821,1,-3.279764414,1,-11.77659607,1,-1.263991356,1,-2.674029827,1,1.463120461,1,0.514445007,1,-0.187071338,1,-0.364941299,1
2.307936907,-0.106788307,1,-2.424001455,1,-12.48208523,1,-1.281536222,1,-2.97315979,1,1.591197252,1,0.509462059,1,-0.199941263,1,-0.365139127,1
2.31193471,-3.945486784,1,-1.542025208,1,-10.67564774,1,-1.297829032,1,-3.053038597,1,1.720183134,1,0.504243493,1,-0.213731244,1,-0.365236193,1
2.31593442,-3.88118124,1,-0.760376513,1,-10.10587406,1,-1.184909225,1,-3.119521618,1,1.822179675,1,0.499241501,1,-0.227943406,1,-0.364926457,1
2.319936037,-4.901081085,1,-0.293877184,1,-10.3366394,1,-1.11261344,1,-3.244087219,1,1.913464665,1,0.49452588,1,-0.2427091,1,-0.364423692,1
2.323933601,-7.15992403,1,0.005563044,1,-10.91911888,1,-0.990472019,1,-3.307174444,1,1.970406175,1,0.490136564,1,-0.257948041,1,-0.363737851,1
2.327933073,-9.179474831,1,1.684993029,1,-12.23816776,1,-0.727773607,1,-3.29117918,1,1.922779083,1,0.486450166,1,-0.273303688,1,-0.363029897,1
2.331934929,-10.55127144,1,2.138215303,1,-14.85829639,1,-0.415475488,1,-3.229955673,1,1.760086775,1,0.484049141,1,-0.288268238,1,-0.362551212,1
2.335932732,-15.48853588,1,0.886821806,1,-14.5747366,1,-0.239879593,1,-3.007028818,1,1.557111263,1,0.482765943,1,-0.302508295,1,-0.362504184,1
2.339932203,-15.3272543,1,-0.033829138,1,-13.31182575,1,-0.028162569,1,-2.656837225,1,1.339648128,1,0.482254565,1,-0.315195054,1,-0.362624884,1
2.343933582,-13.86174393,1,-0.36137861,1,-12.48799419,1,0.118708335,1,-2.416645527,1,1.194372058,1,0.482521743,1,-0.326505363,1,-0.362849951,1
2.347931385,-12.42282772,1,-0.582062423,1,-11.3838129,1,0.253429383,1,-2.25058651,1,1.110841274,1,0.483352363,1,-0.336911976,1,-0.363127947,1
2.351930857,-10.00281239,1,-2.166210413,1,-11.02965927,1,0.29349345,1,-2.144156933,1,1.084125757,1,0.484540999,1,-0.34669596,1,-0.363343924,1
2.355932713,-8.576510429,1,-3.039072037,1,-10.53040028,1,0.3467682,1,-2.069296837,1,1.105274916,1,0.485854417,1,-0.356202364,1,-0.363395125,1
2.359930277,-8.146927834,1,-4.231571674,1,-9.804849625,1,0.389356285,1,-1.998520374,1,1.064250231,1,0.487321854,1,-0.365440547,1,-0.363368094,1
2.363929749,-7.245488644,1,-4.593920231,1,-9.635249138,1,0.422086179,1,-1.923288226,1,1.025151253,1,0.488940418,1,-0.374319613,1,-0.363353431,1
2.367931366,-7.500571251,1,-5.948170185,1,-9.290457726,1,0.377593458,1,-1.891782999,1,0.972405195,1,0.490574956,1,-0.382922053,1,-0.363418639,1
2.37192893,-7.74327755,1,-7.236145496,1,-8.249921799,1,0.302258819,1,-1.797331214,1,0.914712846,1,0.492000371,1,-0.39122802,1,-0.36357528,1
2.375928402,-6.645764828,1,-7.894075871,1,-7.235184669,1,0.251685649,1,-1.733873844,1,0.866220593,1,0.493198454,1,-0.399119407,1,-0.363790184,1
2.37993598,-5.747240543,1,-7.459871292,1,-6.938167572,1,0.16072686,1,-1.716653466,1,0.824450791,1,0.494132251,1,-0.406782687,1,-0.364101887,1
2.383939505,-5.641863346,1,-7.988434792,1,-7.055130959,1,0.040674519,1,-1.723666906,1,0.798520923,1,0.494738579,1,-0.414369524,1,-0.364562571,1
2.387939215,-5.61002636,1,-7.905686855,1,-6.640274048,1,-0.079988606,1,-1.706708908,1,0.787362278,1,0.494865388,1,-0.421945423,1,-0.365061045,1
2.391941071,-5.548027039,1,-7.602502346,1,-6.325221539,1,-0.161574692,1,-1.691120744,1,0.768928885,1,0.494588524,1,-0.429381788,1,-0.365592659,1
2.395938873,-5.988045216,1,-7.302647114,1,-7.422525883,1,-0.275074035,1,-1.668808103,1,0.765107989,1,0.493964314,1,-0.436744362,1,-0.366128623,1
2.399938345,-8.030863762,1,-6.967236042,1,-7.308516502,1,-0.398014039,1,-1.599624991,1,0.815698266,1,0.492773116,1,-0.444042563,1,-0.366496742,1
2.403939724,-8.37851429,1,-6.161783218,1,-7.282558441,1,-0.45273748,1,-1.443421483,1,0.820355296,1,0.491034567,1,-0.450949669,1,-0.366477668,1
2.407937527,-9.0548563,1,-5.192751408,1,-8.088486671,1,-0.489874423,1,-1.323385239,1,0.848516643,1,0.488995492,1,-0.457389951,1,-0.366107285,1
2.411936998,-9.23938942,1,-4.903698921,1,-8.0031147,1,-0.539995134,1,-1.155355692,1,0.836572647,1,0.486591339,1,-0.463358998,1,-0.365380198,1
2.415938377,-8.153824806,1,-4.259841919,1,-8.015449524,1,-0.532741547,1,-1.024145126,1,0.831176579,1,0.48397854,1,-0.468752146,1,-0.364358187,1
2.419935942,-7.097621918,1,-3.848824263,1,-8.220265388,1,-0.521703184,1,-0.949335098,1,0.825001419,1,0.481315225,1,-0.47377193,1,-0.363116384,1
2.423935413,-7.155417919,1,-4.152600765,1,-8.493806839,1,-0.54673624,1,-0.88230598,1,0.830614507,1,0.478552818,1,-0.478558123,1,-0.361733019,1
2.427937031,-6.56589365,1,-4.702582836,1,-8.218506813,1,-0.581454158,1,-0.836327672,1,0.814480841,1,0.4755674,1,-0.483112931,1,-0.36020112,1
2.431934834,-6.682815552,1,-4.12261343,1,-7.66056776,1,-0.546164453,1,-0.780369878,1,0.774695754,1,0.47257641,1,-0.487454504,1,-0.358668089,1
2.435934305,-6.054986,1,-4.948244572,1,-7.93138504,1,-0.567985833,1,-0.749560773,1,0.742968678,1,0.469662964,1,-0.491546124,1,-0.357186228,1
2.439935923,-5.522043228,1,-5.21981144,1,-7.879178524,1,-0.612322688,1,-0.745565176,1,0.762046099,1,0.466575533,1,-0.495569021,1,-0.355663359,1
2.443933725,-6.265537739,1,-4.635759354,1,-7.663402557,1,-0.630392253,1,-0.709537983,1,0.737712622,1,0.463345379,1,-0.499544859,1,-0.354100645,1
2.447933197,-6.38174963,1,-4.98281002,1,-7.905348778,1,-0.654333651,1,-0.650509417,1,0.715501726,1,0.460052043,1,-0.503256083,1,-0.352527708,1
2.451934814,-5.746476173,1,-4.074965477,1,-7.483859062,1,-0.673987389,1,-0.602870286,1,0.712410271,1,0.456573904,1,-0.506761014,1,-0.350856483,1
2.45593214,-5.378047943,1,-3.9830966,1,-7.618685246,1,-0.693867087,1,-0.585907698,1,0.708270907,1,0.453002006,1,-0.510139287,1,-0.34912467,1
2.459931612,-5.579258919,1,-3.361000299,1,-7.745499611,1,-0.702756107,1,-0.576434731,1,0.700345457,1,0.449335784,1,-0.513452768,1,-0.347376913,1
2.463933229,-5.957510471,1,-3.079788446,1,-8.051095963,1,-0.690232635,1,-0.555354655,1,0.677855253,1,0.445693761,1,-0.516683221,1,-0.345639288,1
2.467930794,-6.387043476,1,-3.197680235,1,-8.348118782,1,-0.678742528,1,-0.498548359,1,0.636570156,1,0.442102104,1,-0.519724786,1,-0.343948185,1
2.471930265,-6.816714287,1,-2.603765488,1,-8.656359673,1,-0.642155528,1,-0.448048055,1,0.602537811,1,0.438637853,1,-0.522500515,1,-0.342285275,1
2.475931883,-7.077571392,1,-2.557267666,1,-8.886540413,1,-0.616278768,1,-0.344773948,1,0.563531458,1,0.435299695,1,-0.524928451,1,-0.340645909,1
2.479929686,-5.203233719,1,-1.823813081,1,-8.324140549,1,-0.571126878,1,-0.306952149,1,0.567323685,1,0.432045579,1,-0.527037442,1,-0.338897884,1
2.483929157,-4.640418053,1,-2.169692993,1,-8.744411469,1,-0.536198914,1,-0.338041723,1,0.537366807,1,0.428979903,1,-0.529131234,1,-0.337188244,1
2.487930536,-5.196186066,1,-2.359502316,1,-8.770495415,1,-0.485324591,1,-0.339415729,1,0.500432432,1,0.426143587,1,-0.531234264,1,-0.335662007,1
2.491928339,-4.666754246,1,-2.398063898,1,-8.785264015,1,-0.443777978,1,-0.343826324,1,0.474089563,1,0.423573375,1,-0.533258796,1,-0.33425191,1
2.495927811,-5.677819252,1,-2.238124132,1,-9.134961128,1,-0.382687926,1,-0.340298772,1,0.426337123,1,0.421286881,1,-0.535257518,1,-0.33300975,1
2.49993515,-5.526155472,1,-2.145709515,1,-8.626221657,1,-0.347462267,1,-0.315352559,1,0.40546602,1,0.419222414,1,-0.537121892,1,-0.331859171,1
2.503938913,-7.112393856,1,-2.079309225,1,-8.829685211,1,-0.283545613,1,-0.284506053,1,0.352424383,1,0.417408079,1,-0.538846731,1,-0.330824256,1
2.507938623,-5.841664314,1,-1.860592365,1,-8.34187603,1,-0.229861081,1,-0.265339315,1,0.323947072,1,0.415906221,1,-0.540367782,1,-0.329888314,1
2.511940002,-4.868484497,1,-2.038240194,1,-8.263483047,1,-0.169008002,1,-0.304329246,1,0.299260914,1,0.414695114,1,-0.541905046,1,-0.329099894,1
2.515937805,-4.544290543,1,-2.415129423,1,-8.616220474,1,-0.115396932,1,-0.351670653,1,0.299928129,1,0.413785189,1,-0.543585539,1,-0.328444302,1
2.519937277,-5.989744186,1,-2.776504755,1,-8.536698341,1,-0.096054256,1,-0.3376095,1,0.265565813,1,0.41307199,1,-0.54530108,1,-0.327887118,1
2.523938656,-5.167005539,1,-2.708164454,1,-8.214935303,1,-0.05779637,1,-0.351334035,1,0.249279231,1,0.412509263,1,-0.546899319,1,-0.326619923,1
2.52793622,-5.960656643,1,-2.882487297,1,-8.081068039,1,-0.043053519,1,-0.370464444,1,0.229140505,1,0.412138671,1,-0.54863447,1,-0.326300055,1
2.531935692,-7.230055809,1,-2.073940754,1,-8.382119179,1,0.003583416,1,-0.310132623,1,0.215756744,1,0.411894202,1,-0.550252676,1,-0.32599318,1
2.535937548,-5.502257347,1,-2.308582544,1,-7.847752094,1,0.023022674,1,-0.322978675,1,0.206616595,1,0.411775649,1,-0.551731408,1,-0.325648606,1
2.53993535,-5.603739262,1,-2.619877577,1,-7.916074753,1,0.05384858,1,-0.344659209,1,0.192839175,1,0.411806405,1,-0.553288937,1,-0.325422585,1
2.543934822,-5.595137596,1,-2.971125603,1,-8.053297997,1,0.069793791,1,-0.354526609,1,0.175634354,1,0.41198048,1,-0.554864883,1,-0.325290501,1
2.547936201,-5.348484993,1,-3.051385641,1,-7.816054344,1,0.076101668,1,-0.36181134,1,0.176867917,1,0.412233949,1,-0.556461811,1,-0.325208306,1
2.551933765,-5.460447788,1,-3.156908035,1,-7.883197308,1,0.083828479,1,-0.373883516,1,0.184082165,1,0.412518263,1,-0.558102787,1,-0.325130403,1
2.555933237,-5.741246223,1,-3.047109604,1,-7.756904125,1,0.092019431,1,-0.378671139,1,0.175892413,1,0.412843704,1,-0.559772491,1,-0.325078279,1
2.559934616,-5.437146664,1,-3.014980555,1,-7.857943535,1,0.096191086,1,-0.388841718,1,0.168734685,1,0.413213164,1,-0.561463714,1,-0.32506299,1
2.56393218,-5.484828949,1,-3.169179678,1,-7.77573061,1,0.09493614,1,-0.401693434,1,0.163156942,1,0.413612008,1,-0.56318593,1,-0.325091183,1
2.567931652,-5.418809414,1,-3.226187229,1,-7.80450058,1,0.101731613,1,-0.416623265,1,0.168794364,1,0.414042622,1,-0.564952016,1,-0.325155675,1
2.57193327,-5.305229664,1,-3.387340069,1,-7.779245377,1,0.091948032,1,-0.422624469,1,0.159776226,1,0.414469302,1,-0.566752851,1,-0.325244337,1
2.575930834,-5.693019867,1,-3.503507376,1,-7.703379154,1,0.086198151,1,-0.417825758,1,0.163317591,1,0.414885312,1,-0.568560958,1,-0.325345874,1
2.579930544,-5.521105766,1,-3.472162962,1,-7.666196346,1,0.076029375,1,-0.414906263,1,0.156648025,1,0.415263593,1,-0.570344865,1,-0.325447023,1
2.583932161,-5.582663059,1,-3.355428934,1,-7.666620255,1,0.062317137,1,-0.415910453,1,0.158054501,1,0.415595204,1,-0.572114289,1,-0.325561166,1
2.587929964,-5.667165279,1,-3.221526146,1,-7.686589718,1,0.057248626,1,-0.408397436,1,0.148665085,1,0.415903658,1,-0.573878825,1,-0.325686038,1
2.591929436,-5.941313267,1,-3.051104546,1,-7.580006123,1,0.055159636,1,-0.40267998,1,0.137343526,1,0.416215062,1,-0.575595081,1,-0.32585305,1
2.595930815,-5.869410038,1,-2.903238297,1,-7.592287064,1,0.055800211,1,-0.390709072,1,0.127762541,1,0.416546166,1,-0.57725513,1,-0.32604599,1
2.599928617,-5.830588818,1,-2.922352791,1,-7.536706448,1,0.060081441,1,-0.383337438,1,0.114945084,1,0.416888267,1,-0.578879714,1,-0.32626766,1
2.603928089,-5.73025322,1,-2.975161076,1,-7.549282551,1,0.059222665,1,-0.385865986,1,0.099286318,1,0.417273283,1,-0.58046484,1,-0.326536268,1
2.60792923,-5.743821621,1,-3.088686228,1,-7.527552605,1,0.06280572,1,-0.373861939,1,0.09448529,1,0.417685747,1,-0.582014501,1,-0.326845229,1
2.611927032,-5.827054501,1,-3.192207098,1,-7.431673527,1,0.055142689,1,-0.367374539,1,0.087717868,1,0.418097168,1,-0.583520114,1,-0.327167451,1
2.615926981,-5.792036057,1,-3.125182867,1,-7.490583897,1,0.045726527,1,-0.358427018,1,0.080074646,1,0.418490201,1,-0.584971309,1,-0.327496022,1
2.619934797,-5.717365265,1,-3.383346558,1,-7.323319435,1,0.047819417,1,-0.345221639,1,0.077651136,1,0.418872118,1,-0.586385071,1,-0.327851385,1
2.623938322,-5.835650444,1,-3.464937449,1,-7.275501251,1,0.041962963,1,-0.332652807,1,0.079607345,1,0.419237852,1,-0.587748766,1,-0.328169167,1
2.627937794,-5.873499393,1,-3.452308655,1,-7.253420353,1,0.038651641,1,-0.319448411,1,0.080801331,1,0.419559836,1,-0.589067996,1,-0.32845068,1
2.631939411,-5.815631866,1,-3.549849987,1,-7.229199409,1,0.026461208,1,-0.30425939,1,0.076499529,1,0.419835627,1,-0.590338647,1,-0.328716576,1
2.635936737,-5.792575836,1,-3.481965303,1,-7.220052719,1,0.020059608,1,-0.295319408,1,0.080845274,1,0.420060933,1,-0.591560125,1,-0.328953236,1
2.63993597,-5.648617744,1,-3.502056599,1,-7.2330513,1,0.010032761,1,-0.283018529,1,0.072093241,1,0.420254618,1,-0.592747569,1,-0.329192638,1
2.643937588,-5.9045825,1,-3.468160629,1,-7.191155434,1,0.003227156,1,-0.269250095,1,0.074809708,1,0.420416743,1,-0.593868375,1,-0.329412341,1
2.647934914,-5.790231228,1,-3.303982019,1,-7.169749737,1,0.002567293,1,-0.259555459,1,0.076962993,1,0.42052114,1,-0.594964743,1,-0.329593301,1
2.651934385,-6.018782616,1,-3.295397997,1,-7.207705498,1,-0.013932548,1,-0.250005692,1,0.070651799,1,0.420606852,1,-0.596020401,1,-0.32977736,1
2.655936003,-5.765405655,1,-3.53983283,1,-7.000635147,1,-0.016477158,1,-0.230712742,1,0.064352311,1,0.420630217,1,-0.597000301,1,-0.329937696,1
2.659933805,-5.837471962,1,-3.528950214,1,-7.108847141,1,-0.021441774,1,-0.21647498,1,0.065658987,1,0.420654595,1,-0.597926557,1,-0.33009553,1
2.663933277,-5.807623386,1,-3.391178131,1,-7.13887167,1,-0.02770476,1,-0.202842504,1,0.070727073,1,0.420628428,1,-0.598804832,1,-0.330216944,1
2.667934656,-5.777641296,1,-3.285764694,1,-7.15216732,1,-0.033887424,1,-0.188226193,1,0.075204141,1,0.420548528,1,-0.599627376,1,-0.330286741,1
2.671932459,-5.700661659,1,-3.29637742,1,-7.144311428,1,-0.036455177,1,-0.175012723,1,0.070101298,1,0.42043066,1,-0.600409746,1,-0.330326736,1
2.675931931,-5.679469109,1,-3.176930189,1,-7.292083263,1,-0.04205757,1,-0.177603781,1,0.070993103,1,0.420284927,1,-0.601164222,1,-0.330354869,1
2.679933548,-5.561105251,1,-3.316059113,1,-7.241082668,1,-0.037377372,1,-0.162461638,1,0.077443287,1,0.420128077,1,-0.60190767,1,-0.330367923,1
2.683931112,-5.492144108,1,-3.242097378,1,-7.417815685,1,-0.029832825,1,-0.16344437,1,0.085825436,1,0.41996783,1,-0.602637231,1,-0.33032006,1
2.687930584,-5.426214695,1,-3.224477291,1,-7.474560261,1,-0.026982451,1,-0.168683603,1,0.086484589,1,0.419815004,1,-0.603386402,1,-0.330260336,1
2.691932201,-5.386591911,1,-3.223371506,1,-7.574420452,1,-0.021090252,1,-0.171333939,1,0.092675336,1,0.419674546,1,-0.604147971,1,-0.330195427,1
2.695929766,-5.382799149,1,-3.020003557,1,-7.641284466,1,-0.021969924,1,-0.178461596,1,0.094948374,1,0.41956073,1,-0.604948223,1,-0.330136955,1
2.699929714,-5.345640659,1,-3.134787083,1,-7.633539677,1,-0.015535872,1,-0.18266353,1,0.094497465,1,0.41944313,1,-0.605764031,1,-0.330085844,1
2.703931093,-5.392168045,1,-3.075420141,1,-7.671699524,1,-0.007728359,1,-0.191632956,1,0.092596427,1,0.419377297,1,-0.606601954,1,-0.330040395,1
2.707928896,-5.401871204,1,-3.085701466,1,-7.591392994,1,-0.000292838,1,-0.205941454,1,0.089324504,1,0.419354439,1,-0.607473731,1,-0.330032647,1
2.711928368,-5.529419899,1,-3.181372881,1,-7.549215794,1,0.007754639,1,-0.20610477,1,0.085027434,1,0.419383854,1,-0.608365536,1,-0.330061316,1
2.715929747,-5.565399647,1,-3.292616129,1,-7.429576397,1,0.010484438,1,-0.209285289,1,0.083105952,1,0.41943723,1,-0.609260857,1,-0.330102503,1
2.719927549,-5.651000977,1,-3.418959856,1,-7.394024849,1,0.012497616,1,-0.211475059,1,0.080501854,1,0.419510812,1,-0.610167682,1,-0.330163091,1
2.723927021,-5.619637966,1,-3.440561771,1,-7.330918789,1,0.007161473,1,-0.20845376,1,0.085141055,1,0.419586003,1,-0.611062527,1,-0.330216527,1
2.727928638,-5.706492901,1,-3.497800589,1,-7.284747601,1,0.009419801,1,-0.201136351,1,0.085713051,1,0.41963762,1,-0.611943722,1,-0.330242664,1
2.731926203,-5.734701157,1,-3.443269253,1,-7.203141212,1,0.001437476,1,-0.195839316,1,0.091179438,1,0.419649035,1,-0.612825155,1,-0.330239862,1
2.735925674,-5.795532703,1,-3.480133533,1,-7.201168537,1,-0.007073889,1,-0.191383362,1,0.097879693,1,0.419614732,1,-0.613690197,1,-0.330208868,1
2.739927292,-5.753552914,1,-3.408432245,1,-7.164372921,1,-0.006669627,1,-0.18524839,1,0.107796535,1,0.4195306,1,-0.614552259,1,-0.330121607,1
2.743930817,-5.868107796,1,-3.312092304,1,-7.176917076,1,-0.016396848,1,-0.172123641,1,0.111229718,1,0.41941762,1,-0.615387082,1,-0.329994828,1
2.747930527,-5.823927879,1,-3.224801064,1,-7.24666357,1,-0.014619134,1,-0.168749452,1,0.115031302,1,0.419274151,1,-0.616198063,1,-0.329840064,1
2.751932144,-5.756430149,1,-3.162502766,1,-7.25886488,1,-0.014833429,1,-0.173296064,1,0.115662597,1,0.419110298,1,-0.617005348,1,-0.329667002,1
2.755929708,-5.857177258,1,-3.142300606,1,-7.218502998,1,-0.01163639,1,-0.165635273,1,0.117993049,1,0.418950468,1,-0.6178177,1,-0.329483211,1
2.759929419,-5.789638042,1,-3.219528437,1,-7.214359283,1,-0.014154056,1,-0.161582321,1,0.119677387,1,0.41877833,1,-0.618603766,1,-0.329281807,1
2.763930798,-5.779132843,1,-3.336770296,1,-7.191709042,1,-0.013702745,1,-0.158704445,1,0.119921647,1,0.418594658,1,-0.619390965,1,-0.329060614,1
2.767928362,-5.775326252,1,-3.356370926,1,-7.169827461,1,-0.014852894,1,-0.151770115,1,0.124581486,1,0.418405294,1,-0.620159388,1,-0.328822911,1
2.771927834,-5.679070473,1,-3.384836674,1,-7.196412563,1,-0.016762018,1,-0.147269517,1,0.135698557,1,0.41794017,1,-0.621232033,1,-0.327589154,1
2.775929451,-5.778428078,1,-3.463817835,1,-7.149120808,1,-0.01494347,1,-0.143423378,1,0.135023803,1,0.417684257,1,-0.621985078,1,-0.327281594,1
2.779927015,-5.766036034,1,-3.451006174,1,-7.200599194,1,-0.021237161,1,-0.136152312,1,0.147453457,1,0.417401493,1,-0.6227265,1,-0.326920629,1
2.783926487,-5.831186771,1,-3.432603121,1,-7.20905447,1,-0.032265414,1,-0.130276442,1,0.149497837,1,0.417057931,1,-0.623451293,1,-0.326524913,1
2.787928104,-5.799792767,1,-3.323489189,1,-7.27905941,1,-0.039106604,1,-0.126520291,1,0.15242821,1,0.41666925,1,-0.62415576,1,-0.326100528,1
2.791925669,-5.717030048,1,-3.212239981,1,-7.311714172,1,-0.038340732,1,-0.132031411,1,0.154098332,1,0.416266501,1,-0.624872327,1,-0.325665951,1
2.79592514,-5.881483078,1,-3.188983917,1,-7.306835651,1,-0.051931199,1,-0.142660409,1,0.158406794,1,0.415830612,1,-0.625626862,1,-0.325234056,1
2.799926758,-5.868111134,1,-3.400482655,1,-7.148615837,1,-0.05391033,1,-0.136381552,1,0.158091187,1,0.415350944,1,-0.62638253,1,-0.324787557,1
2.803924799,-5.928267479,1,-3.425052881,1,-7.12081337,1,-0.056417048,1,-0.134120494,1,0.165728718,1,0.414857149,1,-0.627135575,1,-0.324323237,1
2.807924271,-5.857456207,1,-3.232876301,1,-7.131459236,1,-0.057013527,1,-0.126747191,1,0.169529259,1,0.414324164,1,-0.627879798,1,-0.323813379,1
2.81192565,-5.856625557,1,-3.061166286,1,-7.167140484,1,-0.060400333,1,-0.120106734,1,0.174489677,1,0.413774937,1,-0.628614843,1,-0.323266387,1
2.815923452,-5.82440567,1,-3.150863647,1,-7.167178631,1,-0.054692972,1,-0.125153691,1,0.17917636,1,0.413233399,1,-0.629346132,1,-0.322726995,1
2.819922924,-5.791816235,1,-3.005655766,1,-7.277420044,1,-0.041790143,1,-0.12262357,1,0.176557481,1,0.412709266,1,-0.630086005,1,-0.322167337,1
2.82392478,-5.811751842,1,-3.086946487,1,-7.200863838,1,-0.041177042,1,-0.123116106,1,0.182965904,1,0.412203908,1,-0.630821466,1,-0.321598709,1
2.827922344,-5.809719563,1,-3.108267784,1,-7.298354149,1,-0.033520591,1,-0.11974518,1,0.181532472,1,0.411719918,1,-0.631560147,1,-0.32101512,1
2.831921816,-5.728077412,1,-3.143155575,1,-7.290562153,1,-0.027233936,1,-0.121331647,1,0.182164937,1,0.411245346,1,-0.632291198,1,-0.320429891,1
2.835923672,-5.72093153,1,-3.263841391,1,-7.263752937,1,-0.024618816,1,-0.120332323,1,0.187993109,1,0.410793632,1,-0.633036315,1,-0.319830477,1
2.839921713,-5.653939724,1,-3.293652296,1,-7.308461189,1,-0.032289259,1,-0.123383559,1,0.20324719,1,0.410294831,1,-0.63379544,1,-0.319185436,1
2.843921423,-5.784440994,1,-3.245092154,1,-7.305990219,1,-0.026635526,1,-0.123601414,1,0.20725894,1,0.409772456,1,-0.634577632,1,-0.318501413,1
2.84792304,-5.724047661,1,-3.313973665,1,-7.284193039,1,-0.030916691,1,-0.133628011,1,0.213801503,1,0.409249216,1,-0.635384142,1,-0.317796856,1
2.851920366,-5.784796238,1,-3.225193739,1,-7.272280216,1,-0.029812014,1,-0.128024176,1,0.214246035,1,0.408709943,1,-0.636206806,1,-0.317088962,1
2.855919838,-5.828890324,1,-3.317857981,1,-7.318877697,1,-0.029349459,1,-0.139410853,1,0.21540606,1,0.408166111,1,-0.637047529,1,-0.316366315,1
2.859921455,-5.684170723,1,-3.354785681,1,-7.406815529,1,-0.042658541,1,-0.143533319,1,0.218787968,1,0.407606065,1,-0.63790375,1,-0.315650403,1
2.863924742,-5.746406555,1,-3.238218069,1,-7.373240948,1,-0.055547986,1,-0.15762268,1,0.220012426,1,0.406977147,1,-0.6388008,1,-0.314936221,1
2.867924213,-5.754225254,1,-2.946058273,1,-7.42488718,1,-0.039664418,1,-0.162540913,1,0.223494351,1,0.406363547,1,-0.639741063,1,-0.314236939,1
2.871925831,-5.802361965,1,-2.929155588,1,-7.450220108,1,-0.037301835,1,-0.167767629,1,0.220270693,1,0.40579319,1,-0.640691996,1,-0.313542962,1
2.875923395,-5.786822319,1,-2.896575451,1,-7.48383522,1,-0.02800205,1,-0.176946744,1,0.221456647,1,0.405258656,1,-0.641668677,1,-0.312864959,1
2.879923105,-5.831702232,1,-2.725092888,1,-7.519954205,1,-0.017943669,1,-0.18754445,1,0.220661342,1,0.404781193,1,-0.642681718,1,-0.31221202,1
2.883924723,-5.782605171,1,-2.80884552,1,-7.497181416,1,-0.003703731,1,-0.195629105,1,0.219522297,1,0.404347062,1,-0.643721282,1,-0.311567545,1
2.887922525,-5.770356178,1,-2.823086977,1,-7.523857117,1,-0.000336915,1,-0.204925418,1,0.215939164,1,0.403971493,1,-0.644798338,1,-0.310966432,1
2.891921997,-5.780036926,1,-2.944817781,1,-7.588446617,1,0.013511349,1,-0.214070529,1,0.21596691,1,0.403647959,1,-0.64591378,1,-0.310393751,1
2.895923376,-5.673115253,1,-3.090402365,1,-7.657782078,1,0.001962431,1,-0.236090764,1,0.216294974,1,0.403344899,1,-0.64708668,1,-0.309838951,1
2.899921179,-5.792990208,1,-3.057571888,1,-7.60976696,1,0.017969016,1,-0.253760248,1,0.21715495,1,0.403056145,1,-0.648327351,1,-0.309310973,1
2.90392065,-5.791718006,1,-3.014134407,1,-7.62541151,1,0.019368025,1,-0.271159202,1,0.226392329,1,0.402823299,1,-0.649649143,1,-0.308800578,1
2.907922268,-5.744947433,1,-3.123869419,1,-7.680496693,1,0.02711576,1,-0.284694552,1,0.229049385,1,0.402614802,1,-0.651031613,1,-0.30830425,1
2.911919832,-5.72923708,1,-3.345400333,1,-7.784922123,1,0.023570146,1,-0.313614428,1,0.231707275,1,0.402435064,1,-0.652501106,1,-0.30782792,1
2.915919542,-5.824531078,1,-3.047333002,1,-7.773757935,1,0.031834714,1,-0.341478914,1,0.244242281,1,0.402251095,1,-0.654088736,1,-0.307370126,1
2.919921398,-5.655220509,1,-3.080821276,1,-7.798950672,1,0.046693154,1,-0.363517523,1,0.257752746,1,0.402119756,1,-0.655771732,1,-0.306883335,1
2.923919201,-5.80775547,1,-3.110800505,1,-7.774273872,1,0.053674966,1,-0.382375866,1,0.266290039,1,0.402030468,1,-0.657555997,1,-0.306400657,1
2.927918673,-5.771858692,1,-2.940303087,1,-7.821746826,1,0.059961107,1,-0.409811199,1,0.266888112,1,0.401970953,1,-0.65943259,1,-0.305949807,1
2.931920052,-5.74389267,1,-2.855435848,1,-7.891932964,1,0.065212473,1,-0.440730691,1,0.269917697,1,0.401968509,1,-0.661421359,1,-0.305532336,1
2.935917616,-5.84423542,1,-2.925964832,1,-8.014461517,1,0.073570885,1,-0.475971222,1,0.277385533,1,0.402023941,1,-0.663530648,1,-0.305162728,1
2.939917088,-5.77480793,1,-3.108371019,1,-7.987114429,1,0.054177172,1,-0.509621024,1,0.283167899,1,0.402077138,1,-0.665775716,1,-0.304835647,1
2.943918705,-5.816887856,1,-2.892713308,1,-7.875446796,1,0.051694598,1,-0.546309054,1,0.286615759,1,0.402105212,1,-0.668162525,1,-0.304556131,1
2.947916031,-5.866164207,1,-2.806288242,1,-7.938648224,1,0.067519777,1,-0.570045233,1,0.293396831,1,0.402189851,1,-0.670670509,1,-0.30430758,1
2.951915741,-5.88269949,1,-2.963549614,1,-7.917798519,1,0.077506728,1,-0.602855861,1,0.305658102,1,0.402321577,1,-0.673298717,1,-0.304066956,1
2.955917358,-5.920723915,1,-2.949637175,1,-7.923285961,1,0.0741686,1,-0.63498491,1,0.313815266,1,0.402499139,1,-0.676063895,1,-0.303854316,1
2.959914923,-5.997193336,1,-2.94268012,1,-7.765933514,1,0.085712045,1,-0.670413613,1,0.326728374,1,0.402697951,1,-0.678967535,1,-0.303668499,1
2.963914394,-5.950276375,1,-2.992573023,1,-7.791113853,1,0.083037592,1,-0.69994092,1,0.337525129,1,0.402922601,1,-0.68200469,1,-0.303471625,1
2.967916012,-6.010895729,1,-3.079317808,1,-7.704685211,1,0.088285089,1,-0.730122209,1,0.343644291,1,0.403148472,1,-0.685160279,1,-0.303305507,1
2.971913815,-6.007212162,1,-3.305466652,1,-7.752953053,1,0.070193946,1,-0.759811699,1,0.361681491,1,0.403360426,1,-0.688452244,1,-0.303139389,1
2.975913286,-5.976983547,1,-3.1173141,1,-7.651291847,1,0.072378293,1,-0.794207931,1,0.373880148,1,0.403532445,1,-0.691891611,1,-0.30296427,1
2.979914427,-6.016702175,1,-3.218078613,1,-7.683786392,1,0.087957047,1,-0.82079339,1,0.395278305,1,0.403736293,1,-0.695470214,1,-0.302759498,1
2.98391819,-6.021811008,1,-3.280937195,1,-7.678162575,1,0.097771794,1,-0.857973218,1,0.416134626,1,0.403973639,1,-0.699198484,1,-0.302533746,1
2.9879179,-6.141951084,1,-3.323547363,1,-7.631770611,1,0.093653224,1,-0.891725719,1,0.436744213,1,0.404191703,1,-0.703081191,1,-0.302285194,1
2.991919279,-6.389877319,1,-3.365512848,1,-7.833877087,1,0.093149245,1,-0.926593065,1,0.455383331,1,0.404383063,1,-0.707130134,1,-0.302008033,1
2.995917082,-5.862352848,1,-3.599514961,1,-7.559745789,1,0.064895414,1,-0.971056581,1,0.471900076,1,0.404512316,1,-0.711338997,1,-0.301727235,1
2.999916553,-5.994059563,1,-3.301883221,1,-7.712907791,1,0.051778071,1,-1.012161374,1,0.492911309,1,0.404547453,1,-0.715757012,1,-0.301447809,1
3.003918171,-6.000838757,1,-3.307008028,1,-7.753673077,1,0.052965667,1,-1.043942094,1,0.503239274,1,0.404582947,1,-0.720321536,1,-0.301169932,1
3.007915735,-5.916389942,1,-3.352233171,1,-7.784543514,1,0.056553084,1,-1.088483334,1,0.528300524,1,0.404602677,1,-0.725049973,1,-0.300872982,1
3.011915207,-5.997799873,1,-3.386086941,1,-7.839390755,1,0.056913331,1,-1.12938571,1,0.535897434,1,0.404643029,1,-0.729962945,1,-0.300586104,1
3.015916824,-6.027348518,1,-3.366807938,1,-7.854997635,1,0.049854651,1,-1.175058961,1,0.556917667,1,0.404690206,1,-0.735053241,1,-0.300332963,1
3.019914389,-6.158578396,1,-3.547806025,1,-7.944944859,1,0.036486723,1,-1.219171166,1,0.577661276,1,0.404672533,1,-0.740346014,1,-0.300049633,1
3.023914099,-6.068770885,1,-3.44119215,1,-7.931845665,1,0.012786375,1,-1.271298409,1,0.604963124,1,0.404496044,1,-0.745815635,1,-0.29891634,1
3.027915478,-6.748923779,1,-3.529486895,1,-8.252530098,1,-0.009429377,1,-1.323234797,1,0.623598397,1,0.40431273,1,-0.751553893,1,-0.298626184,1
3.03191328,-5.659200191,1,-3.397650242,1,-8.012607574,1,-0.024898386,1,-1.379302502,1,0.657665789,1,0.404010057,1,-0.757516921,1,-0.29828757,1
3.035912991,-5.958388329,1,-3.512714148,1,-8.277651787,1,-0.037643757,1,-1.455663085,1,0.671720266,1,0.403673679,1,-0.763785958,1,-0.297992408,1
3.039914608,-6.067986012,1,-3.537191629,1,-8.353743553,1,-0.047240771,1,-1.522479892,1,0.696879148,1,0.403327525,1,-0.770330548,1,-0.297738492,1
3.043911934,-6.162975788,1,-4.005987644,1,-8.568139076,1,-0.084209017,1,-1.599090338,1,0.732247174,1,0.40289408,1,-0.77718848,1,-0.29748252,1
3.047911406,-6.100692749,1,-4.069464684,1,-8.435173035,1,-0.119211286,1,-1.673751473,1,0.77234,1,0.402298868,1,-0.784389794,1,-0.297210097,1
3.051913023,-5.914319515,1,-4.024840355,1,-8.552684784,1,-0.142945066,1,-1.768181205,1,0.809224069,1,0.401551485,1,-0.791963458,1,-0.296904862,1
3.055910349,-6.088690758,1,-4.179813385,1,-8.661815643,1,-0.158715308,1,-1.855708122,1,0.861712694,1,0.400702,1,-0.799947381,1,-0.296554267,1
3.059909821,-5.855360985,1,-4.489160061,1,-8.566048622,1,-0.175939798,1,-1.946477771,1,0.915791571,1,0.399725735,1,-0.808338284,1,-0.296116948,1
3.063911438,-5.891217232,1,-5.067677498,1,-8.727700233,1,-0.207430199,1,-2.046846628,1,0.985783994,1,0.398543537,1,-0.817173719,1,-0.295541614,1
3.067909479,-5.912593365,1,-5.049014091,1,-8.577140808,1,-0.227480903,1,-2.148936033,1,1.082668662,1,0.397047609,1,-0.826513588,1,-0.294709146,1
3.071908951,-5.748167038,1,-4.944950581,1,-8.765077591,1,-0.25212118,1,-2.259364605,1,1.170112252,1,0.395264983,1,-0.836374998,1,-0.293587327,1
3.07591033,-5.593934059,1,-4.644690037,1,-8.869769096,1,-0.252189994,1,-2.389048338,1,1.255910039,1,0.393224537,1,-0.846824288,1,-0.29222253,1
3.079908133,-6.241288662,1,-4.742951393,1,-9.246608734,1,-0.252964288,1,-2.498477697,1,1.344599962,1,0.391011208,1,-0.857845187,1,-0.290615857,1
3.083907604,-6.338772297,1,-4.554948807,1,-9.375425339,1,-0.255873412,1,-2.609559536,1,1.4310112,1,0.388509452,1,-0.869410753,1,-0.288676262,1
3.087909222,-5.624531269,1,-4.585510254,1,-9.399291992,1,-0.23781617,1,-2.753205299,1,1.514750719,1,0.385861278,1,-0.881552339,1,-0.286482871,1
3.091906786,-5.886101246,1,-4.652992249,1,-9.981742859,1,-0.229181305,1,-2.924248695,1,1.58277297,1,0.383114368,1,-0.894408226,1,-0.284136832,1
3.095906258,-6.287734509,1,-4.890930176,1,-10.15319252,1,-0.236787364,1,-3.062015533,1,1.658167601,1,0.380218565,1,-0.907937169,1,-0.281636059,1
3.099908113,-5.784187317,1,-4.658079624,1,-9.284521103,1,-0.232321933,1,-3.215543032,1,1.740724325,1,0.377075732,1,-0.922044992,1,-0.278900504,1
3.103911638,-6.31023407,1,-5.025347233,1,-9.48322773,1,-0.2237055,1,-3.389408827,1,1.830682993,1,0.373711228,1,-0.936983585,1,-0.275849223,1
3.107911348,-7.727642536,1,-5.291220188,1,-9.775824547,1,-0.210850656,1,-3.454747677,1,1.914914131,1,0.370077193,1,-0.952459395,1,-0.272449225,1
3.111912966,-7.322191238,1,-5.3102808,1,-9.448573112,1,-0.19189629,1,-3.552179813,1,1.98883605,1,0.366069019,1,-0.968330026,1,-0.26853168,1
3.115910769,-6.822265148,1,-5.756533146,1,-9.198791504,1,-0.222773567,1,-3.661356926,1,2.071894884,1,0.36159572,1,-0.984701335,1,-0.264124095,1
3.119910002,-7.788781166,1,-5.716305256,1,-9.570187569,1,-0.252883762,1,-3.776727438,1,2.129250288,1,0.356606305,1,-1.001588345,1,-0.259303868,1
3.123911381,-10.49431801,1,-5.82811451,1,-10.48897934,1,-0.272969007,1,-3.844696045,1,2.16587615,1,0.351155341,1,-1.018877387,1,-0.254102021,1
3.127908945,-12.6430397,1,-6.325912952,1,-10.67939758,1,-0.287882149,1,-3.836960793,1,2.20138979,1,0.345121294,1,-1.036315918,1,-0.248353615,1
3.131908417,-14.1686964,1,-6.162892818,1,-11.05420017,1,-0.299522638,1,-3.798261642,1,2.222506046,1,0.338400006,1,-1.053678274,1,-0.241957113,1
3.135909796,-12.3924799,1,-6.496126652,1,-7.95250988,1,-0.330006242,1,-3.787262678,1,2.332238674,1,0.330799758,1,-1.071000695,1,-0.234622568,1
3.139907598,-10.07751465,1,-7.726460934,1,-10.67139816,1,-0.205847666,1,-3.866421223,1,2.498482466,1,0.321678758,1,-1.088600397,1,-0.225518495,1
3.143907309,-13.94706631,1,-7.979863644,1,-10.33752918,1,-0.124644652,1,-3.9061234,1,2.54530406,1,0.311829329,1,-1.106558084,1,-0.215177104,1
3.147908926,-14.86306095,1,-7.376608372,1,-11.11773491,1,0.002061506,1,-3.851869106,1,2.619674921,1,0.300987452,1,-1.124471545,1,-0.203413174,1
3.151906252,-15.01801586,1,-7.481800556,1,-10.75225258,1,0.148955539,1,-3.772699118,1,2.719180346,1,0.288976908,1,-1.142164588,1,-0.189812958,1
3.155905724,-12.22590733,1,-8.473151207,1,-10.0123167,1,0.261032313,1,-3.756131411,1,2.877472878,1,0.275119931,1,-1.159707427,1,-0.173707888,1
3.159907341,-12.8969717,1,-9.431974411,1,-10.54820633,1,0.253838748,1,-3.770096779,1,2.967900515,1,0.258930832,1,-1.177333593,1,-0.154978424,1
3.163904905,-13.96631241,1,-9.441763878,1,-10.99016476,1,0.235433891,1,-3.689604282,1,3.011657238,1,0.240365669,1,-1.19477725,1,-0.133892894,1
3.167904615,-13.87391758,1,-10.26365566,1,-10.06626129,1,0.15219754,1,-3.578083992,1,3.091063738,1,0.218945324,1,-1.211693645,1,-0.110084347,1
3.171905994,-11.77175522,1,-11.7797575,1,-8.535820007,1,-0.118967779,1,-3.544071913,1,3.236373186,1,0.193167269,1,-1.228225708,1,-0.08250881,1
3.175903797,-12.97511292,1,-11.07288265,1,-8.335198402,1,-0.534677267,1,-3.471473455,1,3.297988176,1,0.161932826,1,-1.244372487,1,-0.050811328,1
3.179903269,-13.4893837,1,-9.195565224,1,-9.224430084,1,-0.883760333,1,-3.307667255,1,3.199433565,1,0.12583214,1,-1.25968051,1,-0.015842961,1
3.183904886,-13.88813972,1,-7.597390175,1,-7.98900938,1,-1.071849823,1,-3.085182428,1,3.144809484,1,0.086127281,1,-1.273738146,1,0.021640075,1
3.187902451,-13.57422638,1,-4.798333168,1,-6.944297314,1,-1.219825625,1,-2.913433552,1,3.149817467,1,0.042132013,1,-1.286493063,1,0.062786371,1
3.191901922,-13.12183094,1,-2.143007994,1,-9.110711098,1,-1.28179884,1,-2.728458405,1,3.048952341,1,-0.005856412,1,-1.298047304,1,0.107413359,1
3.195903778,-12.64084053,1,-1.746731877,1,-11.59662437,1,-0.984816134,1,-2.451706171,1,2.723116636,1,-0.053682212,1,-1.308060169,1,0.152243048,1
3.199901342,-13.60049152,1,-3.739182472,1,-12.7722044,1,-0.645072758,1,-2.040135622,1,2.396011114,1,-0.098084308,1,-1.316261053,1,0.194810644,1
3.203900814,-12.48368168,1,-4.824596882,1,-11.9261694,1,-0.455334514,1,-1.768545389,1,2.145875692,1,-0.138788432,1,-1.322676659,1,0.234584928,1
3.20790267,-15.95416737,1,-3.512233734,1,-11.56442642,1,-0.17078492,1,-1.721585393,1,1.849751353,1,-0.175991446,1,-1.328298092,1,0.271561623,1
3.211900473,-14.48348427,1,-5.971711636,1,-11.93642998,1,0.054428812,1,-1.469201803,1,1.665539861,1,-0.209344149,1,-1.333269,1,0.305748165,1
3.215900183,-6.401360512,1,-9.043322563,1,-11.07089233,1,-0.002862664,1,-1.260594726,1,1.455943584,1,-0.239636362,1,-1.337165356,1,0.337042034,1
3.2199018,-1.052695036,1,-8.422195435,1,-8.671833038,1,-0.117083751,1,-1.274087906,1,1.299878359,1,-0.267701685,1,-1.34063971,1,0.36561656,1
3.223905087,-2.959770918,1,-6.833800316,1,-8.297904015,1,-0.171144113,1,-1.410118699,1,1.260245323,1,-0.295851827,1,-1.344390035,1,0.393919051,1
3.227904797,-6.066887856,1,-6.671501637,1,-9.923820496,1,-0.213084534,1,-1.383844256,1,1.221269846,1,-0.324940205,1,-1.348243952,1,0.422962487,1
3.231906414,-6.41173172,1,-6.577144146,1,-10.48046684,1,-0.209236324,1,-1.244194865,1,1.103822827,1,-0.353237867,1,-1.35166049,1,0.451077908,1
3.23590374,-6.291694641,1,-6.053367615,1,-10.23928261,1,-0.135471642,1,-1.069511533,1,0.961223006,1,-0.378858566,1,-1.354507208,1,0.476603061,1
3.239903212,-6.338541508,1,-5.86175251,1,-10.32945919,1,-0.055399217,1,-0.850618839,1,0.824225545,1,-0.40100795,1,-1.356706262,1,0.498895615,1
3.243904829,-5.671396732,1,-6.31918478,1,-10.56896114,1,0.00456369,1,-0.611784101,1,0.690340877,1,-0.419275254,1,-1.358179927,1,0.51749593,1
3.247902155,-4.496315479,1,-6.878372192,1,-10.65706158,1,0.022685533,1,-0.383948267,1,0.565362632,1,-0.433619797,1,-1.358947039,1,0.532234609,1
3.251901865,-3.46287775,1,-7.223286629,1,-10.51112461,1,0.017836606,1,-0.174156666,1,0.462060571,1,-0.444347531,1,-1.359085083,1,0.543308318,1
3.255903482,-2.579917669,1,-7.229608059,1,-10.11851215,1,-0.007811006,1,0.002548637,1,0.384990484,1,-0.452096075,1,-1.358661413,1,0.55125457,1
3.259901285,-1.876816273,1,-6.994223595,1,-9.692879677,1,-0.035762768,1,0.155334666,1,0.319713771,1,-0.457405001,1,-1.35775125,1,0.556593418,1
3.263900757,-1.269385338,1,-6.713528156,1,-9.36835289,1,-0.067355342,1,0.304971188,1,0.262585491,1,-0.460516453,1,-1.356413245,1,0.559564769,1
3.267902136,-0.818047285,1,-6.563483238,1,-9.179127693,1,-0.114526086,1,0.459480762,1,0.207033828,1,-0.461603254,1,-1.354623318,1,0.560304046,1
3.271899939,-0.292278916,1,-6.289216518,1,-9.054597855,1,-0.158079967,1,0.60473007,1,0.146458626,1,-0.46061179,1,-1.352348089,1,0.559404373,1
3.27589941,0.108124197,1,-5.859864235,1,-8.834980965,1,-0.185727015,1,0.742136657,1,0.08355467,1,-0.457790464,1,-1.349728465,1,0.555817723,1
3.279901028,0.257418543,1,-5.545130253,1,-8.803206444,1,-0.196157053,1,0.869122922,1,0.011008956,1,-0.453064561,1,-1.346753597,1,0.550189137,1
3.283898592,0.344197184,1,-5.160234928,1,-8.698274612,1,-0.199703351,1,1.005139947,1,-0.063508287,1,-0.44635728,1,-1.343426347,1,0.542486668,1
3.287898302,0.491923511,1,-4.814936161,1,-8.583456993,1,-0.192197382,1,1.14496851,1,-0.14563027,1,-0.437685966,1,-1.339712739,1,0.532772303,1
3.291900158,0.661083579,1,-4.484316349,1,-8.531205177,1,-0.160471112,1,1.284899116,1,-0.22400564,1,-0.426993519,1,-1.335601807,1,0.521051288,1
3.295897961,0.810098708,1,-4.239187717,1,-8.443270683,1,-0.123136997,1,1.433148623,1,-0.312635481,1,-0.414304793,1,-1.331079364,1,0.507402122,1
3.299897432,0.863489389,1,-3.976435661,1,-8.377906799,1,-0.079310939,1,1.572206855,1,-0.385294199,1,-0.399901062,1,-1.326111794,1,0.492153406,1
3.303898811,0.915940881,1,-3.868151665,1,-8.288246155,1,-0.029580057,1,1.711536407,1,-0.460435897,1,-0.384003878,1,-1.320690155,1,0.47553277,1
3.307896376,0.974172652,1,-3.827295065,1,-8.201676369,1,0.007939659,1,1.847898602,1,-0.516545892,1,-0.366901934,1,-1.314779162,1,0.457831174,1
3.311895847,0.924737453,1,-3.704644442,1,-8.04834938,1,0.050356697,1,1.990695119,1,-0.582971931,1,-0.348869085,1,-1.308355451,1,0.439296424,1
3.315897226,0.826009631,1,-3.586812019,1,-8.012052536,1,0.079549275,1,2.131658792,1,-0.633932471,1,-0.330138177,1,-1.301393747,1,0.420148015,1
3.319895029,0.596668661,1,-3.37413764,1,-7.9446702,1,0.112923846,1,2.268989563,1,-0.68787694,1,-0.310865253,1,-1.293873549,1,0.40053013,1
3.323894501,0.394007802,1,-3.26268816,1,-7.858739853,1,0.13690199,1,2.410850763,1,-0.739670455,1,-0.291315138,1,-1.285785437,1,0.380701214,1
