Time,inertial-6253.76535:estCompensatedAccelX,inertial-6253.76535:estCompensatedAccelX:valid,inertial-6253.76535:estCompensatedAccelY,inertial-6253.76535:estCompensatedAccelY:valid,inertial-6253.76535:estCompensatedAccelZ,inertial-6253.76535:estCompensatedAccelZ:valid,inertial-6253.76535:estAngularRateX,inertial-6253.76535:estAngularRateX:valid,inertial-6253.76535:estAngularRateY,inertial-6253.76535:estAngularRateY:valid,inertial-6253.76535:estAngularRateZ,inertial-6253.76535:estAngularRateZ:valid,inertial-6253.76535:estRoll,inertial-6253.76535:estRoll:valid,inertial-6253.76535:estPitch,inertial-6253.76535:estPitch:valid,inertial-6253.76535:estYaw,inertial-6253.76535:estYaw:valid,inertial-6253.76535:estLinearAccelX,inertial-6253.76535:estLinearAccelX:valid,inertial-6253.76535:estLinearAccelY,inertial-6253.76535:estLinearAccelY:valid,inertial-6253.76535:estLinearAccelZ,inertial-6253.76535:estLinearAccelZ:valid
0,-5.777607918,1,-1.65020144,1,-7.806580067,1,-0.000605671,1,-0.007254198,1,0.002314111,1,0.208233938,1,-0.628234625,1,0.163084447,1,-0.029635429,1,-0.014369369,1,-0.064712524,1
0.004000768,-5.765695095,1,-1.597193241,1,-7.793242455,1,-0.000288133,1,-0.002984211,1,-0.000181954,1,0.208226427,1,-0.62825191,1,0.163084522,1,-0.017585754,1,0.038560271,1,-0.051460266,1
0.007997696,-5.776609898,1,-1.600304961,1,-7.773286343,1,-0.003784821,1,-0.004135215,1,0.00159355,1,0.208223179,1,-0.62827009,1,0.163089886,1,-0.028357029,1,0.03540206,1,-0.031599998,1
0.011996672,-5.747300148,1,-1.611530423,1,-7.804336548,1,0.002055973,1,-0.006317853,1,1.67E-06,1,0.208221853,1,-0.628295124,1,0.16309081,1,0.001151562,1,0.024136305,1,-0.06278944,1
0.015997952,-5.770041943,1,-1.645317435,1,-7.753512383,1,-0.001616203,1,-0.008685328,1,0.003896419,1,0.208217978,1,-0.628324687,1,0.163087547,1,-0.021356583,1,-0.009716034,1,-0.012125969,1
0.019995648,-5.762697697,1,-1.637458324,1,-7.764238834,1,-0.000643458,1,-0.005244628,1,0.000887173,1,0.208224148,1,-0.628358901,1,0.163084045,1,-0.01374197,1,-0.001850128,1,-0.023056507,1
0.023994368,-5.775975704,1,-1.64343822,1,-7.782771111,1,-0.001101492,1,-0.00704928,1,0.003488698,1,0.208224356,1,-0.628387213,1,0.163081527,1,-0.026795864,1,-0.007861257,1,-0.041744232,1
0.027995648,-5.770314693,1,-1.610962272,1,-7.786540985,1,-0.000189237,1,-0.007588827,1,0.003954353,1,0.208215088,1,-0.628418922,1,0.163082436,1,-0.020884037,1,0.024505258,1,-0.045677662,1
0.03199283,-5.747560024,1,-1.613328218,1,-7.786842346,1,-0.002873793,1,-0.007739244,1,0.004896941,1,0.208209783,1,-0.628450572,1,0.163086742,1,0.002120972,1,0.022060633,1,-0.046148777,1
0.035991553,-5.781517029,1,-1.570705771,1,-7.767758846,1,0.003729602,1,-0.00620269,1,0.001494333,1,0.208201706,1,-0.628478467,1,0.163093284,1,-0.03161478,1,0.064587355,1,-0.027208805,1
0.039993089,-5.789770126,1,-1.616932631,1,-7.723644257,1,0.0005361,1,-0.011922836,1,-0.001663852,1,0.208199099,1,-0.628520191,1,0.163096577,1,-0.039537907,1,0.018291116,1,0.016676903,1
0.043990783,-5.819035053,1,-1.678202033,1,-7.754977703,1,0.001333793,1,-0.006121526,1,0.001841313,1,0.208200365,1,-0.628549397,1,0.163099319,1,-0.068571568,1,-0.043003201,1,-0.014823437,1
0.047989503,-5.777061462,1,-1.679763675,1,-7.736488819,1,-0.000733129,1,-0.005204438,1,0.005012217,1,0.208197027,1,-0.628578067,1,0.163103506,1,-0.026371956,1,-0.04462564,1,0.00350523,1
0.051990785,-5.742542267,1,-1.677402854,1,-7.775043964,1,-0.003690178,1,-0.005660241,1,0.007815264,1,0.208179101,1,-0.62861073,1,0.163122833,1,0.008405685,1,-0.042441845,1,-0.03520155,1
0.055993602,-5.787449837,1,-1.584776521,1,-7.777178288,1,-0.000918032,1,-0.008502426,1,0.005497295,1,0.208167449,1,-0.628645301,1,0.163140818,1,-0.03622818,1,0.050053,1,-0.037512302,1
0.059992831,-5.764708996,1,-1.581111789,1,-7.760536671,1,0.001598173,1,-0.008256348,1,0.002757652,1,0.208156601,1,-0.628678501,1,0.163154513,1,-0.013224602,1,0.053593993,1,-0.02104044,1
0.063993603,-5.786182404,1,-1.592057109,1,-7.77458334,1,0.002804963,1,-0.009796843,1,0.004259338,1,0.208144888,1,-0.628725708,1,0.163161322,1,-0.034325123,1,0.042502046,1,-0.035334587,1
0.067990273,-5.726489067,1,-1.610780001,1,-7.775462151,1,0.000857635,1,-0.009226665,1,0.002548731,1,0.208141685,1,-0.628761351,1,0.163176537,1,0.025650501,1,0.023712158,1,-0.036406517,1
0.07198976,-5.768746853,1,-1.565078378,1,-7.794922829,1,0.00333546,1,-0.010733448,1,0.00653889,1,0.208139554,1,-0.628805339,1,0.163191393,1,-0.016259193,1,0.06934464,1,-0.056112766,1
0.075991042,-5.818088055,1,-1.623617649,1,-7.74319458,1,-0.000508842,1,-0.012738245,1,0.0047804,1,0.208139688,1,-0.628852427,1,0.163206354,1,-0.065227985,1,0.010750651,1,-0.004649639,1
0.07998848,-5.806434631,1,-1.676508665,1,-7.758217812,1,0.003756993,1,-0.005071605,1,0.002168682,1,0.20814614,1,-0.628903627,1,0.16320987,1,-0.053169727,1,-0.042151332,1,-0.019971371,1
0.08398746,-5.775801182,1,-1.664357424,1,-7.76376152,1,0.003033094,1,-0.011564018,1,0.002894765,1,0.208154827,1,-0.628943801,1,0.163210616,1,-0.022218227,1,-0.029980183,1,-0.025753498,1
0.087988228,-5.757865429,1,-1.624185562,1,-7.745582104,1,-0.002516936,1,-0.008742807,1,0.006599369,1,0.208159685,1,-0.628989041,1,0.163221464,1,-0.003924847,1,0.01017499,1,-0.007838249,1
0.091985404,-5.791182518,1,-1.598130107,1,-7.738053799,1,0.000629266,1,-0.010342814,1,0.00617741,1,0.208153874,1,-0.629024625,1,0.163238645,1,-0.036960602,1,0.036143541,1,-0.000499249,1
0.095984384,-5.784546375,1,-1.639245987,1,-7.734563351,1,0.001888555,1,-0.009261025,1,0.004414865,1,0.208155587,1,-0.629074633,1,0.163249329,1,-0.029928684,1,-0.005019426,1,0.00270319,1
0.099985667,-5.775923252,1,-1.680918217,1,-7.776130676,1,0.000867986,1,-0.010881908,1,0.004178058,1,0.20815216,1,-0.629111886,1,0.163261175,1,-0.021011353,1,-0.04676199,1,-0.039066792,1
0.103983358,-5.799061775,1,-1.677978396,1,-7.775630951,1,0.001530146,1,-0.010713981,1,0.004381059,1,0.208153754,1,-0.629145741,1,0.163264513,1,-0.04388237,1,-0.043849468,1,-0.038757324,1
0.107982591,-5.776812077,1,-1.66455853,1,-7.760557175,1,-0.000567643,1,-0.009220809,1,0.007800417,1,0.208144546,1,-0.629191279,1,0.163283736,1,-0.021272182,1,-0.03055501,1,-0.023924351,1
0.111983873,-5.839756966,1,-1.640981913,1,-7.773180008,1,-0.003134808,1,-0.00609447,1,0.000427945,1,0.208132416,1,-0.629225314,1,0.163296729,1,-0.083948135,1,-0.007113576,1,-0.036723137,1
0.115981311,-5.779013157,1,-1.591428399,1,-7.74952364,1,-0.005032297,1,-0.008559961,1,0.008299595,1,0.208121836,1,-0.629265368,1,0.163311198,1,-0.022887707,1,0.042310953,1,-0.013272762,1
0.11998003,-5.778866768,1,-1.565835714,1,-7.748574257,1,0.004847529,1,-0.007747557,1,0.007165181,1,0.208104283,1,-0.629299819,1,0.163333341,1,-0.022469044,1,0.067726851,1,-0.012488842,1
0.123980798,-5.779968739,1,-1.582209587,1,-7.759548664,1,-0.000590746,1,-0.007690453,1,0.004750134,1,0.208099246,1,-0.629335701,1,0.163347751,1,-0.023286819,1,0.051270843,1,-0.023659706,1
0.127977729,-5.799487591,1,-1.600144625,1,-7.751666069,1,-0.003429508,1,-0.005883484,1,0.005197347,1,0.208084404,1,-0.629371881,1,0.163364515,1,-0.042519569,1,0.03317821,1,-0.015955448,1
0.131976455,-5.776169777,1,-1.578490257,1,-7.780809879,1,-0.002989843,1,-0.008849889,1,0.004245553,1,0.208079293,1,-0.629411995,1,0.163377345,1,-0.018884659,1,0.054745078,1,-0.045318604,1
0.135983869,-5.788834095,1,-1.606261969,1,-7.757389069,1,0.003225362,1,-0.00573771,1,0.007640123,1,0.208076909,1,-0.629443586,1,0.163391694,1,-0.031299591,1,0.026917338,1,-0.022071362,1
0.139987454,-5.80328846,1,-1.594200253,1,-7.753094673,1,-0.000815892,1,-0.013777021,1,0.002486884,1,0.208075419,1,-0.629480481,1,0.163403884,1,-0.045461655,1,0.038924098,1,-0.017980099,1
0.143987194,-5.792245388,1,-1.627456188,1,-7.757552147,1,0.00146875,1,-0.007715062,1,0.001031591,1,0.208082199,1,-0.629520357,1,0.163403004,1,-0.03410387,1,0.00567317,1,-0.022674084,1
0.14798823,-5.815276623,1,-1.614569306,1,-7.760215282,1,0.001322482,1,-0.008677464,1,0.001489782,1,0.208089307,1,-0.629553139,1,0.163408056,1,-0.056876183,1,0.018575668,1,-0.025534153,1
0.151985407,-5.808307648,1,-1.65716064,1,-7.767394066,1,0.004686882,1,-0.007259485,1,0.003020496,1,0.208098561,1,-0.629584253,1,0.163410261,1,-0.049661636,1,-0.023980618,1,-0.032901764,1
0.155984387,-5.772509098,1,-1.619180202,1,-7.744549751,1,5.19E-06,1,-0.003152914,1,-0.00073682,1,0.208103806,1,-0.629615545,1,0.163417459,1,-0.013615131,1,0.014002919,1,-0.010242939,1
0.159986183,-5.825378895,1,-1.621424317,1,-7.7177248,1,0.003808856,1,-0.005377994,1,0.001434139,1,0.208111078,1,-0.629640162,1,0.163418129,1,-0.066290379,1,0.011785865,1,0.016431332,1
0.163984135,-5.79109621,1,-1.592767119,1,-7.74164629,1,0.003633792,1,-0.005942954,1,0.002294397,1,0.208115876,1,-0.629661083,1,0.16342479,1,-0.031841755,1,0.040455699,1,-0.007614613,1
0.167983353,-5.766180515,1,-1.595253587,1,-7.798876286,1,0.003126631,1,-0.004667076,1,0.003056246,1,0.208118856,1,-0.629683256,1,0.16343163,1,-0.006751537,1,0.037966132,1,-0.064972401,1
0.171984121,-5.79113245,1,-1.633702636,1,-7.770852089,1,0.001456531,1,-0.00660259,1,0.004743709,1,0.20813404,1,-0.629710615,1,0.16343151,1,-0.031486988,1,-0.000397921,1,-0.037127018,1
0.17598106,-5.794759274,1,-1.62300086,1,-7.76883173,1,0.00135453,1,-0.002361777,1,0.00186901,1,0.208137646,1,-0.629732132,1,0.163445503,1,-0.034943581,1,0.010304928,1,-0.035239697,1
0.179979771,-5.823633671,1,-1.632418156,1,-7.736680508,1,-0.000355187,1,-0.004856711,1,0.003951471,1,0.208140194,1,-0.629757345,1,0.163450003,1,-0.06361866,1,0.0008775,1,-0.003233433,1
0.183980793,-5.78232193,1,-1.641822696,1,-7.716227531,1,-0.003087479,1,-0.007892409,1,0.00376435,1,0.208131075,1,-0.629777968,1,0.163465261,1,-0.022143841,1,-0.008622289,1,0.017117977,1
0.187977985,-5.798760891,1,-1.613630176,1,-7.768230915,1,0.002229102,1,-0.001455931,1,0.002211544,1,0.208124369,1,-0.62978977,1,0.163474068,1,-0.038489342,1,0.019505143,1,-0.034937859,1
0.191977724,-5.811420918,1,-1.642481327,1,-7.758905411,1,-0.004029662,1,-0.006638954,1,-0.000931969,1,0.208112612,1,-0.62980777,1,0.163487107,1,-0.051007271,1,-0.009458184,1,-0.025693893,1
0.195979014,-5.800991535,1,-1.655732989,1,-7.751990795,1,-0.000453797,1,-0.001107562,1,0.001672572,1,0.208100438,1,-0.629822493,1,0.163497478,1,-0.040462017,1,-0.022821665,1,-0.018843174,1
0.199976698,-5.811556816,1,-1.635727286,1,-7.732906818,1,-0.001537182,1,-0.00124191,1,0.005504211,1,0.208082154,1,-0.629835963,1,0.163511664,1,-0.050920486,1,-0.002973557,1,0.00019455,1
0.203975931,-5.800402641,1,-1.638378978,1,-7.745243549,1,-0.000636899,1,-0.001208172,1,0.002934943,1,0.20806852,1,-0.629846156,1,0.163525894,1,-0.039685726,1,-0.005742788,1,-0.012177944,1
0.207976967,-5.794561386,1,-1.604891419,1,-7.761080265,1,0.002288122,1,-0.00049474,1,0.005434922,1,0.208050594,1,-0.62984854,1,0.16354388,1,-0.033825874,1,0.027603388,1,-0.027998447,1
0.211974144,-5.808853149,1,-1.572118402,1,-7.731719494,1,-0.004430714,1,-0.000301444,1,0.001796649,1,0.208038345,1,-0.629860163,1,0.163562447,1,-0.048025608,1,0.060267687,1,0.001317024,1
0.21597901,-5.777815819,1,-1.594156265,1,-7.740059853,1,-0.003996558,1,0.001522925,1,-0.000472628,1,0.208021224,1,-0.629855216,1,0.163564518,1,-0.017027378,1,0.038103461,1,-0.006967545,1
0.219980285,-5.820937157,1,-1.62874186,1,-7.748297215,1,-0.000925529,1,0.003399405,1,0.005141539,1,0.20801051,1,-0.62985307,1,0.163570687,1,-0.060165405,1,0.0034374,1,-0.015175819,1
0.223977476,-5.786493301,1,-1.639499307,1,-7.76055479,1,-0.001833014,1,0.003947161,1,-0.000358083,1,0.207994878,1,-0.629845738,1,0.163577512,1,-0.025779247,1,-0.007432103,1,-0.027366638,1
0.22797671,-5.814130306,1,-1.654421091,1,-7.736667156,1,-0.000690772,1,0.001933407,1,0.001870807,1,0.207985371,1,-0.629834294,1,0.163585976,1,-0.053507328,1,-0.022414088,1,-0.003399849,1
0.231978238,-5.805636883,1,-1.610978723,1,-7.758250713,1,-0.003602118,1,0.002132664,1,0.003059478,1,0.207958996,1,-0.629830897,1,0.163603649,1,-0.045040607,1,0.020828366,1,-0.024921417,1
0.235976189,-5.801242828,1,-1.637193561,1,-7.753300667,1,-0.004520162,1,0.005482174,1,0.001394862,1,0.207929656,1,-0.629814923,1,0.16362305,1,-0.040772438,1,-0.005594492,1,-0.019833565,1
0.239975169,-5.82371521,1,-1.625519514,1,-7.781730652,1,-0.003553834,1,0.009163944,1,-0.001015119,1,0.207907647,1,-0.629768074,1,0.16315645,1,-0.063615322,1,0.005965233,1,-0.047963619,1
0.243976191,-5.778528214,1,-1.612248421,1,-7.752245903,1,-0.00514933,1,0.006989447,1,0.003820415,1,0.207876161,1,-0.629746675,1,0.163176537,1,-0.018597603,1,0.019018292,1,-0.018306255,1
0.247973114,-5.795061588,1,-1.598064303,1,-7.749983311,1,-0.003860742,1,0.005243031,1,-0.001067394,1,0.207847148,1,-0.629725754,1,0.163190857,1,-0.035295963,1,0.033002734,1,-0.015878677,1
0.251972616,-5.79850626,1,-1.594293237,1,-7.736726761,1,-0.005963866,1,0.01037697,1,0.003554352,1,0.207813084,1,-0.629700422,1,0.163208082,1,-0.038941383,1,0.036540627,1,-0.00242281,1
0.255973876,-5.816071987,1,-1.614952326,1,-7.718364716,1,-0.006338972,1,0.005328796,1,0.002118268,1,0.207778022,1,-0.629673541,1,0.163228557,1,-0.056719303,1,0.015642643,1,0.016149044,1
0.259971321,-5.797810555,1,-1.62450552,1,-7.731446743,1,-0.004063249,1,0.00687857,1,-1.38E-05,1,0.207750276,1,-0.629648328,1,0.163243115,1,-0.038657188,1,0.005904675,1,0.003253937,1
0.263970047,-5.787666321,1,-1.614524841,1,-7.748160839,1,-0.008093215,1,0.010016033,1,0.000660077,1,0.207723856,1,-0.629626334,1,0.163251281,1,-0.028686523,1,0.015707135,1,-0.013292789,1
0.26797083,-5.775751114,1,-1.630401731,1,-7.752304077,1,-0.00516695,1,0.005756607,1,0.001593322,1,0.20769453,1,-0.629590273,1,0.163267687,1,-0.017056942,1,-0.000353932,1,-0.017186642,1
0.271968007,-5.812211514,1,-1.653093934,1,-7.775880814,1,-0.007740105,1,0.008018458,1,0.001246077,1,0.207669348,1,-0.629563272,1,0.163275138,1,-0.053730965,1,-0.023208618,1,-0.040569305,1
0.275966972,-5.798368931,1,-1.615026236,1,-7.755554676,1,-0.009125822,1,0.010093194,1,0.002874617,1,0.207639992,1,-0.62953198,1,0.163282916,1,-0.040135384,1,0.014668584,1,-0.020020962,1
0.279967755,-5.815614223,1,-1.612139583,1,-7.748936653,1,-0.007419785,1,0.011547975,1,-0.000191274,1,0.207593471,1,-0.629492342,1,0.163304865,1,-0.057694435,1,0.017242432,1,-0.013103008,1
0.283964932,-5.820489883,1,-1.634888887,1,-7.741882801,1,-0.005854517,1,0.012158078,1,-9.22E-05,1,0.207567275,1,-0.629447818,1,0.1633178,1,-0.062922001,1,-0.005656958,1,-0.005757809,1
0.287963659,-5.81942606,1,-1.631301999,1,-7.774250984,1,-0.004479954,1,0.011647165,1,0.000862421,1,0.207534954,1,-0.629401982,1,0.163331717,1,-0.062220097,1,-0.002265692,1,-0.037814617,1
0.291970819,-5.826173306,1,-1.611450315,1,-7.765784264,1,-0.007194166,1,0.010655985,1,0.000956557,1,0.207497254,1,-0.629355729,1,0.163356289,1,-0.069333076,1,0.017349362,1,-0.029025078,1
0.295974404,-5.791059017,1,-1.613662124,1,-7.766919136,1,-0.007719195,1,0.010945347,1,-0.000906392,1,0.207465202,1,-0.629310787,1,0.163371816,1,-0.034574509,1,0.014942527,1,-0.029856205,1
0.299974144,-5.776139259,1,-1.586107492,1,-7.745830536,1,-0.005820666,1,0.008636747,1,-0.002535312,1,0.207445323,1,-0.629272938,1,0.163370058,1,-0.019953728,1,0.042388797,1,-0.00851965,1
0.303974926,-5.778594494,1,-1.603560686,1,-7.770715237,1,-0.006470941,1,0.014874279,1,-0.002713817,1,0.207413986,1,-0.629230917,1,0.163383231,1,-0.022741795,1,0.024742603,1,-0.033117771,1
0.307971835,-5.7754426,1,-1.647268176,1,-7.781573772,1,-0.004319159,1,0.006096083,1,-0.000220096,1,0.207393512,1,-0.62918067,1,0.163389102,1,-0.019986153,1,-0.01906395,1,-0.043661118,1
0.311970562,-5.766141415,1,-1.65059185,1,-7.772206306,1,-0.007655264,1,0.008603499,1,-0.003363058,1,0.2073704,1,-0.629152358,1,0.163389325,1,-0.010909557,1,-0.022532463,1,-0.03409481,1
0.315971583,-5.784554958,1,-1.660668492,1,-7.770503998,1,-0.002752868,1,0.010557537,1,-0.000580897,1,0.207336918,1,-0.629114032,1,0.163404465,1,-0.029626369,1,-0.032822847,1,-0.032122612,1
0.31996876,-5.787545204,1,-1.608065128,1,-7.780927658,1,-0.010404823,1,0.008360837,1,0.001615837,1,0.207308248,1,-0.629080176,1,0.163413063,1,-0.032883167,1,0.019598961,1,-0.042306423,1
0.323967993,-5.786029816,1,-1.599058032,1,-7.748049736,1,-0.004233338,1,0.007490108,1,0.001343272,1,0.207274213,1,-0.629051507,1,0.163431078,1,-0.03159523,1,0.028376579,1,-0.009212971,1
0.327969015,-5.774272919,1,-1.620640516,1,-7.756859779,1,-0.002559183,1,0.006187107,1,0.001960995,1,0.207255691,1,-0.629023433,1,0.163439199,1,-0.020060539,1,0.006684184,1,-0.017834187,1
0.331965953,-5.744752407,1,-1.567546606,1,-7.774074078,1,-0.007291269,1,0.009271156,1,0.001610929,1,0.207231104,1,-0.628994286,1,0.163447365,1,0.00922966,1,0.059622288,1,-0.034843922,1
0.335964918,-5.78438282,1,-1.620507479,1,-7.778334618,1,-0.005045785,1,0.008786357,1,0.001194416,1,0.207203016,1,-0.628960609,1,0.163460732,1,-0.030667305,1,0.006483674,1,-0.038870335,1
0.339966208,-5.775648594,1,-1.615941167,1,-7.739544868,1,-0.007864999,1,0.006629079,1,-0.001248986,1,0.207184821,1,-0.62892729,1,0.163468167,1,-0.022196293,1,0.010948777,1,0.000136852,1
0.343963891,-5.797956467,1,-1.607841969,1,-7.740816116,1,-0.004594145,1,0.010629141,1,-0.004291027,1,0.207159698,1,-0.628890097,1,0.163474694,1,-0.044798851,1,0.018897176,1,-0.00088501,1
0.347963125,-5.809780598,1,-1.625295997,1,-7.757985115,1,-0.003518605,1,0.011542529,1,-0.004479524,1,0.207148835,1,-0.628849745,1,0.163473248,1,-0.056941509,1,0.001406789,1,-0.017809391,1
0.351963907,-5.745228767,1,-1.635129809,1,-7.784309387,1,-0.00070654,1,0.010225652,1,-0.001285526,1,0.207134977,1,-0.628804088,1,0.163472593,1,0.007248878,1,-0.008480072,1,-0.043852806,1
0.355960846,-5.769105911,1,-1.568311095,1,-7.75770998,1,-0.003733125,1,0.009114277,1,-0.004564685,1,0.207117826,1,-0.628762305,1,0.1634776,1,-0.016958714,1,0.058255196,1,-0.016990662,1
0.359959543,-5.820549011,1,-1.566911101,1,-7.734469891,1,-0.002197501,1,0.009512536,1,-0.002582296,1,0.207109362,1,-0.628728509,1,0.163472772,1,-0.068668842,1,0.059629679,1,0.00645256,1
0.363960326,-5.808838367,1,-1.591559172,1,-7.781940937,1,-0.000545566,1,0.008546887,1,-0.0026723,1,0.207109511,1,-0.62869221,1,0.163468137,1,-0.057245731,1,0.035025597,1,-0.0408144,1
0.367957234,-5.769765854,1,-1.544248104,1,-7.795228004,1,0.002053322,1,0.009733394,1,-0.002432709,1,0.207113311,1,-0.62865591,1,0.163460448,1,-0.018460274,1,0.082408667,1,-0.05390501,1
0.371962637,-5.747509003,1,-1.572702646,1,-7.77272892,1,0.001766605,1,0.002704178,1,-0.003394108,1,0.207128674,1,-0.62861985,1,0.163442731,1,0.003510952,1,0.054116011,1,-0.031227112,1
0.375963897,-5.784104347,1,-1.56131649,1,-7.771566391,1,0.001678568,1,0.006057784,1,-0.00277091,1,0.207130343,1,-0.628599048,1,0.163442463,1,-0.033248425,1,0.065540195,1,-0.029946804,1
0.379961342,-5.787162781,1,-1.610801816,1,-7.768458843,1,0.003560567,1,0.004836924,1,-0.007963324,1,0.207157612,1,-0.628573477,1,0.163423002,1,-0.03650856,1,0.01629591,1,-0.026741505,1
0.383960575,-5.763928413,1,-1.617649555,1,-7.790717125,1,-0.000100621,1,0.006013217,1,-0.001469717,1,0.207171991,1,-0.628554761,1,0.163411349,1,-0.013422966,1,0.009582043,1,-0.048915863,1
0.387961358,-5.773124695,1,-1.616900682,1,-7.781579018,1,0.002904776,1,0.003209138,1,-0.00190052,1,0.207186237,1,-0.62853241,1,0.163404077,1,-0.022796631,1,0.010467172,1,-0.03967762,1
0.391958535,-5.761434078,1,-1.634505153,1,-7.783927917,1,0.002949683,1,0.005597872,1,-0.003324893,1,0.207196772,1,-0.628509045,1,0.16339685,1,-0.01129055,1,-0.007028341,1,-0.041913033,1
0.395957261,-5.791227818,1,-1.633798003,1,-7.750727177,1,0.002878861,1,0.00239412,1,-0.003437064,1,0.207211703,1,-0.628485799,1,0.163384035,1,-0.041267872,1,-0.006177902,1,-0.008605003,1
0.399958283,-5.785830975,1,-1.645576358,1,-7.728576183,1,0.00058644,1,0.005466064,1,-0.004420405,1,0.207223624,1,-0.628462315,1,0.163373739,1,-0.036056519,1,-0.017836213,1,0.013658524,1
0.403955191,-5.765577793,1,-1.616218686,1,-7.769394398,1,0.00018438,1,0.007862174,1,-0.000944601,1,0.207225889,1,-0.628430843,1,0.163369685,1,-0.016052723,1,0.011576533,1,-0.026984692,1
0.407954425,-5.807806015,1,-1.643843293,1,-7.756044388,1,0.00246062,1,0.008984482,1,-0.002192404,1,0.207225204,1,-0.628394485,1,0.163371339,1,-0.058568478,1,-0.016010284,1,-0.013429165,1
0.411956489,-5.759603977,1,-1.621005177,1,-7.771148205,1,-0.002757433,1,0.007693488,1,-0.001533538,1,0.207226634,1,-0.628362238,1,0.163366616,1,-0.010622025,1,0.006876945,1,-0.028353691,1
0.415954679,-5.76420784,1,-1.625749111,1,-7.774863243,1,-0.001578995,1,0.008105638,1,-0.003189268,1,0.207223147,1,-0.628328204,1,0.163355529,1,-0.015494823,1,0.002146125,1,-0.031872749,1
0.419953406,-5.776237011,1,-1.662526488,1,-7.746045113,1,-0.003461976,1,0.0089196,1,0.003020116,1,0.207206801,1,-0.628291726,1,0.163365096,1,-0.027812481,1,-0.034714699,1,-0.002823353,1
0.423954427,-5.760931969,1,-1.588139892,1,-7.771392345,1,-0.002889672,1,0.011406009,1,-0.001728202,1,0.207184941,1,-0.628260612,1,0.16336745,1,-0.012753487,1,0.039539456,1,-0.02795887,1
0.427951366,-5.782876492,1,-1.592372656,1,-7.79023695,1,-0.005070467,1,0.006600757,1,-0.001638322,1,0.207167536,1,-0.62822473,1,0.163372055,1,-0.034982204,1,0.035214305,1,-0.046574116,1
0.431950331,-5.746581554,1,-1.58123529,1,-7.787253857,1,0.000536318,1,0.007483715,1,0.000384729,1,0.207151726,1,-0.628191352,1,0.163382396,1,0.001048565,1,0.046268463,1,-0.043377399,1
0.435951859,-5.77063179,1,-1.593846321,1,-7.770149708,1,-0.002189006,1,0.011322876,1,-0.004010529,1,0.207148343,1,-0.628160834,1,0.16338712,1,-0.02324295,1,0.033667803,1,-0.026094913,1
0.439949572,-5.754723549,1,-1.583764195,1,-7.771885872,1,0.001014707,1,0.006518531,1,-0.004034222,1,0.207161784,1,-0.628130198,1,0.163378492,1,-0.007576942,1,0.043890238,1,-0.027680397,1
0.443949044,-5.781764507,1,-1.599954128,1,-7.763492107,1,-0.000586706,1,0.005465577,1,-0.004668992,1,0.207170472,1,-0.628103197,1,0.163369372,1,-0.034832001,1,0.027799726,1,-0.019147873,1
0.447949827,-5.759202003,1,-1.619159341,1,-7.798305511,1,0.001727434,1,0.006153922,1,-0.003790506,1,0.207190499,1,-0.628078878,1,0.16335398,1,-0.012461662,1,0.008778453,1,-0.053855896,1
0.451952904,-5.76543951,1,-1.619922876,1,-7.753714085,1,0.000119045,1,0.003315284,1,-0.003373751,1,0.207209706,1,-0.628053129,1,0.163340956,1,-0.018903255,1,0.008193254,1,-0.00915575,1
0.455951869,-5.768729687,1,-1.638535619,1,-7.774792671,1,0.004895572,1,0.00484682,1,-0.004919846,1,0.207225651,1,-0.628033221,1,0.163329765,1,-0.022350788,1,-0.010272503,1,-0.030148506,1
0.459952652,-5.797202587,1,-1.633014917,1,-7.791061878,1,0.004665179,1,0.006791584,1,-0.003530846,1,0.207251891,1,-0.628014565,1,0.163308531,1,-0.050971985,1,-0.004526258,1,-0.046354294,1
0.463949561,-5.783744812,1,-1.621892452,1,-7.769477844,1,0.003059678,1,0.006567186,1,-0.005180024,1,0.207261756,1,-0.627987623,1,0.163308591,1,-0.037726879,1,0.006704688,1,-0.024634361,1
0.467948288,-5.790207386,1,-1.647193313,1,-7.787418365,1,0.000313351,1,0.007096504,1,-0.002657492,1,0.207276925,1,-0.627964795,1,0.163296342,1,-0.044369698,1,-0.018451691,1,-0.042470455,1
0.471949577,-5.752592564,1,-1.63352406,1,-7.754212856,1,0.000999219,1,0.006456098,1,-0.001085062,1,0.207299411,1,-0.627944827,1,0.163277328,1,-0.006912708,1,-0.00458467,1,-0.009189129,1
0.475947261,-5.773197651,1,-1.658173084,1,-7.821656227,1,0.003020187,1,0.004545676,1,-0.005727354,1,0.207306758,1,-0.627917767,1,0.163271159,1,-0.027732372,1,-0.029144883,1,-0.076493263,1
0.479946494,-5.76087141,1,-1.676201224,1,-7.814741135,1,0.001573073,1,0.002637797,1,-0.000312537,1,0.207318529,1,-0.627909184,1,0.163256854,1,-0.015474319,1,-0.04707253,1,-0.069552422,1
0.483947515,-5.795066833,1,-1.669621944,1,-7.768081665,1,-0.00215769,1,0.003249614,1,-0.000233181,1,0.207315996,1,-0.627891362,1,0.163258806,1,-0.049810886,1,-0.040491104,1,-0.022785664,1
0.487944454,-5.762517452,1,-1.623229265,1,-7.78408432,1,0.001924929,1,0.004535585,1,-0.00408979,1,0.207290694,1,-0.627902091,1,0.163310841,1,-0.017176151,1,0.005693316,1,-0.038805962,1
0.491943181,-5.804745674,1,-1.614120364,1,-7.781403065,1,6.45E-05,1,0.001815287,1,0.001781613,1,0.207323074,1,-0.627838194,1,0.16276978,1,-0.059909821,1,0.015127897,1,-0.035820961,1
0.495943934,-5.797841549,1,-1.60913837,1,-7.789932728,1,0.001566542,1,0.001212471,1,-8.05E-05,1,0.207317322,1,-0.627831936,1,0.162766755,1,-0.053055286,1,0.020072699,1,-0.044306278,1
0.499940872,-5.809196949,1,-1.615060449,1,-7.781063557,1,-0.002082064,1,0.002742736,1,-0.000792646,1,0.207319677,1,-0.627813756,1,0.16276978,1,-0.064554691,1,0.014191031,1,-0.035336018,1
0.503940105,-5.791826725,1,-1.664942861,1,-7.749695301,1,0.000747294,1,0.002546399,1,0.000923894,1,0.2073154,1,-0.627795577,1,0.162769869,1,-0.047328472,1,-0.035702825,1,-0.003856659,1
0.507941365,-5.790075302,1,-1.629487157,1,-7.775242805,1,0.001979281,1,0.004186526,1,-0.005113858,1,0.207317054,1,-0.627788544,1,0.162762433,1,-0.045632362,1,-0.000226617,1,-0.029371262,1
0.511939049,-5.769399643,1,-1.624837041,1,-7.802505493,1,-0.002768942,1,0.004057174,1,-0.003601547,1,0.2073268,1,-0.6277771,1,0.16274257,1,-0.025047779,1,0.00451231,1,-0.056585789,1
0.51593858,-5.756169796,1,-1.527547836,1,-7.821314812,1,0.000558353,1,0.006808992,1,-0.002150062,1,0.207323223,1,-0.627747357,1,0.162745655,1,-0.01205349,1,0.101809382,1,-0.075220585,1
0.519939303,-5.751204491,1,-1.503814459,1,-7.793741703,1,0.003213388,1,0.005171387,1,0.00210568,1,0.207331032,1,-0.627733827,1,0.162745088,1,-0.007195473,1,0.125619173,1,-0.047584534,1
0.523936272,-5.796590328,1,-1.554837704,1,-7.758825779,1,0.003237196,1,0.003938088,1,-0.00755082,1,0.207355574,1,-0.627721429,1,0.162727267,1,-0.052679539,1,0.074800968,1,-0.012637615,1
0.527942121,-5.787548065,1,-1.595853448,1,-7.775232792,1,0.002266864,1,0.001645672,1,-0.003376444,1,0.207387164,1,-0.627703667,1,0.162700564,1,-0.043777943,1,0.034051061,1,-0.028995514,1
0.531944215,-5.748159885,1,-1.633912086,1,-7.794614792,1,0.005227287,1,0.003659595,1,-0.010137673,1,0.207424566,1,-0.627688825,1,0.162672788,1,-0.004507065,1,-0.003701091,1,-0.048358917,1
0.535942376,-5.761315823,1,-1.632100701,1,-7.844908714,1,0.004570684,1,0.004329203,1,-0.009070459,1,0.207465604,1,-0.627672911,1,0.162645712,1,-0.017788887,1,-0.001552463,1,-0.098628521,1
0.53994137,-5.726603031,1,-1.594915032,1,-7.814231873,1,0.004181311,1,-0.000375856,1,-0.004559762,1,0.207502887,1,-0.627655864,1,0.162621528,1,0.01678896,1,0.035941839,1,-0.067917824,1
0.54394263,-5.751553059,1,-1.614684105,1,-7.818511486,1,0.00680044,1,0.000742318,1,-0.007846797,1,0.207541987,1,-0.627647638,1,0.162598416,1,-0.008225918,1,0.016485691,1,-0.07221365,1
0.547940373,-5.746446133,1,-1.66881299,1,-7.80866766,1,0.006499376,1,-0.005492594,1,-0.003923545,1,0.207581341,1,-0.627643347,1,0.162573621,1,-0.003153324,1,-0.037333488,1,-0.062409878,1
0.551939309,-5.781814098,1,-1.703228474,1,-7.819012165,1,0.004273628,1,0.002759014,1,-0.004004057,1,0.207608208,1,-0.627647758,1,0.162562177,1,-0.038486004,1,-0.071545959,1,-0.072823048,1
0.555940092,-5.767447948,1,-1.685894132,1,-7.777455807,1,0.006831973,1,-0.002581455,1,-0.002282109,1,0.207636744,1,-0.627642989,1,0.162545845,1,-0.024158001,1,-0.053984404,1,-0.031284332,1
0.559937298,-5.797969818,1,-1.687143087,1,-7.774870872,1,0.003892428,1,-0.000587289,1,7.27E-05,1,0.207661301,1,-0.627652705,1,0.162536994,1,-0.0546031,1,-0.055055141,1,-0.028796673,1
0.56393677,-5.776132584,1,-1.724634171,1,-7.780806065,1,0.001595446,1,-0.002000351,1,-0.002296808,1,0.207674414,1,-0.627654493,1,0.162533209,1,-0.032751083,1,-0.092447042,1,-0.03476429,1
0.56793803,-5.794268131,1,-1.677738905,1,-7.746386051,1,-0.002198295,1,-0.003300663,1,-0.002652293,1,0.207680136,1,-0.627658844,1,0.162528753,1,-0.050852299,1,-0.045512438,1,-0.000376701,1
0.571936011,-5.788523674,1,-1.671476841,1,-7.781092167,1,-0.000733587,1,-0.001604339,1,0.005327623,1,0.207680523,1,-0.627666712,1,0.162527964,1,-0.045045853,1,-0.03925705,1,-0.035129547,1
0.575934708,-5.790422916,1,-1.643946767,1,-7.78439188,1,-0.002937286,1,-0.00382098,1,-1.95E-05,1,0.207663134,1,-0.627673686,1,0.162537903,1,-0.046890259,1,-0.011869669,1,-0.038439274,1
0.57993573,-5.767467022,1,-1.649171591,1,-7.746259689,1,-0.004008948,1,-0.002658424,1,0.002868321,1,0.207643479,1,-0.627689183,1,0.162544444,1,-0.02381134,1,-0.01726532,1,-0.000362873,1
0.583932698,-5.766181469,1,-1.640172482,1,-7.79168129,1,-0.003559857,1,-0.00039178,1,0.000979241,1,0.207623065,1,-0.627693892,1,0.162548289,1,-0.022488117,1,-0.008429527,1,-0.04577589,1
0.587931395,-5.778772831,1,-1.610975623,1,-7.774992943,1,-0.006119897,1,-0.003475548,1,0.005737281,1,0.207597271,1,-0.627710521,1,0.162562802,1,-0.034947872,1,0.020547867,1,-0.029139996,1
0.591932416,-5.782936573,1,-1.606868267,1,-7.751881599,1,-0.006370008,1,-0.004206015,1,0.000497075,1,0.207568243,1,-0.627729416,1,0.162577376,1,-0.038961887,1,0.024407744,1,-0.006087303,1
0.595929325,-5.780056477,1,-1.578283429,1,-7.77865839,1,-0.003962286,1,-0.002138031,1,0.00533384,1,0.207551509,1,-0.627745867,1,0.162583128,1,-0.035951614,1,0.052844286,1,-0.032926559,1
0.599928558,-5.763482094,1,-1.595060825,1,-7.757987022,1,-0.000351552,1,-0.005506621,1,0.000797843,1,0.207538053,1,-0.627765298,1,0.162592143,1,-0.01922369,1,0.035939455,1,-0.012343407,1
0.603929877,-5.769566059,1,-1.61045301,1,-7.771038055,1,0.000167435,1,-0.004159225,1,0.004203259,1,0.207533345,1,-0.627781689,1,0.162601501,1,-0.025177956,1,0.020491362,1,-0.025479317,1
0.607932687,-5.781639576,1,-1.639303684,1,-7.802961349,1,0.001715752,1,-0.005997451,1,0.000779374,1,0.207524553,1,-0.627803862,1,0.162606478,1,-0.037075996,1,-0.008453488,1,-0.057510853,1
0.61193192,-5.766398907,1,-1.608089089,1,-7.74863863,1,-0.00049052,1,-0.003760145,1,0.002096304,1,0.207519278,1,-0.627828181,1,0.162605554,1,-0.021643162,1,0.022691011,1,-0.003318787,1
0.615932643,-5.74858427,1,-1.610224247,1,-7.7544384,1,-0.000547562,1,-0.009244857,1,0.000392254,1,0.207514465,1,-0.627851784,1,0.162611306,1,-0.003641129,1,0.020490885,1,-0.009242058,1
0.619929612,-5.764901638,1,-1.565019369,1,-7.766900539,1,0.000108645,1,-0.004625347,1,0.003822205,1,0.207515806,1,-0.627877951,1,0.16260998,1,-0.019751549,1,0.065675139,1,-0.021853447,1
0.623929083,-5.764527321,1,-1.591396451,1,-7.764221668,1,-0.002058533,1,-0.004395976,1,0.002551743,1,0.207507059,1,-0.627897203,1,0.162614763,1,-0.019224644,1,0.039207697,1,-0.019268513,1
0.627929866,-5.76947546,1,-1.618556023,1,-7.754171371,1,-0.002409702,1,-0.007731209,1,0.001150939,1,0.20750837,1,-0.627918601,1,0.1626129,1,-0.024003983,1,0.012032986,1,-0.009340763,1
0.631926775,-5.786152363,1,-1.593747854,1,-7.777416706,1,0.003239726,1,-0.006285779,1,0.002269051,1,0.207509533,1,-0.627945483,1,0.16261372,1,-0.040467739,1,0.036818027,1,-0.032739162,1
0.635925531,-5.773030758,1,-1.647552967,1,-7.720767021,1,-0.000562027,1,-9.69E-05,1,0.003099252,1,0.207498655,1,-0.627961338,1,0.162623018,1,-0.027220249,1,-0.017090201,1,0.02383852,1
0.639926791,-5.761343479,1,-1.663444638,1,-7.762555599,1,0.000590203,1,-0.00646666,1,0.000971476,1,0.20748347,1,-0.627980888,1,0.162632048,1,-0.015378475,1,-0.033122897,1,-0.018036842,1
0.643924475,-5.764744282,1,-1.631695747,1,-7.767059326,1,-0.006709013,1,-0.007237997,1,0.004244105,1,0.20746012,1,-0.628001213,1,0.162644327,1,-0.018619061,1,-0.001578808,1,-0.02261591,1
0.647923172,-5.797729015,1,-1.652555704,1,-7.776488781,1,-0.00442933,1,-0.003027633,1,0.003618397,1,0.207439974,1,-0.628018796,1,0.16265054,1,-0.051464558,1,-0.022615194,1,-0.032110691,1
0.651924491,-5.758485794,1,-1.638679862,1,-7.74909687,1,-0.003307542,1,-0.004362243,1,1.94E-05,1,0.20742768,1,-0.628032863,1,0.16266194,1,-0.012109756,1,-0.00885129,1,-0.004777908,1
0.655922174,-5.79973793,1,-1.625883579,1,-7.759063244,1,-0.002521187,1,-0.001228824,1,0.00332765,1,0.20740737,1,-0.628045082,1,0.162670285,1,-0.053265095,1,0.003773451,1,-0.014778137,1
0.659921646,-5.796416283,1,-1.622831941,1,-7.760808945,1,-0.003177522,1,-0.005623713,1,0.003204608,1,0.207386777,1,-0.628058493,1,0.162686035,1,-0.049837589,1,0.00665009,1,-0.016564846,1
0.663922668,-5.81764698,1,-1.624034405,1,-7.773993969,1,-0.006660308,1,-0.003855505,1,0.004069507,1,0.20736374,1,-0.628079951,1,0.162696391,1,-0.070898056,1,0.00524354,1,-0.029834747,1
0.667919636,-5.792531013,1,-1.598497748,1,-7.778539181,1,-0.001970299,1,0.003418777,1,0.001677895,1,0.207341418,1,-0.628084242,1,0.16270408,1,-0.045748234,1,0.030602098,1,-0.034367085,1
0.671918333,-5.783124447,1,-1.619387627,1,-7.771074772,1,-0.003848403,1,-0.000174302,1,0.004616721,1,0.207322598,1,-0.628093719,1,0.162719667,1,-0.036266327,1,0.009555459,1,-0.026925564,1
0.675919592,-5.763868809,1,-1.609676123,1,-7.737342358,1,-0.002194896,1,0.001180889,1,0.003102726,1,0.207311124,1,-0.628094971,1,0.162719697,1,-0.017001629,1,0.019176841,1,0.006819725,1
0.679917037,-5.75542593,1,-1.586714506,1,-7.750987053,1,-0.003863127,1,-0.002643374,1,0.00455434,1,0.207290992,1,-0.628103793,1,0.162733495,1,-0.008488178,1,0.041972041,1,-0.006842136,1
0.683916271,-5.820641518,1,-1.580651402,1,-7.774805069,1,-0.001169283,1,-0.003720302,1,0.000541837,1,0.207282797,1,-0.628102362,1,0.162744999,1,-0.07371521,1,0.04797256,1,-0.030642509,1
0.687923431,-5.787055016,1,-1.579614401,1,-7.775340557,1,-0.00079599,1,0.002925471,1,0.002743195,1,0.207278743,1,-0.628106952,1,0.162746653,1,-0.040092945,1,0.048973083,1,-0.031196117,1
0.691926777,-5.765500546,1,-1.615483999,1,-7.760744095,1,-0.000704528,1,0.001310101,1,-0.00219192,1,0.207272619,1,-0.62810719,1,0.162752539,1,-0.018536568,1,0.013055444,1,-0.016592026,1
0.695926011,-5.792279243,1,-1.561935067,1,-7.793433666,1,-5.89E-05,1,-0.001758188,1,-0.000105141,1,0.207283661,1,-0.628114104,1,0.162748054,1,-0.045260429,1,0.066681981,1,-0.04933691,1
0.699926794,-5.760971546,1,-1.591381669,1,-7.770008564,1,0.005135572,1,0.003966033,1,0.001796553,1,0.207298845,1,-0.628110468,1,0.162741259,1,-0.013981342,1,0.037357688,1,-0.025914192,1
0.703923702,-5.763317585,1,-1.623920083,1,-7.755325317,1,0.0006713,1,0.000438275,1,0.00337408,1,0.207306281,1,-0.628113747,1,0.162739083,1,-0.016301632,1,0.004873157,1,-0.011260509,1
0.707923174,-5.794691086,1,-1.650357366,1,-7.758522511,1,0.003409067,1,-0.001178724,1,0.000577099,1,0.207319841,1,-0.628119528,1,0.162736386,1,-0.04762888,1,-0.021466494,1,-0.0145154,1
0.711924732,-5.779036522,1,-1.638705611,1,-7.769105911,1,-0.000134163,1,-0.00559627,1,-0.002174058,1,0.207325518,1,-0.628126562,1,0.162728131,1,-0.031918526,1,-0.009779334,1,-0.025147915,1
0.715922415,-5.771730423,1,-1.600290656,1,-7.777249813,1,0.002329815,1,-0.003424595,1,0.000379414,1,0.207338542,1,-0.628132999,1,0.162720636,1,-0.024561882,1,0.028728843,1,-0.033349991,1
0.719921947,-5.770720005,1,-1.628686786,1,-7.752633095,1,0.000968525,1,-0.004879909,1,-0.002807865,1,0.207346976,1,-0.628143191,1,0.16271776,1,-0.023470879,1,0.000386,1,-0.008804321,1
0.72392267,-5.774972916,1,-1.605099797,1,-7.768266201,1,6.28E-05,1,-0.002307249,1,-0.000907236,1,0.207349181,1,-0.628157079,1,0.162707552,1,-0.02761364,1,0.023973823,1,-0.024518013,1
0.727919638,-5.770535469,1,-1.646421909,1,-7.759773731,1,0.001347163,1,8.16E-05,1,0.00204281,1,0.207346961,1,-0.628161073,1,0.162708282,1,-0.023145199,1,-0.017369628,1,-0.016042709,1
0.731918573,-5.753672123,1,-1.655541301,1,-7.782735825,1,0.00053851,1,-0.000597741,1,-0.00251179,1,0.207345396,1,-0.628171563,1,0.162707508,1,-0.006198406,1,-0.026513457,1,-0.039060116,1
0.735919356,-5.731714725,1,-1.639290214,1,-7.759598732,1,-0.001812107,1,-0.001730685,1,0.000287961,1,0.207345352,1,-0.628185213,1,0.162704185,1,0.015866756,1,-0.010279775,1,-0.016004562,1
0.739916265,-5.772175789,1,-1.683051586,1,-7.769254208,1,-0.002940634,1,-0.002924273,1,0.002602173,1,0.20733048,1,-0.628162026,1,0.162233561,1,-0.024777412,1,-0.054128647,1,-0.025503635,1
0.743915498,-5.772997856,1,-1.696477175,1,-7.758068562,1,-0.005318657,1,0.000282033,1,0.005035238,1,0.207303002,1,-0.628169417,1,0.162255213,1,-0.025541306,1,-0.067775488,1,-0.014312744,1
0.747916818,-5.80613327,1,-1.655742407,1,-7.783668518,1,-0.00354607,1,-0.000625369,1,0.002949581,1,0.207271978,1,-0.628179491,1,0.162277028,1,-0.058596611,1,-0.027293682,1,-0.039922714,1
0.751914501,-5.815822124,1,-1.631764412,1,-7.756701469,1,-0.004289112,1,-0.001734138,1,0.003449243,1,0.20723784,1,-0.628184319,1,0.162299737,1,-0.068247795,1,-0.003584981,1,-0.012924671,1
0.755913198,-5.803269863,1,-1.62068224,1,-7.76612711,1,-0.005803276,1,-0.000265368,1,0.005672526,1,0.207201913,1,-0.628188431,1,0.162322894,1,-0.055662632,1,0.007213831,1,-0.022315502,1
0.759914219,-5.782483578,1,-1.579456568,1,-7.77145052,1,-0.008280562,1,-0.000334314,1,0.001005375,1,0.207171738,1,-0.628189385,1,0.162343442,1,-0.034869194,1,0.048204899,1,-0.027594566,1
0.763911188,-5.760964394,1,-1.572507024,1,-7.802513599,1,-0.003142112,1,0.001190186,1,0.002033318,1,0.207142577,1,-0.628192902,1,0.162360951,1,-0.013322353,1,0.054924607,1,-0.058629513,1
0.76791656,-5.775275707,1,-1.592869163,1,-7.768805981,1,-0.002234012,1,-0.001832244,1,0.004698168,1,0.207120955,1,-0.628192186,1,0.162381068,1,-0.027638912,1,0.034395337,1,-0.024884701,1
0.771918058,-5.777383804,1,-1.561465263,1,-7.782753944,1,0.000256905,1,-0.001407952,1,-0.00185472,1,0.207110792,1,-0.628195524,1,0.162388131,1,-0.029720783,1,0.065716505,1,-0.038835526,1
0.775915802,-5.796800613,1,-1.562967777,1,-7.774580002,1,0.001217626,1,-0.003363733,1,0.004965329,1,0.207106143,1,-0.628202081,1,0.162393853,1,-0.049085617,1,0.06417048,1,-0.030689716,1
0.779914498,-5.795758724,1,-1.555124402,1,-7.776735306,1,-0.001765224,1,-0.005869825,1,0.000788679,1,0.207113639,1,-0.62821269,1,0.162393078,1,-0.047959328,1,0.072059393,1,-0.032916546,1
0.78391552,-5.784809589,1,-1.563315988,1,-7.790315628,1,0.004907586,1,-0.001154638,1,-0.005917418,1,0.20712702,1,-0.628220975,1,0.162389725,1,-0.036944866,1,0.063961864,1,-0.046564102,1
0.787912726,-5.777305126,1,-1.581645966,1,-7.797154903,1,0.000179718,1,-0.002771385,1,-0.001044682,1,0.207153171,1,-0.628228843,1,0.162372008,1,-0.029377937,1,0.045824885,1,-0.053491116,1
0.791911662,-5.761389256,1,-1.584590554,1,-7.791914463,1,0.007313972,1,-0.007259385,1,-0.003136446,1,0.207174212,1,-0.628238499,1,0.162362307,1,-0.013385773,1,0.043031693,1,-0.048340797,1
0.795913219,-5.773714542,1,-1.627377391,1,-7.785275936,1,0.008195512,1,-0.002205175,1,0.002803237,1,0.207202122,1,-0.628257394,1,0.162353128,1,-0.025561333,1,0.00043869,1,-0.041852951,1
0.799911141,-5.725411892,1,-1.619566917,1,-7.773491383,1,0.005646318,1,-0.00525191,1,-0.002506505,1,0.207242146,1,-0.628274322,1,0.162337348,1,0.022874832,1,0.008539319,1,-0.030227661,1
0.803910673,-5.782045841,1,-1.636321425,1,-7.746193886,1,0.004865635,1,-0.007345448,1,-0.000950065,1,0.207267135,1,-0.628309131,1,0.162328541,1,-0.033483982,1,-0.008063197,1,-0.003168106,1
0.807911932,-5.796649456,1,-1.66167295,1,-7.788599014,1,0.003616662,1,-0.009045849,1,9.71E-05,1,0.207291737,1,-0.628339231,1,0.1623182,1,-0.047849178,1,-0.033260107,1,-0.045783997,1
0.811909378,-5.769159317,1,-1.646669149,1,-7.788739204,1,0.001099815,1,-0.009539507,1,-0.000469846,1,0.207314298,1,-0.628370881,1,0.16230303,1,-0.020108223,1,-0.018118978,1,-0.046138763,1
0.815908372,-5.757510662,1,-1.658761621,1,-7.785624981,1,0.000538643,1,-0.008342724,1,-0.001705027,1,0.207325786,1,-0.628401756,1,0.162299797,1,-0.008215904,1,-0.030158997,1,-0.043216705,1
0.819909096,-5.789068222,1,-1.664157152,1,-7.793741226,1,-0.000548931,1,-0.008818034,1,-0.00042633,1,0.207338139,1,-0.628434896,1,0.162284508,1,-0.039511204,1,-0.035498023,1,-0.051538944,1
0.823906064,-5.78523016,1,-1.662459016,1,-7.791465282,1,-0.000839435,1,-0.00403272,1,0.001781303,1,0.207347184,1,-0.628467739,1,0.162288383,1,-0.035413265,1,-0.033768892,1,-0.049463749,1
0.827904999,-5.78822422,1,-1.651490688,1,-7.766086578,1,0.005110286,1,-0.006148371,1,0.004360093,1,0.207355663,1,-0.62849921,1,0.162291512,1,-0.038158417,1,-0.022771835,1,-0.024274349,1
0.831906319,-5.754744053,1,-1.634469271,1,-7.752644539,1,-0.001897292,1,-0.009654304,1,0.000849288,1,0.207355455,1,-0.628524899,1,0.162299901,1,-0.00447464,1,-0.005782485,1,-0.010976315,1
0.835904241,-5.7711339,1,-1.59724164,1,-7.777024269,1,0.002382614,1,-0.007399027,1,-0.000693804,1,0.207356259,1,-0.628555417,1,0.16230312,1,-0.020623207,1,0.031414866,1,-0.035531044,1
0.839903772,-5.758818626,1,-1.59900403,1,-7.77565527,1,-0.000149598,1,-0.006626611,1,0.002829414,1,0.207361385,1,-0.628584206,1,0.162304431,1,-0.008080482,1,0.029658794,1,-0.034328938,1
0.843910635,-5.782251358,1,-1.615988374,1,-7.763592243,1,0.001467578,1,-0.011772431,1,0.00608011,1,0.207354531,1,-0.628615081,1,0.162316933,1,-0.031268597,1,0.012584805,1,-0.022428989,1
0.847913742,-5.757888317,1,-1.609378219,1,-7.76422739,1,0.001516085,1,-0.004200879,1,0.000923558,1,0.20735994,1,-0.628649354,1,0.162320271,1,-0.006634235,1,0.019196153,1,-0.023265839,1
0.851912677,-5.77861166,1,-1.590972066,1,-7.804268837,1,0.004132152,1,-0.007138312,1,-0.000995904,1,0.207370251,1,-0.628675282,1,0.162318349,1,-0.027152538,1,0.037651539,1,-0.06346941,1
0.855913699,-5.78660965,1,-1.609719038,1,-7.752353668,1,0.001247237,1,-0.011302358,1,0.004796375,1,0.207381591,1,-0.628716886,1,0.162320733,1,-0.034821987,1,0.018943548,1,-0.011805534,1
0.859910667,-5.77661705,1,-1.566871524,1,-7.77130127,1,0.003346827,1,-0.009438895,1,0.001712565,1,0.207392544,1,-0.628758252,1,0.162319288,1,-0.024501324,1,0.061825871,1,-0.031007767,1
0.8639099,-5.798985004,1,-1.590242386,1,-7.782207012,1,0.0042162,1,-0.010744488,1,0.003569289,1,0.207408622,1,-0.628803968,1,0.162317827,1,-0.046508789,1,0.038525224,1,-0.042197227,1
0.867911398,-5.775607586,1,-1.58833766,1,-7.756912231,1,0.005745256,1,-0.010509463,1,0.003044218,1,0.207428828,1,-0.628847122,1,0.162319958,1,-0.022789478,1,0.04053545,1,-0.017177105,1
0.871909142,-5.778110027,1,-1.58871007,1,-7.757552147,1,0.005820951,1,-0.010632336,1,-0.002323426,1,0.207457826,1,-0.62888968,1,0.162305281,1,-0.024955273,1,0.040337086,1,-0.0181036,1
0.875908613,-5.775039673,1,-1.582052469,1,-7.753447056,1,0.007171721,1,-0.010515613,1,0.001585421,1,0.207487747,1,-0.628929615,1,0.16229327,1,-0.021569252,1,0.047179222,1,-0.014271736,1
0.879909635,-5.788654327,1,-1.612169385,1,-7.759034634,1,0.004718932,1,-0.010581182,1,-0.003481125,1,0.207513466,1,-0.628976345,1,0.162293121,1,-0.034813881,1,0.017205238,1,-0.020166874,1
0.883906543,-5.785153389,1,-1.642926931,1,-7.761166096,1,0.008793625,1,-0.010273723,1,0.000217529,1,0.207551777,1,-0.629021764,1,0.162277564,1,-0.030953884,1,-0.013309479,1,-0.02261591,1
0.887906313,-5.782835484,1,-1.647825956,1,-7.777062893,1,0.003453643,1,-0.011242041,1,0.002320928,1,0.207578257,1,-0.629069507,1,0.162269324,1,-0.028258801,1,-0.018060088,1,-0.038823128,1
0.891907334,-5.78604269,1,-1.619386196,1,-7.76950407,1,0.005407192,1,-0.007863767,1,-0.00168439,1,0.20759432,1,-0.62910831,1,0.162264377,1,-0.031158924,1,0.01045835,1,-0.031507492,1
0.895904541,-5.781105042,1,-1.64326036,1,-7.734141827,1,0.003508206,1,-0.009946711,1,0.001664708,1,0.207609341,1,-0.629146695,1,0.162259206,1,-0.02591753,1,-0.013344884,1,0.003614426,1
0.899904013,-5.804020405,1,-1.681553364,1,-7.740507603,1,0.000820021,1,-0.005485665,1,0.001244306,1,0.20762758,1,-0.629182458,1,0.162256971,1,-0.048550606,1,-0.051539302,1,-0.002981663,1
0.903905511,-5.802127361,1,-1.647444963,1,-7.763439178,1,0.001838607,1,-0.006163352,1,0.002884728,1,0.207631916,1,-0.629208386,1,0.162256226,1,-0.046452522,1,-0.017428994,1,-0.026070595,1
0.907902956,-5.780573845,1,-1.686362386,1,-7.750066757,1,0.002556214,1,-0.007400809,1,0.004142012,1,0.207631037,1,-0.629235923,1,0.16226463,1,-0.024681091,1,-0.056385398,1,-0.012850761,1
0.911901712,-5.791368484,1,-1.663444519,1,-7.740432262,1,-0.005502785,1,-0.006414078,1,0.000704597,1,0.207623124,1,-0.62926209,1,0.162272587,1,-0.035268784,1,-0.033559799,1,-0.003350735,1
0.915902734,-5.821603775,1,-1.647633195,1,-7.750429153,1,-0.002927671,1,-0.001426168,1,0.00509763,1,0.207601175,1,-0.629283011,1,0.162280872,1,-0.065338135,1,-0.017943025,1,-0.013429165,1
0.919900179,-5.788046837,1,-1.626331568,1,-7.75387001,1,0.00037033,1,-0.004398653,1,0.000185994,1,0.207589492,1,-0.629295409,1,0.162296146,1,-0.031683922,1,0.003253579,1,-0.016919613,1
0.923905551,-5.813364983,1,-1.601220608,1,-7.753079891,1,-0.002773327,1,-0.003359586,1,0.005328576,1,0.207581788,1,-0.629310131,1,0.162307084,1,-0.056885719,1,0.028287649,1,-0.016200066,1
0.92790705,-5.775728703,1,-1.614880204,1,-7.760278225,1,-0.002859168,1,-0.001241913,1,0.004234968,1,0.207555518,1,-0.629323125,1,0.162330225,1,-0.019146442,1,0.014409423,1,-0.023427963,1
0.931905031,-5.82514286,1,-1.606208205,1,-7.781449318,1,0.001646244,1,-0.003502741,1,-0.000135511,1,0.207545117,1,-0.629340887,1,0.162341386,1,-0.068419933,1,0.022979617,1,-0.044683933,1
0.935903728,-5.774865627,1,-1.574879766,1,-7.775750637,1,0.00325945,1,0.000645799,1,0.00373789,1,0.207539722,1,-0.62935406,1,0.162348688,1,-0.01803875,1,0.054251075,1,-0.039048672,1
0.939904511,-5.770704746,1,-1.540282249,1,-7.781741142,1,-0.001429535,1,-0.005566119,1,-0.00047217,1,0.207544744,1,-0.629366219,1,0.162355274,1,-0.013781548,1,0.088873267,1,-0.045114994,1
0.94390142,-5.745388985,1,-1.544867396,1,-7.759877205,1,0.003702821,1,-0.004228687,1,-0.00179694,1,0.207553238,1,-0.629377604,1,0.162353173,1,0.011624336,1,0.084339738,1,-0.023331165,1
0.947900414,-5.743122578,1,-1.584356785,1,-7.773948193,1,0.007064432,1,-0.003691716,1,-0.00180265,1,0.207572624,1,-0.629395247,1,0.162345409,1,0.014029503,1,0.044979095,1,-0.037534714,1
0.951902211,-5.788662434,1,-1.630154848,1,-7.752894878,1,0.005365853,1,-0.002864652,1,-0.001004224,1,0.207604289,1,-0.629412115,1,0.162334248,1,-0.031376362,1,-0.000593901,1,-0.016627789,1
0.955900133,-5.802688122,1,-1.657797217,1,-7.75585413,1,0.001106229,1,-0.005975826,1,-0.001375222,1,0.207618475,1,-0.629424751,1,0.16232188,1,-0.045302391,1,-0.028141737,1,-0.019681931,1
0.959899127,-5.81904459,1,-1.602694273,1,-7.720761776,1,0.002092529,1,-0.00328732,1,-0.001152273,1,0.20763661,1,-0.629437447,1,0.162312686,1,-0.061558247,1,0.027086496,1,0.015309334,1
0.963900149,-5.817234993,1,-1.560350299,1,-7.747478008,1,0.00055692,1,0.000299602,1,-0.003748967,1,0.207656294,1,-0.62943691,1,0.16229789,1,-0.059752941,1,0.069583535,1,-0.011435032,1
0.967897117,-5.796298981,1,-1.56032443,1,-7.727661133,1,0.005746211,1,-0.000555118,1,-0.002671259,1,0.207679361,1,-0.629436791,1,0.162285134,1,-0.038817883,1,0.069787979,1,0.008345127,1
0.971896052,-5.791949749,1,-1.617118001,1,-7.760114193,1,0.006393583,1,-0.001077478,1,-0.002429459,1,0.207707629,1,-0.629441023,1,0.162274078,1,-0.034434795,1,0.013208151,1,-0.024177551,1
0.975897372,-5.786879539,1,-1.650670648,1,-7.738288879,1,0.005830523,1,7.26E-05,1,-0.003221028,1,0.207745507,1,-0.629448116,1,0.16225192,1,-0.029309273,1,-0.020060062,1,-0.002454758,1
0.979895055,-5.807646751,1,-1.664436102,1,-7.762604237,1,0.003139601,1,0.0008399,1,-0.007128754,1,0.207772478,1,-0.629445851,1,0.162230268,1,-0.050094128,1,-0.033614159,1,-0.026801109,1
0.983900189,-5.786278725,1,-1.687840819,1,-7.756393909,1,0.007765234,1,-0.000241571,1,0.000177304,1,0.207808465,1,-0.629436851,1,0.162208483,1,-0.02879715,1,-0.056729913,1,-0.020599365,1
0.987901211,-5.781364441,1,-1.718015075,1,-7.762730122,1,-0.00050359,1,0.001901298,1,9.70E-05,1,0.207785159,1,-0.629455328,1,0.16227828,1,-0.023737431,1,-0.087106347,1,-0.027000904,1
0.991898119,-5.80385685,1,-1.62125659,1,-7.765736103,1,0.003093637,1,0.004527947,1,-0.002756059,1,0.207814038,1,-0.629387498,1,0.161748111,1,-0.046765327,1,0.009956241,1,-0.029671669,1
0.995897591,-5.760059357,1,-1.622796535,1,-7.793716908,1,0.003931663,1,0.005441549,1,-8.46E-05,1,0.207824305,1,-0.629377127,1,0.161741346,1,-0.00304985,1,0.008508086,1,-0.057610989,1
0.999899149,-5.79664135,1,-1.647053123,1,-7.769198418,1,-0.000417919,1,0.000683834,1,-0.000623496,1,0.207828552,1,-0.62936908,1,0.161739141,1,-0.03969574,1,-0.015706182,1,-0.033053875,1
1.003901958,-5.798337936,1,-1.653326273,1,-7.774691105,1,0.004602673,1,0.001251708,1,-0.000112989,1,0.207838565,1,-0.629366994,1,0.161736652,1,-0.041409016,1,-0.021898985,1,-0.0385499,1
1.007900953,-5.783175468,1,-1.613049507,1,-7.77828598,1,-0.000728517,1,0.003332451,1,0.001679096,1,0.207841456,1,-0.629360497,1,0.161738724,1,-0.026298046,1,0.018407702,1,-0.042113304,1
1.011901736,-5.801673889,1,-1.626641273,1,-7.759092808,1,0.000187763,1,-0.000174738,1,-9.53E-05,1,0.20783855,1,-0.629346251,1,0.161743954,1,-0.044909,1,0.004810452,1,-0.022834778,1
1.015898824,-5.790516853,1,-1.606293678,1,-7.747557163,1,0.002391922,1,0.002132936,1,0.001149772,1,0.207833901,1,-0.629349768,1,0.16174899,1,-0.033723831,1,0.025117874,1,-0.011311531,1
1.019898415,-5.751185417,1,-1.607256055,1,-7.77338171,1,-0.00018641,1,0.003444401,1,-0.000291499,1,0.207837984,1,-0.629339755,1,0.161743969,1,0.00552845,1,0.024199128,1,-0.03708601,1
1.023899674,-5.781664848,1,-1.601372242,1,-7.743983746,1,0.000983194,1,0.00148319,1,0.000674102,1,0.207827404,1,-0.629333794,1,0.161753461,1,-0.024998188,1,0.030007839,1,-0.007638931,1
1.027897596,-5.776575089,1,-1.581919074,1,-7.780843258,1,0.001249424,1,-0.000560369,1,0.001102972,1,0.207825541,1,-0.629333436,1,0.161755592,1,-0.019911289,1,0.04944706,1,-0.044493198,1
1.03189683,-5.78704977,1,-1.621429324,1,-7.781000614,1,0.001435543,1,0.00089382,1,0.000449431,1,0.207824767,1,-0.629330456,1,0.161759913,1,-0.030409336,1,0.009933829,1,-0.044634342,1
1.035897613,-5.776751518,1,-1.60942781,1,-7.78079319,1,0.000359682,1,0.000499251,1,-0.000622035,1,0.207825482,1,-0.629330516,1,0.161761478,1,-0.020110607,1,0.021941423,1,-0.044425964,1
1.039894581,-5.788199902,1,-1.621423006,1,-7.781420231,1,0.005104734,1,0.002538576,1,-0.001565637,1,0.207845271,1,-0.629327536,1,0.161755025,1,-0.031582355,1,0.010102749,1,-0.045068741,1
1.043894053,-5.802190304,1,-1.584425688,1,-7.757866383,1,-0.001443582,1,0.001556237,1,-0.001308054,1,0.207852811,1,-0.629329741,1,0.161756545,1,-0.045555592,1,0.047156334,1,-0.021537304,1
1.047895789,-5.80908823,1,-1.557311773,1,-7.749358654,1,0.002516899,1,-0.002823721,1,-0.002833998,1,0.207866117,1,-0.629325926,1,0.161735386,1,-0.052484035,1,0.074376941,1,-0.01303339,1
1.051893711,-5.764420509,1,-1.560158491,1,-7.744127274,1,0.004657605,1,0.004373057,1,-0.004858512,1,0.207889766,1,-0.629327416,1,0.161719412,1,-0.007803917,1,0.071711302,1,-0.007849693,1
1.055892706,-5.786761284,1,-1.58549726,1,-7.744573593,1,0.004868875,1,0.000876909,1,-0.007367319,1,0.207916483,1,-0.629316568,1,0.161702424,1,-0.030230522,1,0.046591997,1,-0.008278847,1
1.059893727,-5.79194355,1,-1.608662009,1,-7.729876995,1,0.002906312,1,0.000417239,1,-0.004117257,1,0.207952693,1,-0.629304826,1,0.161670119,1,-0.035505295,1,0.023721695,1,0.006426811,1
1.063890934,-5.764426231,1,-1.617995977,1,-7.715656757,1,0.006276435,1,0.002448776,1,-0.004866791,1,0.207975581,1,-0.62929219,1,0.161656052,1,-0.008088589,1,0.014580011,1,0.020682335,1
1.067890406,-5.77589035,1,-1.55557251,1,-7.736207485,1,0.001448607,1,0.0004588,1,-0.005031985,1,0.208003178,1,-0.629276037,1,0.161633819,1,-0.019680023,1,0.077236176,1,0.00017643,1
1.071891665,-5.806213856,1,-1.555297613,1,-7.733408928,1,0.007747406,1,0.005416522,1,-0.008809812,1,0.208038986,1,-0.629259467,1,0.161602661,1,-0.050135136,1,0.077807665,1,0.003009796,1
1.075889111,-5.781320095,1,-1.619560122,1,-7.776081085,1,0.004653452,1,-0.000675217,1,-0.005139957,1,0.208081171,1,-0.62924844,1,0.161571354,1,-0.025328159,1,0.013884783,1,-0.039669514,1
1.079894066,-5.765999794,1,-1.649959326,1,-7.74141264,1,0.005842249,1,-0.001040684,1,-0.006890259,1,0.208129719,1,-0.629236042,1,0.161531493,1,-0.01010561,1,-0.016124129,1,-0.005009651,1
1.083895087,-5.782095432,1,-1.65705359,1,-7.765626907,1,0.007859121,1,-0.000163587,1,-0.009027682,1,0.208181545,1,-0.629224002,1,0.161494538,1,-0.026297092,1,-0.02280283,1,-0.029240131,1
1.087891936,-5.801964283,1,-1.6560359,1,-7.765294075,1,0.003464865,1,-0.000982794,1,-0.009980685,1,0.208217412,1,-0.629208744,1,0.161465719,1,-0.046286583,1,-0.021489859,1,-0.028881073,1
1.091890931,-5.805356026,1,-1.662988067,1,-7.787320614,1,0.006316682,1,0.004112861,1,-0.007781738,1,0.208260849,1,-0.629198313,1,0.161433727,1,-0.049760818,1,-0.028093457,1,-0.050919533,1
1.095892429,-5.795385838,1,-1.659103751,1,-7.767837048,1,0.005732511,1,0.000737647,1,-0.00705486,1,0.208296835,1,-0.629185379,1,0.161401734,1,-0.039892673,1,-0.023915291,1,-0.031421661,1
1.099890232,-5.788733482,1,-1.666337013,1,-7.77744627,1,0.003367456,1,0.004586846,1,-0.000359126,1,0.208326831,1,-0.629175305,1,0.16137825,1,-0.033320427,1,-0.030904889,1,-0.041025162,1
1.103889704,-5.744111538,1,-1.674215436,1,-7.758149624,1,0.000357602,1,0.000655659,1,-0.004546343,1,0.208349004,1,-0.629167557,1,0.161365107,1,0.011240482,1,-0.038602352,1,-0.021719933,1
1.107890487,-5.779591084,1,-1.660111785,1,-7.766617298,1,-0.000494536,1,0.004611027,1,0.000780107,1,0.208357558,1,-0.62915808,1,0.161353961,1,-0.024313927,1,-0.024421453,1,-0.030148983,1
1.111887574,-5.776656151,1,-1.597259045,1,-7.727993488,1,0.000243453,1,0.00389215,1,-0.006896129,1,0.208374098,1,-0.629144728,1,0.161344945,1,-0.021484852,1,0.038575292,1,0.008522511,1
1.115886331,-5.806041241,1,-1.613835692,1,-7.757877827,1,0.005648665,1,0.005986628,1,-0.007216222,1,0.208397076,1,-0.629132807,1,0.16132088,1,-0.050963879,1,0.02219069,1,-0.02133131,1
1.119887352,-5.773463249,1,-1.636063218,1,-7.725943089,1,0.002201717,1,0.002027482,1,-0.004352313,1,0.208422855,1,-0.629107416,1,0.161298782,1,-0.018587112,1,0.000193119,1,0.010705471,1
1.123884797,-5.794673443,1,-1.616799116,1,-7.785309315,1,0.004982631,1,0.001850923,1,-0.006095457,1,0.208445191,1,-0.629095972,1,0.161280572,1,-0.039887428,1,0.019643784,1,-0.048631668,1
1.127883792,-5.753995895,1,-1.54665494,1,-7.738873959,1,0.003149502,1,0.001007587,1,-0.005332146,1,0.208472326,1,-0.629086018,1,0.161260501,1,0.000711441,1,0.090009212,1,-0.002188206,1
1.131884813,-5.776267052,1,-1.563579321,1,-7.780738354,1,0.006247439,1,0.003906167,1,-0.006829569,1,0.208508462,1,-0.629073024,1,0.161236644,1,-0.021661758,1,0.073380113,1,-0.044037342,1
1.135881782,-5.789512157,1,-1.586518526,1,-7.728112698,1,0.003939202,1,0.006623538,1,-0.008082779,1,0.208546236,1,-0.629051805,1,0.161203355,1,-0.035074711,1,0.050758362,1,0.008645535,1
1.139881015,-5.767531395,1,-1.621165752,1,-7.769659042,1,0.005081933,1,0.002562447,1,-0.009550044,1,0.208594233,1,-0.62902534,1,0.161160499,1,-0.01330328,1,0.016513348,1,-0.032832623,1
1.143882036,-5.779428005,1,-1.613036513,1,-7.743613243,1,0.011667076,1,0.006150631,1,-0.010142894,1,0.208651617,1,-0.629002631,1,0.161112905,1,-0.025380135,1,0.025114417,1,-0.006750107,1
1.147879124,-5.756076813,1,-1.623023868,1,-7.748576641,1,0.007216805,1,0.001400702,1,-0.012455815,1,0.208715603,1,-0.628980815,1,0.16106829,1,-0.002201557,1,0.015648007,1,-0.011695385,1
1.151878357,-5.756281853,1,-1.587440252,1,-7.7590518,1,0.011540878,1,0.003633377,1,-0.009851491,1,0.208770797,1,-0.628954709,1,0.161014602,1,-0.002612591,1,0.051689863,1,-0.022112846,1
1.155879736,-5.769631863,1,-1.525635242,1,-7.769368172,1,0.00800118,1,0.002123914,1,-0.011605492,1,0.208837464,1,-0.62892884,1,0.160958678,1,-0.016167641,1,0.114041805,1,-0.032392502,1
1.159882545,-5.760642529,1,-1.538912177,1,-7.756233692,1,0.014365074,1,0.003323201,1,-0.019069979,1,0.208929166,1,-0.628907681,1,0.160885677,1,-0.0073452,1,0.101499557,1,-0.019289494,1
1.163881779,-5.775507927,1,-1.482623339,1,-7.730572224,1,0.012502827,1,-0.004147004,1,-0.018776553,1,0.209035039,1,-0.628893614,1,0.160795346,1,-0.022322655,1,0.158624172,1,0.006276608,1
1.167883039,-5.750932217,1,-1.454336405,1,-7.750204086,1,0.016730722,1,-0.00041448,1,-0.022060903,1,0.209154874,1,-0.628877461,1,0.160695806,1,0.00212574,1,0.18785727,1,-0.013462543,1
1.171880484,-5.794622898,1,-1.45314014,1,-7.810584545,1,0.022028819,1,-0.003811025,1,-0.027145158,1,0.20930849,1,-0.628864646,1,0.160575211,1,-0.041666031,1,0.19025743,1,-0.07402277,1
1.175879478,-5.744233131,1,-1.419228435,1,-7.78494072,1,0.023043014,1,-0.003861087,1,-0.030225135,1,0.20949927,1,-0.628852308,1,0.160423636,1,0.008625984,1,0.225659847,1,-0.048622608,1
1.1798805,-5.767793179,1,-1.427422762,1,-7.813893795,1,0.032246724,1,-0.007034062,1,-0.036846425,1,0.209706098,1,-0.62883842,1,0.160256162,1,-0.015043259,1,0.219082355,1,-0.07783699,1
1.183877587,-5.753366947,1,-1.42920208,1,-7.771233559,1,0.037314873,1,-0.007652009,1,-0.04253285,1,0.209954128,1,-0.628824472,1,0.160059407,1,-0.00072813,1,0.219237804,1,-0.035510063,1
1.187876344,-5.773830414,1,-1.459324956,1,-7.729617596,1,0.039872821,1,-0.009682932,1,-0.039832637,1,0.21022138,1,-0.628822923,1,0.15985775,1,-0.021203518,1,0.191184402,1,0.005674362,1
1.191877127,-5.762376308,1,-1.571505547,1,-7.730470657,1,0.041493818,1,-0.009172162,1,-0.041619644,1,0.210501119,1,-0.628820121,1,0.159664035,1,-0.009771824,1,0.081171155,1,0.004376411,1
1.195874095,-5.784536839,1,-1.535644412,1,-7.702809334,1,0.04351579,1,-0.007885826,1,-0.041425079,1,0.210797742,1,-0.6288082,1,0.159451947,1,-0.032026768,1,0.119341135,1,0.031613827,1
1.199873328,-5.790620804,1,-1.521740437,1,-7.689332008,1,0.044010188,1,-0.005210571,1,-0.044508744,1,0.21110557,1,-0.628790259,1,0.159239724,1,-0.038252831,1,0.13564682,1,0.044679165,1
1.203874588,-5.79597187,1,-1.548463106,1,-7.691162586,1,0.054881569,1,-0.000329225,1,-0.045653071,1,0.211434871,1,-0.628767014,1,0.159018099,1,-0.043787003,1,0.111499429,1,0.042436123,1
1.207872272,-5.814931393,1,-1.591948032,1,-7.693273067,1,0.049534939,1,-0.003420313,1,-0.045739353,1,0.211765379,1,-0.628732502,1,0.158797279,1,-0.063019753,1,0.070611596,1,0.039968014,1
1.211871266,-5.790097237,1,-1.599356532,1,-7.679481506,1,0.052572921,1,-0.001235688,1,-0.050924402,1,0.21210742,1,-0.628698885,1,0.158569202,1,-0.038451672,1,0.065889239,1,0.05338192,1
1.215872049,-5.832043648,1,-1.668068171,1,-7.663733482,1,0.053566176,1,0.000852637,1,-0.050705843,1,0.212458968,1,-0.628653347,1,0.158338159,1,-0.080758095,1,-4.90E-05,1,0.068799019,1
1.219868898,-5.798498631,1,-1.686870813,1,-7.670414925,1,0.054229863,1,0.004782198,1,-0.047081806,1,0.212807447,1,-0.628602743,1,0.158109784,1,-0.047613621,1,-0.016095161,1,0.061821938,1
1.22386837,-5.799550533,1,-1.656965494,1,-7.691399574,1,0.053328495,1,0.002968405,1,-0.048362691,1,0.213156089,1,-0.628548265,1,0.157878786,1,-0.049096584,1,0.016571999,1,0.040560246,1
1.227869987,-5.788160801,1,-1.626497149,1,-7.71885252,1,0.053421479,1,0.002863446,1,-0.048984345,1,0.213499144,1,-0.628489971,1,0.157653496,1,-0.038167953,1,0.049763441,1,0.012859344,1
1.231867433,-5.768241882,1,-1.52874136,1,-7.759906769,1,0.056473702,1,0.001753992,1,-0.057697397,1,0.213874057,1,-0.628430963,1,0.157402635,1,-0.018715858,1,0.150490284,1,-0.028490067,1
1.23586607,-5.742875576,1,-1.475987554,1,-7.743362904,1,0.06303151,1,-0.001146477,1,-0.063350521,1,0.214274496,1,-0.628375053,1,0.157121018,1,0.006207943,1,0.206408262,1,-0.012306213,1
1.239873528,-5.772983074,1,-1.455810547,1,-7.78715086,1,0.071464747,1,-0.004130133,1,-0.063320555,1,0.214635044,1,-0.628323913,1,0.156482503,1,-0.024303913,1,0.229435325,1,-0.056412697,1
1.243877172,-5.804226875,1,-1.563672543,1,-7.781731606,1,0.069617823,1,-0.004019584,1,-0.062128693,1,0.215101689,1,-0.628288507,1,0.156175166,1,-0.055827618,1,0.12522316,1,-0.051586628,1
1.247876883,-5.829428196,1,-1.711000562,1,-7.757724762,1,0.069110803,1,-0.004002964,1,-0.066765979,1,0.215567291,1,-0.628246784,1,0.155856848,1,-0.081359386,1,-0.018453836,1,-0.028129578,1
1.251878381,-5.801639557,1,-1.763264537,1,-7.754402161,1,0.070144437,1,-0.00637672,1,-0.064162701,1,0.216036126,1,-0.628210068,1,0.155540511,1,-0.053861141,1,-0.067048669,1,-0.025393963,1
1.255876064,-5.802792072,1,-1.789316177,1,-7.739264488,1,0.07046409,1,0.003837013,1,-0.059938535,1,0.216490939,1,-0.628162622,1,0.155244946,1,-0.055388927,1,-0.089526534,1,-0.010762215,1
1.259875059,-5.789331436,1,-1.79128027,1,-7.737275124,1,0.067993872,1,0.002062412,1,-0.058119718,1,0.216933846,1,-0.628112435,1,0.154962659,1,-0.042325497,1,-0.088005781,1,-0.009244919,1
1.263876081,-5.854003906,1,-1.80906558,1,-7.687954903,1,0.064186059,1,0.003267691,1,-0.053311821,1,0.217355937,1,-0.628057063,1,0.154699564,1,-0.10743618,1,-0.102460861,1,0.039666176,1
1.267873287,-5.835428238,1,-1.826649785,1,-7.699666023,1,0.061556995,1,0.008713251,1,-0.050531283,1,0.21774438,1,-0.627987266,1,0.15445444,1,-0.089412689,1,-0.11695683,1,0.027682781,1
1.271872759,-5.840084076,1,-1.837318063,1,-7.662151337,1,0.05999497,1,0.006393588,1,-0.047404684,1,0.218130454,1,-0.62791425,1,0.154227719,1,-0.094646931,1,-0.1245507,1,0.064948559,1
1.275873542,-5.814857006,1,-1.830173373,1,-7.655724049,1,0.058225907,1,0.014823661,1,-0.042336669,1,0.218494207,1,-0.627832055,1,0.15401639,1,-0.070070267,1,-0.114493847,1,0.071209431,1
1.27987051,-5.829744816,1,-1.821619511,1,-7.676615715,1,0.05148093,1,0.016787883,1,-0.040838562,1,0.218824565,1,-0.627734363,1,0.153828889,1,-0.08573103,1,-0.103265762,1,0.050297737,1
1.283869386,-5.816152573,1,-1.808861017,1,-7.636705875,1,0.052861877,1,0.018693099,1,-0.03837987,1,0.219135031,1,-0.627628148,1,0.153655291,1,-0.072979927,1,-0.087975979,1,0.090268612,1
1.287870169,-5.821160316,1,-1.778591275,1,-7.691357136,1,0.048262835,1,0.02031756,1,-0.039626542,1,0.219430923,1,-0.627513826,1,0.15348573,1,-0.078892231,1,-0.05527699,1,0.035748482,1
1.291867375,-5.814957619,1,-1.750386,1,-7.680850506,1,0.044898257,1,0.022207014,1,-0.036253568,1,0.219714999,1,-0.627395153,1,0.153333232,1,-0.073629379,1,-0.024727941,1,0.046431065,1
1.295867085,-5.81325388,1,-1.739724874,1,-7.673925877,1,0.045140482,1,0.023719085,1,-0.035243455,1,0.219995409,1,-0.627269089,1,0.153175831,1,-0.07292366,1,-0.011742115,1,0.0535779,1
1.299868703,-5.843518734,1,-1.739811659,1,-7.675355434,1,0.045813169,1,0.02527241,1,-0.036006261,1,0.220266312,1,-0.627149701,1,0.153032169,1,-0.104134083,1,-0.009585977,1,0.052349091,1
1.303866625,-5.823149204,1,-1.74803412,1,-7.687191963,1,0.041626155,1,0.03056583,1,-0.035649836,1,0.220540449,1,-0.62700063,1,0.152886793,1,-0.084945679,1,-0.015502334,1,0.040874958,1
1.307866096,-5.813056946,1,-1.695623755,1,-7.708305359,1,0.049055196,1,0.038338609,1,-0.037606243,1,0.220810995,1,-0.626846969,1,0.152739465,1,-0.076069832,1,0.039191961,1,0.020152569,1
1.311866879,-5.759968281,1,-1.686506867,1,-7.734081268,1,0.049803223,1,0.034881547,1,-0.037184991,1,0.221095815,1,-0.626669705,1,0.152592987,1,-0.024385452,1,0.05073297,1,-0.005124569,1
1.315870523,-5.743608475,1,-1.61755836,1,-7.781783581,1,0.049949061,1,0.037936263,1,-0.034101613,1,0.221374005,1,-0.626492262,1,0.152466342,1,-0.009431839,1,0.122055292,1,-0.052316189,1
1.319869995,-5.699822426,1,-1.660347819,1,-7.854467869,1,0.051041998,1,0.035085544,1,-0.037179537,1,0.221657723,1,-0.62631458,1,0.152330741,1,0.032947063,1,0.081681967,1,-0.124504089,1
1.323871493,-5.770844936,1,-1.707275629,1,-7.819083214,1,0.055577233,1,0.039069004,1,-0.036645155,1,0.221955135,1,-0.626137018,1,0.152185351,1,-0.039482594,1,0.037277341,1,-0.088644505,1
1.327869415,-5.753481865,1,-1.747562051,1,-7.796517372,1,0.054098092,1,0.036227986,1,-0.035363428,1,0.222252429,1,-0.625962198,1,0.152054355,1,-0.023504734,1,-0.000490189,1,-0.065621376,1
1.331868887,-5.792613506,1,-1.819359779,1,-7.816975594,1,0.057568338,1,0.037711449,1,-0.037069518,1,0.22255753,1,-0.62578541,1,0.151913047,1,-0.064038277,1,-0.069705725,1,-0.085625172,1
1.335869908,-5.755427837,1,-1.791661739,1,-7.842069149,1,0.048880775,1,0.032685779,1,-0.033899736,1,0.222847357,1,-0.625614405,1,0.151776001,1,-0.028208256,1,-0.039550424,1,-0.110270023,1
1.339867115,-5.727000237,1,-1.751953006,1,-7.815695763,1,0.052132186,1,0.037903115,1,-0.032097686,1,0.223121181,1,-0.625450492,1,0.151659235,1,-0.001080036,1,0.002482891,1,-0.083461761,1
1.343865871,-5.694987297,1,-1.762167931,1,-7.81953001,1,0.049734205,1,0.029786851,1,-0.029593246,1,0.223382041,1,-0.625288069,1,0.15154618,1,0.029644966,1,-0.005509377,1,-0.086849213,1
1.347866893,-5.729385376,1,-1.753680825,1,-7.811511517,1,0.0459814,1,0.031299181,1,-0.031480711,1,0.22364746,1,-0.62514329,1,0.151433706,1,-0.005901814,1,0.005214095,1,-0.078487873,1
1.351863861,-5.762488365,1,-1.807247162,1,-7.813873291,1,0.043928422,1,0.028493807,1,-0.030754976,1,0.223890901,1,-0.624994576,1,0.151322141,1,-0.040183544,1,-0.046281099,1,-0.080449581,1
1.355863333,-5.740383148,1,-1.828381896,1,-7.804219723,1,0.045627873,1,0.025751552,1,-0.023582978,1,0.224124625,1,-0.624860883,1,0.151233956,1,-0.01913929,1,-0.065438032,1,-0.070460796,1
1.359864831,-5.728355885,1,-1.888134599,1,-7.781433105,1,0.038364317,1,0.028146574,1,-0.021462342,1,0.224338815,1,-0.624731302,1,0.151145458,1,-0.00813961,1,-0.123369575,1,-0.047329903,1
1.363862514,-5.72431469,1,-1.91319108,1,-7.818749905,1,0.035056878,1,0.026763661,1,-0.017381754,1,0.224529162,1,-0.624616206,1,0.151086822,1,-0.005011082,1,-0.146806836,1,-0.084338665,1
1.367861509,-5.718041897,1,-1.955313325,1,-7.803996086,1,0.031777732,1,0.023701588,1,-0.018835874,1,0.224701926,1,-0.624502361,1,0.151021853,1,0.000358105,1,-0.187447548,1,-0.069254398,1
1.371862531,-5.724101067,1,-1.989701867,1,-7.800043106,1,0.027593011,1,0.020913364,1,-0.013281994,1,0.224845618,1,-0.624407172,1,0.150975645,1,-0.006456375,1,-0.220603228,1,-0.065023899,1
1.375859737,-5.736976624,1,-2.021862745,1,-7.777451038,1,0.017592575,1,0.023123244,1,-0.004652075,1,0.224943489,1,-0.624313593,1,0.150950894,1,-0.020074368,1,-0.251887321,1,-0.042082787,1
1.379859209,-5.736004353,1,-2.002158403,1,-7.823221207,1,0.011712296,1,0.019140197,1,-0.002462564,1,0.225018829,1,-0.62423265,1,0.150941938,1,-0.019744396,1,-0.231498361,1,-0.087540627,1
1.383860707,-5.70223093,1,-1.970366478,1,-7.783127308,1,0.009467979,1,0.018253317,1,0.000539,1,0.225055873,1,-0.624157608,1,0.150950119,1,0.01343298,1,-0.199324131,1,-0.047093868,1
1.387858629,-5.671035767,1,-1.958033919,1,-7.827710152,1,0.002633249,1,0.015101423,1,0.009385334,1,0.225056931,1,-0.624094546,1,0.150995135,1,0.044127941,1,-0.186902523,1,-0.09132576,1
1.391857624,-5.687503338,1,-1.951264024,1,-7.833335876,1,-0.001724693,1,0.009862446,1,0.007356375,1,0.225036561,1,-0.624053359,1,0.151040494,1,0.027333736,1,-0.180237532,1,-0.096684933,1
1.395864606,-5.700381279,1,-1.99721694,1,-7.884083748,1,-0.00701248,1,0.003790962,1,0.015100619,1,0.224982962,1,-0.624030948,1,0.151110411,1,0.014277935,1,-0.226576567,1,-0.147212982,1
1.399867892,-5.707505703,1,-1.949209094,1,-7.850307465,1,-0.009772956,1,0.002976348,1,0.015195364,1,0.224901319,1,-0.624022961,1,0.15118359,1,0.007090569,1,-0.179190159,1,-0.113247395,1
1.403867126,-5.700712204,1,-1.963963389,1,-7.805613041,1,-0.014844509,1,-0.003657326,1,0.017101632,1,0.224792928,1,-0.624046922,1,0.151279926,1,0.014073849,1,-0.194813728,1,-0.06849575,1
1.407868385,-5.721531868,1,-2.017078876,1,-7.830144405,1,-0.018067615,1,-0.002094503,1,0.023600183,1,0.224673524,1,-0.624076962,1,0.151377693,1,-0.006507874,1,-0.248891115,1,-0.092981815,1
1.411866069,-5.701789379,1,-1.973527431,1,-7.883166313,1,-0.016308336,1,-0.00605616,1,0.026527649,1,0.22453022,1,-0.624103427,1,0.151490763,1,0.013444901,1,-0.206481695,1,-0.145896912,1
1.415865898,-5.711379528,1,-1.911453962,1,-7.832243443,1,-0.023860572,1,-0.006887913,1,0.027824499,1,0.22436887,1,-0.624150932,1,0.151614502,1,0.00423193,1,-0.145718336,1,-0.094957829,1
1.419867396,-5.729475021,1,-1.915192962,1,-7.83654356,1,-0.029046297,1,-0.009880635,1,0.030467227,1,0.224187255,1,-0.624212146,1,0.151754215,1,-0.013377666,1,-0.150940299,1,-0.099279404,1
1.42386508,-5.729900837,1,-1.837039351,1,-7.83954525,1,-0.027331252,1,-0.008035195,1,0.032838322,1,0.223992005,1,-0.624274909,1,0.151897371,1,-0.013305664,1,-0.074376225,1,-0.102282524,1
1.427863836,-5.72972393,1,-1.825796723,1,-7.833444118,1,-0.029137503,1,-0.013893533,1,0.035582975,1,0.223790661,1,-0.624348164,1,0.152052343,1,-0.012547016,1,-0.06478405,1,-0.096233845,1
1.431864858,-5.736989498,1,-1.826068044,1,-7.811203957,1,-0.030372953,1,-0.01076223,1,0.03582349,1,0.223577708,1,-0.624425054,1,0.152215824,1,-0.019202232,1,-0.066800952,1,-0.074048996,1
1.435862064,-5.737525463,1,-1.790592074,1,-7.798339844,1,-0.032467898,1,-0.017280104,1,0.036123063,1,0.223357633,1,-0.624522865,1,0.15237321,1,-0.018962383,1,-0.033151507,1,-0.061342716,1
1.439860702,-5.769886971,1,-1.751515985,1,-7.797772884,1,-0.032525994,1,-0.018713202,1,0.03376101,1,0.223122597,1,-0.624619067,1,0.152540669,1,-0.050560951,1,0.003983259,1,-0.060903549,1
1.443862319,-5.778511524,1,-1.793342233,1,-7.752835274,1,-0.037871409,1,-0.015884539,1,0.04074879,1,0.222891316,1,-0.624720991,1,0.152701154,1,-0.058376789,1,-0.039761186,1,-0.01612854,1
1.447860241,-5.752637386,1,-1.827421308,1,-7.796736717,1,-0.035355862,1,-0.017194377,1,0.045339681,1,0.222642571,1,-0.624817491,1,0.152891725,1,-0.031737328,1,-0.07588613,1,-0.060129642,1
1.451859713,-5.732972622,1,-1.82806325,1,-7.755609512,1,-0.040027827,1,-0.019809628,1,0.042420402,1,0.222376034,1,-0.624921739,1,0.153077275,1,-0.011245251,1,-0.078721642,1,-0.019117355,1
1.455860734,-5.780926704,1,-1.791018844,1,-7.758291245,1,-0.039487619,1,-0.014139863,1,0.044681724,1,0.222108826,1,-0.625026941,1,0.153271601,1,-0.058365345,1,-0.043877125,1,-0.02191925,1
1.459857702,-5.763206482,1,-1.759435892,1,-7.782829762,1,-0.042997684,1,-0.017487517,1,0.045508943,1,0.22183691,1,-0.625126958,1,0.153464347,1,-0.039852142,1,-0.014523506,1,-0.046539783,1
1.463856697,-5.763251781,1,-1.691643834,1,-7.817079067,1,-0.04178853,1,-0.019767655,1,0.044232801,1,0.221564367,1,-0.625232935,1,0.153658733,1,-0.039056778,1,0.051025629,1,-0.080910206,1
1.467857718,-5.739181042,1,-1.591838837,1,-7.850618839,1,-0.035709485,1,-0.018551195,1,0.044130672,1,0.22129035,1,-0.625349224,1,0.153852999,1,-0.014064312,1,0.148565054,1,-0.114620209,1
1.471854806,-5.737113476,1,-1.618743658,1,-7.818331718,1,-0.035238035,1,-0.020944098,1,0.044269715,1,0.22103627,1,-0.625461817,1,0.154039532,1,-0.011103153,1,0.119553447,1,-0.082520008,1
1.47586,-5.734891891,1,-1.664538622,1,-7.832036972,1,-0.035091456,1,-0.019012833,1,0.041645106,1,0.220789641,1,-0.625577629,1,0.154221311,1,-0.007963657,1,0.071705341,1,-0.096442699,1
1.479861259,-5.757162571,1,-1.656039476,1,-7.835920334,1,-0.034949362,1,-0.027195841,1,0.041674405,1,0.2205576,1,-0.625700653,1,0.154388458,1,-0.029259205,1,0.078255773,1,-0.100609779,1
1.483858705,-5.724700928,1,-1.665284038,1,-7.843370914,1,-0.03049334,1,-0.025928317,1,0.042409457,1,0.220330015,1,-0.625842571,1,0.154560551,1,0.004327297,1,0.067072153,1,-0.108462334,1
1.487858176,-5.738170147,1,-1.68689537,1,-7.869235992,1,-0.035061933,1,-0.03028452,1,0.040829618,1,0.220183477,1,-0.625971556,1,0.154601097,1,-0.008119106,1,0.044165969,1,-0.134795189,1
1.491859436,-5.780216694,1,-1.688529253,1,-7.897604942,1,-0.032348081,1,-0.034225468,1,0.043492805,1,0.219990224,1,-0.626075149,1,0.154236287,1,-0.049345016,1,0.040907145,1,-0.163412094,1
1.495857358,-5.793433666,1,-1.752072692,1,-7.864724636,1,-0.030114423,1,-0.035713665,1,0.043445256,1,0.219762459,1,-0.626249671,1,0.154401004,1,-0.061178684,1,-0.024615169,1,-0.131109715,1
1.499856114,-5.73926115,1,-1.711400867,1,-7.89816618,1,-0.035539579,1,-0.042645644,1,0.041933101,1,0.219535932,1,-0.626441479,1,0.154562473,1,-0.005486965,1,0.014065385,1,-0.165233612,1
1.503857136,-5.833856583,1,-1.772625566,1,-7.893578529,1,-0.036263686,1,-0.045402374,1,0.046634175,1,0.219299138,1,-0.626651168,1,0.154720619,1,-0.09842062,1,-0.049252033,1,-0.161411762,1
1.507854342,-5.799355984,1,-1.779612184,1,-7.894544601,1,-0.034820437,1,-0.049532358,1,0.042993959,1,0.219062075,1,-0.626870751,1,0.154884636,1,-0.062180519,1,-0.058345795,1,-0.163199425,1
1.511853814,-5.835578442,1,-1.775415421,1,-7.909315109,1,-0.035959613,1,-0.051545803,1,0.040912788,1,0.21882467,1,-0.627111733,1,0.155029222,1,-0.096494675,1,-0.056284308,1,-0.178910732,1
1.515854836,-5.857447147,1,-1.785147429,1,-7.895185471,1,-0.040781893,1,-0.055917673,1,0.044965882,1,0.218593046,1,-0.627368629,1,0.155161694,1,-0.116328716,1,-0.068127155,1,-0.165823936,1
1.519851804,-5.857580662,1,-1.855922341,1,-7.95796299,1,-0.04230671,1,-0.061235059,1,0.039753925,1,0.218343914,1,-0.627630413,1,0.155290976,1,-0.114389896,1,-0.141153097,1,-0.229640007,1
1.523850799,-5.929990768,1,-1.91601193,1,-7.966342926,1,-0.051872823,1,-0.066360965,1,0.041788571,1,0.218079224,1,-0.627910674,1,0.155426905,1,-0.18458128,1,-0.203636646,1,-0.239138126,1
1.527852297,-5.867258549,1,-1.938698292,1,-7.978685856,1,-0.055403449,1,-0.06887608,1,0.040673956,1,0.217781976,1,-0.62820977,1,0.155564547,1,-0.119482517,1,-0.228991389,1,-0.252650261,1
1.53184998,-5.874269485,1,-2.052445412,1,-7.957260609,1,-0.064883359,1,-0.065720491,1,0.049289845,1,0.217454985,1,-0.628507078,1,0.155713364,1,-0.124141216,1,-0.345633745,1,-0.232336998,1
1.535849214,-5.862605572,1,-2.065292597,1,-7.996215343,1,-0.068542257,1,-0.074694246,1,0.053269714,1,0.217090309,1,-0.628827512,1,0.155874833,1,-0.109942913,1,-0.361694694,1,-0.27246809,1
1.539850712,-5.85637331,1,-2.053155661,1,-8.021826744,1,-0.075157806,1,-0.076874703,1,0.060282122,1,0.216689169,1,-0.629175365,1,0.15606299,1,-0.100959301,1,-0.353086829,1,-0.299351215,1
1.543848395,-5.768225193,1,-2.074551344,1,-8.084516525,1,-0.078143656,1,-0.08740361,1,0.070108697,1,0.21623835,1,-0.62954843,1,0.156288624,1,-0.009861469,1,-0.378424883,1,-0.363373756,1
1.547848225,-5.708381176,1,-2.072702885,1,-8.194572449,1,-0.077089414,1,-0.104796715,1,0.077525273,1,0.215771541,1,-0.629984856,1,0.156549841,1,0.053431988,1,-0.380718827,1,-0.475092888,1
1.551855087,-5.561810493,1,-2.206783772,1,-8.305165291,1,-0.067881674,1,-0.134631589,1,0.100006327,1,0.215299278,1,-0.630524814,1,0.156851351,1,0.204268932,1,-0.519110322,1,-0.587927341,1
1.555858135,-5.304245472,1,-2.571256638,1,-8.617743492,1,-0.065907337,1,-0.192821652,1,0.141748041,1,0.21479319,1,-0.631261766,1,0.15725778,1,0.467653751,1,-0.888395667,1,-0.903808117,1
1.559857368,-5.062997341,1,-2.885702372,1,-8.792004585,1,-0.066492066,1,-0.270937502,1,0.192671165,1,0.214201212,1,-0.632312536,1,0.157816574,1,0.717195034,1,-1.208697677,1,-1.08300209,1
1.56385839,-5.107050419,1,-2.982939959,1,-8.682248116,1,-0.072754331,1,-0.356116563,1,0.259890199,1,0.213466868,1,-0.63373512,1,0.158580318,1,0.684359074,1,-1.313341498,1,-0.980064392,1
1.567855358,-5.140466213,1,-2.941230059,1,-8.87630558,1,-0.029831907,1,-0.424235225,1,0.322955579,1,0.212642685,1,-0.635497689,1,0.159580082,1,0.664825439,1,-1.280136228,1,-1.182734966,1
1.57185483,-4.80581665,1,-3.065202475,1,-9.318934441,1,0.09055832,1,-0.502641082,1,0.415678889,1,0.211974904,1,-0.637609541,1,0.160883904,1,1.016084194,1,-1.411829948,1,-1.636260033,1
1.575855851,-4.062568188,1,-3.097667933,1,-9.924851418,1,0.229787186,1,-0.625295401,1,0.523248196,1,0.211625487,1,-0.640202165,1,0.162580833,1,1.779687405,1,-1.450156331,1,-2.256384373,1
1.579853058,-4.210590363,1,-2.619483232,1,-9.858099937,1,0.279480577,1,-0.775263488,1,0.609510243,1,0.21143122,1,-0.643412709,1,0.164633408,1,1.656816959,1,-0.977406025,1,-2.207691193,1
1.58385253,-4.619777679,1,-1.887126565,1,-9.989244461,1,0.32715106,1,-0.907109678,1,0.625216246,1,0.211351827,1,-0.647239685,1,0.166775793,1,1.277531147,1,-0.250379801,1,-2.360718727,1
1.587853789,-5.46065712,1,-1.291481495,1,-9.873545647,1,0.382796526,1,-0.996652067,1,0.593532383,1,0.211554632,1,-0.651479006,1,0.168782935,1,0.469674587,1,0.341547847,1,-2.269864082,1
1.591851473,-5.427064896,1,-1.93296957,1,-10.18591404,1,0.386757731,1,-1.048118711,1,0.56134069,1,0.212039992,1,-0.655965805,1,0.170535773,1,0.538101196,1,-0.301864982,1,-2.609109402,1
1.595850229,-5.075773716,1,-2.230236053,1,-10.3993988,1,0.451841384,1,-1.105349302,1,0.575796962,1,0.212666601,1,-0.660645187,1,0.172181025,1,0.925593853,1,-0.600294709,1,-2.850989819,1
1.599851251,-5.118197441,1,-3.024264574,1,-10.60579681,1,0.527222514,1,-1.161634564,1,0.609455168,1,0.213590294,1,-0.665582359,1,0.173900992,1,0.921223164,1,-1.393651128,1,-3.08794117,1
1.603848457,-5.437492847,1,-3.487323284,1,-10.47148609,1,0.570563138,1,-1.22731626,1,0.667770565,1,0.214617655,1,-0.670797825,1,0.175792962,1,0.641966343,1,-1.855717897,1,-2.986187458,1
1.607847214,-6.112147331,1,-4.401910782,1,-10.83307457,1,0.521393359,1,-1.242255926,1,0.700814247,1,0.215545282,1,-0.676209211,1,0.177880719,1,0.008679867,1,-2.770422459,1,-3.381538391,1
1.611848712,-6.375965595,1,-4.5129776,1,-10.79624939,1,0.444651842,1,-1.273306012,1,0.705965102,1,0.216111511,1,-0.6817258,1,0.180026293,1,-0.213150978,1,-2.884535789,1,-3.378732681,1
1.615846634,-6.920154572,1,-4.068679333,1,-10.8845377,1,0.454299152,1,-1.336145282,1,0.748611331,1,0.216486827,1,-0.687446535,1,0.182257935,1,-0.713997364,1,-2.445054054,1,-3.502189159,1
1.619845867,-6.821427345,1,-3.939057112,1,-10.89071846,1,0.489229292,1,-1.381957769,1,0.817932308,1,0.216832876,1,-0.693423867,1,0.184679121,1,-0.570199966,1,-2.320885897,1,-3.545287132,1
1.623847127,-6.603555202,1,-4.184412003,1,-10.70725536,1,0.515456438,1,-1.428073287,1,0.915718138,1,0.217021048,1,-0.699659169,1,0.187529728,1,-0.305550098,1,-2.573284149,1,-3.400340557,1
1.62784481,-8.570601463,1,-6.106873035,1,-10.91773319,1,0.450586528,1,-1.462603688,1,1.085426331,1,0.21676895,1,-0.706171691,1,0.190968931,1,-2.224000454,1,-4.506443024,1,-3.650622845,1
1.631850004,-8.257068634,1,-7.486223698,1,-10.44351673,1,0.285224617,1,-1.454928756,1,1.18637383,1,0.215478256,1,-0.712859392,1,0.195218161,1,-1.860845089,1,-5.904284954,1,-3.215970516,1
1.635851264,-8.298886299,1,-7.531142712,1,-10.34379482,1,0.127392054,1,-1.446336746,1,1.241002321,1,0.213252291,1,-0.719558895,1,0.199872181,1,-1.853239536,1,-5.974399567,1,-3.154784203,1
1.639848471,-9.589810371,1,-7.469789028,1,-10.60374832,1,-0.070666641,1,-1.418839335,1,1.312478304,1,0.21001792,1,-0.726241112,1,0.204933867,1,-3.095155716,1,-5.945319653,1,-3.452026367,1
1.643847704,-7.99196291,1,-6.505423546,1,-10.82112026,1,-0.217439055,1,-1.382511497,1,1.330712557,1,0.205822378,1,-0.732814193,1,0.210339531,1,-1.449384689,1,-5.019729614,1,-3.70500946,1
1.647848487,-8.101179123,1,-6.007379055,1,-10.51427746,1,-0.315689057,1,-1.346938491,1,1.346055746,1,0.201023594,1,-0.739256084,1,0.215883449,1,-1.511907101,1,-4.564296722,1,-3.432566166,1
1.651845336,-8.478343964,1,-6.476397514,1,-10.07581997,1,-0.418111354,1,-1.286028743,1,1.440769076,1,0.195493579,1,-0.745514989,1,0.221899688,1,-1.843966484,1,-5.080537319,1,-3.026828766,1
1.655844331,-8.470709801,1,-5.837208748,1,-10.48629951,1,-0.537429094,1,-1.23529923,1,1.455436349,1,0.1891803,1,-0.751578093,1,0.228352323,1,-1.792886257,1,-4.493467331,1,-3.468272686,1
1.659845591,-9.593628883,1,-6.13369894,1,-10.87186241,1,-0.597805858,1,-1.143218875,1,1.447445035,1,0.182361171,1,-0.757350206,1,0.234983072,1,-2.874671459,1,-4.84485817,1,-3.882863045,1
1.663843274,-10.83034134,1,-5.863622189,1,-11.21455097,1,-0.672000587,1,-0.989514649,1,1.376577616,1,0.175230071,1,-0.762580991,1,0.241638973,1,-4.074302197,1,-4.630796432,1,-4.251239777,1
1.667842507,-11.1443882,1,-6.465015411,1,-11.96323967,1,-0.632594049,1,-0.687726438,1,1.236039162,1,0.168200478,1,-0.7668221,1,0.247968465,1,-4.358417988,1,-5.285975456,1,-5.019740105,1
1.67184329,-8.898030281,1,-6.567733288,1,-13.25786781,1,-0.689717829,1,-0.405967057,1,1.053883791,1,0.161555901,1,-0.769715667,1,0.253740817,1,-2.091709614,1,-5.438019276,1,-6.326097965,1
1.675840497,-6.48426199,1,-6.394277096,1,-13.49602222,1,-0.744312584,1,-0.1552753,1,0.91462642,1,0.155090898,1,-0.77142036,1,0.258889228,1,0.334021091,1,-5.311195374,1,-6.568574429,1
1.679839492,-3.741970301,1,-5.928279877,1,-13.09097099,1,-0.738325775,1,0.010299765,1,0.807078302,1,0.148843065,1,-0.772205234,1,0.26356715,1,3.081814051,1,-4.889293194,1,-6.16217947,1
1.683840752,-1.292036891,1,-5.734989166,1,-12.46263123,1,-0.690420687,1,0.096855864,1,0.747584462,1,0.142974228,1,-0.772417545,1,0.267885685,1,5.533234596,1,-4.73689127,1,-5.529300213,1
1.687838674,0.433947057,1,-5.518893719,1,-11.9887743,1,-0.614622712,1,0.138912573,1,0.720955193,1,0.137475997,1,-0.772355616,1,0.27202335,1,7.258785248,1,-4.55887413,1,-5.049643993,1
1.691838503,1.408445716,1,-5.182053566,1,-11.63100147,1,-0.530599594,1,0.148649693,1,0.723615885,1,0.132321924,1,-0.772168398,1,0.276125789,1,8.231971741,1,-4.257642269,1,-4.685744762,1
1.695840001,1.931716919,1,-4.945271015,1,-11.32956791,1,-0.433092743,1,0.149879292,1,0.73034364,1,0.127510682,1,-0.771945953,1,0.280256301,1,8.753684044,1,-4.054092884,1,-4.37843895,1
1.699837685,2.157440901,1,-4.885205269,1,-11.14152813,1,-0.328415006,1,0.170206383,1,0.737303674,1,0.123068459,1,-0.771672487,1,0.284431964,1,8.977491379,1,-4.024684906,1,-4.184655666,1
1.703836441,2.13495779,1,-4.830832005,1,-11.02863216,1,-0.23451674,1,0.201130331,1,0.731039584,1,0.119017504,1,-0.771289051,1,0.28863135,1,8.952320099,1,-3.998190165,1,-4.06573534,1
1.707837224,1.967599988,1,-4.915598869,1,-10.96379471,1,-0.1607669,1,0.259069979,1,0.71563077,1,0.115322374,1,-0.770727277,1,0.29280287,1,8.781022072,1,-4.108251095,1,-3.994067192,1
1.71184051,1.80507195,1,-4.966873646,1,-10.99351311,1,-0.099157766,1,0.335713208,1,0.695701957,1,0.11195223,1,-0.769870043,1,0.296914697,1,8.612476349,1,-4.182366848,1,-4.015300751,1
1.715839982,1.714323878,1,-4.982739925,1,-11.00814629,1,-0.042316336,1,0.427278161,1,0.651823342,1,0.108924121,1,-0.768653035,1,0.300878704,1,8.513177872,1,-4.218467712,1,-4.019363403,1
1.719841003,1.753368258,1,-4.933399677,1,-11.00512123,1,0.007331444,1,0.534839153,1,0.612095416,1,0.10622517,1,-0.767007589,1,0.304672182,1,8.540644646,1,-4.186807632,1,-4.003184319,1
1.72383821,1.921895742,1,-4.795448303,1,-11.04610252,1,0.056034327,1,0.639555156,1,0.565023839,1,0.103858531,1,-0.764926374,1,0.308260769,1,8.694502831,1,-4.063966274,1,-4.028381824,1
1.727837682,2.109449625,1,-4.754303455,1,-11.03118992,1,0.099727243,1,0.730702877,1,0.507743716,1,0.101863332,1,-0.76241374,1,0.311598837,1,8.86430645,1,-4.035096169,1,-3.995118141,1
1.731838465,2.236646652,1,-4.622331619,1,-10.94980049,1,0.154688552,1,0.826577783,1,0.45799017,1,0.100235566,1,-0.759511054,1,0.314697742,1,8.970944405,1,-3.912619591,1,-3.893088818,1
1.735835433,2.339259863,1,-4.607931137,1,-10.8752346,1,0.200342193,1,0.916244507,1,0.406117946,1,0.099000871,1,-0.756214619,1,0.317524374,1,9.050142288,1,-3.904742241,1,-3.795599937,1
1.739834905,2.408187151,1,-4.611449242,1,-10.78613472,1,0.247351557,1,1.003649354,1,0.354120344,1,0.098150045,1,-0.752494693,1,0.319570422,1,9.092557907,1,-3.911842585,1,-3.681109428,1
1.743836164,2.566880941,1,-4.526076794,1,-10.6892643,1,0.288492024,1,1.08876884,1,0.306767076,1,0.097613163,1,-0.748458028,1,0.3219257,1,9.222378731,1,-3.827661037,1,-3.557069302,1
1.74783361,2.689242125,1,-4.395363331,1,-10.58098125,1,0.333300143,1,1.164792776,1,0.260889232,1,0.097402431,1,-0.744081676,1,0.324063063,1,9.313313484,1,-3.69562459,1,-3.419718266,1
1.75183332,2.790718555,1,-4.199136734,1,-10.53522396,1,0.381409973,1,1.232961416,1,0.212061152,1,0.097542867,1,-0.739399433,1,0.325973749,1,9.381027222,1,-3.495379448,1,-3.343267918,1
1.755834579,2.904637575,1,-4.080388546,1,-10.4760313,1,0.434886366,1,1.294155836,1,0.165419176,1,0.098043509,1,-0.734443307,1,0.327651799,1,9.459050179,1,-3.369842052,1,-3.252010822,1
1.759832025,2.923143625,1,-3.974071503,1,-10.46814823,1,0.481176496,1,1.340783477,1,0.119509332,1,0.098895945,1,-0.729261279,1,0.329119921,1,9.439852715,1,-3.25402379,1,-3.211037636,1
1.763831019,2.86174202,1,-3.916689396,1,-10.43910313,1,0.525266647,1,1.385759711,1,0.070473462,1,0.100089893,1,-0.723880708,1,0.33035332,1,9.339118004,1,-3.184484482,1,-3.148074627,1
1.767832279,2.630228519,1,-3.961682081,1,-10.45786476,1,0.565341473,1,1.418646932,1,0.02055819,1,0.101625718,1,-0.71832639,1,0.331337065,1,9.066804886,1,-3.214641571,1,-3.132287502,1
1.77183032,2.42198801,1,-3.897340775,1,-10.42318344,1,0.595957577,1,1.460412979,1,-0.033317741,1,0.103451952,1,-0.71259439,1,0.332088649,1,8.816249847,1,-3.13312602,1,-3.062409401,1
1.775829792,2.204115868,1,-3.897269964,1,-10.44513988,1,0.618286848,1,1.495139956,1,-0.091755137,1,0.105564505,1,-0.706690669,1,0.332577407,1,8.554577827,1,-3.113542557,1,-3.0485816,1
1.779830575,2.015719414,1,-3.855376005,1,-10.48618031,1,0.63602978,1,1.532517076,1,-0.152075946,1,0.107926205,1,-0.700607955,1,0.332789004,1,8.320820808,1,-3.05003643,1,-3.053228855,1
1.783827662,1.789801598,1,-3.879852772,1,-10.5633297,1,0.63365078,1,1.567874074,1,-0.219602451,1,0.110516772,1,-0.694365859,1,0.332707703,1,8.048111916,1,-3.050935745,1,-3.09351778,1
1.787826419,1.580133796,1,-3.800342321,1,-10.62458801,1,0.633750796,1,1.594523072,1,-0.291820347,1,0.113316514,1,-0.687959135,1,0.332300663,1,7.790165424,1,-2.945998669,1,-3.117442131,1
1.791828275,1.413628697,1,-3.718130112,1,-10.68100643,1,0.624423504,1,1.615022063,1,-0.368885487,1,0.116302438,1,-0.681432486,1,0.331562191,1,7.574215412,1,-2.836689949,1,-3.136345863,1
1.795825958,1.303208232,1,-3.628438473,1,-10.74445534,1,0.618768573,1,1.628951788,1,-0.450711429,1,0.119481757,1,-0.674782097,1,0.330455512,1,7.413143158,1,-2.718152285,1,-3.162124157,1
1.799825191,1.116492867,1,-3.571247578,1,-10.82866478,1,0.604664207,1,1.633195758,1,-0.53412348,1,0.122859709,1,-0.668057203,1,0.328966677,1,7.174933434,1,-2.630340099,1,-3.208847523,1
1.803826213,0.918917894,1,-3.45443368,1,-10.90947533,1,0.598135769,1,1.632036805,1,-0.617615342,1,0.126411885,1,-0.661281347,1,0.327095687,1,6.925196648,1,-2.481312275,1,-3.252501011,1
1.807823062,0.648254752,1,-3.351981163,1,-10.93100262,1,0.590510428,1,1.637125254,1,-0.70461309,1,0.130168334,1,-0.654451668,1,0.324836314,1,6.601678848,1,-2.344802141,1,-3.237241268,1
1.811822295,0.320802271,1,-3.291886091,1,-10.96582413,1,0.589146435,1,1.634499788,1,-0.78907305,1,0.13411963,1,-0.647577941,1,0.322198331,1,6.220749855,1,-2.248867512,1,-3.235731602,1
1.815823317,-0.008655606,1,-3.196976662,1,-11.0075407,1,0.588368654,1,1.639575481,1,-0.876179099,1,0.138281584,1,-0.64063108,1,0.319179654,1,5.83696413,1,-2.11617136,1,-3.241447926,1
1.819820285,-0.467868119,1,-3.155880451,1,-11.05114174,1,0.587837815,1,1.645247817,1,-0.965320766,1,0.142655924,1,-0.633614838,1,0.315781772,1,5.322593212,1,-2.035309792,1,-3.249440193,1
1.82381928,-0.875241935,1,-3.158701658,1,-11.05603218,1,0.588136315,1,1.659676075,1,-1.046631217,1,0.147227377,1,-0.626508832,1,0.312033534,1,4.859066486,1,-1.996471047,1,-3.219031811,1
1.827820778,-1.26268816,1,-3.142068148,1,-11.02973747,1,0.597780704,1,1.68019557,1,-1.124626756,1,0.151970655,1,-0.6192559,1,0.307967961,1,4.414007187,1,-1.936413169,1,-3.157434464,1
1.831818461,-1.607029796,1,-3.060402393,1,-11.08863258,1,0.603066802,1,1.703152537,1,-1.205059528,1,0.156885505,1,-0.611857653,1,0.303606212,1,4.0105896,1,-1.809542894,1,-3.181080818,1
1.835817933,-1.965914011,1,-2.964921236,1,-11.06876278,1,0.610109925,1,1.72890079,1,-1.28479898,1,0.161975265,1,-0.604288936,1,0.298950285,1,3.590951681,1,-1.667010665,1,-3.125946045,1
1.839818954,-2.409259558,1,-2.869090796,1,-11.02369213,1,0.625171661,1,1.766853094,1,-1.354174614,1,0.167223915,1,-0.596527219,1,0.29403007,1,3.084971666,1,-1.522371292,1,-3.045508862,1
1.843816161,-2.766214371,1,-2.817914724,1,-10.96941471,1,0.643835068,1,1.809330583,1,-1.423702836,1,0.172632188,1,-0.588545382,1,0.288879931,1,2.663260937,1,-1.420577645,1,-2.955680847,1
1.847815394,-2.970242262,1,-2.742423058,1,-10.87323093,1,0.658722937,1,1.857392669,1,-1.491717458,1,0.178183764,1,-0.580307662,1,0.283532619,1,2.392038584,1,-1.292741179,1,-2.823635101,1
1.851816416,-2.953208685,1,-2.588471651,1,-10.91846657,1,0.67151159,1,1.912124276,1,-1.551261663,1,0.183859095,1,-0.571793377,1,0.278011203,1,2.339239836,1,-1.08483541,1,-2.83262825,1
1.855813622,-3.070456028,1,-2.547086716,1,-10.69925976,1,0.68107909,1,1.933771133,1,-1.609511614,1,0.189608514,1,-0.563059926,1,0.272323728,1,2.149963379,1,-0.988334656,1,-2.577116966,1
1.859812617,-3.26534152,1,-2.559474707,1,-10.60805511,1,0.698955119,1,1.970379233,1,-1.644152403,1,0.195438206,1,-0.554145753,1,0.266549408,1,1.881148577,1,-0.944426775,1,-2.449811935,1
1.863813877,-3.087022781,1,-2.457613707,1,-10.45909691,1,0.713470876,1,1.99032712,1,-1.671944261,1,0.201290891,1,-0.545064449,1,0.260750026,1,1.983730793,1,-0.785570383,1,-2.264988899,1
1.867817163,-3.097148657,1,-2.285762072,1,-10.34940529,1,0.725947499,1,2.00703311,1,-1.692513347,1,0.207151726,1,-0.535867214,1,0.254956931,1,1.896475077,1,-0.556205273,1,-2.119947433,1
1.871816993,-3.185758591,1,-2.207443476,1,-10.24333858,1,0.740324557,1,2.007198811,1,-1.696341038,1,0.212999508,1,-0.526602328,1,0.249212727,1,1.72974205,1,-0.420088172,1,-1.979268074,1
1.875818014,-3.260133743,1,-2.111403227,1,-10.17944336,1,0.754701138,1,2.010782242,1,-1.695331573,1,0.218810961,1,-0.517292976,1,0.243558303,1,1.576442719,1,-0.266198158,1,-1.881585121,1
1.879814863,-3.330249071,1,-1.987145424,1,-10.10507298,1,0.773042321,1,2.00843358,1,-1.681221604,1,0.22457701,1,-0.507967472,1,0.238028169,1,1.426845789,1,-0.084164262,1,-1.774384499,1
1.883813858,-3.435799122,1,-1.860400438,1,-10.04707909,1,0.787522018,1,1.993232489,1,-1.666221142,1,0.230292439,1,-0.498658687,1,0.232648209,1,1.2415452,1,0.100186825,1,-1.684648514,1
1.887815118,-3.641101122,1,-1.72251761,1,-9.969479561,1,0.804498076,1,1.985344887,1,-1.641686797,1,0.235960633,1,-0.489385605,1,0.227434516,1,0.956394911,1,0.295490384,1,-1.576487541,1
1.891812325,-3.963801384,1,-1.625276923,1,-9.943048477,1,0.830421567,1,1.976062536,1,-1.613206387,1,0.241580904,1,-0.480141968,1,0.222399443,1,0.553706169,1,0.449948668,1,-1.520625114,1
1.895811796,-4.210068226,1,-1.535025954,1,-9.908356667,1,0.846485376,1,1.978231907,1,-1.581238985,1,0.247132748,1,-0.470924735,1,0.217575014,1,0.227295876,1,0.597022176,1,-1.45757103,1
1.899813414,-4.504911423,1,-1.445032239,1,-9.822813988,1,0.861499369,1,1.983439565,1,-1.554863572,1,0.252627224,1,-0.461703926,1,0.212955832,1,-0.148099899,1,0.74355042,1,-1.344612122,1
1.903810859,-4.705178738,1,-1.5058254,1,-9.754080772,1,0.860289514,1,1.993789077,1,-1.518573523,1,0.25800845,1,-0.452451915,1,0.208562657,1,-0.429564476,1,0.738538623,1,-1.249163628,1
1.90781033,-4.942827702,1,-1.463154793,1,-9.722538948,1,0.869420409,1,2.013064623,1,-1.484576344,1,0.263268292,1,-0.443158209,1,0.204413384,1,-0.749144554,1,0.836154699,1,-1.191542625,1
1.911811352,-5.229826927,1,-1.366344571,1,-9.670051575,1,0.877870679,1,2.033590555,1,-1.450172782,1,0.268417478,1,-0.433802366,1,0.200501144,1,-1.118988991,1,0.987164378,1,-1.113552094,1
1.915808201,-5.46387291,1,-1.343856096,1,-9.495080948,1,0.86404103,1,2.068588972,1,-1.421131611,1,0.273434252,1,-0.424362302,1,0.196818456,1,-1.436990738,1,1.062921524,1,-0.91351223,1
1.919807196,-5.630103111,1,-1.294157624,1,-9.382593155,1,0.851989865,1,2.098834991,1,-1.390967488,1,0.278272957,1,-0.414812565,1,0.193388209,1,-1.688516855,1,1.164566398,1,-0.776187897,1
1.923808217,-5.534062862,1,-1.26830399,1,-9.261367798,1,0.824497163,1,2.124972582,1,-1.352016926,1,0.282913566,1,-0.405168235,1,0.190186501,1,-1.678982258,1,1.240827918,1,-0.630361557,1
1.927805185,-5.44276762,1,-1.273874164,1,-9.118837357,1,0.797012389,1,2.139618397,1,-1.325971365,1,0.287310034,1,-0.395471305,1,0.18720527,1,-1.67502594,1,1.283652663,1,-0.463503838,1
1.93180418,-5.281297207,1,-1.180482268,1,-8.942580223,1,0.76256448,1,2.143908739,1,-1.288183451,1,0.29148072,1,-0.385766447,1,0.184425995,1,-1.601320982,1,1.423507333,1,-0.26336956,1
1.93580544,-5.091045856,1,-1.057241678,1,-8.79655838,1,0.732618153,1,2.131411552,1,-1.246887565,1,0.295421094,1,-0.37611112,1,0.181860134,1,-1.498730421,1,1.5911479,1,-0.094089508,1
1.939803362,-5.060127258,1,-1.002422929,1,-8.654326439,1,0.709291339,1,2.103917599,1,-1.200066805,1,0.299147248,1,-0.366569042,1,0.179510459,1,-1.554774046,1,1.688354373,1,0.070571899,1
1.943802834,-5.000598907,1,-0.996539652,1,-8.484187126,1,0.69296968,1,2.064572096,1,-1.148205757,1,0.302709401,1,-0.357218266,1,0.177363306,1,-1.580774069,1,1.734952927,1,0.261979103,1
1.947809815,-5.004345417,1,-0.969666719,1,-8.38628006,1,0.672478378,1,2.023512125,1,-1.09162569,1,0.306122184,1,-0.348072797,1,0.175420657,1,-1.668460369,1,1.800967216,1,0.379964828,1
1.951813102,-4.97430706,1,-0.94570756,1,-8.182239532,1,0.669875383,1,1.966802001,1,-1.026580572,1,0.309385985,1,-0.339187801,1,0.173698515,1,-1.720238686,1,1.862438202,1,0.602807045,1
1.955812335,-5.034816742,1,-0.92445004,1,-8.069644928,1,0.66737324,1,1.908058643,1,-0.959465027,1,0.312546849,1,-0.3305915,1,0.172206134,1,-1.860150337,1,1.919945121,1,0.732771873,1
1.959813118,-5.234614849,1,-0.874381423,1,-7.930457115,1,0.665441453,1,1.85357511,1,-0.892271042,1,0.31562084,1,-0.322292924,1,0.170935631,1,-2.136823654,1,2.00513792,1,0.887915611,1
1.963810086,-5.40615797,1,-0.904202938,1,-7.886919022,1,0.670488358,1,1.791535974,1,-0.816657484,1,0.318612933,1,-0.314305544,1,0.169915169,1,-2.382560492,1,2.009347439,1,0.946017265,1
1.967809081,-5.66226244,1,-0.935485661,1,-7.879182339,1,0.688005745,1,1.742993116,1,-0.745512068,1,0.321569383,1,-0.306611031,1,0.169132724,1,-2.710320711,1,2.011431217,1,0.966909885,1
1.971810579,-6.002352238,1,-0.795929193,1,-8.062091827,1,0.708258569,1,1.697897315,1,-0.675729513,1,0.324516058,1,-0.299185693,1,0.168608263,1,-3.119725227,1,2.183948517,1,0.795810699,1
1.975808263,-6.362516403,1,-0.717715859,1,-8.189050674,1,0.741235256,1,1.660886049,1,-0.608392358,1,0.327489287,1,-0.292004347,1,0.16831252,1,-3.547078133,1,2.295067787,1,0.679327965,1
1.979807019,-6.763765812,1,-0.600014269,1,-8.272498131,1,0.769508004,1,1.632015586,1,-0.557623446,1,0.330532789,1,-0.285025597,1,0.168224588,1,-4.013759613,1,2.446047783,1,0.605037689,1
1.983808041,-7.273536205,1,-0.475577801,1,-8.291203499,1,0.800460279,1,1.616149902,1,-0.518791795,1,0.333645403,1,-0.278194189,1,0.168315619,1,-4.587710381,1,2.604182959,1,0.594351768,1
1.987805128,-7.594892502,1,-0.352042139,1,-8.252144814,1,0.81738466,1,1.617620945,1,-0.497205853,1,0.336826026,1,-0.271421134,1,0.168530896,1,-4.972822189,1,2.761904716,1,0.640533447,1
1.991804957,-7.71497488,1,-0.338068724,1,-8.294002533,1,0.834698677,1,1.621073008,1,-0.478198797,1,0.340071142,1,-0.264627218,1,0.16902414,1,-5.156977654,1,2.81058836,1,0.605110168,1
1.995806217,-7.624756813,1,-0.410782576,1,-8.335208893,1,0.851327896,1,1.613686919,1,-0.468324095,1,0.343330026,1,-0.257888615,1,0.169426695,1,-5.130427837,1,2.772589922,1,0.569628716,1
1.999803662,-7.660002232,1,-0.396660805,1,-8.306028366,1,0.85674274,1,1.608560443,1,-0.458693683,1,0.346627951,1,-0.251185,1,0.169883087,1,-5.229123116,1,2.821670055,1,0.603788376,1
2.003803253,-7.753664017,1,-0.353366047,1,-8.184524536,1,0.861584842,1,1.5990628,1,-0.464267433,1,0.349955261,1,-0.244527668,1,0.170348689,1,-5.385905266,1,2.900068283,1,0.72953701,1
2.007804155,-7.720822334,1,-0.42635116,1,-8.005138397,1,0.845185161,1,1.581092596,1,-0.477079093,1,0.353265435,1,-0.237910256,1,0.170783773,1,-5.415908813,1,2.861922503,1,0.912613869,1
2.011801004,-7.637662411,1,-0.510001004,1,-7.827314377,1,0.827221751,1,1.558885813,1,-0.486178428,1,0.356518149,1,-0.231347322,1,0.171176478,1,-5.395176888,1,2.812469721,1,1.093677521,1
2.015799999,-7.519376755,1,-0.688581467,1,-7.557533741,1,0.789084136,1,1.527014732,1,-0.496464223,1,0.359681726,1,-0.224872768,1,0.171514988,1,-5.338572502,1,2.667134047,1,1.366303921,1
2.019801617,-7.406986713,1,-0.704804897,1,-7.39765501,1,0.7510131,1,1.491566658,1,-0.511035562,1,0.362713039,1,-0.218508124,1,0.171774164,1,-5.286906242,1,2.682803154,1,1.528767109,1
2.023799181,-7.288919926,1,-0.621119857,1,-7.239358902,1,0.70748198,1,1.42979002,1,-0.530942321,1,0.36559695,1,-0.212301597,1,0.17191264,1,-5.228137493,1,2.796854973,1,1.689372063,1
2.027804375,-7.347179413,1,-0.466367513,1,-7.076694012,1,0.673857093,1,1.364913702,1,-0.548619151,1,0.368358612,1,-0.206300586,1,0.171902493,1,-5.34380722,1,2.980643749,1,1.853941441,1
2.031805515,-7.579832077,1,-0.215973407,1,-6.938080788,1,0.645280719,1,1.299738407,1,-0.58091718,1,0.371024698,1,-0.200516209,1,0.171713933,1,-5.631865501,1,3.258980513,1,1.993987083,1
2.035802841,-7.863081455,1,-0.060053118,1,-6.703280926,1,0.620815277,1,1.24074018,1,-0.612689853,1,0.373638928,1,-0.194924846,1,0.171328038,1,-5.968733788,1,3.442158937,1,2.229670048,1
2.039801836,-8.173075676,1,-0.076493382,1,-6.563371181,1,0.607283771,1,1.194862604,1,-0.650846541,1,0.37620151,1,-0.1894674,1,0.170743585,1,-6.331120014,1,3.452343941,1,2.370056629,1
2.043803215,-8.437220573,1,0.045802992,1,-6.343586922,1,0.587720394,1,1.161349416,1,-0.690952241,1,0.378727853,1,-0.184104994,1,0.16997385,1,-6.646797657,1,3.600798845,1,2.589946747,1
2.047800779,-8.440088272,1,-0.080196217,1,-6.077829361,1,0.554336846,1,1.128017187,1,-0.712188125,1,0.381174803,1,-0.178811029,1,0.169042811,1,-6.700591087,1,3.500124931,1,2.855651855,1
2.051800251,-8.463277817,1,-0.028082518,1,-5.849219799,1,0.516417623,1,1.095205426,1,-0.735854208,1,0.383505374,1,-0.173601896,1,0.167991102,1,-6.773938179,1,3.576391935,1,3.084178448,1
2.055801392,-8.395123482,1,0.10934826,1,-5.508583546,1,0.479533553,1,1.054863453,1,-0.746176004,1,0.385686278,1,-0.168508917,1,0.166839391,1,-6.754867077,1,3.736485481,1,3.424785137,1
2.059798717,-8.211183548,1,0.282389998,1,-5.182035446,1,0.436395079,1,1.003346443,1,-0.742962658,1,0.387717247,1,-0.163570076,1,0.165615678,1,-6.618565559,1,3.930681229,1,3.751338005,1
2.063797712,-7.980621815,1,0.412675351,1,-4.85667944,1,0.395202488,1,0.936822534,1,-0.722597361,1,0.389581025,1,-0.15886277,1,0.164363459,1,-6.433444977,1,4.080417156,1,4.0767169,1
2.067799091,-7.799985886,1,0.438095719,1,-4.499585152,1,0.353246391,1,0.858086348,1,-0.68573463,1,0.391274095,1,-0.15447244,1,0.163105652,1,-6.295220852,1,4.123510838,1,4.433779716,1
2.071796656,-7.665414333,1,0.478230685,1,-4.152305603,1,0.310156167,1,0.755970955,1,-0.637492836,1,0.392783344,1,-0.150473908,1,0.161871716,1,-6.199302197,1,4.17939949,1,4.780977249,1
2.075796127,-7.634147167,1,0.522424698,1,-3.823552608,1,0.258049786,1,0.646146894,1,-0.580956876,1,0.394093692,1,-0.146947816,1,0.160689116,1,-6.202139854,1,4.237257957,1,5.109590054,1
2.079797506,-7.580429554,1,0.561233521,1,-3.502364397,1,0.207436964,1,0.52519083,1,-0.509747803,1,0.395186782,1,-0.143942297,1,0.15956977,1,-6.177506447,1,4.28746891,1,5.430643082,1
2.083794832,-7.555426121,1,0.523058712,1,-3.32530427,1,0.148411363,1,0.403550923,1,-0.446536481,1,0.396045864,1,-0.141483992,1,0.158519208,1,-6.176301479,1,4.258285046,1,5.607652664,1
2.087793827,-7.567047596,1,0.45502153,1,-3.311746836,1,0.089995801,1,0.283037931,1,-0.379765898,1,0.396665961,1,-0.139583707,1,0.157524705,1,-6.206324577,1,4.196793079,1,5.621294975,1
2.091794968,-7.633203506,1,0.420421988,1,-3.382093668,1,0.034373507,1,0.15137288,1,-0.313200414,1,0.397047132,1,-0.138246775,1,0.156574637,1,-6.285429955,1,4.166297913,1,5.551188469,1
2.095792055,-7.766792297,1,0.445934147,1,-3.472177505,1,-0.022516357,1,0.031797435,1,-0.272123516,1,0.397203475,1,-0.137457207,1,0.155621007,1,-6.42666769,1,4.193618298,1,5.461500168,1
2.09979105,-7.974114895,1,0.308546841,1,-3.604827642,1,-0.07946986,1,-0.079199895,1,-0.22996287,1,0.397145033,1,-0.137157217,1,0.154652998,1,-6.63689661,1,4.05586338,1,5.32943821,1
2.103798628,-8.199020386,1,-0.114191793,1,-3.821601868,1,-0.137434974,1,-0.160804734,1,-0.193024069,1,0.396853924,1,-0.137277916,1,0.15367642,1,-6.860632896,1,3.63046217,1,5.113607407,1
2.107802153,-8.479744911,1,-0.390862226,1,-3.982401371,1,-0.201823726,1,-0.238038287,1,-0.165746182,1,0.396306217,1,-0.137740567,1,0.152696982,1,-7.136875153,1,3.348658323,1,4.954286098,1
2.111801863,-8.721913338,1,-0.37349394,1,-4.293831825,1,-0.265015572,1,-0.294549257,1,-0.155633405,1,0.395506263,1,-0.138472408,1,0.151679769,1,-7.371953964,1,3.358495235,1,4.64493084,1
2.115802765,-8.93588829,1,-0.242647007,1,-4.503211021,1,-0.320045173,1,-0.342387587,1,-0.165720969,1,0.394484103,1,-0.139396533,1,0.150588259,1,-7.576978207,1,3.47972393,1,4.438210487,1
2.119799852,-9.011351585,1,-0.149180651,1,-4.702011108,1,-0.366061151,1,-0.372565448,1,-0.185428053,1,0.393276155,1,-0.140457973,1,0.149379164,1,-7.642162323,1,3.561830521,1,4.242559433,1
2.123798847,-8.943886757,1,-0.294064105,1,-4.897491932,1,-0.397842586,1,-0.396443933,1,-0.212576985,1,0.391931057,1,-0.14157404,1,0.148044184,1,-7.56388998,1,3.404327631,1,4.050647259,1
2.127800226,-8.783466339,1,-0.456042439,1,-5.017707348,1,-0.414422423,1,-0.415700406,1,-0.241965815,1,0.390506268,1,-0.142723933,1,0.146571964,1,-7.392336845,1,3.228990078,1,3.934219837,1
2.131798267,-8.510749817,1,-0.59963882,1,-5.063598633,1,-0.439018756,1,-0.433431178,1,-0.275475413,1,0.389032304,1,-0.143897772,1,0.144955695,1,-7.108257771,1,3.071572304,1,3.892231941,1
2.135797262,-8.174527168,1,-0.672192574,1,-5.067158222,1,-0.463203788,1,-0.458570093,1,-0.307219565,1,0.387484133,1,-0.145109981,1,0.143188819,1,-6.76030302,1,2.984503746,1,3.892763615,1
2.139798164,-7.671557426,1,-0.85878104,1,-4.991322517,1,-0.489845872,1,-0.487990767,1,-0.338205367,1,0.385858715,1,-0.146377712,1,0.141261265,1,-6.245066166,1,2.782668591,1,3.97286129,1
2.143795729,-7.13609314,1,-1.115543127,1,-4.925680637,1,-0.523103237,1,-0.531052709,1,-0.357339203,1,0.38413161,1,-0.147743031,1,0.139180511,1,-5.696393013,1,2.509686232,1,4.042967319,1
2.1477952,-6.597368717,1,-1.436952829,1,-4.887317657,1,-0.562452376,1,-0.586895108,1,-0.372973859,1,0.382292211,1,-0.149273902,1,0.136966795,1,-5.142861366,1,2.170946836,1,4.085926056,1
2.151795864,-6.174404144,1,-1.605205774,1,-4.834037781,1,-0.598289251,1,-0.65317297,1,-0.368067831,1,0.380308956,1,-0.151022583,1,0.134647444,1,-4.702986717,1,1.98394084,1,4.143968582,1
2.15579319,-6.054614067,1,-1.648179889,1,-4.798593521,1,-0.637337863,1,-0.72593379,1,-0.361358047,1,0.378197402,1,-0.153037041,1,0.132232428,1,-4.563722134,1,1.92089951,1,4.184199333,1
2.159792185,-6.135076046,1,-1.536708117,1,-4.80173111,1,-0.647535324,1,-0.793178916,1,-0.354880124,1,0.376004964,1,-0.155331492,1,0.129750699,1,-4.622010231,1,2.011403561,1,4.185660362,1
2.163793087,-6.321771145,1,-1.355019569,1,-4.831925869,1,-0.653499782,1,-0.853470683,1,-0.339487165,1,0.373794317,1,-0.157892779,1,0.127216175,1,-4.78396225,1,2.171788454,1,4.159649372,1
2.167790413,-6.577597618,1,-1.240867138,1,-4.833461285,1,-0.633723915,1,-0.896588802,1,-0.324184954,1,0.371623278,1,-0.16068086,1,0.124666698,1,-5.01286602,1,2.264840126,1,4.161716938,1
2.171789885,-6.87501049,1,-1.203954101,1,-4.875244617,1,-0.611890435,1,-0.938005209,1,-0.300013483,1,0.369533747,1,-0.163658485,1,0.122141659,1,-5.281538963,1,2.281252384,1,4.122857571,1
2.175791264,-7.24886179,1,-1.129431963,1,-4.816243649,1,-0.572651327,1,-0.965088248,1,-0.264827877,1,0.367568195,1,-0.166811228,1,0.119681403,1,-5.624976158,1,2.336259127,1,4.18395853,1
2.179789066,-7.60687685,1,-1.067539692,1,-4.683224678,1,-0.528525233,1,-0.976952672,1,-0.216981292,1,0.365748823,1,-0.170100555,1,0.117356926,1,-5.951276302,1,2.379842281,1,4.318230629,1
2.183794498,-7.985929489,1,-0.933452904,1,-4.530781269,1,-0.474876106,1,-0.982864857,1,-0.152800113,1,0.364090264,1,-0.173502877,1,0.115232401,1,-6.297543526,1,2.496968746,1,4.471064091,1
2.187795639,-7.663096428,1,-0.65030247,1,-5.497840405,1,-0.388085514,1,-1.004571319,1,-0.065700501,1,0.362653226,1,-0.177042156,1,0.113362856,1,-5.940626144,1,2.76503849,1,3.50328207,1
2.191792965,16.36123848,1,-1.342219472,1,-19.0284214,1,0.602768719,1,-1.58800602,1,0.384378254,1,0.363214731,1,-0.181837067,1,0.11221531,1,18.12985039,1,2.075201988,1,-10.03704166,1
2.195792675,-2.01214242,1,-1.018030524,1,-10.26887512,1,0.008362167,1,-1.987241149,1,0.382486641,1,0.365172446,1,-0.189350277,1,0.110972226,1,-0.171311736,1,2.412143707,1,-1.296869278,1
2.199794292,6.347820759,1,-7.603701591,1,-9.040241241,1,-0.517034948,1,-1.605692983,1,0.421006262,1,0.363949358,1,-0.196613103,1,0.109926514,1,8.258364677,1,-4.189352989,1,-0.076778412,1
2.203791857,14.18359184,1,-11.15793991,1,-10.73029041,1,-0.381412834,1,-1.842873931,1,0.527009428,1,0.36244756,1,-0.203604609,1,0.109187767,1,16.16114807,1,-7.761874676,1,-1.77441597,1
2.207790852,6.314650059,1,-13.48877621,1,-11.68237877,1,-0.687618732,1,-2.041851521,1,0.868427396,1,0.360330641,1,-0.211903468,1,0.109000817,1,8.3716259,1,-10.11757946,1,-2.735001564,1
2.211791754,1.792453527,1,-11.21091175,1,-13.11462593,1,-0.727361262,1,-2.133000374,1,1.190969229,1,0.35723123,1,-0.221179709,1,0.109972864,1,3.938033342,1,-7.874279499,1,-4.175106049,1
2.21578908,2.029094458,1,-7.343660831,1,-13.86939049,1,-0.656504333,1,-2.222192526,1,1.362372279,1,0.3540124,1,-0.231121764,1,0.111778423,1,4.269433022,1,-4.04337883,1,-4.939626694,1
2.219788074,0.771283269,1,-5.678078175,1,-14.49703121,1,-0.737662673,1,-2.41926384,1,1.426178813,1,0.350803196,1,-0.241748527,1,0.113907017,1,3.112660885,1,-2.414836407,1,-5.579585075,1
2.223788977,-2.211405516,1,-6.490623951,1,-12.79006958,1,-0.932653844,1,-2.607804298,1,1.462951303,1,0.346881896,1,-0.253149748,1,0.115932718,1,0.238081694,1,-3.271660328,1,-3.885579109,1
2.227786303,-5.137800694,1,-5.321702003,1,-11.11037064,1,-0.951358676,1,-2.692519665,1,1.383637786,1,0.342628777,1,-0.265070289,1,0.11779853,1,-2.575621367,1,-2.150674105,1,-2.220402718,1
2.231786013,-6.826777935,1,-4.664236546,1,-10.58691597,1,-0.984473348,1,-2.871702671,1,1.265430808,1,0.338399231,1,-0.277320266,1,0.119136132,1,-4.149171829,1,-1.541493416,1,-1.71389389,1
2.23578763,-9.130309105,1,-3.86515522,1,-9.789813042,1,-1.02720809,1,-3.012660503,1,1.18353045,1,0.33415705,1,-0.290049851,1,0.119880319,1,-6.333181858,1,-0.79150939,1,-0.936542511,1
2.239785194,-8.056406021,1,-2.7625494,1,-11.97550011,1,-1.025886774,1,-3.151531935,1,1.160883427,1,0.329782188,1,-0.303139031,1,0.121046886,1,-5.136855125,1,0.260219812,1,-3.144264221,1
2.243784428,-9.564912796,1,-0.40002504,1,-12.19132614,1,-0.806275189,1,-3.345330477,1,1.064613104,1,0.326168269,1,-0.316907585,1,0.12115708,1,-6.517123699,1,2.577646017,1,-3.388137817,1
2.247785568,-11.96861362,1,-0.87387085,1,-11.96097088,1,-0.757925093,1,-3.271900177,1,0.885855019,1,0.323179305,1,-0.330748975,1,0.12054608,1,-8.792490005,1,2.063794613,1,-3.189767838,1
2.251782656,-10.7687397,1,0.301395714,1,-12.58638287,1,-0.615512431,1,-3.175298214,1,0.779025793,1,0.320772827,1,-0.344009399,1,0.119577348,1,-7.470239639,1,3.204408407,1,-3.848876953,1
2.255782127,-11.75536823,1,1.015607953,1,-12.83541107,1,-0.52489388,1,-3.090923309,1,0.684597313,1,0.318958372,1,-0.356850386,1,0.118336275,1,-8.338914871,1,3.88924408,1,-4.133587837,1
2.259783506,-12.87296104,1,-0.282878816,1,-12.98526287,1,-0.528013766,1,-2.931243658,1,0.723889351,1,0.317219228,1,-0.369168699,1,0.11710301,1,-9.343884468,1,2.56227541,1,-4.319099426,1
2.263787031,-13.21476746,1,0.073080078,1,-12.18335915,1,-0.423230648,1,-2.716361284,1,0.795819879,1,0.315581232,1,-0.380866587,1,0.116450325,1,-9.579235077,1,2.891028643,1,-3.552384377,1
2.267786503,-11.69560242,1,0.675545335,1,-11.81686783,1,-0.291545153,1,-2.483825922,1,0.832210839,1,0.314181924,1,-0.391757816,1,0.116320506,1,-7.961401939,1,3.469011307,1,-3.220126152,1
2.271787405,-10.82647705,1,0.989909232,1,-12.16521931,1,-0.198263824,1,-2.333127499,1,0.835044801,1,0.313174248,1,-0.401931345,1,0.116550408,1,-7.000511169,1,3.762862921,1,-3.602254868,1
2.275784492,-10.9586935,1,-0.138746917,1,-10.66944218,1,-0.139383331,1,-2.191136599,1,0.881973326,1,0.312257975,1,-0.411618173,1,0.117068052,1,-7.045719624,1,2.614844322,1,-2.139612198,1
2.279783487,-9.679636002,1,-1.121851206,1,-9.758267403,1,-0.061162475,1,-2.035569668,1,0.896837711,1,0.311520278,1,-0.420739979,1,0.117940426,1,-5.685064316,1,1.614392757,1,-1.260735512,1
2.283784389,-9.106825829,1,-1.477537155,1,-9.368224144,1,-0.00915332,1,-1.938949943,1,0.907051027,1,0.310915589,1,-0.429397881,1,0.119040258,1,-5.035114288,1,1.242884874,1,-0.902285576,1
2.287781477,-8.747321129,1,-2.859781504,1,-9.173898697,1,-0.012648579,1,-1.839097738,1,0.881973088,1,0.310408056,1,-0.43770045,1,0.120258659,1,-4.601922035,1,-0.154075146,1,-0.739059448,1
2.291781187,-8.329696655,1,-4.171501637,1,-8.22135067,1,-0.047624219,1,-1.746793747,1,0.880242765,1,0.309715301,1,-0.445625335,1,0.1215619,1,-4.114228249,1,-1.481737375,1,0.183804512,1
2.295782566,-6.907299042,1,-4.889759541,1,-7.706271172,1,-0.073088959,1,-1.67264235,1,0.828928351,1,0.308909118,1,-0.453171134,1,0.122886151,1,-2.625359535,1,-2.216517925,1,0.670510292,1
2.299780369,-6.06730175,1,-5.059936523,1,-7.420994282,1,-0.127790645,1,-1.636597872,1,0.765806019,1,0.308015764,1,-0.460444659,1,0.124044597,1,-1.721519947,1,-2.403692007,1,0.92827177,1
2.30377984,-7.205995083,1,-6.622685432,1,-7.073860168,1,-0.269201547,1,-1.625335574,1,0.753155529,1,0.306744874,1,-0.467562228,1,0.125033751,1,-2.797962189,1,-3.986462593,1,1.249073982,1
2.307780981,-6.468754292,1,-6.533272266,1,-6.780629635,1,-0.338502914,1,-1.562070966,1,0.715200305,1,0.30507201,1,-0.474514008,1,0.126047343,1,-2.000136375,1,-3.920242786,1,1.51727438,1
2.311778069,-6.51607132,1,-6.247585297,1,-7.214981079,1,-0.428089648,1,-1.527984977,1,0.657836854,1,0.303171784,1,-0.48123163,1,0.126899764,1,-1.989114285,1,-3.659349918,1,1.059033394,1
2.315777779,-7.726714134,1,-5.238280773,1,-6.882957458,1,-0.487357467,1,-1.493510962,1,0.630508721,1,0.300975084,1,-0.487786114,1,0.127657384,1,-3.143031597,1,-2.67707777,1,1.368207932,1
2.319779396,-6.625313282,1,-4.891241074,1,-7.109221458,1,-0.531899631,1,-1.41795671,1,0.579669237,1,0.298612535,1,-0.494047672,1,0.128328711,1,-1.987623692,1,-2.358032465,1,1.120380402,1
2.323777199,-7.381250858,1,-3.470601797,1,-7.672064781,1,-0.563857734,1,-1.356985092,1,0.560594499,1,0.296135277,1,-0.50003475,1,0.128944412,1,-2.692091942,1,-0.965936422,1,0.537079811,1
2.32777667,-8.990322113,1,-2.240493774,1,-7.898507118,1,-0.544282377,1,-1.279595137,1,0.587252855,1,0.293515533,1,-0.50575614,1,0.129700631,1,-4.2521348,1,0.234854698,1,0.291355133,1
2.331777811,-8.885165215,1,-1.264693379,1,-8.111872673,1,-0.512413561,1,-1.15806222,1,0.571203828,1,0.290959895,1,-0.511106789,1,0.130635798,1,-4.101267338,1,1.182409644,1,0.05988884,1
2.335774899,-8.373995781,1,-0.078663848,1,-8.837384224,1,-0.450742036,1,-1.042342186,1,0.567422688,1,0.288485438,1,-0.515940011,1,0.131712422,1,-3.548924923,1,2.341605186,1,-0.681852341,1
2.339780092,-8.910141945,1,0.146561742,1,-8.894940376,1,-0.399647802,1,-0.948708117,1,0.544695258,1,0.286244273,1,-0.520388782,1,0.132851601,1,-4.047273159,1,2.542461872,1,-0.754678726,1
2.343781471,-7.99739027,1,-0.473322034,1,-8.663373947,1,-0.353401929,1,-0.843162894,1,0.563781679,1,0.284079492,1,-0.524440467,1,0.134151235,1,-3.100180149,1,1.899407983,1,-0.536927223,1
2.347778559,-6.845377922,1,-0.882304966,1,-8.719587326,1,-0.305319726,1,-0.773778856,1,0.56178242,1,0.282029063,1,-0.528158247,1,0.135616973,1,-1.916728497,1,1.468675375,1,-0.605833054,1
2.35177803,-6.790574551,1,-1.40232718,1,-8.681003571,1,-0.286665738,1,-0.741183698,1,0.527467072,1,0.280123502,1,-0.531690001,1,0.137067914,1,-1.832120895,1,0.928360105,1,-0.579564095,1
2.355779648,-6.061750412,1,-2.361998081,1,-8.4202528,1,-0.274401903,1,-0.708101869,1,0.493798524,1,0.278318584,1,-0.53503269,1,0.138418391,1,-1.075146198,1,-0.050504446,1,-0.330602646,1
2.359777212,-6.2276721,1,-2.906732798,1,-8.336782455,1,-0.274468064,1,-0.690378487,1,0.475254267,1,0.276577711,1,-0.53824687,1,0.139694676,1,-1.214051247,1,-0.613713264,1,-0.258580208,1
2.363776207,-6.911511421,1,-3.145486593,1,-8.067831993,1,-0.289295793,1,-0.666753173,1,0.448626012,1,0.274833739,1,-0.541378677,1,0.140897527,1,-1.87161684,1,-0.87083149,1,-0.000795364,1
2.367777348,-7.171984196,1,-3.250127554,1,-8.01708889,1,-0.318973452,1,-0.604404032,1,0.415109277,1,0.27303195,1,-0.544288456,1,0.142024472,1,-2.107722282,1,-0.993975163,1,0.039877892,1
2.371774197,-7.216053009,1,-2.797146797,1,-7.985651016,1,-0.333684832,1,-0.54031986,1,0.404193461,1,0.271139711,1,-0.546933353,1,0.143158987,1,-2.129679203,1,-0.559839725,1,0.062636375,1
2.375773907,-6.685100555,1,-2.125694275,1,-8.136821747,1,-0.346381962,1,-0.487140447,1,0.405270755,1,0.269164145,1,-0.549341738,1,0.144345939,1,-1.578622818,1,0.092443943,1,-0.095966339,1
2.379775047,-6.026931763,1,-1.658074856,1,-8.100752831,1,-0.344486594,1,-0.442079365,1,0.393520623,1,0.267131954,1,-0.551555872,1,0.145574972,1,-0.90199852,1,0.540728092,1,-0.06633091,1
2.383771896,-5.91740036,1,-1.310268641,1,-8.321357727,1,-0.330712557,1,-0.43668735,1,0.391326189,1,0.265129596,1,-0.553671002,1,0.146819666,1,-0.774859905,1,0.869597435,1,-0.293025017,1
2.387770891,-6.139755249,1,-1.32303977,1,-8.372015953,1,-0.330388844,1,-0.409286588,1,0.38152644,1,0.263159811,1,-0.555711985,1,0.148052201,1,-0.980246067,1,0.83827281,1,-0.349557877,1
2.391772509,-5.895607948,1,-1.519098282,1,-8.454218864,1,-0.319221914,1,-0.391015112,1,0.37001279,1,0.261222035,1,-0.557636321,1,0.149265572,1,-0.720119953,1,0.62409687,1,-0.437192917,1
2.395770073,-5.581478596,1,-1.504364133,1,-8.114841461,1,-0.318972647,1,-0.384448916,1,0.358750433,1,0.259316772,1,-0.559508204,1,0.150448695,1,-0.390465736,1,0.621064782,1,-0.103125572,1
2.399769545,-5.802101612,1,-1.706018209,1,-8.303583145,1,-0.300008148,1,-0.381166041,1,0.344005346,1,0.257487506,1,-0.561346412,1,0.15158309,1,-0.595860958,1,0.402318478,1,-0.297233582,1
2.403770685,-5.872845173,1,-1.555788636,1,-8.146558762,1,-0.285493165,1,-0.365229517,1,0.329026997,1,0.255718797,1,-0.563142002,1,0.15268074,1,-0.65174675,1,0.536015153,1,-0.145551682,1
2.407767773,-6.112883568,1,-1.692214608,1,-8.378484726,1,-0.273243278,1,-0.350223154,1,0.312969297,1,0.254053116,1,-0.564850032,1,0.153713703,1,-0.877667427,1,0.384015203,1,-0.382647038,1
2.411766768,-5.537208557,1,-1.602345467,1,-8.434780121,1,-0.256627321,1,-0.355477601,1,0.296755672,1,0.252467841,1,-0.566520274,1,0.154706687,1,-0.288202286,1,0.459019184,1,-0.444137573,1
2.415768147,-5.119725704,1,-1.544625998,1,-8.41073513,1,-0.243700236,1,-0.38026917,1,0.276571184,1,0.250995547,1,-0.568215966,1,0.155588433,1,0.143266201,1,0.502758026,1,-0.425701141,1
2.419771671,-4.993524551,1,-1.514718413,1,-8.561786652,1,-0.229953021,1,-0.404954344,1,0.256168187,1,0.249644369,1,-0.570001006,1,0.156343475,1,0.284174442,1,0.519550204,1,-0.583109379,1
2.423771381,-5.795557976,1,-1.364020467,1,-8.676809311,1,-0.207328588,1,-0.415886581,1,0.243371934,1,0.24841544,1,-0.571851909,1,0.156999052,1,-0.502628803,1,0.658037066,1,-0.705117702,1
2.427772522,-5.478728771,1,-1.034575105,1,-8.75130558,1,-0.181722224,1,-0.424202025,1,0.23870191,1,0.247322693,1,-0.573720515,1,0.157598674,1,-0.170440674,1,0.976344943,1,-0.787013531,1
2.431769848,-5.216314793,1,-0.908654869,1,-8.496582985,1,-0.157359987,1,-0.422213018,1,0.232239693,1,0.246324643,1,-0.575596094,1,0.15817599,1,0.107370853,1,1.091884136,1,-0.539957047,1
2.435768843,-5.665434837,1,-1.026774049,1,-8.534079552,1,-0.130424812,1,-0.430860996,1,0.224511594,1,0.245442107,1,-0.577483535,1,0.158742979,1,-0.326273918,1,0.964295983,1,-0.585456848,1
2.43977046,-5.734389305,1,-1.093999743,1,-8.40960598,1,-0.105518773,1,-0.427452326,1,0.216841549,1,0.244679987,1,-0.579363704,1,0.159270898,1,-0.379831791,1,0.888576984,1,-0.469220638,1
2.443768024,-5.631514072,1,-1.110659122,1,-8.312661171,1,-0.087427795,1,-0.429778963,1,0.195931345,1,0.244038627,1,-0.581238449,1,0.159726411,1,-0.261622429,1,0.864395022,1,-0.380763054,1
2.447767258,-5.695064545,1,-1.111810207,1,-8.307514191,1,-0.063881867,1,-0.421137154,1,0.18250668,1,0.24351722,1,-0.583070874,1,0.160122767,1,-0.310203075,1,0.856732845,1,-0.38414669,1
2.451768398,-5.588634491,1,-1.005539775,1,-8.108001709,1,-0.040595219,1,-0.419317454,1,0.174597412,1,0.243117303,1,-0.584873796,1,0.160470322,1,-0.189062595,1,0.957494974,1,-0.19328022,1
2.455765486,-5.70785141,1,-1.118272901,1,-8.185154915,1,-0.015978951,1,-0.423341036,1,0.151369631,1,0.242836878,1,-0.586665869,1,0.160757855,1,-0.293674469,1,0.840211749,1,-0.279290676,1
2.459764242,-5.756335258,1,-1.179705977,1,-8.167442322,1,0.014007077,1,-0.416442931,1,0.14711529,1,0.242722958,1,-0.58844012,1,0.160958245,1,-0.327715874,1,0.775566101,1,-0.270693302,1
2.463765144,-5.75526762,1,-1.324950576,1,-8.077245712,1,0.024083339,1,-0.406441867,1,0.142345846,1,0.242690384,1,-0.590179145,1,0.161145836,1,-0.312509537,1,0.627792358,1,-0.189608574,1
2.46776247,-5.760825634,1,-1.535143614,1,-7.984470367,1,0.039334435,1,-0.394629776,1,0.135567963,1,0.242714897,1,-0.591866732,1,0.161329761,1,-0.30436182,1,0.415581942,1,-0.105810642,1
2.471762419,-5.697917938,1,-1.698415756,1,-8.044662476,1,0.046099234,1,-0.385112643,1,0.125748128,1,0.242797107,1,-0.593502641,1,0.161484614,1,-0.228184223,1,0.250809193,1,-0.174836159,1
2.475764275,-5.871864796,1,-1.819963455,1,-8.035269737,1,0.056135666,1,-0.36016053,1,0.127942294,1,0.242905051,1,-0.595077276,1,0.161648288,1,-0.389370918,1,0.128037333,1,-0.174022198,1
2.479762077,-5.777566433,1,-1.782791615,1,-8.002757072,1,0.065399796,1,-0.335625619,1,0.126337528,1,0.243046612,1,-0.596548378,1,0.161837265,1,-0.283164501,1,0.164378762,1,-0.14962244,1
2.483767509,-5.738267899,1,-1.697399735,1,-8.028513908,1,0.074596196,1,-0.320211649,1,0.124819972,1,0.243212923,1,-0.597948909,1,0.162049815,1,-0.232539177,1,0.249221325,1,-0.183180809,1
2.487769127,-5.454017639,1,-1.641311288,1,-8.090867043,1,0.074540466,1,-0.311062127,1,0.127083033,1,0.24156256,1,-0.602885842,1,0.165169001,1,0.091549873,1,0.285833836,1,-0.268819332,1
2.491766453,-5.461946487,1,-1.659018636,1,-8.178426743,1,0.077946842,1,-0.297935843,1,0.127615511,1,0.241637126,1,-0.604113162,1,0.166362971,1,0.093504429,1,0.267079711,1,-0.363135815,1
2.495765448,-5.653266907,1,-1.87583971,1,-8.089086533,1,0.074015625,1,-0.28821528,1,0.136388674,1,0.241777778,1,-0.605374455,1,0.166650429,1,-0.087667942,1,0.049678802,1,-0.280876637,1
2.499772787,-5.650004864,1,-2.122557878,1,-7.83335638,1,0.067007408,1,-0.282040566,1,0.128136113,1,0.241894037,1,-0.60660547,1,0.166936487,1,-0.074510574,1,-0.197773576,1,-0.032024384,1
2.503776073,-5.609585762,1,-2.3487041,1,-7.752101421,1,0.055058178,1,-0.280024469,1,0.128927886,1,0.241982669,1,-0.60780859,1,0.167211875,1,-0.024427891,1,-0.42483747,1,0.042540073,1
2.507775307,-5.53207016,1,-2.35691762,1,-7.725911617,1,0.039684098,1,-0.27188018,1,0.130728647,1,0.24201107,1,-0.609010041,1,0.167496845,1,0.062729359,1,-0.434439421,1,0.062154293,1
2.511776209,-5.500699043,1,-2.372298002,1,-7.889593601,1,0.021642735,1,-0.266143531,1,0.139288321,1,0.241940394,1,-0.610178113,1,0.167824373,1,0.103466988,1,-0.451937556,1,-0.107743263,1
2.515773773,-5.587905407,1,-2.278083086,1,-7.914451599,1,-0.008806426,1,-0.256703079,1,0.143706158,1,0.241763279,1,-0.611333191,1,0.168186128,1,0.025515079,1,-0.360652208,1,-0.138552666,1
2.519772768,-5.760866642,1,-2.316568613,1,-7.734918118,1,-0.028232025,1,-0.240556121,1,0.139628872,1,0.241464704,1,-0.612439454,1,0.168574467,1,-0.138589859,1,-0.402945757,1,0.035518169,1
2.523773432,-6.178590775,1,-2.287181616,1,-7.676575661,1,-0.056457184,1,-0.228131562,1,0.136024669,1,0.241060972,1,-0.61348784,1,0.168963253,1,-0.54792738,1,-0.378103375,1,0.088907242,1
2.527770519,-6.125279903,1,-2.277336359,1,-7.582951546,1,-0.08618848,1,-0.20646356,1,0.128515363,1,0.240564495,1,-0.614449024,1,0.169333965,1,-0.486932755,1,-0.373405218,1,0.178215027,1
2.531770229,-5.822418213,1,-2.319722891,1,-7.560446262,1,-0.112819344,1,-0.197178528,1,0.119881988,1,0.2399555,1,-0.615350425,1,0.169680387,1,-0.176869869,1,-0.421727061,1,0.196938992,1
2.53577137,-5.95239687,1,-2.270531416,1,-7.771111488,1,-0.145249695,1,-0.187198579,1,0.10473381,1,0.239247233,1,-0.616197467,1,0.169997811,1,-0.300086021,1,-0.379163742,1,-0.017030716,1
2.539768934,-5.997559547,1,-2.187137365,1,-7.799870014,1,-0.173941821,1,-0.17467168,1,0.097225502,1,0.238453194,1,-0.61699903,1,0.170267776,1,-0.338852406,1,-0.302997708,1,-0.048692703,1
2.543767452,-5.918421745,1,-2.121231079,1,-7.733595371,1,-0.202851743,1,-0.18569091,1,0.076058477,1,0.237574294,1,-0.617772043,1,0.170482695,1,-0.253550529,1,-0.244935036,1,0.014979362,1
2.547768593,-5.865348339,1,-2.042275906,1,-7.781135082,1,-0.243305251,1,-0.19292447,1,0.062551402,1,0.236615628,1,-0.618564606,1,0.170604303,1,-0.194159985,1,-0.174462795,1,-0.035135269,1
2.551765442,-6.171023846,1,-2.079352379,1,-7.803713322,1,-0.287427574,1,-0.195951998,1,0.062302537,1,0.235530734,1,-0.619378507,1,0.170662895,1,-0.493352413,1,-0.221021414,1,-0.060181618,1
2.555764437,-5.280423641,1,-1.956272125,1,-7.797867775,1,-0.308572829,1,-0.211843431,1,0.045963511,1,0.234266028,1,-0.620205462,1,0.170724645,1,0.403831482,1,-0.108826518,1,-0.05656147,1
