Time,inertial-6253.76535:scaledAccelX,inertial-6253.76535:scaledAccelY,inertial-6253.76535:scaledAccelZ,inertial-6253.76535:scaledGyroX,inertial-6253.76535:scaledGyroY,inertial-6253.76535:scaledGyroZ,inertial-6253.76535:scaledMagX,inertial-6253.76535:scaledMagY,inertial-6253.76535:scaledMagZ,inertial-6253.76535:roll,inertial-6253.76535:pitch,inertial-6253.76535:yaw
0.000000000,0.5228025317192078,0.2128895074129105,-0.826804518699646,-0.001227512140758336,-0.003839540760964155,0.004426111932843924,-0.2505021989345551,-0.2140348106622696,0.1600505411624908,-0.2344761341810226,0.547150731086731,2.154680013656616
0.005000960,0.5219565629959106,0.2141619622707367,-0.8275057077407837,-0.0009522736654616892,-0.003226153552532196,0.003332514315843582,-0.250260055065155,-0.2139352262020111,0.1600474715232849,-0.2344993650913239,0.5471422672271729,2.154660701751709
0.010002944,0.5221890211105347,0.214645192027092,-0.8249496817588806,0.0004085136170033365,-0.00291455490514636,0.003619538387283683,-0.2500737309455872,-0.2138586044311523,0.1600451022386551,-0.2345190346240997,0.5471383333206177,2.154644966125488
0.015000064,0.5217426419258118,0.2138886004686356,-0.8258746862411499,0.0007384787313640118,-0.002142111305147409,0.004439555108547211,-0.2500119507312775,-0.2138331979513168,0.1600443124771118,-0.2345172166824341,0.5471399426460266,2.154636859893799
0.019997953,0.523488461971283,0.2166384607553482,-0.8273956179618835,0.002535790670663118,-0.002823419868946075,0.00433521019294858,-0.2499644309282303,-0.2138136476278305,0.1600437164306641,-0.2345339804887772,0.5471304655075073,2.154619932174683
0.024996864,0.5235480070114136,0.2162551879882813,-0.826115608215332,0.001868298975750804,-0.001731767901219428,0.00607624463737011,-0.2502515017986298,-0.2139168679714203,0.1600201725959778,-0.2345366328954697,0.5471352338790894,2.154622077941895
0.029996799,0.5255631804466248,0.2151621878147125,-0.8265160918235779,0.002156975213438272,-0.002440179232507944,0.006234501488506794,-0.2507786154747009,-0.2141072154045105,0.1599784642457962,-0.2345274686813354,0.5471374988555908,2.154622077941895
0.034997761,0.5247485637664795,0.2139229476451874,-0.8264887928962708,0.004102349281311035,-0.002824291354045272,0.006342355627566576,-0.2509533762931824,-0.2141703218221664,0.1599646359682083,-0.2345165908336639,0.5471405982971191,2.154622554779053
0.039999746,0.5229640007019043,0.2150901108980179,-0.8261973261833191,0.00466629397124052,-0.003499984741210938,0.005634487606585026,-0.251087874174118,-0.2142188996076584,0.1599539965391159,-0.2345053851604462,0.5471346378326416,2.15462327003479
0.044996865,0.5236053466796875,0.2123911380767822,-0.8265218138694763,0.005563938524574041,-0.002891293028369546,0.006427666638046503,-0.25113245844841,-0.2142350077629089,0.1599504798650742,-0.2344896048307419,0.5471340417861938,2.154626131057739
0.049994752,0.5230761170387268,0.2144473344087601,-0.8262807726860046,0.004341159481555223,-0.003145295428112149,0.005971022881567478,-0.2509055733680725,-0.2143879681825638,0.1598730087280273,-0.2344842851161957,0.5471310615539551,2.154624938964844
0.054993663,0.5228049159049988,0.2137332558631897,-0.8283882737159729,0.00472352234646678,-0.002970329951494932,0.005645495839416981,-0.250830352306366,-0.2144386917352676,0.1598473191261292,-0.2344761788845062,0.5471251010894775,2.154622077941895
0.059993599,0.5230513215065002,0.2130167633295059,-0.8285685777664185,0.003572973189875484,-0.001355846878141165,0.004977315664291382,-0.2507724463939667,-0.2144777178764343,0.1598275601863861,-0.2344705015420914,0.5471282005310059,2.154608964920044
0.064995073,0.5238245129585266,0.2132070511579514,-0.8281645774841309,0.003928687423467636,-0.000760231981985271,0.005742119625210762,-0.250753253698349,-0.2144906520843506,0.1598210036754608,-0.2344627231359482,0.5471343398094177,2.154602527618408
0.069997057,0.5247147083282471,0.2132363766431808,-0.8270221948623657,0.002292007906362414,-0.00163659849204123,0.00653117336332798,-0.2505469024181366,-0.214299350976944,0.1600245088338852,-0.2344626039266586,0.5471413731575012,2.154595375061035
0.074994177,0.523144006729126,0.2145571559667587,-0.8275073170661926,0.001781548606231809,-0.0007140811067074537,0.004822013434022665,-0.250431090593338,-0.2141861319541931,0.1601435989141464,-0.2344683259725571,0.5471498370170593,2.154583215713501
0.079992063,0.5224834084510803,0.2143860459327698,-0.8279908299446106,0.002213459927588701,-0.001159890554845333,0.005296876188367605,-0.2503419816493988,-0.2140990048646927,0.1602352410554886,-0.2344787567853928,0.5471562147140503,2.154571533203125
0.084991232,0.5217293500900269,0.2143563330173492,-0.8264825344085693,0.001691257930360734,0.0008319514454342425,0.005061700008809566,-0.2503124177455902,-0.2140701115131378,0.1602656245231628,-0.234489768743515,0.547162652015686,2.154556035995483
0.089991935,0.5229939222335815,0.2153770923614502,-0.8269279599189758,0.001955847255885601,-9.925224003382027e-05,0.004257614258676767,-0.2503451108932495,-0.2140191048383713,0.1601679027080536,-0.2344933152198792,0.5471735596656799,2.154547452926636
0.094992898,0.5214453935623169,0.2138732522726059,-0.8261207342147827,0.002367407083511353,-0.0004775933339260519,0.001947010401636362,-0.2504118680953979,-0.2139731645584106,0.1600133925676346,-0.2345057725906372,0.5471722483634949,2.15452241897583
0.099995136,0.522007167339325,0.2123921811580658,-0.8248131275177002,0.002398189622908831,-0.003196534235030413,0.004647340625524521,-0.2504631876945496,-0.2139378190040588,0.1598945260047913,-0.2345034182071686,0.5471717715263367,2.154524803161621
0.104992509,0.5230752825737,0.2136158347129822,-0.8262530565261841,0.004298820625990629,-0.004320962820202112,0.003580305725336075,-0.2504802346229553,-0.2139260917901993,0.1598551124334335,-0.2344986796379089,0.5471588373184204,2.154509544372559
0.109990656,0.5240119695663452,0.2132060080766678,-0.827633798122406,0.003093047067523003,-0.003071683924645185,0.005720309913158417,-0.2504933476448059,-0.2139170616865158,0.1598247736692429,-0.2344904243946075,0.5471599698066711,2.154508829116821
0.114989571,0.5223875045776367,0.2124755531549454,-0.8271238803863525,0.003592522582039237,-0.002624827204272151,0.00603034533560276,-0.2503032684326172,-0.2139158844947815,0.1600255072116852,-0.2344854772090912,0.5471533536911011,2.154506206512451
0.119989507,0.5241410136222839,0.2141545116901398,-0.8272835612297058,0.001998095773160458,-0.003066262230277061,0.005265126004815102,-0.2501570284366608,-0.2139149755239487,0.1601799726486206,-0.2344917505979538,0.54714435338974,2.154496908187866
0.124990717,0.52187180519104,0.2134958803653717,-0.8272460103034973,0.003687606193125248,-0.003567143809050322,0.005299986340105534,-0.250108540058136,-0.2139146775007248,0.1602311879396439,-0.2344865500926971,0.5471320748329163,2.154491424560547
0.129992709,0.5229476690292358,0.2129609137773514,-0.8270511031150818,0.003795005846768618,-0.003970767371356487,0.005650291685014963,-0.2500712275505066,-0.2139144539833069,0.1602705866098404,-0.2344779670238495,0.5471237897872925,2.154482841491699
0.134995714,0.5235493183135986,0.2134208232164383,-0.8264062404632568,0.003719596657902002,-0.004105170257389545,0.005701539572328329,-0.2500570714473724,-0.2140302509069443,0.1602240055799484,-0.2344666719436646,0.5471137166023254,2.154480934143066
0.139993861,0.5222576856613159,0.2136607766151428,-0.8261556625366211,0.004396026954054832,-0.005182151682674885,0.00655810534954071,-0.2500443756580353,-0.2142364978790283,0.1601278483867645,-0.2344581186771393,0.5470992922782898,2.154479503631592
0.144992769,0.5216161608695984,0.2138396948575974,-0.8256070613861084,0.003369921119883657,-0.004809172358363867,0.006062522996217012,-0.2500401735305786,-0.2143048942089081,0.1600959748029709,-0.2344559580087662,0.5470791459083557,2.154475927352905
0.149992958,0.5230445265769958,0.2126122415065765,-0.8269754648208618,0.003225489985197783,-0.004748144187033176,0.004353901371359825,-0.2500369250774384,-0.2143575251102448,0.1600714474916458,-0.2344459295272827,0.547068178653717,2.154467821121216
0.154993922,0.5233295559883118,0.2113461196422577,-0.8285928964614868,0.003617031965404749,-0.003732738783583045,0.006644494365900755,-0.25003582239151,-0.2143749743700027,0.160063311457634,-0.234431728720665,0.5470583438873291,2.154468536376953
0.159996167,0.5226554870605469,0.2118934988975525,-0.8277398943901062,0.002498958259820938,-0.005242733750492334,0.006655548699200153,-0.2501678168773651,-0.2141822129487991,0.1601998507976532,-0.2344202101230621,0.5470437407493591,2.154473781585693
0.164993286,0.5236212015151978,0.2131195515394211,-0.8288425207138062,0.001602547359652817,-0.003323485143482685,0.006378730293363333,-0.2502115666866302,-0.2141183018684387,0.1602451354265213,-0.2344144433736801,0.5470356941223145,2.154473066329956
0.169991165,0.5223858952522278,0.2134074568748474,-0.8273290991783142,0.003213737858459353,-0.004452589899301529,0.006661224644631147,-0.2502452433109283,-0.214069128036499,0.1602799743413925,-0.234399601817131,0.5470194220542908,2.154481172561646
0.174990073,0.523368239402771,0.211165189743042,-0.8275538682937622,0.00158054823987186,-0.004665999207645655,0.004407877568155527,-0.2502564191818237,-0.2140528112649918,0.1602915227413177,-0.2344001829624176,0.5470035672187805,2.154464721679688
0.179990023,0.5224093198776245,0.2135325074195862,-0.827532947063446,0.0007832726696506143,-0.003587267128750682,0.005683375988155603,-0.2502638399600983,-0.214092493057251,0.1601400524377823,-0.234400674700737,0.5469995737075806,2.154460906982422
0.184990972,0.5226296186447144,0.214588075876236,-0.8282414078712463,0.002146943006664515,-0.002373943105340004,0.005099316127598286,-0.2502660155296326,-0.2141185849905014,0.1600501537322998,-0.2344066500663757,0.5469921231269836,2.154447317123413
0.189993218,0.522463858127594,0.215717539191246,-0.8275722861289978,0.003313785186037421,-0.002158269751816988,0.004060524981468916,-0.2502676844596863,-0.2141386568546295,0.1599809676408768,-0.2344074249267578,0.5469951629638672,2.154440641403198
0.194990844,0.5218590497970581,0.2143495827913284,-0.8281524181365967,0.001657228451222181,-0.001817645155824721,0.00611978629603982,-0.2502682507038116,-0.2141453176736832,0.1599580347537994,-0.2344096601009369,0.546989381313324,2.154442310333252
0.199988738,0.5225211977958679,0.2128038853406906,-0.8280935883522034,0.002410909160971642,-0.002293521538376808,0.005366753786802292,-0.2504635453224182,-0.2140882015228271,0.1600348502397537,-0.2344162613153458,0.5469884276390076,2.154433965682983
0.204987898,0.5239356160163879,0.2110275775194168,-0.8273966908454895,0.002091023605316877,-0.002405092120170593,0.005362618714570999,-0.2507247924804688,-0.2140064835548401,0.1601555794477463,-0.2344150990247726,0.5469927191734314,2.154427766799927
0.209987834,0.5234599709510803,0.2119356840848923,-0.8259912133216858,0.001311161555349827,-0.001962487585842609,0.005216373130679131,-0.2509258091449738,-0.2139436155557632,0.1602484732866287,-0.2344258278608322,0.5469890832901001,2.154420375823975
0.214988798,0.5234094262123108,0.2141707986593246,-0.8252253532409668,0.0002985919127240777,-0.001703189220279455,0.003981761634349823,-0.250992476940155,-0.2139227688312531,0.1602792739868164,-0.2344382256269455,0.5469930171966553,2.15440821647644
0.219990790,0.5234132409095764,0.2133611738681793,-0.8257669806480408,0.00113123725168407,-0.002273483201861382,0.004732491914182901,-0.2510437667369843,-0.2139067351818085,0.1603029668331146,-0.2344449758529663,0.5469949245452881,2.154398679733276
0.224987909,0.5227437615394592,0.2134629338979721,-0.827942430973053,0.001886679907329381,-0.003321676282212138,0.004872827790677547,-0.2506199777126312,-0.214013397693634,0.160088986158371,-0.234444335103035,0.5469843149185181,2.154396295547485
0.229986310,0.5241279006004333,0.2131577730178833,-0.8275514841079712,0.002962501021102071,-0.00469954963773489,0.004631566815078259,-0.2502938807010651,-0.2140954732894897,0.1599243432283401,-0.2344398498535156,0.5469704270362854,2.154384613037109
0.234985217,0.5247066617012024,0.2132569849491119,-0.8258379697799683,0.003698717337101698,-0.00403523026034236,0.003988701850175858,-0.2501857578754425,-0.2141226828098297,0.1598697453737259,-0.2344313561916351,0.5469659566879272,2.15437126159668
0.239985153,0.5245251655578613,0.2140619605779648,-0.826953113079071,0.001788273570127785,-0.004066463094204664,0.005461544264107943,-0.2501025497913361,-0.2141436338424683,0.1598277240991592,-0.2344334125518799,0.5469562411308289,2.154364347457886
0.244986370,0.5238465666770935,0.2129656076431274,-0.8276143670082092,0.001046256977133453,-0.006699990015476942,0.003698015352711082,-0.2502119541168213,-0.2142626494169235,0.1598786413669586,-0.2344429045915604,0.5469301342964172,2.154350519180298
0.249988601,0.5232663750648499,0.2131146341562271,-0.8280922770500183,0.001266998006030917,-0.005860568955540657,0.005965907592326403,-0.2504346370697021,-0.2144675701856613,0.1599833965301514,-0.2344471961259842,0.5469169020652771,2.154350519180298
0.254985720,0.5225374698638916,0.2122442573308945,-0.8289087414741516,0.001297648181207478,-0.006747763138264418,0.003460843116044998,-0.2505084574222565,-0.2145355045795441,0.1600181311368942,-0.2344519793987274,0.5468882322311401,2.154346466064453
0.259984136,0.5231243371963501,0.2117359787225723,-0.8288534283638,0.001173707656562328,-0.005954071413725615,0.003950942307710648,-0.2505652904510498,-0.2145877778530121,0.1600448489189148,-0.2344611287117004,0.5468725562095642,2.154331207275391
0.264983296,0.5228866338729858,0.2102974206209183,-0.8284909725189209,-0.0005479057435877621,-0.005641655996441841,0.003137399675324559,-0.2505841255187988,-0.2146051228046417,0.1600537151098251,-0.2344699501991272,0.5468482971191406,2.154318571090698
0.269989371,0.5228229165077209,0.2118718773126602,-0.8282037973403931,-0.001100187539122999,-0.005504427943378687,0.005069827660918236,-0.2507325112819672,-0.2142799645662308,0.1599167585372925,-0.234489768743515,0.5468331575393677,2.154315710067749
0.274990350,0.5211232304573059,0.2135406285524368,-0.8283138871192932,-0.001184540800750256,-0.004545856732875109,0.003633937798440456,-0.2507817447185516,-0.2141721397638321,0.1598713397979736,-0.234513908624649,0.5468177199363708,2.154303073883057
0.279992312,0.5210592150688171,0.2140386253595352,-0.8281156420707703,-0.00181910302489996,-0.005668119061738253,0.002245060866698623,-0.250819593667984,-0.2140891849994659,0.1598363965749741,-0.2345515340566635,0.5467925071716309,2.154283761978149
0.284989178,0.5223254561424255,0.2133648693561554,-0.8270079493522644,-0.0009501125896349549,-0.00520175090059638,0.002545502502471209,-0.2508321404457092,-0.2140616774559021,0.1598248034715652,-0.2345756739377975,0.5467715263366699,2.154271602630615
0.289987057,0.5234709978103638,0.2125359326601028,-0.8265565037727356,-0.001095996820367873,-0.003914380446076393,0.00257118116132915,-0.2504508197307587,-0.2141964286565781,0.1602391749620438,-0.2345912307500839,0.5467673540115356,2.154249906539917
0.294985980,0.523552417755127,0.2116120010614395,-0.8256239891052246,-0.002372860908508301,-0.003996502608060837,0.002268454991281033,-0.2502276301383972,-0.2142796963453293,0.1604813188314438,-0.2346211075782776,0.5467495918273926,2.154210329055786
0.299986184,0.524402379989624,0.2145252972841263,-0.8263258337974548,-0.0009835369419306517,-0.003787092864513397,0.002923767548054457,-0.2500559091567993,-0.2143437564373016,0.1606676280498505,-0.2346556633710861,0.5467323064804077,2.154175281524658
0.304987133,0.5233744978904724,0.2158496081829071,-0.8262249231338501,-0.001304355449974537,-0.002972573973238468,0.002835452556610107,-0.2499989718198776,-0.2143650054931641,0.160729393362999,-0.2346843928098679,0.5467252135276794,2.154158353805542
0.309989363,0.5218386054039001,0.2165444642305374,-0.825143575668335,-0.0007169889286160469,-0.003820681478828192,0.003859037300571799,-0.2500100433826447,-0.2143819481134415,0.1605952382087708,-0.2347075194120407,0.5467168092727661,2.154146671295166
0.314986497,0.5220282673835754,0.2170001864433289,-0.8257103562355042,0.000255220802500844,-0.005033409222960472,0.002419357653707266,-0.2500690519809723,-0.2143881618976593,0.1603675335645676,-0.2347337901592255,0.5466957092285156,2.154130935668945
0.319984645,0.5208067893981934,0.2157109826803207,-0.8275831937789917,0.0006023647729307413,-0.004143652971833944,0.003119210712611675,-0.2501144409179688,-0.2143929600715637,0.1601923406124115,-0.2347466796636581,0.5466787219047546,2.154118061065674
0.324983537,0.5220847725868225,0.2149497121572495,-0.8286665678024292,0.001993258483707905,-0.003537370124831796,0.003878289833664894,-0.2501294910907745,-0.2143945395946503,0.1601342409849167,-0.2347515821456909,0.5466681122779846,2.154108285903931
0.329983741,0.5220028162002563,0.2136852741241455,-0.8281595706939697,0.002444992307573557,-0.002517225220799446,0.00456286733970046,-0.250141054391861,-0.2143957614898682,0.1600895524024963,-0.234757661819458,0.5466588735580444,2.154093980789185
0.334984690,0.5212171077728271,0.2130492031574249,-0.828360378742218,0.002206743694841862,-0.003697467967867851,0.003912738058716059,-0.2501961886882782,-0.2141931354999542,0.1599661558866501,-0.234756126999855,0.5466464757919312,2.154090166091919
0.339986682,0.5215299725532532,0.2144684940576553,-0.8281558752059937,0.00253733154386282,-0.004184028133749962,0.00534475315362215,-0.2502385973930359,-0.2140372395515442,0.1598712056875229,-0.2347570508718491,0.5466315746307373,2.154093027114868
0.344984055,0.5231763124465942,0.2136503309011459,-0.8273097276687622,0.0003032984677702188,-0.003154577687382698,0.002645032480359077,-0.2502526640892029,-0.2139855474233627,0.1598397195339203,-0.2347767055034637,0.5466272234916687,2.1540687084198
0.349981964,0.5241406559944153,0.2117557674646378,-0.8272299766540527,0.001795473741367459,-0.004047658760100603,0.004113071598112583,-0.2502634823322296,-0.2139457762241364,0.1598154902458191,-0.23477803170681,0.5466193556785583,2.154059410095215
0.354980856,0.5221124887466431,0.2120370119810104,-0.8279744386672974,0.002160463482141495,-0.004282034002244473,0.003739879233762622,-0.2501829862594604,-0.2140201330184937,0.1598677337169647,-0.2347813099622726,0.5466049313545227,2.154044389724731
0.359980792,0.5229882597923279,0.2123784273862839,-0.8252114653587341,0.0007338726427406073,-0.002909039612859488,0.003546039341017604,-0.2500360012054443,-0.2141658514738083,0.1599688827991486,-0.2347883135080338,0.5466024875640869,2.154027223587036
0.364982009,0.5223424434661865,0.2136226147413254,-0.8272900581359863,0.0004573303158394992,-0.003897879971191287,0.004603648092597723,-0.2499872893095016,-0.2142141610383987,0.1600024253129959,-0.2348010390996933,0.5465933084487915,2.15401554107666
0.369984001,0.5228749513626099,0.214728981256485,-0.828334629535675,0.001183432061225176,-0.003614010754972696,0.002234326908364892,-0.2499497830867767,-0.2142513394355774,0.1600282341241837,-0.234820082783699,0.5465823411941528,2.153997182846069
0.374981374,0.522486686706543,0.2158155143260956,-0.8289710283279419,0.001198088750243187,-0.004050819668918848,0.004149540793150663,-0.2499373555183411,-0.2142636775970459,0.1600367873907089,-0.234827995300293,0.5465742349624634,2.153989315032959
0.379979253,0.5218216180801392,0.2145260721445084,-0.828599214553833,0.002520622685551643,-0.003612160682678223,0.004092016257345676,-0.2499275952577591,-0.2142738103866577,0.1599721014499664,-0.2348298728466034,0.5465604662895203,2.153982162475586
0.384978443,0.5206416249275208,0.2129809409379959,-0.8274040818214417,0.002844721311703324,-0.004426139872521162,0.00389464502222836,-0.2499243468046188,-0.2142771780490875,0.1599506586790085,-0.2348320484161377,0.5465479493141174,2.153968811035156
0.389978379,0.5215570330619812,0.2131071388721466,-0.828264594078064,0.001560978824272752,-0.004463538993149996,0.003864406375214458,-0.2499218583106995,-0.2142797559499741,0.1599341630935669,-0.2348355650901794,0.5465309023857117,2.153960227966309
0.394979596,0.5228569507598877,0.2135710269212723,-0.8277527689933777,0.001821296755224466,-0.00500218104571104,0.003003752790391445,-0.2499210238456726,-0.2142806202173233,0.1599286794662476,-0.2348464727401733,0.5465121269226074,2.153944492340088
0.399981558,0.5215471982955933,0.212939664721489,-0.826718270778656,0.0007584353443235159,-0.004930583294481039,0.002701406832784414,-0.2502610981464386,-0.2143249362707138,0.159985214471817,-0.2348563969135284,0.5464896559715271,2.153935432434082
0.404984564,0.5212222933769226,0.2120167016983032,-0.8263441324234009,0.00161609414499253,-0.00486152246594429,0.002113825874403119,-0.2504581809043884,-0.2143504470586777,0.1600190103054047,-0.2348632365465164,0.5464740395545959,2.153916835784912
0.409982711,0.5214715003967285,0.2134078592061996,-0.8261793255805969,8.6684973211959e-05,-0.005972304381430149,0.001311243511736393,-0.250609815120697,-0.21437007188797,0.1600449979305267,-0.2348787635564804,0.5464423298835754,2.15390419960022
0.414981633,0.520376443862915,0.2158279716968536,-0.8281106948852539,0.001405384740792215,-0.006002031266689301,0.002719786949455738,-0.2506600916385651,-0.2143765836954117,0.1600536108016968,-0.2348897308111191,0.546415388584137,2.153900146484375
0.419981569,0.5200719833374023,0.2137025445699692,-0.829193115234375,-0.0002351466537220404,-0.004761099815368652,0.002323939232155681,-0.2505601942539215,-0.2143848091363907,0.1599966734647751,-0.2349121272563934,0.5463983416557312,2.153881788253784
0.424982518,0.5211172699928284,0.2133550941944122,-0.8275462985038757,0.001345981610938907,-0.005832276772707701,0.002839412540197372,-0.2503873109817505,-0.2143908143043518,0.1599136739969254,-0.2349204868078232,0.5463786125183105,2.153869152069092
0.429984778,0.5209377408027649,0.2121547311544418,-0.828497588634491,-4.341873864177614e-05,-0.005260060075670481,0.004375607240945101,-0.2502542734146118,-0.2143954187631607,0.1598498374223709,-0.2349279075860977,0.5463603734970093,2.153864860534668
0.434981883,0.523995578289032,0.2135153859853745,-0.8273714780807495,-0.00178966554813087,-0.00597042590379715,0.002754991641268134,-0.250210165977478,-0.2143969386816025,0.1598286628723145,-0.2349584847688675,0.5463393926620483,2.153836965560913
0.439980030,0.523516833782196,0.2135357409715652,-0.8279761672019958,-0.001358664711005986,-0.007547821383923292,0.002855715109035373,-0.2501762211322784,-0.214398130774498,0.1598123610019684,-0.2349800914525986,0.5463136434555054,2.153818607330322
0.444978952,0.5236724019050598,0.2143799513578415,-0.8266096711158752,-0.0009433334926143289,-0.006623886991292238,0.003381040180101991,-0.2503102123737335,-0.2144474387168884,0.1597030609846115,-0.2349949181079865,0.5462937355041504,2.153809309005737
0.449978888,0.5230012536048889,0.2136552482843399,-0.8271357417106628,0.0003848104970529675,-0.006244436837732792,0.003256445284932852,-0.2504132986068726,-0.214485377073288,0.1596189588308334,-0.2350021749734879,0.5462686419487,2.153806209564209
0.454979837,0.5222032070159912,0.2140446752309799,-0.8274166584014893,0.0007697235560044646,-0.006020073778927326,0.004286047071218491,-0.2504474818706512,-0.2144979536533356,0.1595910787582397,-0.2350116223096848,0.5462512373924255,2.153792381286621
0.459982336,0.5211418867111206,0.215174213051796,-0.8286128640174866,0.00147666921839118,-0.005463525652885437,0.003605427918955684,-0.2504737675189972,-0.2145076394081116,0.1595696359872818,-0.2350262999534607,0.5462239980697632,2.153785228729248
0.464979976,0.523448646068573,0.2150156050920486,-0.8273552656173706,0.001073484076187015,-0.005155850667506456,0.005016980692744255,-0.2503738403320313,-0.2143685668706894,0.1595892608165741,-0.2350389808416367,0.5462124943733215,2.153772830963135
0.469978124,0.5219212770462036,0.2151518315076828,-0.8269007802009583,0.001710890792310238,-0.00369998486712575,0.003762337611988187,-0.2501871287822723,-0.2141176909208298,0.1596313863992691,-0.2350477576255798,0.5462021827697754,2.153763771057129
0.474977285,0.5232177972793579,0.2150467932224274,-0.8271368145942688,0.002585940528661013,-0.003637096146121621,0.003789694979786873,-0.2501251995563507,-0.2140345126390457,0.1596453487873077,-0.2350548952817917,0.5461933016777039,2.153756141662598
0.479977220,0.5224530100822449,0.2141702771186829,-0.8273876309394836,0.0006271916208788753,-0.005262553691864014,0.003655099542811513,-0.2500775754451752,-0.2139705121517181,0.1596561074256897,-0.2350632101297379,0.5461736917495728,2.153743505477905
0.484978169,0.5227320790290833,0.2113454192876816,-0.8263830542564392,0.0009625795064494014,-0.003151822369545698,0.003272337140515447,-0.2500617802143097,-0.2139492928981781,0.159659668803215,-0.2350686341524124,0.5461682677268982,2.153730392456055
0.489980429,0.5215739011764526,0.2131281048059464,-0.8273006081581116,0.001528330729342997,-0.003557710209861398,0.005130238365381956,-0.2501750290393829,-0.2142015844583511,0.1595253348350525,-0.2350675761699677,0.5461598634719849,2.153735399246216
0.494977534,0.5218798518180847,0.2132839858531952,-0.8268175721168518,0.0005893847555853426,-0.002864830195903778,0.003100180299952626,-0.2502125799655914,-0.2142852395772934,0.1594807952642441,-0.2350874990224838,0.5461560487747192,2.153714656829834
0.499975413,0.5218515992164612,0.213757336139679,-0.8267824053764343,-0.0002354233874939382,-0.002566292649134994,0.003127581207081676,-0.2502414584159851,-0.2143496125936508,0.1594465225934982,-0.2351116985082626,0.5461511015892029,2.153692960739136
0.504974604,0.5216958522796631,0.2139988839626312,-0.8278951048851013,-0.002137744333595037,-0.002262140158563852,0.003791405819356441,-0.2502510547637939,-0.2143709510564804,0.1594351679086685,-0.2351361811161041,0.5461431741714478,2.153678417205811
0.509974539,0.5220488309860229,0.2131444215774536,-0.826655387878418,-0.001620889641344547,-0.00363527238368988,0.002846566494554281,-0.2499682605266571,-0.2143368870019913,0.1600102335214615,-0.2351631373167038,0.5461382865905762,2.153646469116211
0.514975488,0.5215821862220764,0.2141504436731339,-0.8283155560493469,-0.001470164279453456,-0.002767820376902819,0.003082322422415018,-0.2498026788234711,-0.2143130898475647,0.1603453755378723,-0.2351917177438736,0.5461339950561523,2.153628826141357
0.519977450,0.521786630153656,0.2147331684827805,-0.8276302814483643,-0.002127920277416706,-0.003390681929886341,0.002503424417227507,-0.2496752738952637,-0.2142947912216187,0.1606032401323318,-0.2352232336997986,0.5461255311965942,2.153604984283447
0.524974585,0.5204392671585083,0.2154768258333206,-0.8277465105056763,-0.001005724538117647,-0.002567295450717211,0.002693290123715997,-0.2496330291032791,-0.2142887264490128,0.1606887578964233,-0.2352433800697327,0.5461165308952332,2.153592586517334
0.529972970,0.5210941433906555,0.2152664363384247,-0.8270798325538635,0.001566175953485072,-0.002529622055590153,0.003994410391896963,-0.2495991289615631,-0.2143436521291733,0.1605419814586639,-0.2352560311555862,0.5461127758026123,2.153583526611328
0.534971893,0.5224448442459106,0.2155378013849258,-0.8277555108070374,0.001560528529807925,-0.00342726637609303,0.003300145734101534,-0.2495864778757095,-0.2144219726324081,0.1602789461612701,-0.2352668642997742,0.5461076498031616,2.15356707572937
0.539977729,0.5225818157196045,0.216160386800766,-0.8270944356918335,0.0009511247044429183,-0.00483415462076664,0.003574589965865016,-0.2495767325162888,-0.2144822329282761,0.1600765585899353,-0.2352814227342606,0.546088695526123,2.153549432754517
0.544978917,0.5207707285881042,0.2155045419931412,-0.8256542682647705,0.001999831991270185,-0.00379905360750854,0.004698830191046,-0.2495735138654709,-0.2145022004842758,0.1600094586610794,-0.2352877110242844,0.5460854768753052,2.15353798866272
0.549980938,0.5217265486717224,0.2158186286687851,-0.8261731266975403,0.001993079204112291,-0.003882450051605701,0.005299933720380068,-0.2495710402727127,-0.2145175784826279,0.1599578261375427,-0.2352924197912216,0.5460727214813232,2.153537034988403
0.554978311,0.5230506062507629,0.2155258059501648,-0.8250234723091125,0.002478327369317412,-0.005220179446041584,0.003539217635989189,-0.2496212422847748,-0.2143689543008804,0.159993588924408,-0.2352997064590454,0.5460573434829712,2.153517246246338
0.559976935,0.5242174863815308,0.2142011523246765,-0.8263726234436035,0.00251339003443718,-0.005593379028141499,0.00509859761223197,-0.2496598809957504,-0.2142545878887177,0.160021111369133,-0.2352947145700455,0.5460469722747803,2.153510808944702
0.564975858,0.5242094397544861,0.2148559242486954,-0.8262271881103516,0.001945974305272102,-0.006186052225530148,0.005749732721596956,-0.2496726810932159,-0.2142166644334793,0.1600302308797836,-0.2352902591228485,0.5460247397422791,2.153506755828857
0.569975793,0.5232957601547241,0.2159518897533417,-0.8268170952796936,0.00236151460558176,-0.006194060668349266,0.004206415731459856,-0.2496825456619263,-0.2141874879598618,0.1600372493267059,-0.2352959513664246,0.5460076928138733,2.153502941131592
0.574976742,0.5213956832885742,0.2161253094673157,-0.8260757327079773,0.002361559076234698,-0.006720372010022402,0.004776898771524429,-0.2497692853212357,-0.2141473740339279,0.1600408554077148,-0.2352958917617798,0.5459797978401184,2.153507947921753
0.579978764,0.5217366814613342,0.2171536684036255,-0.8282068371772766,0.003189018461853266,-0.004817246459424496,0.003733521793037653,-0.2499203979969025,-0.2140857577323914,0.1600449085235596,-0.235294982790947,0.5459651350975037,2.153506755828857
0.584975898,0.5200508832931519,0.215489000082016,-0.8284088373184204,0.002440455835312605,-0.001860527088865638,0.005179236643016338,-0.2499705106019974,-0.2140653133392334,0.160046249628067,-0.2353015542030334,0.5459660291671753,2.153505563735962
0.589974046,0.522007167339325,0.2152535915374756,-0.8304706215858459,0.003232236951589584,-0.001111036399379373,0.0048755775205791,-0.2500090599060059,-0.2140495926141739,0.1600472927093506,-0.2352988719940186,0.5459639430046082,2.153500080108643
0.594972908,0.5218320488929749,0.2145227491855621,-0.8310698270797729,0.003305018646642566,-0.0009586498490534723,0.00663159741088748,-0.2500218451023102,-0.214044377207756,0.160047635436058,-0.235289603471756,0.54597008228302,2.15350079536438
0.599973381,0.5202689170837402,0.21416836977005,-0.8290390968322754,0.001309957238845527,-0.001498394180089235,0.006190390326082706,-0.2501571178436279,-0.2143731862306595,0.1602679491043091,-0.235297366976738,0.5459694862365723,2.153500080108643
0.604974329,0.5213057994842529,0.2126820087432861,-0.8298587203025818,0.003232193179428577,0.002804301446303725,0.003766360692679882,-0.2502019703388214,-0.2144822180271149,0.1603409945964813,-0.2352970391511917,0.5459886789321899,2.153473854064941
0.609976590,0.5225250124931335,0.214270681142807,-0.8279638886451721,0.0003851655346807092,0.001686015049926937,0.005137543193995953,-0.2502364814281464,-0.2145661115646362,0.1603972017765045,-0.2353141754865646,0.5460047721862793,2.153460741043091
0.614973724,0.5235236883163452,0.2145619243383408,-0.8279179334640503,0.001074266736395657,7.278285920619965e-06,0.00505296653136611,-0.2502479255199432,-0.2145939320325851,0.160415843129158,-0.2353259176015854,0.5460086464881897,2.153442144393921
0.619971812,0.5231324434280396,0.2127988189458847,-0.8278899788856506,0.0001232225331477821,0.001039668335579336,0.003571823704987764,-0.2501105666160583,-0.2145693600177765,0.1602122634649277,-0.2353458553552628,0.5460284352302551,2.153410673141479
0.624970734,0.5228166580200195,0.2158234417438507,-0.827298104763031,0.0007456527091562748,0.000878593185916543,0.004520527552813292,-0.2500288784503937,-0.2145498394966125,0.1600908488035202,-0.235365629196167,0.5460433959960938,2.153390407562256
0.629970670,0.5221335887908936,0.2143615037202835,-0.8264833092689514,0.0003231202135793865,0.001393260201439261,0.003799981204792857,-0.2499695420265198,-0.2145350575447083,0.1599885672330856,-0.2353856265544891,0.546059250831604,2.153368949890137
0.634971917,0.5213440656661987,0.2146943807601929,-0.8257818222045898,0.001041619805619121,-0.0006882885354571044,0.002257060026749969,-0.2499498724937439,-0.2145301550626755,0.1599546521902084,-0.2354048043489456,0.5460635423660278,2.153348922729492
0.639974117,0.5227785706520081,0.2124860435724258,-0.8267092704772949,0.0006057900609448552,1.493599484092556e-05,0.004933663178235292,-0.2499919682741165,-0.2143817394971848,0.1598671227693558,-0.2354120910167694,0.5460769534111023,2.153331518173218
0.644971251,0.522275447845459,0.2137755900621414,-0.8287194967269897,0.003093930426985025,-0.0006848101620562375,0.004771996755152941,-0.2500636279582977,-0.2141866534948349,0.1597761511802673,-0.2354119569063187,0.5460796356201172,2.153323888778687
0.649969399,0.5235064029693604,0.2134228497743607,-0.8263950943946838,-0.0005486529553309083,-0.001302989898249507,0.003946277312934399,-0.250118762254715,-0.2140365391969681,0.1597061306238174,-0.2354324609041214,0.5460883975028992,2.153315544128418
0.654968321,0.5242149829864502,0.2131619155406952,-0.8257198333740234,0.001397121232002974,-0.003418008098378778,0.003668772056698799,-0.2501370310783386,-0.2139867693185806,0.1596829146146774,-0.2354478985071182,0.5460841655731201,2.153288125991821
0.659968257,0.5223134756088257,0.2142274230718613,-0.8275723457336426,0.000913617666810751,-0.00463382201269269,0.005420772358775139,-0.2501510977745056,-0.2139484733343124,0.1596650630235672,-0.2354520708322525,0.5460727214813232,2.153290271759033
0.664969981,0.5221582651138306,0.215114563703537,-0.8277447819709778,0.0005557899712584913,-0.004653030540794134,0.005772076547145844,-0.2502526044845581,-0.2140329629182816,0.1599302738904953,-0.2354604303836823,0.5460571646690369,2.153295993804932
0.669971943,0.52167809009552,0.2151329219341278,-0.8263456225395203,0.001258398173376918,-0.004605701193213463,0.003925837110728025,-0.2503307163715363,-0.2140979766845703,0.160134345293045,-0.2354712188243866,0.5460439920425415,2.153284549713135
0.674975216,0.5208636522293091,0.2159047424793243,-0.8273977041244507,0.001667204545810819,-0.00474422937259078,0.004471969790756702,-0.2503566145896912,-0.2141195237636566,0.1602020114660263,-0.2354782968759537,0.546033501625061,2.153286457061768
0.679973602,0.5221675634384155,0.2129302024841309,-0.8252983689308167,0.002427042461931705,-0.006048132665455341,0.005034027621150017,-0.2503765225410461,-0.2141361087560654,0.1602540761232376,-0.2354709357023239,0.5460196733474731,2.15328311920166
0.684972525,0.5226918458938599,0.2136161178350449,-0.8259255290031433,0.001097194850444794,-0.005172507371753454,0.004343737848103046,-0.2501328885555267,-0.2142049223184586,0.1601758301258087,-0.235486775636673,0.5460056662559509,2.153264760971069
0.689972460,0.5214487910270691,0.2134438753128052,-0.8269602060317993,0.0009553651325404644,-0.004464753437787294,0.00469458382576704,-0.2496923953294754,-0.2143218964338303,0.1600190252065659,-0.2354874759912491,0.5459885597229004,2.15325665473938
0.694973469,0.5225359201431274,0.2137878686189651,-0.8270481824874878,0.0009068610961548984,-0.00569622777402401,0.004368460737168789,-0.2495463341474533,-0.2143606841564178,0.1599670499563217,-0.2354923039674759,0.5459690690040588,2.153244495391846
0.699975431,0.5214824080467224,0.2141184359788895,-0.8269436955451965,0.001136601436883211,-0.006908498238772154,0.00342506798915565,-0.2494339644908905,-0.2143905311822891,0.1599270552396774,-0.2354969531297684,0.5459428429603577,2.153231143951416
0.704972804,0.5206291675567627,0.2157616317272186,-0.8261873126029968,0.0013852349948138,-0.006175907794386148,0.001777984667569399,-0.2493966966867447,-0.2144004255533218,0.1599137783050537,-0.2355162352323532,0.5459198355674744,2.153215169906616
0.709970713,0.5185697674751282,0.2143026888370514,-0.8289920687675476,0.00160167645663023,-0.005175834055989981,0.004678735509514809,-0.2491107285022736,-0.2142139226198196,0.159540057182312,-0.235517680644989,0.5458949208259583,2.153211355209351
0.714969873,0.5218549966812134,0.2181845456361771,-0.8289247155189514,0.001927780103869736,-0.003699688706547022,0.004649571608752012,-0.2490158975124359,-0.2141520828008652,0.1594161242246628,-0.2355353683233261,0.5458890199661255,2.153200149536133
0.719969809,0.5220284461975098,0.2181494683027267,-0.8283745646476746,0.001509360852651298,-0.003911272622644901,0.004710062872618437,-0.2489429414272308,-0.2141045033931732,0.1593207716941833,-0.2355500906705856,0.5458762645721436,2.153192520141602
0.724970758,0.5200948715209961,0.217427521944046,-0.8281163573265076,0.001742700580507517,-0.001009418396279216,0.004136515781283379,-0.2489187568426132,-0.2140887230634689,0.15928915143013,-0.2355608195066452,0.5458727478981018,2.153183460235596
0.729973018,0.5212199091911316,0.2161775678396225,-0.8267991542816162,0.003786455374211073,-0.001312296255491674,0.005190708674490452,-0.249481663107872,-0.2143674045801163,0.1595475822687149,-0.2355522364377975,0.5458753705024719,2.153180122375488
0.734970391,0.5217246413230896,0.2166950851678848,-0.8273065686225891,0.003907984588295221,-0.001219435245729983,0.005179421044886112,-0.2498122155666351,-0.2145317792892456,0.1597032397985458,-0.2355551719665527,0.5458792448043823,2.153172492980957
0.739969015,0.5206713676452637,0.2156850546598434,-0.82826167345047,0.005119161680340767,-0.001023267861455679,0.005762967746704817,-0.2500665485858917,-0.2146582454442978,0.159823015332222,-0.2355382144451141,0.5458827018737793,2.153165817260742
0.744967937,0.5236313939094543,0.2150953263044357,-0.8266759514808655,0.004259968176484108,-0.0002890303148888052,0.005572060588747263,-0.2501508891582489,-0.2147001773118973,0.1598627269268036,-0.2355337738990784,0.5458922982215881,2.153158664703369
0.749967873,0.5248221755027771,0.2133937478065491,-0.8275390267372131,0.004019268788397312,-0.002055597957223654,0.006891656201332808,-0.2501611411571503,-0.2147035747766495,0.1600137203931808,-0.2355108261108398,0.545899510383606,2.153157949447632
0.754968822,0.5237939357757568,0.2143395096063614,-0.8272801637649536,0.003472451120615005,-0.001412443700246513,0.008113076910376549,-0.25010946393013,-0.2146755903959274,0.160185232758522,-0.2355015426874161,0.5459088087081909,2.153158187866211
0.759971082,0.5221970081329346,0.2149797528982162,-0.8275818824768066,0.004709559492766857,-0.002763994736596942,0.006804610136896372,-0.2500697076320648,-0.2146540582180023,0.1603171974420547,-0.235492542386055,0.5459010004997253,2.153157472610474
0.764968216,0.5236350297927856,0.2165813148021698,-0.8275412917137146,0.004694316536188126,-0.001155015779659152,0.006771140266209841,-0.2500565350055695,-0.2146469205617905,0.1603609621524811,-0.2354864627122879,0.5459087491035461,2.153149843215942
0.769966602,0.5220444202423096,0.215937152504921,-0.8266316056251526,0.003987990785390139,-0.002380018122494221,0.007825682871043682,-0.2500463724136353,-0.2146414220333099,0.1603946387767792,-0.2354729473590851,0.5459091067314148,2.153160572052002
0.774965525,0.522472620010376,0.2150425314903259,-0.8265948891639709,0.004162562545388937,-0.003143212292343378,0.005219878628849983,-0.2498003542423248,-0.2145437747240067,0.1602927446365356,-0.2354692816734314,0.5459020733833313,2.153141975402832
0.779965460,0.5225437879562378,0.2136235684156418,-0.8271883130073547,0.003742309054359794,-0.002815071726217866,0.005655598826706409,-0.2496110498905182,-0.2144686281681061,0.1602143347263336,-0.2354567050933838,0.5459019541740417,2.153141021728516
0.784966409,0.5239630341529846,0.2132958322763443,-0.8255953788757324,0.005858363583683968,-0.003762107575312257,0.006021280307322741,-0.2495482861995697,-0.2144437283277512,0.1601883322000504,-0.2354420572519302,0.5459012389183044,2.153129100799561
0.789968669,0.5232595205307007,0.2125969380140305,-0.8265441060066223,0.003050322877243161,-0.005507117602974176,0.003101026872172952,-0.2494999915361404,-0.2144245654344559,0.160168319940567,-0.2354357689619064,0.5458852648735046,2.153109550476074
0.794965744,0.521586000919342,0.2117921561002731,-0.8265796899795532,0.001684149843640625,-0.00419510854408145,0.004336799960583448,-0.2496777921915054,-0.2144144624471664,0.1601654142141342,-0.235430896282196,0.5458815097808838,2.153098583221436
0.799963653,0.5229580998420715,0.2113994210958481,-0.827179491519928,0.0009834307711571455,-0.005187943577766418,0.002398952841758728,-0.2500105500221252,-0.21440289914608,0.160166934132576,-0.2354421466588974,0.5458585023880005,2.153074264526367
0.804962814,0.523399293422699,0.2121951878070831,-0.8281170129776001,-0.0002273816644446924,-0.004539183340966702,0.001081797061488032,-0.2501209080219269,-0.2143990695476532,0.1601674407720566,-0.2354607135057449,0.5458361506462097,2.153051614761353
0.809968889,0.523389995098114,0.2139767110347748,-0.8283865451812744,-0.002375850453972816,-0.004673418588936329,0.001044753473252058,-0.250205785036087,-0.2143961042165756,0.1601678282022476,-0.2355010658502579,0.5458275675773621,2.153012037277222
0.814970136,0.5223496556282043,0.2164523750543594,-0.8275655508041382,-0.002787167206406593,-0.005164687987416983,0.002379759447649121,-0.250233918428421,-0.214395135641098,0.1601679623126984,-0.2355428487062454,0.5458070039749146,2.152995347976685
0.819972336,0.52243572473526,0.2151115983724594,-0.826733410358429,-0.003540692152455449,-0.005251812282949686,0.001636513043195009,-0.2496722638607025,-0.2143421024084091,0.1597285270690918,-0.2355781644582748,0.5457906126976013,2.152968168258667
0.824969471,0.5207720398902893,0.2130624949932098,-0.8279535174369812,-0.0009980910690501332,-0.003598826937377453,0.002696697134524584,-0.2494860291481018,-0.2143245190382004,0.1595828235149384,-0.2355961054563522,0.5457774996757507,2.152944803237915
0.829967380,0.5205756425857544,0.2138212025165558,-0.8268865942955017,-0.0006170443375594914,-0.005472391843795776,-0.0008793482556939125,-0.2493427246809006,-0.2143109887838364,0.1594707071781158,-0.235633596777916,0.5457524657249451,2.152908802032471
0.834966242,0.5203762054443359,0.2156568765640259,-0.8274604678153992,0.0001571739558130503,-0.004818990360945463,0.001381730427965522,-0.2492952048778534,-0.214306503534317,0.1594335287809372,-0.2356649190187454,0.545734167098999,2.152884483337402
0.839966238,0.5200130343437195,0.2152493745088577,-0.8279739618301392,-0.002025434747338295,-0.004209916107356548,0.002147644525393844,-0.2495997250080109,-0.2143940627574921,0.1598416417837143,-0.2356980741024017,0.5457131266593933,2.152871608734131
0.844967425,0.5215516090393066,0.2171212136745453,-0.8279455304145813,-0.0008113794610835612,-0.004434541799128056,0.002928424160927534,-0.2497850805521011,-0.2144456207752228,0.1600850224494934,-0.2357183992862701,0.545697033405304,2.152852296829224
0.849969387,0.5232037901878357,0.2154575139284134,-0.8277806639671326,0.001090968609787524,-0.003598593873903155,0.00288305850699544,-0.2499277144670486,-0.2144852876663208,0.1602723002433777,-0.2357398718595505,0.5456928014755249,2.15283465385437
0.854966760,0.5221110582351685,0.2156899273395538,-0.827984631061554,0.002315506106242537,-0.00274224067106843,0.004213381092995405,-0.2499749958515167,-0.2144984304904938,0.1603343933820724,-0.2357484251260757,0.5456825494766235,2.152825832366943
0.859964669,0.5219865441322327,0.2170160710811615,-0.8274840116500854,0.001253093825653195,-0.003475355682894588,0.002775938482955098,-0.2499287128448486,-0.2144538909196854,0.1602276712656021,-0.2357681095600128,0.5456752181053162,2.15280556678772
0.864963591,0.5235421061515808,0.2177133113145828,-0.8272032141685486,0.00239528389647603,-0.003154016332700849,0.004475301131606102,-0.2498299926519394,-0.2143840044736862,0.1600364744663239,-0.2357763946056366,0.5456711649894714,2.152792930603027
0.869963527,0.5230487585067749,0.2175321877002716,-0.8269520998001099,0.002709093037992716,-0.004431563429534435,0.004488813690841198,-0.2497540265321732,-0.2143302261829376,0.159889355301857,-0.2357783615589142,0.5456603169441223,2.152786731719971
0.874965012,0.5217684507369995,0.2166773974895477,-0.8253357410430908,0.002252168487757444,-0.006251587066799402,0.006248130463063717,-0.2497288435697556,-0.2143124043941498,0.1598405689001083,-0.2357779741287231,0.545642077922821,2.152790546417236
0.879966974,0.5228815078735352,0.2150823175907135,-0.8273019790649414,0.003302730387076735,-0.005752046592533588,0.006719138007611036,-0.2497094571590424,-0.2142986804246902,0.1598030477762222,-0.235772117972374,0.5456300377845764,2.152797222137451
0.884964347,0.5211882591247559,0.2144272923469543,-0.8267565965652466,0.002357190940529108,-0.006063762586563826,0.004444905556738377,-0.2498965263366699,-0.2144406884908676,0.1600105613470078,-0.2357733994722366,0.5456094741821289,2.152789354324341
0.889962256,0.5226013660430908,0.2141674607992172,-0.8270079493522644,0.002542069181799889,-0.005946512799710035,0.005479204468429089,-0.2500404715538025,-0.2145499587059021,0.1601702123880386,-0.2357715219259262,0.5455929040908813,2.152787685394287
0.894961417,0.5238952040672302,0.2131743580102921,-0.8280686736106873,0.0006832737126387656,-0.005397051572799683,0.004774431698024273,-0.2500881850719452,-0.2145861983299255,0.1602231562137604,-0.2357729524374008,0.5455819964408875,2.152783393859863
0.899961352,0.5247954726219177,0.2145482301712036,-0.8283081650733948,0.001471904572099447,-0.005237529519945383,0.003588157007470727,-0.2501249313354492,-0.214614063501358,0.1602638959884644,-0.2357752770185471,0.5455721020698547,2.152765512466431
0.904962301,0.5227540135383606,0.2142097651958466,-0.8273420929908752,0.001210459508001804,-0.00631650909781456,0.004979312885552645,-0.2498064637184143,-0.2144869863986969,0.1601171493530273,-0.2357788234949112,0.5455547571182251,2.152756452560425
0.909964561,0.5232247114181519,0.2134488373994827,-0.8273730278015137,-0.0005244861240498722,-0.005546681582927704,0.002423751633614302,-0.2492270767688751,-0.2142513692378998,0.1598422080278397,-0.2357954084873199,0.5455447435379028,2.152731657028198
0.914961934,0.5218343138694763,0.2140413820743561,-0.827559769153595,-0.001042535644955933,-0.006590948440134525,0.002720883581787348,-0.249034970998764,-0.2141732424497604,0.1597510427236557,-0.2358234077692032,0.5455197095870972,2.152708530426025
0.919960082,0.5221006870269775,0.2142831385135651,-0.8282724022865295,-0.001885945443063974,-0.005452699027955532,0.002450811676681042,-0.2488871514797211,-0.2141131311655045,0.1596808880567551,-0.2358460426330566,0.54549640417099,2.152688980102539
0.924959004,0.5212627053260803,0.2142523527145386,-0.827691376209259,-0.001337737776339054,-0.003638983471319079,0.003657114692032337,-0.2488381415605545,-0.2140931934118271,0.1596576273441315,-0.2358696907758713,0.5454867482185364,2.152675151824951
0.929958940,0.5205749273300171,0.2155410200357437,-0.8282580375671387,-0.001953878439962864,-0.004773152526468039,0.002431769389659166,-0.2492534220218658,-0.2141994386911392,0.1601487845182419,-0.2359007745981216,0.5454633235931396,2.15265679359436
0.934959888,0.5216447114944458,0.2162360399961472,-0.8280099034309387,-0.001599196344614029,-0.004363188985735178,0.003796829842031002,-0.2493911236524582,-0.2142346799373627,0.1603116393089294,-0.2359227240085602,0.5454495549201965,2.152645349502563
0.939961851,0.5207741260528564,0.216994971036911,-0.8277501463890076,-0.0006874087848700583,-0.004428157117217779,0.002628731541335583,-0.2494970560073853,-0.2142617851495743,0.1604369580745697,-0.2359485477209091,0.5454328656196594,2.152625560760498
0.944964886,0.5210117101669312,0.2181418985128403,-0.8270290493965149,0.001320640789344907,-0.005449873395264149,0.003240674966946244,-0.2495321929454803,-0.2142707854509354,0.1604785025119781,-0.2359681278467178,0.5454115867614746,2.152614831924438
0.949963033,0.521918773651123,0.2167039066553116,-0.8269075751304626,0.001574660069309175,-0.004491917323321104,0.004764340817928314,-0.2497510612010956,-0.214429646730423,0.1601404994726181,-0.2359766215085983,0.5454015135765076,2.152607679367065
0.954961896,0.5208994746208191,0.21584352850914,-0.8280143737792969,0.003433213802054524,-0.002799768466502428,0.005096381530165672,-0.2498711049556732,-0.2145199179649353,0.1599368751049042,-0.2359728813171387,0.5453977584838867,2.152602195739746
0.959962130,0.5222585797309875,0.2138985395431519,-0.8287240862846375,0.003558918368071318,-0.003645965596660972,0.004793439526110888,-0.2499634772539139,-0.2145893722772598,0.1597801893949509,-0.2359599173069,0.5453894138336182,2.1526038646698
0.964963078,0.5215954184532166,0.2154298573732376,-0.8272767066955566,0.005068093072623014,-0.004035824909806252,0.005476002115756273,-0.2499940991401672,-0.2146124094724655,0.1597282290458679,-0.2359485328197479,0.5453754067420959,2.152600765228271
0.969965041,0.5214681029319763,0.2158978581428528,-0.8256751298904419,0.004421587567776442,-0.004919151775538921,0.006149144377559423,-0.2499624639749527,-0.2146306484937668,0.1597481071949005,-0.2359367161989212,0.5453688502311707,2.152601480484009
0.974962175,0.5221838355064392,0.2169502377510071,-0.826179563999176,0.003923724871128798,-0.004868341609835625,0.007190302480012178,-0.2498963177204132,-0.2146372050046921,0.1598150432109833,-0.2359295040369034,0.5453603863716125,2.152612686157227
0.979960859,0.5224608182907104,0.2158115655183792,-0.8254956603050232,0.004501898773014545,-0.005921570118516684,0.007858548313379288,-0.249845415353775,-0.2146422564983368,0.1598665416240692,-0.2359081655740738,0.5453424453735352,2.152621507644653
0.984959722,0.5219016671180725,0.215411439538002,-0.8268775939941406,0.006317341234534979,-0.007254050578922033,0.006778708193451166,-0.2498285472393036,-0.2146439403295517,0.1598836183547974,-0.2358886450529099,0.5453220009803772,2.152623653411865
0.989959657,0.5220768451690674,0.2154981344938278,-0.8275092840194702,0.006448135245591402,-0.006035241764038801,0.006656976882368326,-0.2498155534267426,-0.2146452218294144,0.1598967611789703,-0.2358563095331192,0.5453091263771057,2.152637004852295
0.994960666,0.5211467146873474,0.2132508009672165,-0.8289750814437866,0.005095969885587692,-0.00423247367143631,0.007331575267016888,-0.2499106228351593,-0.2145407646894455,0.1600627601146698,-0.2358322739601135,0.5453000068664551,2.152650117874146
0.999962389,0.5204974412918091,0.2125313431024551,-0.829201340675354,0.004896403290331364,-0.00589251471683383,0.007052556611597538,-0.2499837726354599,-0.2144603878259659,0.1601904779672623,-0.2358063459396362,0.5452775359153748,2.152667284011841
1.004959464,0.5205069184303284,0.2139637172222137,-0.8308173418045044,0.003451246535405517,-0.005712162237614393,0.00686900969594717,-0.2500080168247223,-0.2144337296485901,0.1602328270673752,-0.2357916235923767,0.5452573299407959,2.152680397033691
1.009957433,0.5223944783210754,0.2136960923671722,-0.8305230140686035,0.003482901724055409,-0.005787094123661518,0.007174492813646793,-0.2500267028808594,-0.2144132405519485,0.1602654010057449,-0.2357746213674545,0.5452423691749573,2.152689218521118
1.014956594,0.5215137600898743,0.2111121267080307,-0.8282324075698853,0.003872916335240006,-0.005884931422770023,0.005852545611560345,-0.2499775141477585,-0.2144075185060501,0.1602751463651657,-0.2357552200555801,0.5452253818511963,2.152689456939697
1.019956470,0.5221495628356934,0.2116527408361435,-0.8291026949882507,0.001862873090431094,-0.005943266209214926,0.005465609952807426,-0.2498836815357208,-0.2144041955471039,0.1602815687656403,-0.2357553690671921,0.5452064871788025,2.152682065963745
1.024957418,0.5216528177261353,0.2124054133892059,-0.8272836804389954,0.002942881779745221,-0.005216820631176233,0.004843235015869141,-0.2498525679111481,-0.2144030928611755,0.160283699631691,-0.2357501834630966,0.5451919436454773,2.152672529220581
1.029959440,0.5207507610321045,0.2142048180103302,-0.8289626836776733,0.0005531294154934585,-0.005446736235171556,0.003931938204914331,-0.2498286217451096,-0.2144022434949875,0.1602853387594223,-0.2357597053050995,0.5451741218566895,2.152671098709106
1.034956574,0.5221461653709412,0.2155426442623138,-0.829948902130127,0.002601413987576962,-0.005621852353215218,0.004314613528549671,-0.2498206943273544,-0.2144019603729248,0.1602858901023865,-0.2357560098171234,0.5451539158821106,2.152670621871948
1.039954424,0.5226277709007263,0.2173174321651459,-0.8290186524391174,-0.0005640730960294604,-0.00503614591434598,0.00356790516525507,-0.2502032518386841,-0.2143300175666809,0.159936711192131,-0.2357821762561798,0.5451401472091675,2.152665615081787
1.044953823,0.5234153270721436,0.2171619385480881,-0.829221248626709,0.00140767137054354,-0.006884568836539984,0.003607143647968769,-0.2503300905227661,-0.2143061608076096,0.1598209142684937,-0.2357921600341797,0.545112669467926,2.152658939361572
1.049953818,0.5220523476600647,0.2162550836801529,-0.8288512229919434,0.0008377983467653394,-0.004703325685113668,0.003300487529486418,-0.2504276931285858,-0.2142878174781799,0.1597318351268768,-0.2358093410730362,0.5451043248176575,2.152651309967041
1.054954767,0.5219975113868713,0.2146278470754623,-0.8284685611724854,0.001562756020575762,-0.00403882609680295,0.004507170990109444,-0.2504600584506989,-0.2142817378044128,0.1597022861242294,-0.2358075082302094,0.5450952649116516,2.152653217315674
1.059956789,0.5222371220588684,0.2148250639438629,-0.8271492123603821,0.001262720441445708,-0.005410152021795511,0.00514567457139492,-0.2501921653747559,-0.2143320143222809,0.1598353981971741,-0.2358035147190094,0.5450794696807861,2.152655839920044
1.064953804,0.5219510793685913,0.2142688184976578,-0.8269014358520508,0.001519611338153481,-0.004676458891481161,0.005803325213491917,-0.250030905008316,-0.2143622785806656,0.1599180847406387,-0.2358129620552063,0.5450689792633057,2.152647018432617
1.069951773,0.5218766331672668,0.2138742357492447,-0.826454758644104,0.0007859093020670116,-0.004657583776861429,0.004485568031668663,-0.2499068081378937,-0.2143855690956116,0.1599817276000977,-0.2358204126358032,0.545054018497467,2.15263557434082
1.074950457,0.5226846933364868,0.2149620950222015,-0.8280551433563232,-0.0009728515287861228,-0.004583783913403749,0.004560353234410286,-0.2498656660318375,-0.21439328789711,0.1600028276443481,-0.235841304063797,0.5450369715690613,2.152626037597656
1.079956532,0.5219260454177856,0.2154008895158768,-0.8284127116203308,-0.0006219198694452643,-0.006558836437761784,0.004431950859725475,-0.2498897165060043,-0.2143970429897308,0.1601419299840927,-0.235858678817749,0.5450131893157959,2.152619361877441
1.084957719,0.5209347009658813,0.215234637260437,-0.8287168145179749,0.001301662181504071,-0.006545963697135448,0.002871931064873934,-0.2499538660049438,-0.2143960744142532,0.1603119820356369,-0.2358648777008057,0.5449842214584351,2.152614116668701
1.089959621,0.5216217041015625,0.2144190222024918,-0.8280258178710938,-0.001001730677671731,-0.007366922218352556,0.003912001848220825,-0.2500032186508179,-0.2143953442573547,0.1604428291320801,-0.2358837574720383,0.5449613332748413,2.152605295181274
1.094956756,0.5197972655296326,0.2154567986726761,-0.8288476467132568,-0.0005543441511690617,-0.007094151340425014,0.003550121327862144,-0.2500195801258087,-0.2143951058387756,0.1604862064123154,-0.2358987182378769,0.5449334383010864,2.152604341506958
1.099954724,0.5210267901420593,0.2154683172702789,-0.828122615814209,0.001747881411574781,-0.00800048466771841,0.005656254943460226,-0.2500321865081787,-0.2143949270248413,0.1605195850133896,-0.2358966916799545,0.5449085235595703,2.152610540390015
1.104953647,0.5217832922935486,0.2166804820299149,-0.8283008337020874,0.002199819544330239,-0.00740346871316433,0.004755116999149323,-0.2497420758008957,-0.214454710483551,0.1601501852273941,-0.2359045892953873,0.5448842644691467,2.152604818344116
1.109953761,0.5203096270561218,0.2164749354124069,-0.8284303545951843,0.001070083933882415,-0.006964653264731169,0.005223959218710661,-0.249518871307373,-0.2145007103681564,0.1598659604787827,-0.235907718539238,0.5448655486106873,2.152610540390015
1.114954710,0.5197879672050476,0.2163332551717758,-0.8283119201660156,0.002974584931507707,-0.006686969194561243,0.006007018033415079,-0.2494448572397232,-0.2145159542560577,0.1597717106342316,-0.23590087890625,0.5448311567306519,2.152621984481812
1.119956970,0.5206621289253235,0.2146919965744019,-0.8268845677375793,0.002910450100898743,-0.006338569335639477,0.005187126342207193,-0.2493879050016403,-0.2145276963710785,0.1596992015838623,-0.2359014302492142,0.5448133945465088,2.152617216110229
1.124954104,0.5191977024078369,0.2143471240997314,-0.826134979724884,0.002046812558546662,-0.005841196049004793,0.005359894596040249,-0.2494238913059235,-0.2145596146583557,0.1596460789442062,-0.2359013110399246,0.5447908043861389,2.152620315551758
1.129952312,0.5202702283859253,0.2149170637130737,-0.8281112909317017,0.001305572921410203,-0.006946074776351452,0.004568560048937798,-0.2495070993900299,-0.2146125435829163,0.1595758050680161,-0.2358970940113068,0.5447631478309631,2.152624368667603
1.134951115,0.521747350692749,0.2148006558418274,-0.8297081589698792,0.00225642928853631,-0.008013416081666946,0.005726673640310764,-0.2495346814393997,-0.2146300971508026,0.1595524996519089,-0.2358938306570053,0.5447365641593933,2.152630567550659
1.139951110,0.5204541683197021,0.2141804099082947,-0.8278971910476685,0.001076905522495508,-0.005583598278462887,0.00518160592764616,-0.2495559006929398,-0.2146435976028442,0.1595345735549927,-0.2358969002962112,0.5447148084640503,2.152624845504761
1.144952059,0.5198802947998047,0.2151514738798141,-0.8286316990852356,0.002557526109740138,-0.004857297986745834,0.004688214976340532,-0.2495629340410233,-0.2146480679512024,0.1595286428928375,-0.235891193151474,0.5446951389312744,2.152626276016235
1.149954319,0.5209022760391235,0.21515092253685,-0.8282716274261475,0.003330518258735538,-0.003732757410034537,0.003870830871164799,-0.2495729327201843,-0.2143790721893311,0.1598061323165894,-0.2358909845352173,0.5446915626525879,2.152616024017334
1.154951692,0.5198908448219299,0.2147375792264938,-0.8291489481925964,0.002735078567638993,-0.002466731704771519,0.005122308619320393,-0.2495762407779694,-0.2142898738384247,0.1598981469869614,-0.2358891516923904,0.5446855425834656,2.152616262435913
1.159949541,0.5185099244117737,0.2138767540454865,-0.8300931453704834,0.001473424141295254,-0.0001468638074584305,0.003583077806979418,-0.2495787888765335,-0.2142212390899658,0.1599689573049545,-0.235901951789856,0.5446876287460327,2.152606964111328
1.164948463,0.5197388529777527,0.2128822505474091,-0.8293207883834839,0.002679959172382951,0.0001056281034834683,0.003989792428910732,-0.2495796382427216,-0.2141984850168228,0.159992441534996,-0.2358963191509247,0.5446921586990356,2.152600526809692
1.169948459,0.5222973823547363,0.2129411548376083,-0.82850182056427,0.001279813586734235,-0.001261265482753515,0.006472693756222725,-0.2496257871389389,-0.214432880282402,0.1601215004920959,-0.2358979135751724,0.5447028875350952,2.152595043182373
1.174950123,0.5229468941688538,0.2152257859706879,-0.8274067044258118,0.0008089134935289621,-0.0006430236389860511,0.005255226977169514,-0.2496523410081863,-0.214572936296463,0.1601917594671249,-0.2359125167131424,0.5447094440460205,2.152578830718994
1.179952383,0.5227509737014771,0.2151650190353394,-0.8287600874900818,0.0005406960844993591,-0.0006034543039277196,0.003300945507362485,-0.2496727705001831,-0.2146807014942169,0.1602458357810974,-0.2359286993741989,0.5447197556495667,2.152555465698242
1.184949756,0.5231386423110962,0.2161082327365875,-0.8270425796508789,0.001165026798844337,-0.001466527814045548,0.003794599324464798,-0.2496795505285263,-0.2147164344787598,0.1602637618780136,-0.235934853553772,0.5447254776954651,2.152545928955078
1.189947605,0.5224435329437256,0.2152213007211685,-0.8286243081092834,0.002623680047690868,-0.001591392559930682,0.00567931029945612,-0.2497124522924423,-0.2147433906793594,0.1602780818939209,-0.235935851931572,0.544724702835083,2.152536869049072
1.194946766,0.5211025476455688,0.2139904648065567,-0.8275938630104065,0.002442209515720606,-0.001942292787134647,0.006406812462955713,-0.2497512847185135,-0.2147517949342728,0.1602833718061447,-0.2359342128038406,0.5447251796722412,2.152537107467651
1.199946761,0.5233092904090881,0.2160976529121399,-0.825907289981842,0.002165194135159254,-0.002254670020192862,0.006891662254929543,-0.2497811615467072,-0.2147582471370697,0.1602874398231506,-0.2359373569488525,0.5447282791137695,2.152526617050171
1.204947710,0.5209668874740601,0.2163063287734985,-0.8265116810798645,0.003423911519348621,-0.002668141853064299,0.007315290160477161,-0.2497910708189011,-0.2147603929042816,0.1602887809276581,-0.2359255403280258,0.5447252988815308,2.152535676956177
1.209949970,0.5213407874107361,0.2163008451461792,-0.8276405930519104,0.00207417132332921,-0.004734861198812723,0.007186447735875845,-0.2497987002134323,-0.2147620320320129,0.1602898240089417,-0.2359278947114944,0.5447156429290771,2.152538061141968
1.214953184,0.5213297605514526,0.2144182473421097,-0.8296744823455811,0.002216520020738244,-0.004183629993349314,0.006929679773747921,-0.2496063113212585,-0.2147175520658493,0.1600713431835175,-0.2359278202056885,0.5447072386741638,2.152535915374756
1.219951630,0.520935595035553,0.2139532864093781,-0.8285269737243652,0.003424238180741668,-0.004039992578327656,0.004344863817095757,-0.2494582980871201,-0.214683324098587,0.1599032282829285,-0.2359117418527603,0.5446935892105103,2.152534008026123
1.224950790,0.5206937193870544,0.2131630629301071,-0.827596127986908,0.004031859338283539,-0.00556877302005887,0.005378940608352423,-0.2494092136621475,-0.2146719843149185,0.1598474830389023,-0.2358982712030411,0.5446786880493164,2.152536630630493
1.229950666,0.520117461681366,0.2148554921150208,-0.8278803825378418,0.003271929221227765,-0.005384487099945545,0.005050709471106529,-0.2493714541196823,-0.2146632373332977,0.1598045974969864,-0.2359006255865097,0.5446622967720032,2.152530193328857
1.234951377,0.5207115411758423,0.2151270508766174,-0.8274527192115784,0.002461687196046114,-0.006464585661888123,0.007612285204231739,-0.2494429051876068,-0.2146282494068146,0.1599743813276291,-0.2358988523483276,0.5446444153785706,2.15253734588623
1.239953637,0.5201001167297363,0.2139149010181427,-0.8280048966407776,0.0003659649519249797,-0.006538367830216885,0.005221941974014044,-0.2495827972888947,-0.2145688682794571,0.1602910757064819,-0.2359032332897186,0.5446223616600037,2.152535438537598
1.244950771,0.5193594098091125,0.2150160819292068,-0.8270362615585327,0.0022409379016608,-0.005682614631950855,0.006082679145038128,-0.2496291697025299,-0.2145491689443588,0.160396084189415,-0.2358989119529724,0.5446032285690308,2.152541399002075
1.249948978,0.5185989737510681,0.2152125984430313,-0.8278819918632507,0.00103393942117691,-0.006389403715729713,0.00486457534134388,-0.2496648579835892,-0.2145340144634247,0.1604768931865692,-0.2359109818935394,0.5445829629898071,2.152543067932129
1.254947782,0.5209174156188965,0.2156648337841034,-0.828569233417511,0.002308580325916409,-0.006042584776878357,0.005201488267630339,-0.2496766895055771,-0.2145289927721024,0.1605036854743958,-0.235908031463623,0.544564962387085,2.152541637420654
1.259947777,0.5209088325500488,0.215691551566124,-0.8288058638572693,0.0007572720060124993,-0.006869989447295666,0.004709435626864433,-0.2495575547218323,-0.2144588679075241,0.1606635898351669,-0.2359184771776199,0.544539213180542,2.152540445327759
1.264948726,0.5206454992294312,0.2151081264019012,-0.8275077939033508,0.001952593680471182,-0.006529874168336391,0.005086404737085104,-0.2495180517435074,-0.2144356220960617,0.1607166081666946,-0.2359201461076736,0.5445200800895691,2.15253734588623
1.269951224,0.5199329853057861,0.2157896459102631,-0.8281333446502686,0.002637232653796673,-0.005702186841517687,0.004690299741923809,-0.2494876533746719,-0.2144177258014679,0.1607573926448822,-0.2359211295843124,0.5445024371147156,2.15253210067749
1.274948835,0.5192117691040039,0.2156820446252823,-0.8285428881645203,0.0002558538690209389,-0.004284653812646866,0.004419324453920126,-0.2494775801897049,-0.2144117951393127,0.1607709228992462,-0.2359356284141541,0.5444916486740112,2.152533292770386
1.279947042,0.520593523979187,0.2162293940782547,-0.8304852247238159,0.001903834985569119,-0.005379713606089354,0.005835264921188354,-0.2496628314256668,-0.2145069539546967,0.1605716943740845,-0.2359331250190735,0.5444705486297607,2.152542114257813
1.284945965,0.5217646360397339,0.2177113145589828,-0.8278642892837524,0.00222806679084897,-0.004730930086225271,0.005667566321790218,-0.2497720122337341,-0.214563176035881,0.1604537516832352,-0.2359324544668198,0.5444632172584534,2.152543306350708
1.289946079,0.5212095379829407,0.2164536863565445,-0.8276621699333191,0.003387113334611058,-0.003515221178531647,0.006372886709868908,-0.2498560100793839,-0.2146064341068268,0.1603630036115646,-0.2359278947114944,0.544455885887146,2.152548551559448
1.294947028,0.5207201242446899,0.2167935371398926,-0.8289293050765991,0.004902072250843048,-0.006298784166574478,0.005888794083148241,-0.2498838603496552,-0.2146207839250565,0.1603329032659531,-0.2359094768762589,0.5444334745407104,2.152555465698242
1.299949288,0.52082759141922,0.2157864272594452,-0.8286466002464294,0.00540432333946228,-0.005339860450476408,0.006089570000767708,-0.2499324381351471,-0.2146881073713303,0.1604022979736328,-0.2358997762203217,0.5444228053092957,2.152559995651245
1.304946423,0.5204980373382568,0.2158503979444504,-0.8295900821685791,0.005373905412852764,-0.004293940961360931,0.006584321148693562,-0.2499759197235107,-0.214767187833786,0.160518616437912,-0.2358759790658951,0.5444096922874451,2.152575016021729
1.309944630,0.5188311338424683,0.2158677875995636,-0.8275377750396729,0.00427393801510334,-0.004389467649161816,0.007881315425038338,-0.2500093579292297,-0.2148280292749405,0.1606081128120422,-0.2358582466840744,0.5444049835205078,2.152594566345215
1.314943790,0.5211721062660217,0.2158521413803101,-0.827849805355072,0.005890540312975645,-0.002774634165689349,0.008805016055703163,-0.250020444393158,-0.214848205447197,0.1606377959251404,-0.2358381450176239,0.5444085001945496,2.152604579925537
1.319943666,0.5196325182914734,0.2165066301822662,-0.8274320960044861,0.005562208592891693,-0.001633721753023565,0.007743730209767818,-0.2500289678573608,-0.2148637324571609,0.1606606245040894,-0.2358137965202332,0.5444085597991943,2.152617216110229
1.324944615,0.5222267508506775,0.2154605686664581,-0.827653169631958,0.006654140073806047,-0.001634771004319191,0.007316510193049908,-0.2500858008861542,-0.2144632935523987,0.1605037599802017,-0.2357905060052872,0.5444194674491882,2.152624607086182
1.329946399,0.5206912159919739,0.2134053856134415,-0.8293200731277466,0.005954531952738762,-0.001982509158551693,0.007313365582376719,-0.2501295208930969,-0.2141551673412323,0.1603830605745316,-0.2357621192932129,0.5444216728210449,2.152636051177979
1.334943533,0.5222909450531006,0.2148650735616684,-0.8285815119743347,0.006216056644916534,-0.0001325088669545949,0.005599415395408869,-0.2501440048217773,-0.2140530049800873,0.1603430360555649,-0.2357432693243027,0.544431209564209,2.152631044387817
1.339941382,0.5228613615036011,0.2140440195798874,-0.8288648724555969,0.006566672120243311,-0.001065720338374376,0.006091921124607325,-0.2501551806926727,-0.2139744162559509,0.1603122353553772,-0.2357221692800522,0.5444393157958984,2.152631759643555
1.344940543,0.5216386318206787,0.2138882428407669,-0.8280487060546875,0.005057232920080423,-0.0007821896579116583,0.006720698438584805,-0.2500453889369965,-0.214151993393898,0.1603325754404068,-0.235710546374321,0.5444456338882446,2.15262770652771
1.349946618,0.5203132629394531,0.2145705819129944,-0.8276057839393616,0.004422595724463463,-0.0005677144508808851,0.006695762742310762,-0.2498461455106735,-0.2144945710897446,0.1603791266679764,-0.2356957197189331,0.5444488525390625,2.152627468109131
1.354947805,0.5192106366157532,0.2153016179800034,-0.8272772431373596,0.003728118259459734,-0.00172159681096673,0.003818425117060542,-0.24978007376194,-0.2146081626415253,0.1603945642709732,-0.2357005327939987,0.5444455742835999,2.152614593505859
1.359949827,0.5207221508026123,0.2142969518899918,-0.8298395872116089,0.002780186478048563,-0.001241852296516299,0.005595508497208357,-0.2497292459011078,-0.2146955728530884,0.1604064404964447,-0.2356898486614227,0.5444514155387878,2.152613401412964
1.364946961,0.52127605676651,0.2148198783397675,-0.8293796181678772,0.002534824889153242,-0.002782571595162153,0.004282520152628422,-0.2497123926877975,-0.2147245556116104,0.1604103744029999,-0.235693484544754,0.5444521903991699,2.152596235275269
1.369945049,0.522509753704071,0.2141748070716858,-0.827542781829834,0.004766039084643126,-0.001742592197842896,0.006228036247193813,-0.2498291432857513,-0.2146795094013214,0.1601300984621048,-0.2356820106506348,0.5444571971893311,2.152592420578003
1.374944210,0.5223532319068909,0.2147581726312637,-0.8268250823020935,0.002216365654021502,-0.002012142911553383,0.006459491793066263,-0.249867856502533,-0.214664563536644,0.1600371599197388,-0.2356830388307571,0.5444610118865967,2.152587652206421
1.379944205,0.5222307443618774,0.215464323759079,-0.8271141052246094,0.00268973084166646,-0.004003875888884068,0.00578334741294384,-0.2498976439237595,-0.2146530598402023,0.1599656492471695,-0.2356837242841721,0.5444465279579163,2.152586460113525
1.384945393,0.5216718316078186,0.2141590118408203,-0.8279690146446228,0.003311319276690483,-0.00493139261379838,0.00695765158161521,-0.249907523393631,-0.2146492451429367,0.1599419265985489,-0.2356740683317184,0.5444347858428955,2.152590990066528
1.389947414,0.5193660259246826,0.2138362377882004,-0.82804274559021,0.002205637283623219,-0.003597562201321125,0.005465082824230194,-0.2499619126319885,-0.214797168970108,0.1599799394607544,-0.2356705218553543,0.5444279909133911,2.152593374252319
1.394944549,0.5193963646888733,0.2157936245203018,-0.8277788758277893,0.003590365638956428,-0.004527417942881584,0.005488857161253691,-0.2499915212392807,-0.2148835510015488,0.1600064635276794,-0.2356617003679276,0.5444161295890808,2.152599334716797
1.399943113,0.5211648344993591,0.2172780185937881,-0.8276188969612122,0.001994118560105562,-0.00512372050434351,0.00555778481066227,-0.2500143051147461,-0.2149500250816345,0.160026878118515,-0.2356632053852081,0.54440838098526,2.152595043182373
1.404942393,0.5207535028457642,0.2163842171430588,-0.8277252912521362,0.004197796806693077,-0.004548478405922651,0.005445666145533323,-0.2500218451023102,-0.2149720638990402,0.160033643245697,-0.2356538772583008,0.5443989634513855,2.15259861946106
1.409942269,0.5206065773963928,0.2182599455118179,-0.8277106285095215,0.005545108113437891,-0.005457530729472637,0.007486182730644941,-0.2499479353427887,-0.2147871553897858,0.160217747092247,-0.2356375902891159,0.5443849563598633,2.152616262435913
1.414943218,0.5216689705848694,0.2152627259492874,-0.8274043202400208,0.006504413206130266,-0.003720480250194669,0.009055979549884796,-0.249843031167984,-0.2145222872495651,0.1604592055082321,-0.235601469874382,0.5443880558013916,2.152627944946289
1.419945240,0.5207775831222534,0.2151986956596375,-0.8285361528396606,0.005689739249646664,-0.003427563002333045,0.007285577710717916,-0.2497623115777969,-0.2143184840679169,0.1606449782848358,-0.2355818301439285,0.5443817973136902,2.15263557434082
1.424942374,0.5217280387878418,0.2146033942699432,-0.8282252550125122,0.005877010989934206,-0.004675065632909536,0.008312639780342579,-0.2497355490922928,-0.2142509073019028,0.1607065796852112,-0.2355533689260483,0.5443776249885559,2.152658462524414
1.429940224,0.5220721960067749,0.2143345028162003,-0.8289502263069153,0.00389747810550034,-0.004606831818819046,0.006941773928701878,-0.2497149556875229,-0.2141989171504974,0.1607539653778076,-0.2355433702468872,0.544370174407959,2.15265965461731
1.434939146,0.5193839073181152,0.2134847939014435,-0.8299368023872375,0.00476435199379921,-0.002826843876391649,0.006812036037445068,-0.2496084868907928,-0.2143358588218689,0.1607695072889328,-0.2355242073535919,0.5443640947341919,2.152660846710205
1.439939380,0.5208232998847961,0.2135046124458313,-0.8299324512481689,0.003217441728338599,-0.003099053166806698,0.004637604113668203,-0.2495265752077103,-0.2144412249326706,0.1607814580202103,-0.2355187088251114,0.5443629622459412,2.152655839920044
1.444940329,0.5211197733879089,0.2124441713094711,-0.8293003439903259,0.003054080065339804,-0.00395179633051157,0.007944685406982899,-0.2494994103908539,-0.2144761681556702,0.1607854217290878,-0.2354997992515564,0.5443580746650696,2.152657985687256
1.449942470,0.5208867788314819,0.2127679437398911,-0.8290594220161438,0.003061765339225531,-0.002052795607596636,0.005046012811362743,-0.2494785040616989,-0.2145030498504639,0.1607884764671326,-0.2354933172464371,0.5443577766418457,2.152648687362671
1.454939604,0.5210604071617126,0.2137518227100372,-0.8296594023704529,0.002912267576903105,-0.001202145591378212,0.005700591020286083,-0.2494979500770569,-0.2145707607269287,0.1606079190969467,-0.2354950904846191,0.5443639755249023,2.152642011642456
1.459937811,0.5221782922744751,0.2152426391839981,-0.8298243880271912,0.002227715449407697,-0.002013458870351315,0.00441011181101203,-0.2495395690202713,-0.2146822959184647,0.1602854132652283,-0.2354986965656281,0.5443676710128784,2.152629852294922
1.464936733,0.5223726630210876,0.2136910557746887,-0.8288632035255432,0.0003198549093212932,-0.003616392612457275,0.004542948678135872,-0.2495533674955368,-0.2147192806005478,0.1601784825325012,-0.2355102896690369,0.5443575382232666,2.152617454528809
1.469936848,0.5213724970817566,0.2138643115758896,-0.8278469443321228,0.001381720183417201,-0.002729415195062757,0.005252199713140726,-0.249563992023468,-0.214747741818428,0.1600961983203888,-0.2355120182037354,0.5443538427352905,2.152610540390015
1.474937797,0.5208644270896912,0.2131753712892532,-0.8285083770751953,0.0007199202082119882,-0.001857212977483869,0.005453994031995535,-0.2495675086975098,-0.2147571742534637,0.1600689142942429,-0.2355170398950577,0.5443596839904785,2.152608156204224
1.479946256,0.5195749402046204,0.215397521853447,-0.8283349275588989,0.0005178257124498487,-0.001294662128202617,0.004227683879435062,-0.2498321980237961,-0.2145570516586304,0.1600506752729416,-0.2355378270149231,0.5443534851074219,2.15259838104248
1.484949470,0.5199916362762451,0.2163502871990204,-0.8280286192893982,0.001388884382322431,-0.003828578395769,0.005358343943953514,-0.2499199658632278,-0.2144906967878342,0.1600446254014969,-0.2355430424213409,0.5443469285964966,2.1526038646698
1.489947677,0.5199773907661438,0.2162654548883438,-0.8283224701881409,0.001982842106372118,-0.002566475188359618,0.005434767343103886,-0.2499874979257584,-0.214439645409584,0.1600399613380432,-0.2355568259954453,0.5443453192710876,2.15260910987854
1.494946599,0.5200339555740356,0.215810626745224,-0.8274608850479126,0.002325690351426601,-0.003486629808321595,0.005789986811578274,-0.2500098943710327,-0.2144227176904678,0.1600384116172791,-0.2355610728263855,0.5443364381790161,2.152602434158325
1.499946475,0.5218535661697388,0.216176375746727,-0.8272925019264221,0.002612801035866141,-0.003311311127617955,0.004922869615256786,-0.2498325407505035,-0.2144119888544083,0.1601943671703339,-0.2355669736862183,0.5443383455276489,2.152597188949585
1.504947662,0.5213232040405273,0.215970054268837,-0.8295613527297974,0.003116472624242306,-0.002388241235166788,0.004777545109391212,-0.2497255802154541,-0.2144089937210083,0.1602849513292313,-0.2355677038431168,0.5443331599235535,2.152592182159424
1.509949684,0.5193453431129456,0.216035857796669,-0.8282194137573242,0.002617396181449294,-0.003866907209157944,0.005812561605125666,-0.2496432960033417,-0.2144066989421844,0.1603546589612961,-0.2355677038431168,0.5443294048309326,2.15259861946106
1.514947057,0.5196685194969177,0.2137043327093124,-0.8265976309776306,0.003591770771890879,-0.003755653742700815,0.005273072514683008,-0.2496160119771957,-0.2144059389829636,0.1603777706623077,-0.2355625629425049,0.5443199276924133,2.152594089508057
1.519944906,0.5196987390518188,0.2139056921005249,-0.8273006081581116,0.002358868718147278,-0.001827705069445074,0.006869819015264511,-0.2495398819446564,-0.214378148317337,0.1603332608938217,-0.2355573773384094,0.5443236827850342,2.152595043182373
1.524944425,0.5209797024726868,0.2148523032665253,-0.8285507559776306,0.001927624922245741,-0.002315579215064645,0.005381576716899872,-0.2494590282440186,-0.2143414914608002,0.1602557003498077,-0.235561802983284,0.5443220734596252,2.152593374252319
1.529944301,0.5203201174736023,0.2151654064655304,-0.8279529213905334,0.002929887268692255,-0.002271405654028058,0.006235104519873857,-0.2493968158960342,-0.2143133133649826,0.1601960211992264,-0.2355541586875916,0.5443231463432312,2.152595043182373
1.534945488,0.5209280848503113,0.2134604752063751,-0.8273718953132629,0.001234923722222447,-0.003913490567356348,0.006712696515023708,-0.249376192688942,-0.2143039703369141,0.1601762324571609,-0.2355585694313049,0.5443152785301208,2.152591466903687
1.539947510,0.5203362107276917,0.2149549424648285,-0.8278237581253052,0.0003214885364286602,-0.002309501636773348,0.004693512804806232,-0.2493603229522705,-0.2142967581748962,0.1601610034704208,-0.2355669587850571,0.5443096160888672,2.152584791183472
1.544944882,0.5214478373527527,0.2166252136230469,-0.8278900384902954,0.00201127678155899,-0.002372065093368292,0.00600497517734766,-0.2496473342180252,-0.2143380045890808,0.1603230237960815,-0.2355719059705734,0.5443150997161865,2.152585506439209
1.549942732,0.5212541818618774,0.2162140756845474,-0.8278437852859497,0.001375947031192482,-0.001750946626998484,0.005225776694715023,-0.2498681545257568,-0.2143697589635849,0.1604476869106293,-0.2355788797140121,0.5443183779716492,2.152581453323364
1.554941893,0.5213512778282166,0.2157109826803207,-0.8289107084274292,0.001609492814168334,-0.004351016134023666,0.006496635265648365,-0.2499413937330246,-0.2143802791833878,0.160489022731781,-0.2355851531028748,0.5443063974380493,2.152578353881836
1.559941888,0.5213017463684082,0.2140658050775528,-0.8299341797828674,0.001763916807249188,-0.001267436309717596,0.003310351865366101,-0.2499977350234985,-0.2143883854150772,0.1605208218097687,-0.2355984747409821,0.5443127155303955,2.152561187744141
1.564942837,0.5206001996994019,0.2133687436580658,-0.8293940424919128,0.001913971267640591,-0.001446883892640471,0.004483373835682869,-0.2499617636203766,-0.2143347561359406,0.1604992151260376,-0.2355995625257492,0.5443129539489746,2.152552127838135
1.569945097,0.5214351415634155,0.2157735377550125,-0.8291274905204773,0.001777543220669031,-0.002835431601852179,0.006735087838023901,-0.2498788386583328,-0.2142365574836731,0.1604500710964203,-0.2355987578630447,0.5443145632743835,2.152564764022827
1.574942231,0.5210424661636353,0.2153336405754089,-0.828278660774231,0.001853544497862458,-0.000838970416225493,0.006209785118699074,-0.2498513460159302,-0.2142039984464645,0.1604337692260742,-0.2356008291244507,0.5443179607391357,2.152560710906982
1.579940319,0.5198326110839844,0.2145114690065384,-0.8275953531265259,0.001859123934991658,-0.003408777294680476,0.005748176015913486,-0.2498301863670349,-0.2141789495944977,0.1604212373495102,-0.2356021106243134,0.5443135499954224,2.152569532394409
1.584939241,0.5203338861465454,0.216071829199791,-0.8275476098060608,0.002933937823399901,-0.002109671710059047,0.007408568635582924,-0.2498231679201126,-0.2141706347465515,0.1604170799255371,-0.2355956137180328,0.5443170666694641,2.152572393417358
1.589939237,0.5219852328300476,0.2162052690982819,-0.8292108774185181,0.003137037623673677,-0.002368602436035872,0.005502198822796345,-0.249813973903656,-0.2144340723752975,0.1604168564081192,-0.2355955988168716,0.5443160533905029,2.152566194534302
1.594940186,0.5200154185295105,0.215525895357132,-0.8270796537399292,0.002486428013071418,-0.001932154875248671,0.005402373149991035,-0.2498109340667725,-0.2145214229822159,0.1604167819023132,-0.2356011718511581,0.5443136096000671,2.15255880355835
1.599942446,0.518077552318573,0.2167026996612549,-0.8270213007926941,0.004051920957863331,-0.001281824661418796,0.00566197419539094,-0.249808594584465,-0.2145886421203613,0.1604167371988297,-0.2355936020612717,0.5443145632743835,2.152569532394409
1.604939818,0.5183881521224976,0.2147141546010971,-0.8274573087692261,0.004527493845671415,-0.003184058470651507,0.00640816381201148,-0.2498078197240829,-0.2146109193563461,0.1604167222976685,-0.2355800867080688,0.5443071126937866,2.152565717697144
1.609937906,0.5193568468093872,0.2157272845506668,-0.8285107016563416,0.004030603915452957,-0.001806401880457997,0.005424644332379103,-0.2499041259288788,-0.2146281450986862,0.1602040678262711,-0.235583022236824,0.5443071126937866,2.152564764022827
1.614943266,0.5192122459411621,0.2137926071882248,-0.8286057710647583,0.002507215831428766,-0.001277918228879571,0.005793480668216944,-0.2499600499868393,-0.2146338671445847,0.1600809246301651,-0.2355681955814362,0.544314444065094,2.152565956115723
1.619943738,0.521922767162323,0.2127909362316132,-0.8282927870750427,0.005055179819464684,-0.002315147547051311,0.006199280731379986,-0.2500030696392059,-0.2146382629871368,0.1599861830472946,-0.2355545610189438,0.544314980506897,2.152562379837036
1.624944687,0.5231696963310242,0.2129731476306915,-0.8295496702194214,0.002881021238863468,-0.0008995169773697853,0.006956414319574833,-0.2500173449516296,-0.214639738202095,0.159954771399498,-0.2355534881353378,0.5443289279937744,2.152564525604248
1.629946828,0.52008455991745,0.2129524052143097,-0.8275129795074463,0.00318167288787663,-0.0003530818503350019,0.003871110733598471,-0.2498915791511536,-0.21467225253582,0.159953698515892,-0.2355521023273468,0.5443280339241028,2.152549505233765
1.634943962,0.5213581323623657,0.2123390883207321,-0.8280007243156433,0.001723248977214098,-7.842774357413873e-05,0.00448887050151825,-0.2497099488973618,-0.214714527130127,0.1599816977977753,-0.2355654239654541,0.5443410873413086,2.152531862258911
1.639941931,0.5210814476013184,0.2120615392923355,-0.8266236186027527,0.0005779160419479012,-0.002001168206334114,0.002722996287047863,-0.2495701909065247,-0.2147470563650131,0.1600032448768616,-0.2355769276618958,0.5443383455276489,2.152501106262207
1.644941092,0.5195555686950684,0.212363138794899,-0.8290086984634399,0.000244966649916023,-0.001733585726469755,0.003670201171189547,-0.2495238482952118,-0.2147578299045563,0.1600103825330734,-0.2355851680040359,0.544334888458252,2.152489900588989
1.649940968,0.51980060338974,0.2146428674459457,-0.8269492387771606,-0.0006595888407900929,-0.001487803761847317,0.005959645844995975,-0.2494882047176361,-0.2147661298513412,0.160015881061554,-0.2356049120426178,0.5443406701087952,2.152480125427246
1.654941916,0.5201781392097473,0.2157496809959412,-0.8280579447746277,0.0007854134892113507,-0.001534235780127347,0.004354866221547127,-0.2495288252830505,-0.2145136147737503,0.1600694507360458,-0.2356191575527191,0.5443409085273743,2.15247631072998
1.659943938,0.5210409760475159,0.2159515470266342,-0.8280096650123596,0.001973619684576988,-0.00177889340557158,0.00466064689680934,-0.249560073018074,-0.2143193334341049,0.160110667347908,-0.2356218993663788,0.5443373918533325,2.152470111846924
1.664941072,0.5198081135749817,0.2157378345727921,-0.8285666108131409,-3.358410322107375e-05,-0.001958525739610195,0.004048035480082035,-0.2495704293251038,-0.2142549157142639,0.1601243317127228,-0.2356402724981308,0.5443309545516968,2.152462005615234
1.669938922,0.5204641819000244,0.2165142297744751,-0.8290107846260071,0.002129695611074567,-0.002428928855806589,0.00353065668605268,-0.2495784014463425,-0.214205339550972,0.1601348519325256,-0.2356429100036621,0.5443342328071594,2.152452945709229
1.674938083,0.5177066922187805,0.2153562903404236,-0.8300601243972778,0.002038053702563047,-0.0005546400207094848,0.00536492932587862,-0.2495241463184357,-0.2143050134181976,0.1601690053939819,-0.2356507629156113,0.54433274269104,2.152451515197754
1.679938078,0.5187079310417175,0.2177563905715942,-0.8293747901916504,0.001788826542906463,-0.0006292503094300628,0.005420312285423279,-0.2494248598814011,-0.2144991010427475,0.1602262854576111,-0.2356632798910141,0.5443374514579773,2.152451515197754
1.684939027,0.5194764137268066,0.2178616672754288,-0.8276993036270142,0.002259377622976899,0.0002340938372071832,0.005098439753055573,-0.2493919432163239,-0.2145634591579437,0.1602452844381332,-0.235672265291214,0.5443498492240906,2.152441740036011
1.689941287,0.5210383534431458,0.2148755937814713,-0.8283036947250366,0.001215311582200229,0.0001259099517483264,0.004172628279775381,-0.2493666112422943,-0.2146129757165909,0.1602599024772644,-0.2356784492731094,0.5443585515022278,2.152432918548584
1.694938660,0.521958589553833,0.2126824259757996,-0.827176034450531,0.002954784082248807,0.0006163077778182924,0.006291166413575411,-0.2493582218885422,-0.2146293967962265,0.1602647453546524,-0.2356663644313812,0.5443775057792664,2.152424335479736
1.699936748,0.5233867764472961,0.2129995375871658,-0.8279938101768494,0.001697972533293068,-0.0003482306492514908,0.00600068736821413,-0.2498011142015457,-0.214904397726059,0.1601376533508301,-0.2356697171926498,0.5443897843360901,2.152416706085205
1.704935908,0.5229375958442688,0.2140791863203049,-0.8291515111923218,0.0007333859102800488,-0.0002080897538689896,0.006093299016356468,-0.2499479800462723,-0.2149955779314041,0.1600955128669739,-0.2356764525175095,0.5444020628929138,2.152409315109253
1.709935904,0.5226272344589233,0.2177234143018723,-0.8277339339256287,0.001596894580870867,0.0005173434037715197,0.006481249816715717,-0.2500609457492828,-0.2150657325983047,0.1600630879402161,-0.2356881201267242,0.5444234609603882,2.152399301528931
1.714937091,0.520514965057373,0.2174777537584305,-0.8281056880950928,0.002153520006686449,0.001202213694341481,0.005465346854180098,-0.2500984072685242,-0.2150890082120895,0.1600523293018341,-0.2356973886489868,0.544438362121582,2.152395009994507
1.719939590,0.5206138491630554,0.2144879549741745,-0.828502893447876,0.002919800113886595,0.0009968536905944347,0.005985910072922707,-0.249691441655159,-0.2149118483066559,0.1600870043039322,-0.2356941699981689,0.5444501042366028,2.152383327484131
1.724936962,0.5221165418624878,0.2148537784814835,-0.8299672603607178,0.001779228099621832,0.002319950144737959,0.006125112529844046,-0.2494486421346664,-0.2148048430681229,0.1601091325283051,-0.2356928884983063,0.5444669723510742,2.152374982833862
1.729935050,0.5209716558456421,0.2154996395111084,-0.8290431499481201,0.003956485539674759,0.00211441284045577,0.005021161865442991,-0.2492618262767792,-0.2147224992513657,0.1601261645555496,-0.2356947809457779,0.5444802641868591,2.152361392974854
1.734933972,0.5195650458335876,0.2169352918863297,-0.8283643126487732,0.003357999492436647,0.002279919805005193,0.005071131978183985,-0.2491998970508575,-0.2146951854228973,0.1601318120956421,-0.2356950044631958,0.5445015430450439,2.152354717254639
1.739934206,0.5213054418563843,0.2154993265867233,-0.8291366696357727,0.0006481634918600321,0.0002699703618418425,0.006417804397642612,-0.2493476569652557,-0.2145551145076752,0.1601386070251465,-0.2357073873281479,0.5445099472999573,2.152346849441528
1.744935393,0.5215988755226135,0.2149948328733444,-0.8279405832290649,0.001383687718771398,0.001023421762511134,0.004292000085115433,-0.2495937049388885,-0.2143886089324951,0.1601433306932449,-0.235713317990303,0.5445244312286377,2.152334451675415
1.749943852,0.5219272375106812,0.214826226234436,-0.8286730647087097,-0.0001897565089166164,0.001860669930465519,0.005921381525695324,-0.2497830390930176,-0.2142604887485504,0.160146951675415,-0.2357227057218552,0.5445489287376404,2.152333736419678
1.754947066,0.5208876132965088,0.2137450724840164,-0.8277150392532349,0.001714074751362205,0.000754290958866477,0.005361784249544144,-0.2498458027839661,-0.2142180055379868,0.1601481586694717,-0.2357314079999924,0.5445685982704163,2.152322292327881
1.759945512,0.5204964280128479,0.2143111824989319,-0.8277725577354431,-0.0002296294260304421,0.002020574174821377,0.004321269225329161,-0.2498940974473953,-0.2141853272914886,0.1601490825414658,-0.2357494086027145,0.5445877909660339,2.152312040328979
1.764944434,0.5184602737426758,0.2157868593931198,-0.8278841376304626,2.601579762995243e-05,0.002916438272222877,0.005820651073008776,-0.250154048204422,-0.2141692787408829,0.1602076888084412,-0.235768586397171,0.5446085333824158,2.152312755584717
1.769944549,0.5194540619850159,0.2149065583944321,-0.8288258910179138,0.00195250497199595,0.002851179800927639,0.004708564374595881,-0.2503540813922882,-0.2141569405794144,0.1602527797222137,-0.2357718348503113,0.5446236133575439,2.152310132980347
1.774945498,0.5196194052696228,0.2146580517292023,-0.8294286727905273,0.0003088926896452904,0.001762374304234982,0.004951176233589649,-0.2504204213619232,-0.2141528427600861,0.1602677404880524,-0.2357868850231171,0.5446357131004333,2.152311563491821
1.779947519,0.5205051898956299,0.2139635384082794,-0.8289564251899719,0.002343412023037672,0.00179455557372421,0.005790566094219685,-0.2504714727401733,-0.2141496986150742,0.160279244184494,-0.2357947081327438,0.5446635484695435,2.152304410934448
1.784944654,0.5199742317199707,0.2146508097648621,-0.8284763097763062,-0.0006636579055339098,0.003589457366615534,0.003868258558213711,-0.2504601180553436,-0.2141785770654678,0.1602219343185425,-0.2358174473047256,0.5446870923042297,2.152291059494019
1.789942741,0.5197282433509827,0.2152520716190338,-0.8294152617454529,0.0005667567020282149,0.002606673631817102,0.005404858849942684,-0.2504228055477142,-0.2142310440540314,0.1601160615682602,-0.2358316481113434,0.5447053909301758,2.152294158935547
1.794941902,0.5203689932823181,0.2153127640485764,-0.8287161588668823,0.00131696555763483,0.003352321218699217,0.004254150204360485,-0.250410407781601,-0.2142484486103058,0.1600809544324875,-0.2358452081680298,0.5447287559509277,2.15228009223938
1.799941897,0.5215117335319519,0.2132555693387985,-0.8291015625,0.0003711177268996835,0.003377721179276705,0.004721350036561489,-0.2504008710384369,-0.2142618298530579,0.160053938627243,-0.2358496487140656,0.5447548627853394,2.152271509170532
1.804942846,0.5209112763404846,0.2131089568138123,-0.8289178013801575,0.001423164387233555,0.002225810894742608,0.005133273545652628,-0.2503977119922638,-0.2142662703990936,0.1600449830293655,-0.2358580380678177,0.544770359992981,2.15226149559021
1.809944868,0.5192535519599915,0.2140354216098785,-0.8274631500244141,0.0005729580298066139,0.003530665533617139,0.004427182022482157,-0.2496811002492905,-0.2143528759479523,0.1598113626241684,-0.2358734160661697,0.544795036315918,2.15224552154541
1.814942002,0.5197348594665527,0.2148619443178177,-0.8271545767784119,0.001456385478377342,0.002868504961952567,0.006153379566967487,-0.2494434863328934,-0.214381605386734,0.1597339063882828,-0.2358782142400742,0.5448129773139954,2.152240514755249
1.819939852,0.5199361443519592,0.2186878770589828,-0.8266405463218689,0.002204726450145245,0.001940766349434853,0.005635645240545273,-0.2492606639862061,-0.2144037038087845,0.1596743017435074,-0.235894501209259,0.544838547706604,2.152238130569458
1.824939013,0.521531879901886,0.2174513041973114,-0.8272523880004883,0.003186024725437164,0.002068585716187954,0.005501097999513149,-0.2492000460624695,-0.2144110351800919,0.1596545428037643,-0.2358937114477158,0.5448564887046814,2.152226448059082
1.829939246,0.5214532613754272,0.2189653813838959,-0.8266167640686035,0.003974460531026125,0.003197400830686092,0.008211218751966953,-0.24944669008255,-0.2144085615873337,0.1599130779504776,-0.2358875721693039,0.5448901057243347,2.152233362197876
1.834940434,0.5215129852294922,0.2179198861122131,-0.8276233077049255,0.002808697987347841,0.001821279060095549,0.006633163429796696,-0.2496010363101959,-0.2144057303667068,0.160066545009613,-0.2358933836221695,0.5449109077453613,2.152228593826294
1.839942455,0.5195362567901611,0.2167538702487946,-0.8270897269248962,0.00444021075963974,0.002965153660625219,0.007251996546983719,-0.2497197985649109,-0.2144035547971725,0.1601846218109131,-0.2358789891004562,0.5449314713478088,2.152240037918091
1.844939828,0.5192978978157043,0.2156611084938049,-0.8266106247901917,0.003852753201499581,0.002763605443760753,0.00816289521753788,-0.2497591823339462,-0.2144028395414352,0.1602237820625305,-0.2358708083629608,0.5449548959732056,2.152252435684204
1.849937677,0.5210296511650085,0.2144635021686554,-0.8260475993156433,0.005714842583984137,0.001432782621122897,0.008336706086993217,-0.2497324645519257,-0.2144912332296371,0.1601015329360962,-0.2358466982841492,0.544980525970459,2.15225076675415
1.854936838,0.522991418838501,0.2151833474636078,-0.8276633620262146,0.006316263228654861,0.002059235936030746,0.008460107259452343,-0.2496661096811295,-0.2146102339029312,0.1599073559045792,-0.2358284145593643,0.5450006723403931,2.152253866195679
1.859936714,0.5211438536643982,0.2144069522619247,-0.8263474702835083,0.005380985327064991,0.002098623896017671,0.006906227674335241,-0.2496150583028793,-0.2147017866373062,0.1597579419612885,-0.2358031570911407,0.5450220108032227,2.152254343032837
1.864938021,0.5221556425094604,0.2137652933597565,-0.8259608745574951,0.003494268516078591,0.001094906707294285,0.007478425744920969,-0.2495981305837631,-0.2147321403026581,0.1597083956003189,-0.2357957363128662,0.5450505018234253,2.152250528335571
1.869940281,0.5220267176628113,0.2139278948307037,-0.8284673690795898,0.002741442527621984,0.001190267968922853,0.006589175201952457,-0.2495851069688797,-0.21475550532341,0.159670278429985,-0.2357975393533707,0.5450668334960938,2.1522376537323
1.874937654,0.5211290121078491,0.2133992165327072,-0.8286997079849243,0.004315603524446487,0.001400112174451351,0.006902502384036779,-0.2496809363365173,-0.2146559208631516,0.1600873917341232,-0.2357842624187469,0.5450824499130249,2.152234315872192
1.879935503,0.5205064415931702,0.2119628489017487,-0.8280218839645386,0.003673346247524023,0.002301067346706986,0.00531670032069087,-0.2497546523809433,-0.2145792841911316,0.1604083329439163,-0.2357752621173859,0.5451005697250366,2.152222394943237
1.884940505,0.5199072957038879,0.2113748043775558,-0.827456533908844,0.001073434366844594,0.002452800516039133,0.006408583838492632,-0.2497791051864624,-0.2145538777112961,0.1605147570371628,-0.2357833385467529,0.5451234579086304,2.15221118927002
1.889940739,0.5209532380104065,0.2129043191671371,-0.8274561166763306,0.002187943318858743,0.002691438421607018,0.005532241892069578,-0.249797910451889,-0.2145343273878098,0.160596638917923,-0.2357856035232544,0.5451467633247375,2.152194023132324
1.894941688,0.5227020382881165,0.2153199464082718,-0.8267501592636108,-0.0003393568331375718,0.00396960461512208,0.005487211979925632,-0.2497753202915192,-0.2145871520042419,0.160502091050148,-0.2358106076717377,0.5451805591583252,2.152177333831787
1.899943948,0.5228281617164612,0.2152555882930756,-0.8276526927947998,0.002483016578480601,0.004849058110266924,0.004855223465710878,-0.2497287690639496,-0.214687779545784,0.1603062748908997,-0.2358291149139404,0.5452111959457397,2.152148485183716
1.904941320,0.5223129391670227,0.2147602140903473,-0.8275340795516968,0.001144815003499389,0.002886135131120682,0.004627759102731943,-0.2497133314609528,-0.2147211283445358,0.1602413505315781,-0.2358355969190598,0.5452365279197693,2.152132034301758
1.909939766,0.5217655301094055,0.2165393233299255,-0.827576756477356,0.001556671457365155,0.002721267286688089,0.004233197774738073,-0.2497014552354813,-0.2147467881441116,0.1601913869380951,-0.2358485758304596,0.5452622771263123,2.152117967605591
1.914938569,0.5225384831428528,0.2163170129060745,-0.8270828723907471,0.001170107629150152,0.002944087143987417,0.006056924816220999,-0.2496975213289261,-0.2147553116083145,0.1601748168468475,-0.2358588129281998,0.5452868938446045,2.152109861373901
1.919938803,0.5214455127716064,0.2179142683744431,-0.826015830039978,0.001364425639621913,0.004503170493990183,0.006924586370587349,-0.2493080198764801,-0.2145689576864243,0.1599385738372803,-0.2358736097812653,0.5453183650970459,2.152099847793579
1.924939752,0.522977352142334,0.2191132605075836,-0.827617883682251,0.003828376065939665,0.002553065773099661,0.007260908838361502,-0.2491788566112518,-0.2145071625709534,0.1598602384328842,-0.2358762919902802,0.5453420281410217,2.152093172073364
1.929942012,0.5208708047866821,0.2185190618038177,-0.8281068205833435,0.00452221417799592,0.003675672225654125,0.007059239316731691,-0.2490794807672501,-0.214459627866745,0.1597999781370163,-0.2358681410551071,0.5453727841377258,2.152095079421997
1.934939146,0.5207805037498474,0.2180057168006897,-0.8257811665534973,0.005179270170629025,0.001322474097833037,0.00717333797365427,-0.2490465193986893,-0.2144438624382019,0.1597799956798553,-0.2358542531728745,0.5453876256942749,2.152087688446045
1.939937234,0.5209265351295471,0.2158723920583725,-0.8266497254371643,0.006838041823357344,0.00132878590375185,0.007143970113247633,-0.2493603378534317,-0.2145774215459824,0.1597728580236435,-0.235830619931221,0.5454123020172119,2.152096271514893
1.944936395,0.5226992964744568,0.2140251398086548,-0.8262073397636414,0.006546481978148222,0.002366967732086778,0.008310337550938129,-0.2495483160018921,-0.2146577686071396,0.159772515296936,-0.2358088493347168,0.5454393625259399,2.152091979980469
1.949936628,0.5212270021438599,0.2139359414577484,-0.8272509574890137,0.007804966997355223,0.001433188212104142,0.007856208831071854,-0.2496929615736008,-0.2147195786237717,0.1597722768783569,-0.2357716709375381,0.5454654693603516,2.152101516723633
1.954937577,0.5203413367271423,0.2134349644184113,-0.826554536819458,0.006975081283599138,0.001737625221721828,0.007487738970667124,-0.2497409284114838,-0.2147400677204132,0.1597721874713898,-0.2357480227947235,0.5454831719398499,2.152105569839478
1.959939837,0.5222505331039429,0.2129904329776764,-0.8284096717834473,0.008402477018535137,0.001103877555578947,0.007217232137918472,-0.2497784495353699,-0.2146987318992615,0.1597105860710144,-0.2357103228569031,0.5455020070075989,2.152109146118164
1.964936972,0.5207919478416443,0.2164919823408127,-0.8273374438285828,0.006210505962371826,0.0006789163453504443,0.00764009915292263,-0.2497915476560593,-0.2146274596452713,0.1596280932426453,-0.2356908917427063,0.5455136299133301,2.152121782302856
1.969934821,0.5221920609474182,0.2170830219984055,-0.8268303871154785,0.0069448072463274,0.001645802985876799,0.006994412746280432,-0.2498016208410263,-0.2145726084709167,0.1595646291971207,-0.2356664836406708,0.5455360412597656,2.152125120162964
1.974933982,0.523379385471344,0.2161744236946106,-0.8287626504898071,0.006210053339600563,-0.0004337645368650556,0.008420180529356003,-0.2498049587011337,-0.2145544290542603,0.159543588757515,-0.2356384545564651,0.5455403923988342,2.152134418487549
1.979933977,0.5232033133506775,0.2152549773454666,-0.8282715678215027,0.006937739439308643,-0.00018189602997154,0.007788730319589376,-0.2498075366020203,-0.2145404368638992,0.1595273911952972,-0.2356127500534058,0.5455564260482788,2.152138233184814
1.984934926,0.523271918296814,0.2158354818820953,-0.8269427418708801,0.007126971147954464,-7.890525739639997e-05,0.00689507694914937,-0.2498578727245331,-0.2145324051380157,0.1597910970449448,-0.2355897575616837,0.5455668568611145,2.15213680267334
1.989936948,0.5230631232261658,0.2143923193216324,-0.8278009295463562,0.005228796508163214,0.0007143107941374183,0.007678276859223843,-0.2498966008424759,-0.2145262211561203,0.1599940061569214,-0.2355691343545914,0.5455924272537231,2.152135133743286
1.994934320,0.5238656401634216,0.2160077542066574,-0.8292434215545654,0.004540149588137865,0.0004482579242903739,0.007037406787276268,-0.2499094307422638,-0.2145241796970367,0.1600612848997116,-0.2355513423681259,0.5456076860427856,2.152134418487549
1.999932170,0.5211982727050781,0.2134998291730881,-0.8284192681312561,0.005991826765239239,3.282004036009312e-05,0.008326596580445766,-0.2499193251132965,-0.2145226150751114,0.160113051533699,-0.2355197370052338,0.545615017414093,2.152149438858032
2.004931211,0.5209798216819763,0.213588610291481,-0.8278358578681946,0.006804453674703836,0.0009018973214551806,0.007594642229378223,-0.2497575283050537,-0.2144393771886826,0.160065159201622,-0.2354888617992401,0.5456306934356689,2.152155876159668
2.009931326,0.5221353769302368,0.2142114639282227,-0.8266274333000183,0.0068784742616117,5.476846126839519e-05,0.007391948252916336,-0.2494661062955856,-0.2142916768789291,0.1599625200033188,-0.2354633808135986,0.5456458926200867,2.152157545089722
2.014932394,0.5213835835456848,0.2135919034481049,-0.8282503485679626,0.00588690210133791,0.001228674780577421,0.008512004278600216,-0.2493694871664047,-0.2142427116632462,0.159928485751152,-0.2354309856891632,0.5456620454788208,2.152165174484253
2.019940853,0.5230771899223328,0.2148370295763016,-0.8276582956314087,0.006839029025286436,-0.0008144610328599811,0.008850340731441975,-0.2492951303720474,-0.2142050266265869,0.1599022895097733,-0.2354045510292053,0.5456757545471191,2.152172088623047
2.024944305,0.5222930312156677,0.2117941975593567,-0.8269246816635132,0.006642313208431005,-0.001094138831831515,0.006843763403594494,-0.2492704838514328,-0.2141925394535065,0.1598936021327972,-0.2353738695383072,0.5456822514533997,2.152166128158569
2.029942751,0.5246403217315674,0.2115703225135803,-0.8280550837516785,0.005841321777552366,8.493021596223116e-05,0.006419959478080273,-0.2496373951435089,-0.2143777757883072,0.1598966270685196,-0.2353577315807343,0.5456999540328979,2.15215539932251
2.034941912,0.5217270851135254,0.2143237888813019,-0.827393651008606,0.005252792034298182,-0.002260302426293492,0.006214626599103212,-0.2497590482234955,-0.2144391983747482,0.1598976254463196,-0.2353366166353226,0.5457006692886353,2.152159690856934
2.039941788,0.5218793153762817,0.2146095335483551,-0.8272699117660522,0.006404179148375988,-0.002457426162436604,0.008582177571952343,-0.2498526573181152,-0.2144864648580551,0.1598984003067017,-0.2353120893239975,0.5457056760787964,2.152177333831787
2.044942856,0.5227504968643188,0.2158390581607819,-0.8275050520896912,0.005207448732107878,-0.00127986550796777,0.007598741911351681,-0.249883696436882,-0.2145021259784698,0.1598986685276031,-0.2352973073720932,0.545709490776062,2.152177333831787
2.049944878,0.5232594609260559,0.2174096554517746,-0.8271533250808716,0.006353696342557669,-0.00312960403971374,0.008353394456207752,-0.2499579042196274,-0.2144112288951874,0.159952312707901,-0.2352775931358337,0.5457069873809814,2.152196645736694
2.054941654,0.5239169001579285,0.218371719121933,-0.8264753818511963,0.004605229943990707,-0.002728303428739309,0.01010395400226116,-0.2499949783086777,-0.2143556028604507,0.1599833220243454,-0.2352629154920578,0.545717179775238,2.152209758758545
2.059940100,0.5230198502540588,0.217645063996315,-0.8271227478981018,0.00865106750279665,-0.005118326283991337,0.009959908202290535,-0.2500234842300415,-0.214312806725502,0.1600071787834167,-0.2352162450551987,0.5457084178924561,2.152237415313721
2.064939022,0.5232135057449341,0.2165818512439728,-0.826311469078064,0.008083129301667213,-0.005376146640628576,0.01083099562674761,-0.2500329315662384,-0.2142986208200455,0.1600150913000107,-0.2351797372102737,0.545697033405304,2.152267694473267
2.069939137,0.5222705602645874,0.2147433757781982,-0.826525092124939,0.00842142291367054,-0.00568395433947444,0.01129327248781919,-0.2499295473098755,-0.2142895758152008,0.1600495129823685,-0.2351258993148804,0.5456913709640503,2.152301073074341
2.074940205,0.5205228924751282,0.2167218625545502,-0.8280739188194275,0.01156190596520901,-0.004709641449153423,0.0107849258929491,-0.2497836649417877,-0.2142884433269501,0.1600894927978516,-0.2350683063268661,0.5456791520118713,2.152333498001099
2.079942465,0.521354615688324,0.2144534438848495,-0.8287259340286255,0.009885144419968128,-0.003276072675362229,0.01043601147830486,-0.2496714144945145,-0.2142875790596008,0.1601202487945557,-0.235011413693428,0.5456828474998474,2.152360439300537
2.084939480,0.52228844165802,0.2123878747224808,-0.8291621804237366,0.01205452252179384,-0.004580173175781965,0.01305538509041071,-0.2496342062950134,-0.2142872959375381,0.1601304560899734,-0.2349394410848618,0.5456753969192505,2.152395486831665
2.089937687,0.5240773558616638,0.213055819272995,-0.828890323638916,0.01032448094338179,-0.00432858057320118,0.01191018149256706,-0.2496055662631989,-0.2142870724201202,0.1601382941007614,-0.2348797023296356,0.545674204826355,2.152427434921265
2.094937086,0.5227551460266113,0.2113936394453049,-0.8277899026870728,0.009763835929334164,-0.005803508218377829,0.01149987615644932,-0.2494514286518097,-0.2142361104488373,0.1604592800140381,-0.2348244786262512,0.5456609725952148,2.152445316314697
2.099937201,0.5219331979751587,0.2110626995563507,-0.8274630904197693,0.009804300032556057,-0.006137662101536989,0.01062534935772419,-0.2493328154087067,-0.2141969054937363,0.1607062518596649,-0.2347626686096191,0.5456538200378418,2.152469158172607
2.104938269,0.5224798321723938,0.2120981216430664,-0.8276849389076233,0.009770828299224377,-0.004920118488371372,0.01137475110590458,-0.2492934912443161,-0.2141839116811752,0.1607881486415863,-0.2346974462270737,0.5456496477127075,2.152499437332153
2.109940529,0.5228603482246399,0.2138366401195526,-0.8288448452949524,0.008935799822211266,-0.004860031884163618,0.01103678159415722,-0.2492632418870926,-0.2141739130020142,0.1608511507511139,-0.2346520125865936,0.5456416010856628,2.152521848678589
2.114937544,0.5246281623840332,0.2132303416728973,-0.828183650970459,0.01069373264908791,-0.008186601102352142,0.00922786258161068,-0.2491136938333511,-0.214204341173172,0.1606260687112808,-0.234595313668251,0.5456250905990601,2.152533054351807
2.119935751,0.5230061411857605,0.2139559090137482,-0.8303744196891785,0.01050124224275351,-0.006650513969361782,0.01129078026860952,-0.2488575428724289,-0.2142618447542191,0.1602041870355606,-0.2345319837331772,0.5456141233444214,2.152565240859985
2.124934673,0.5215250849723816,0.2142015546560287,-0.8294544816017151,0.009505988098680973,-0.005475058685988188,0.01252529490739107,-0.248772606253624,-0.2142809182405472,0.1600642949342728,-0.2344824373722076,0.5456007719039917,2.152599811553955
2.129934549,0.5219089984893799,0.2138250321149826,-0.8266276121139526,0.008399682119488716,-0.006590701639652252,0.01267494168132544,-0.2487072497606277,-0.2142955958843231,0.1599566638469696,-0.2344279587268829,0.5455901622772217,2.152635812759399
2.134935617,0.5211600065231323,0.2145995050668716,-0.8265843987464905,0.009769413620233536,-0.006475063972175121,0.01269046775996685,-0.2486855834722519,-0.2143004536628723,0.1599209755659103,-0.2343728393316269,0.5455769896507263,2.152667284011841
2.139937878,0.5230540633201599,0.2148980051279068,-0.8267514705657959,0.009293096140027046,-0.005922046024352312,0.01166533585637808,-0.2493147403001785,-0.2144914120435715,0.1601932346820831,-0.2343165576457977,0.5455656051635742,2.152703523635864
2.144935369,0.522011399269104,0.2128924280405045,-0.8271117210388184,0.01114882901310921,-0.006100104656070471,0.01326750498265028,-0.2495233714580536,-0.2145547270774841,0.1602835208177567,-0.2342436462640762,0.5455597639083862,2.152745723724365
2.149933338,0.5221186876296997,0.2133002877235413,-0.8265550136566162,0.009478837251663208,-0.006545120850205421,0.01289270166307688,-0.2496838867664337,-0.214603453874588,0.1603529751300812,-0.2341895401477814,0.5455489754676819,2.152775287628174
2.154938459,0.5202705860137939,0.21414914727211,-0.826347827911377,0.00693203741684556,-0.00544906547293067,0.01279583759605885,-0.2497371137142181,-0.2146196216344833,0.1603760123252869,-0.2341446280479431,0.5455367565155029,2.15281867980957
2.159938335,0.5200916528701782,0.2132070362567902,-0.8275866508483887,0.00779573991894722,-0.007040729746222496,0.01139290258288383,-0.2500739693641663,-0.2143247425556183,0.1600742191076279,-0.2340937256813049,0.5455135107040405,2.152861356735229
2.164939404,0.5187125205993652,0.2129523903131485,-0.8263818621635437,0.006717428099364042,-0.006900572218000889,0.01038524694740772,-0.2502588629722595,-0.2141509205102921,0.1598950922489166,-0.2340541481971741,0.5455000400543213,2.152904748916626
2.169941425,0.5152090787887573,0.2124761343002319,-0.8267471194267273,0.007308248896151781,-0.003522875485941768,0.01045719161629677,-0.2504011392593384,-0.2140171825885773,0.1597572565078735,-0.2340009808540344,0.5454909205436707,2.152957916259766
2.174938917,0.5195212364196777,0.2122887372970581,-0.8311940431594849,0.006049345713108778,-0.001673483639024198,0.01205273438245058,-0.2504483163356781,-0.2139728367328644,0.159711554646492,-0.2339734137058258,0.5454975962638855,2.152998208999634
2.179936886,0.5315853357315063,0.2177418917417526,-0.8316792249679565,0.00789562426507473,-0.003864721627905965,0.01182845328003168,-0.2504563927650452,-0.2139960825443268,0.1597678661346436,-0.2339308857917786,0.5455142259597778,2.153018236160278
2.184936047,0.5261664986610413,0.2162075787782669,-0.8257761001586914,0.006997276097536087,-0.003376397304236889,0.008961275219917297,-0.2504305839538574,-0.2140616327524185,0.1598787754774094,-0.233903780579567,0.5455198287963867,2.153030395507813
2.189935923,0.5203721523284912,0.2127843052148819,-0.8262361288070679,0.00664782989770174,-0.004422659054398537,0.01019553001970053,-0.2504107058048248,-0.2141120582818985,0.1599640995264053,-0.2338716685771942,0.54551762342453,2.153058528900146
2.194936991,0.5158491730690002,0.2085693031549454,-0.827820360660553,0.004995321854948997,-0.0003304949204903096,0.01155859511345625,-0.2504041492938995,-0.214128777384758,0.1599923968315125,-0.233832910656929,0.5455202460289001,2.153104543685913
2.199939013,0.524718701839447,0.2118403017520905,-0.8301330804824829,0.007268729619681835,-0.002526686759665608,0.01305433269590139,-0.2503990828990936,-0.2141416519880295,0.1600141674280167,-0.2337880879640579,0.545525074005127,2.153136968612671
2.204936266,0.5262147784233093,0.2154109328985214,-0.8273645043373108,0.009834037162363529,-0.005564528051763773,0.01102812588214874,-0.2498149126768112,-0.2140034735202789,0.1601693481206894,-0.2337300628423691,0.5455290675163269,2.153156518936157
2.209934235,0.5227321982383728,0.2126692235469818,-0.8249118328094482,0.007632787339389324,-0.004941931460052729,0.009821780025959015,-0.24936543405056,-0.2138971388339996,0.1602887362241745,-0.233694463968277,0.5455223321914673,2.153173685073853
2.214933157,0.52479088306427,0.2068100273609161,-0.8277403712272644,0.006492652930319309,-0.006387699395418167,0.01088699512183666,-0.2492163926362991,-0.213861882686615,0.1603283286094666,-0.2336430102586746,0.5455151796340942,2.153186321258545
2.219933510,0.5206455588340759,0.2081709951162338,-0.8266910314559937,0.005894362926483154,-0.006875570863485336,0.01168806664645672,-0.2491017282009125,-0.2138347625732422,0.160358801484108,-0.2335915863513947,0.5454947352409363,2.153214454650879
2.224934340,0.5212770104408264,0.2132299095392227,-0.8273308277130127,0.006303918082267046,-0.005924718454480171,0.009425518102943897,-0.24942347407341,-0.2138193547725677,0.1603149026632309,-0.2335642427206039,0.5454851388931274,2.153243064880371
2.229936361,0.522979736328125,0.2157360017299652,-0.8272231221199036,0.006033493205904961,-0.007707467302680016,0.009201250039041042,-0.2500348389148712,-0.2138010412454605,0.1602265387773514,-0.2335378080606461,0.5454595685005188,2.153275489807129
2.234933138,0.5213035345077515,0.215529203414917,-0.8278769850730896,0.00600788090378046,-0.008270272985100746,0.008259146474301815,-0.2502375245094299,-0.2137949615716934,0.1601972281932831,-0.233510747551918,0.5454319715499878,2.153305530548096
2.239931345,0.5210829377174377,0.2153867930173874,-0.8281964063644409,0.005060192663222551,-0.006355865392833948,0.009743940085172653,-0.2503935098648071,-0.2137902826070786,0.160174697637558,-0.2334825992584229,0.5454195141792297,2.153340339660645
2.244930506,0.5224637985229492,0.2170027494430542,-0.8276413679122925,0.009239898063242435,-0.006630167365074158,0.00907317828387022,-0.2504452168941498,-0.2137887328863144,0.1601672172546387,-0.2334406673908234,0.5454016923904419,2.153369903564453
2.249930859,0.5228956341743469,0.2151132225990295,-0.8298858404159546,0.006986764259636402,-0.007017904426902533,0.009489439427852631,-0.2500927150249481,-0.2140642404556274,0.1602282375097275,-0.2334001958370209,0.5453835129737854,2.153396844863892
2.254931688,0.5219414234161377,0.2138135582208633,-0.8279816508293152,0.006375966593623161,-0.005189572926610708,0.009919858537614346,-0.2499758303165436,-0.2141555845737457,0.1602484732866287,-0.2333732396364212,0.5453730225563049,2.153418302536011
2.259933710,0.5229020714759827,0.2122322767972946,-0.8286631107330322,0.008044102229177952,-0.006632271222770214,0.009750558994710445,-0.2498858869075775,-0.2142258733510971,0.1602640300989151,-0.2333225756883621,0.5453554391860962,2.153445720672607
2.264930725,0.5230029821395874,0.2111586481332779,-0.8297834992408752,0.006111867260187864,-0.00596708245575428,0.008725681342184544,-0.2498560696840286,-0.2142491787672043,0.1602692008018494,-0.2332887500524521,0.545341968536377,2.153459072113037
2.269928932,0.5222855806350708,0.2096336036920547,-0.8270272612571716,0.005091613624244928,-0.007677958812564611,0.00761193735525012,-0.2499336153268814,-0.2140616774559021,0.1603264212608337,-0.2332569509744644,0.5453159809112549,2.153469324111938
2.274928093,0.5221135020256042,0.2117354422807693,-0.8282113671302795,0.0043241404928267,-0.007562555372714996,0.007137055043131113,-0.2499842047691345,-0.213948667049408,0.1603585779666901,-0.233241856098175,0.5452905893325806,2.153484106063843
2.279928207,0.5228684544563293,0.2092190086841583,-0.8276603221893311,0.003815279575064778,-0.006569479126483202,0.005799326580017805,-0.2500231266021729,-0.2138617187738419,0.160383328795433,-0.233225017786026,0.545276403427124,2.15348482131958
2.284929276,0.5202605128288269,0.2072669714689255,-0.8293024301528931,0.001135566737502813,-0.005045183934271336,0.007059430703520775,-0.2500360310077667,-0.2138328850269318,0.1603915244340897,-0.2332166731357574,0.5452552437782288,2.15349555015564
2.289937258,0.518545389175415,0.2096512168645859,-0.8286465406417847,-0.000913803291041404,-0.006978814024478197,0.003717322833836079,-0.2500175833702087,-0.2138409018516541,0.1603062748908997,-0.2332257479429245,0.5452184677124023,2.153494596481323
2.294940472,0.5172894597053528,0.2129461467266083,-0.8270965218544006,-0.002980332123115659,-0.004059566650539637,0.002687450032681227,-0.2499828934669495,-0.2138740122318268,0.1601856499910355,-0.2332664132118225,0.5452020168304443,2.153483629226685
2.299938679,0.5156316161155701,0.2146496176719666,-0.8323033452033997,-0.003192479722201824,-0.0009042423334904015,0.002363428939133883,-0.2499562054872513,-0.2138994932174683,0.1600928604602814,-0.2333062589168549,0.5451912879943848,2.153485774993896
2.304937840,0.5291574001312256,0.214127779006958,-0.8301516771316528,-0.001272652065381408,-0.004856416024267673,0.003920609597116709,-0.2499473541975021,-0.2139079421758652,0.1600620895624161,-0.2333262413740158,0.5451919436454773,2.153462648391724
2.309937716,0.5263610482215881,0.2165436297655106,-0.8257642388343811,-0.001270980224944651,-0.005681472830474377,0.004581619519740343,-0.2499405443668365,-0.2139144390821457,0.1600384116172791,-0.2333565503358841,0.5451806783676147,2.153454065322876
2.314938545,0.5227150321006775,0.2155145108699799,-0.8266614079475403,-0.001094861887395382,-0.004651767667382956,0.003069187048822641,-0.2497966140508652,-0.2136621624231339,0.160400316119194,-0.2333859950304031,0.5451610684394836,2.153439998626709
2.319940567,0.521990954875946,0.212284117937088,-0.8301489949226379,-0.003077428555116057,-0.004963851068168879,0.0009838985279202461,-0.2496858686208725,-0.2134680598974228,0.1606787741184235,-0.2334202527999878,0.5451458692550659,2.153413534164429
2.324938059,0.517680287361145,0.2133742570877075,-0.8291370272636414,-0.003835928626358509,-0.005940653849393129,0.002950824331492186,-0.2496491372585297,-0.2134036868810654,0.1607711166143417,-0.2334609925746918,0.5451146364212036,2.153410911560059
2.329935789,0.522392213344574,0.2161818444728851,-0.8295350074768066,-0.003063730662688613,-0.004600355867296457,0.0002807234413921833,-0.2496208846569061,-0.2133541703224182,0.160842165350914,-0.2335086613893509,0.5450981259346008,2.153378963470459
2.334934950,0.5202968716621399,0.214684009552002,-0.8302851319313049,-0.001562124351039529,-0.004740091040730476,0.002841867040842772,-0.2498029768466949,-0.2134792506694794,0.160749226808548,-0.2335395663976669,0.5450832843780518,2.153367757797241
2.339935064,0.519213855266571,0.2096867263317108,-0.8315619826316833,-0.003449771320447326,-0.003169735427945852,0.00330675020813942,-0.25013667345047,-0.213718593120575,0.1605599224567413,-0.233566477894783,0.5450748801231384,2.153358459472656
2.344935894,0.5193729400634766,0.2085999250411987,-0.8312355279922485,-0.003339629154652357,-0.0006652638548985124,0.0003715225611813366,-0.2502473294734955,-0.2137979418039322,0.1604971587657928,-0.2335999310016632,0.545068085193634,2.153331756591797
2.349937916,0.5176610946655273,0.2089284360408783,-0.8273534178733826,-0.006231576204299927,0.0004326675552874804,0.00128866673912853,-0.2503324747085571,-0.2138590067625046,0.1604488641023636,-0.233650803565979,0.545068085193634,2.153309345245361
2.354934931,0.5250104665756226,0.2186957001686096,-0.8268886804580688,-0.006553755607455969,0.001544848317280412,-0.0003555120201781392,-0.2503606975078583,-0.213879257440567,0.1604328453540802,-0.2337344884872437,0.5450906157493591,2.15326189994812
2.359933376,0.5237640142440796,0.2219493389129639,-0.8269281983375549,-0.004178666509687901,-0.0004425715887919068,-3.335543442517519e-05,-0.2503122985363007,-0.2142353355884552,0.1602092236280441,-0.2338035851716995,0.5450927019119263,2.153229951858521
2.364932299,0.5214627385139465,0.2115351408720016,-0.8281834721565247,-0.001736471545882523,-0.001598303904756904,0.003107326338067651,-0.2502962648868561,-0.2143534123897552,0.1601350754499435,-0.233822375535965,0.5450924634933472,2.15320897102356
2.369932175,0.5266830325126648,0.207880511879921,-0.8297226428985596,-0.002690748311579227,-0.002064181258901954,0.001921235700137913,-0.2502839267253876,-0.2144442498683929,0.1600780338048935,-0.2338367998600006,0.5451007485389709,2.153174638748169
2.374933243,0.5272306203842163,0.2176155596971512,-0.822816014289856,-0.003903731238096952,-0.00308381742797792,-0.001659288886003196,-0.2502798438072205,-0.2144743800163269,0.1600591093301773,-0.2339063882827759,0.5450972318649292,2.153116226196289
2.379935265,0.5243017077445984,0.2158884257078171,-0.8280192613601685,-0.0009399906848557293,-0.004233668558299541,-0.001442394801415503,-0.250281810760498,-0.2141416966915131,0.1600942611694336,-0.2339478731155396,0.5450757145881653,2.153084754943848
2.384932280,0.5176388025283813,0.2024482190608978,-0.8286243081092834,-0.004367882385849953,-0.005337146110832691,0.001899929251521826,-0.2502837479114532,-0.2139433473348618,0.1601182073354721,-0.2339567542076111,0.5450459122657776,2.15307879447937
2.389930248,0.5203004479408264,0.2076048403978348,-0.8255529999732971,-0.007354830391705036,-0.002828021766617894,-0.0002856033388525248,-0.2502852082252502,-0.2137907147407532,0.1601366400718689,-0.2340070009231567,0.5450441837310791,2.153053760528564
2.394929171,0.5276151895523071,0.2193237841129303,-0.8279014825820923,-0.00713420333340764,-0.00348161393776536,-0.001934114028699696,-0.2502856850624084,-0.2137400954961777,0.1601427495479584,-0.234098345041275,0.5450417995452881,2.152997732162476
