Time,inertial-6253.76535:estCompensatedAccelX,inertial-6253.76535:estCompensatedAccelX:valid,inertial-6253.76535:estCompensatedAccelY,inertial-6253.76535:estCompensatedAccelY:valid,inertial-6253.76535:estCompensatedAccelZ,inertial-6253.76535:estCompensatedAccelZ:valid,inertial-6253.76535:estAngularRateX,inertial-6253.76535:estAngularRateX:valid,inertial-6253.76535:estAngularRateY,inertial-6253.76535:estAngularRateY:valid,inertial-6253.76535:estAngularRateZ,inertial-6253.76535:estAngularRateZ:valid,inertial-6253.76535:estRoll,inertial-6253.76535:estRoll:valid,inertial-6253.76535:estPitch,inertial-6253.76535:estPitch:valid,inertial-6253.76535:estYaw,inertial-6253.76535:estYaw:valid
0,-5.159840107,1,-2.40263176,1,-8.028057098,1,0.005485541,1,-0.0192685,1,-0.001140913,1,0.290687382,1,-0.549881816,1,0.373591721,1
0.003999744,-5.175646782,1,-2.424878836,1,-7.998407364,1,0.004181375,1,-0.016457409,1,0.004264927,1,0.290711582,1,-0.549946487,1,0.373571932,1
0.008001536,-5.202508926,1,-2.402689457,1,-7.985375404,1,0.004304618,1,-0.017948227,1,-0.002798447,1,0.290739715,1,-0.550008118,1,0.373551428,1
0.011999232,-5.198636532,1,-2.455319881,1,-7.969103336,1,0.008145312,1,-0.013449215,1,0.002083775,1,0.290780604,1,-0.550071955,1,0.373520881,1
0.015998719,-5.173902988,1,-2.412620068,1,-8.006970406,1,0.008037182,1,-0.01966146,1,0.002990859,1,0.290809184,1,-0.550132573,1,0.373506427,1
0.020000257,-5.184874535,1,-2.422929764,1,-7.99993372,1,0.002630359,1,-0.01367529,1,0.002172594,1,0.290837824,1,-0.550190032,1,0.373490274,1
0.023997951,-5.184453011,1,-2.408433914,1,-7.995822906,1,0.006248588,1,-0.015641244,1,0.001217364,1,0.290859818,1,-0.550252676,1,0.373480141,1
0.02799744,-5.171424389,1,-2.40450263,1,-7.987771034,1,0.004169108,1,-0.015050133,1,-0.000626561,1,0.29089281,1,-0.550307631,1,0.3734577,1
0.031998977,-5.171290874,1,-2.376048088,1,-7.984593868,1,0.007015126,1,-0.017930847,1,0.003843302,1,0.290916741,1,-0.550375998,1,0.373436689,1
0.035996415,-5.178839207,1,-2.376414776,1,-7.982890606,1,0.007184425,1,-0.01408546,1,0.000944197,1,0.290947735,1,-0.550434172,1,0.373427719,1
0.039996158,-5.159805298,1,-2.354953289,1,-7.968821049,1,0.005296688,1,-0.017370708,1,0.000824325,1,0.290982187,1,-0.550499797,1,0.373407543,1
0.043997698,-5.183794022,1,-2.408663511,1,-7.947506905,1,0.007167398,1,-0.012639358,1,0.000888223,1,0.291015685,1,-0.550557971,1,0.373387456,1
0.047995392,-5.169029236,1,-2.41185689,1,-7.969460964,1,0.007882852,1,-0.010861784,1,-0.000116562,1,0.291058093,1,-0.550614297,1,0.373367608,1
0.051994879,-5.164644241,1,-2.416719198,1,-7.954530239,1,0.00563061,1,-0.011487583,1,0.003863278,1,0.291087896,1,-0.550666451,1,0.373352468,1
0.055996671,-5.199662209,1,-2.410787821,1,-7.97209549,1,0.009908745,1,-0.013286714,1,0.003377433,1,0.291127443,1,-0.550707877,1,0.37333855,1
0.059994623,-5.229323864,1,-2.372666359,1,-7.972099304,1,0.004281478,1,-0.011626083,1,0.003768218,1,0.29115811,1,-0.550752282,1,0.373325408,1
0.06399437,-5.185583115,1,-2.423094273,1,-7.963914871,1,0.004112474,1,-0.012251629,1,0.003518939,1,0.291188836,1,-0.550798476,1,0.373310566,1
0.067995645,-5.190667629,1,-2.429587603,1,-7.961808205,1,0.005456334,1,-0.005161448,1,0.00155765,1,0.291216373,1,-0.550838113,1,0.373302281,1
0.071993344,-5.188164234,1,-2.467411995,1,-7.964995384,1,0.003810223,1,-0.008760041,1,0.002567512,1,0.291233122,1,-0.550862551,1,0.373307467,1
0.07599283,-5.221540928,1,-2.438637733,1,-7.965706825,1,0.000656785,1,-0.006581803,1,0.003016295,1,0.291239679,1,-0.550893605,1,0.37330097,1
0.079994366,-5.202736855,1,-2.446937084,1,-7.962068081,1,0.002992464,1,-0.006411014,1,0.001096124,1,0.291237295,1,-0.550917387,1,0.373306215,1
0.083992064,-5.21974659,1,-2.444347382,1,-7.971955299,1,-0.002452909,1,-0.002558965,1,0.003766256,1,0.291231573,1,-0.550944269,1,0.37330848,1
0.087991551,-5.181915283,1,-2.411294937,1,-7.958566189,1,-0.002030438,1,-7.14E-05,1,0.002078405,1,0.291216373,1,-0.550961614,1,0.373318136,1
0.091993347,-5.199609756,1,-2.401809454,1,-7.931184769,1,-0.004083024,1,-0.002649892,1,0.002251639,1,0.291207582,1,-0.550972521,1,0.37332499,1
0.095991038,-5.249434471,1,-2.395622253,1,-7.95217371,1,-0.001457692,1,-0.002269209,1,0.003483482,1,0.29117921,1,-0.550975502,1,0.373342037,1
0.099990524,-5.216980457,1,-2.435625553,1,-7.918928146,1,-0.002422471,1,0.002740844,1,0.002829575,1,0.291169763,1,-0.550975025,1,0.373350501,1
0.103992067,-5.192904472,1,-2.398731232,1,-7.980591297,1,-0.005651849,1,0.000923469,1,0.001717547,1,0.291147172,1,-0.55097419,1,0.373360932,1
0.107989758,-5.178449631,1,-2.376413584,1,-7.983087063,1,-0.004626358,1,0.003698408,1,-0.001363325,1,0.291128695,1,-0.550969124,1,0.373367786,1
0.111989245,-5.215045452,1,-2.406205654,1,-8.000665665,1,-0.005248732,1,0.002445142,1,0.001686002,1,0.291098654,1,-0.550959885,1,0.373382717,1
0.115996927,-5.205355644,1,-2.418933868,1,-7.942024231,1,-0.00347977,1,0.001803725,1,-0.000330822,1,0.291077256,1,-0.550948143,1,0.373393238,1
0.120000511,-5.186545849,1,-2.450235367,1,-7.962464809,1,-0.006136736,1,0.004248699,1,-0.001874711,1,0.291050524,1,-0.550932348,1,0.37340036,1
0.124000259,-5.21245575,1,-2.457159519,1,-7.974940777,1,-0.003282419,1,0.007094732,1,0.00465526,1,0.291012466,1,-0.550925076,1,0.373422474,1
0.128001794,-5.178742409,1,-2.454617739,1,-7.970432281,1,-0.008395171,1,0.002019082,1,-0.001389317,1,0.290982842,1,-0.550910711,1,0.373431832,1
0.131999493,-5.179460049,1,-2.413539648,1,-7.969414234,1,-0.009468605,1,0.00455136,1,0.002994617,1,0.290947735,1,-0.550897479,1,0.37345767,1
0.135999233,-5.182456017,1,-2.446803331,1,-7.963796616,1,-0.006026392,1,0.002606382,1,0.00175091,1,0.290910542,1,-0.550881445,1,0.373467147,1
0.140001029,-5.198824883,1,-2.422715902,1,-7.955038548,1,-0.009748375,1,0.005905601,1,0.002471243,1,0.290864289,1,-0.550861299,1,0.373485327,1
0.143998727,-5.158445358,1,-2.432872057,1,-7.97707653,1,-0.007623043,1,0.006442243,1,0.005699105,1,0.290815473,1,-0.550844491,1,0.373503804,1
0.147998214,-5.204310894,1,-2.398320198,1,-7.97873497,1,-0.013041573,1,0.0060923,1,0.000664134,1,0.290766478,1,-0.550820827,1,0.37352246,1
0.151999742,-5.139913082,1,-2.388189316,1,-7.984828949,1,-0.007088131,1,0.010644757,1,0.004001906,1,0.290720403,1,-0.550797462,1,0.373538792,1
0.15599744,-5.198331833,1,-2.408060551,1,-7.983132839,1,-0.010425603,1,0.00632725,1,0.003913651,1,0.290675968,1,-0.550769627,1,0.373565733,1
0.159996927,-5.179345131,1,-2.399138927,1,-7.984631538,1,-0.005694079,1,0.006439766,1,0.005395473,1,0.290627778,1,-0.550743878,1,0.373582542,1
0.16399847,-5.166445732,1,-2.431856394,1,-7.984024048,1,-0.00901311,1,0.006329075,1,0.00487216,1,0.29058367,1,-0.550718188,1,0.37360248,1
0.167996153,-5.180090427,1,-2.443677902,1,-7.979447365,1,-0.009664566,1,0.001848985,1,0.004193587,1,0.290535003,1,-0.550701976,1,0.37362507,1
0.171995655,-5.179149628,1,-2.402887583,1,-7.999947071,1,-0.011324666,1,0.008569349,1,0.005368371,1,0.290486693,1,-0.550685406,1,0.3736462,1
0.175997183,-5.15107584,1,-2.381663322,1,-8.024399757,1,-0.007056052,1,0.005859715,1,0.004631734,1,0.290422946,1,-0.550672412,1,0.373676836,1
0.179995134,-5.16588974,1,-2.366851091,1,-7.993928909,1,-0.009146437,1,0.004030481,1,0.001927335,1,0.290382326,1,-0.550654411,1,0.373692304,1
0.183994874,-5.159609318,1,-2.375800133,1,-8.045822144,1,-0.006102533,1,-4.06E-05,1,0.005213303,1,0.290335298,1,-0.550650716,1,0.373719096,1
0.187996671,-5.174827576,1,-2.375357151,1,-8.006781578,1,-0.007119014,1,0.002394015,1,0.003630945,1,0.290378034,1,-0.550710618,1,0.374219,1
0.191994369,-5.122459888,1,-2.343029022,1,-8.011713982,1,-0.002843583,1,0.001763657,1,0.001091489,1,0.290352166,1,-0.550713181,1,0.374231011,1
0.195993856,-5.158017159,1,-2.35367012,1,-7.998980999,1,-0.007814766,1,-0.000644248,1,-0.000253156,1,0.290323973,1,-0.550715923,1,0.374241948,1
0.199995652,-5.20445013,1,-2.408344984,1,-8.000330925,1,-0.001325644,1,0.000638197,1,-0.002526737,1,0.290308774,1,-0.550716758,1,0.374239802,1
0.20399335,-5.198987961,1,-2.371350765,1,-7.988377094,1,-0.003568152,1,-0.001395467,1,-0.001351583,1,0.290309548,1,-0.550710678,1,0.374229848,1
0.207992569,-5.174008369,1,-2.381194353,1,-8.026124954,1,0.000634921,1,-0.001786344,1,-0.003202318,1,0.290307283,1,-0.550712287,1,0.374221742,1
0.211994112,-5.177782536,1,-2.368762255,1,-8.026512146,1,0.00207155,1,-0.001264581,1,-0.003703759,1,0.290314347,1,-0.550714135,1,0.374214053,1
0.21599181,-5.186482906,1,-2.346556425,1,-7.98846817,1,0.000471383,1,-0.004793473,1,0.000788642,1,0.290321112,1,-0.550710797,1,0.374210894,1
0.219991297,-5.199769974,1,-2.38476491,1,-7.980006218,1,0.003677184,1,0.000985022,1,-0.00239482,1,0.290335536,1,-0.550713539,1,0.374196291,1
0.223992825,-5.223176479,1,-2.379877567,1,-7.987147808,1,0.005683711,1,-0.001976522,1,-0.00223153,1,0.29035601,1,-0.550705373,1,0.374181926,1
0.227990523,-5.197860718,1,-2.397042513,1,-7.970585823,1,0.001244117,1,0.001096785,1,-0.003445083,1,0.290378004,1,-0.550694644,1,0.374161422,1
0.231990278,-5.179567814,1,-2.386884212,1,-7.990605831,1,0.001748626,1,-2.32E-05,1,-0.00416158,1,0.29039216,1,-0.550687194,1,0.374148339,1
0.235997945,-5.185581207,1,-2.389606237,1,-7.976010799,1,0.001287036,1,0.001614912,1,-0.004350833,1,0.290415227,1,-0.550681055,1,0.374120295,1
0.240001529,-5.192265034,1,-2.395791054,1,-7.997070789,1,0.00375484,1,-0.001453764,1,-0.007180388,1,0.290442348,1,-0.550672293,1,0.374091566,1
0.244001284,-5.173933029,1,-2.407988071,1,-7.975946903,1,0.001364452,1,-0.002447373,1,-0.005511043,1,0.290470481,1,-0.550666392,1,0.374063045,1
0.248002812,-5.163499355,1,-2.400516987,1,-7.987234592,1,0.001307515,1,-0.000615774,1,-0.003213636,1,0.290495276,1,-0.550657213,1,0.374040931,1
0.252000511,-5.223022461,1,-2.382687807,1,-7.999036789,1,0.004523686,1,-0.002727232,1,-0.007231666,1,0.290519536,1,-0.550660849,1,0.374015927,1
0.256000012,-5.215037823,1,-2.389872074,1,-7.980248451,1,0.003242552,1,0.002247222,1,-0.006755816,1,0.290549517,1,-0.550658107,1,0.373985231,1
0.26000154,-5.179112434,1,-2.380569935,1,-7.99257946,1,0.003802265,1,-0.002215148,1,-0.006165894,1,0.290580362,1,-0.550654292,1,0.37396282,1
0.263999224,-5.176365852,1,-2.360163212,1,-7.986593723,1,0.003869297,1,0.003775615,1,-0.007142069,1,0.290613234,1,-0.550649643,1,0.373933733,1
0.267998725,-5.157713413,1,-2.383444548,1,-8.006184578,1,0.003949418,1,0.001180048,1,-0.008025337,1,0.290643275,1,-0.550638855,1,0.37390399,1
0.272000253,-5.1979146,1,-2.407100677,1,-7.984732628,1,0.005231367,1,-0.000734041,1,-0.003333366,1,0.290679842,1,-0.550633252,1,0.37387073,1
0.275997967,-5.197527885,1,-2.465765238,1,-7.983838558,1,-4.58E-05,1,0.001853126,1,-0.004265018,1,0.290695339,1,-0.550628304,1,0.373852253,1
0.279997438,-5.189026833,1,-2.44945693,1,-8.004563332,1,0.005365286,1,0.002015335,1,-0.001383052,1,0.290709972,1,-0.550622344,1,0.373834431,1
0.283999234,-5.186850071,1,-2.446964502,1,-7.966679096,1,-0.001020252,1,0.003702003,1,-0.004343336,1,0.290726244,1,-0.550609767,1,0.373820066,1
0.287996918,-5.163333416,1,-2.417244196,1,-7.965584755,1,0.002571863,1,0.002337278,1,-0.0017235,1,0.29073745,1,-0.550600469,1,0.373814821,1
0.291996419,-5.189851761,1,-2.411593676,1,-7.970552444,1,-0.000331051,1,0.0027509,1,-0.002751414,1,0.290735841,1,-0.550584376,1,0.373804122,1
0.295998216,-5.18424511,1,-2.440776825,1,-7.984322071,1,-0.00091388,1,0.003609617,1,-0.003323713,1,0.290742159,1,-0.550566375,1,0.373799384,1
0.299995899,-5.178463936,1,-2.408261299,1,-7.996342659,1,0.001588356,1,0.004403295,1,-0.004639596,1,0.290745437,1,-0.550545335,1,0.373790324,1
0.303995401,-5.192892551,1,-2.43793869,1,-7.97194767,1,-0.000486056,1,0.004344673,1,-0.002074356,1,0.290753722,1,-0.550523579,1,0.373780251,1
0.307996929,-5.189105511,1,-2.407281876,1,-7.953408718,1,0.000287544,1,0.004561808,1,-0.00222539,1,0.290748894,1,-0.550498843,1,0.373777509,1
0.311994612,-5.153550625,1,-2.417003393,1,-7.98877573,1,-0.001266111,1,0.005738868,1,-0.000156022,1,0.290741682,1,-0.550479412,1,0.373775899,1
0.315994382,-5.193345547,1,-2.371823549,1,-7.97881794,1,-0.003171373,1,0.004124952,1,-0.004787801,1,0.290742338,1,-0.550452948,1,0.373764396,1
0.31999591,-5.206894398,1,-2.416222572,1,-7.954891205,1,-0.003041127,1,0.007298841,1,-0.003189429,1,0.290732205,1,-0.550417006,1,0.373763025,1
0.323993355,-5.208564281,1,-2.423436165,1,-7.962804794,1,-0.00528243,1,0.007157623,1,-0.002155794,1,0.290724307,1,-0.550383806,1,0.373755366,1
0.327993095,-5.146355629,1,-2.425014973,1,-7.955909252,1,-0.005089854,1,0.009360182,1,-0.001651309,1,0.290700734,1,-0.550353348,1,0.373757958,1
0.331994891,-5.186096668,1,-2.39431262,1,-7.996352196,1,-0.002581689,1,0.012299271,1,-0.000932885,1,0.290684134,1,-0.550313652,1,0.373758644,1
0.335992575,-5.201518059,1,-2.385425568,1,-7.966325283,1,-0.007312142,1,0.006449748,1,-0.006249057,1,0.290659368,1,-0.550280154,1,0.373766363,1
0.339992315,-5.228597641,1,-2.409634352,1,-7.999240875,1,-0.00632479,1,0.01102805,1,0.001594527,1,0.290632486,1,-0.550235391,1,0.373763978,1
0.343993843,-5.164054394,1,-2.406062603,1,-7.991479397,1,-0.007897331,1,0.014913898,1,-0.002906743,1,0.290606141,1,-0.550176442,1,0.373770058,1
0.347991556,-5.163064957,1,-2.410253763,1,-7.995111465,1,-0.006390184,1,0.01361709,1,-0.000182719,1,0.290571004,1,-0.550119638,1,0.373775959,1
0.351991028,-5.147157192,1,-2.430933237,1,-7.997014046,1,-0.004102881,1,0.010812098,1,-0.002967845,1,0.290541828,1,-0.55006659,1,0.373782635,1
0.355992585,-5.187635899,1,-2.400283575,1,-7.985737801,1,-0.006675526,1,0.017284375,1,-0.004636752,1,0.29051435,1,-0.550011516,1,0.373791635,1
0.35999617,-5.21538353,1,-2.400369167,1,-7.988137722,1,-0.007647343,1,0.017829213,1,-0.002307925,1,0.290487349,1,-0.549942791,1,0.373797119,1
0.36399591,-5.169789314,1,-2.434438467,1,-7.967357159,1,-0.007155648,1,0.013972325,1,-0.002756067,1,0.290446758,1,-0.549883783,1,0.37381351,1
0.367997438,-5.162214756,1,-2.387923241,1,-7.990749359,1,-0.005705274,1,0.013337177,1,0.000726899,1,0.290415108,1,-0.549827337,1,0.373818904,1
0.371995121,-5.170947075,1,-2.381875515,1,-7.97091198,1,-0.005150259,1,0.01353066,1,-0.003816153,1,0.290381789,1,-0.549774349,1,0.373829097,1
0.375994623,-5.168890953,1,-2.401796341,1,-8.00219059,1,-0.008600482,1,0.0122479,1,-0.002108578,1,0.290347219,1,-0.549723029,1,0.373849154,1
0.379996419,-5.173442841,1,-2.411411524,1,-7.984996319,1,-0.006274928,1,0.012859636,1,-0.003337547,1,0.290324301,1,-0.549667656,1,0.373847038,1
0.383994102,-5.17454958,1,-2.418702602,1,-7.978407383,1,-0.002895617,1,0.00675065,1,-0.000221029,1,0.290291727,1,-0.549621284,1,0.373865902,1
0.387993604,-5.15430212,1,-2.387759447,1,-7.990839481,1,-0.006102542,1,0.011484209,1,0.000511708,1,0.290261626,1,-0.549581528,1,0.373879313,1
0.391995132,-5.155855179,1,-2.389600277,1,-8.004558563,1,-0.003938875,1,0.008662622,1,3.30E-05,1,0.290226638,1,-0.549535155,1,0.373887599,1
0.395992845,-5.180378437,1,-2.397849798,1,-7.979584694,1,-0.007763494,1,0.009220593,1,0.001309881,1,0.290202677,1,-0.549495399,1,0.373894811,1
0.399992317,-5.156260014,1,-2.438923597,1,-7.997990131,1,-0.008417681,1,0.009916825,1,-0.002125047,1,0.290164053,1,-0.549458504,1,0.373908192,1
0.403993845,-5.146224976,1,-2.453255892,1,-8.004570007,1,-0.006734262,1,0.008599046,1,0.000887975,1,0.290125042,1,-0.549428165,1,0.373920441,1
0.40799129,-5.161604404,1,-2.410284996,1,-7.989453793,1,-0.010894366,1,0.007526888,1,0.002128748,1,0.290075094,1,-0.549400747,1,0.373936772,1
0.41199103,-5.194274426,1,-2.370732784,1,-8.007609367,1,-0.007445816,1,0.009438269,1,-0.00055046,1,0.290034801,1,-0.549370766,1,0.373949826,1
0.415992588,-5.15944767,1,-2.414540052,1,-8.020646095,1,-0.009701887,1,0.007278541,1,-0.000552148,1,0.289996982,1,-0.54933852,1,0.37395978,1
0.419990003,-5.185422897,1,-2.409853697,1,-7.982942104,1,-0.01094257,1,0.007904864,1,0.002042976,1,0.289955288,1,-0.549310923,1,0.373967975,1
0.423989505,-5.181269169,1,-2.380981445,1,-7.990776062,1,-0.007243162,1,0.01066075,1,0.000257723,1,0.289906561,1,-0.549266219,1,0.37398535,1
0.427991033,-5.15836525,1,-2.41717577,1,-7.989447117,1,-0.007156025,1,0.010099771,1,-0.002274044,1,0.289867461,1,-0.549227655,1,0.373997271,1
0.431988746,-5.168003082,1,-2.394514799,1,-8.006971359,1,-0.004412661,1,0.015735954,1,-0.001757439,1,0.289843112,1,-0.549180269,1,0.374005556,1
0.435988218,-5.185373783,1,-2.422170877,1,-8.005348206,1,-0.008380848,1,0.015716311,1,-0.001283671,1,0.289830983,1,-0.549239457,1,0.374066323,1
0.439989746,-5.135395527,1,-2.402377129,1,-8.024072647,1,-0.003405513,1,0.017543808,1,0.00065569,1,0.289804548,1,-0.549141169,1,0.374565631,1
0.443987459,-5.137803078,1,-2.40182519,1,-8.017659187,1,-0.006340649,1,0.01002175,1,-0.00129513,1,0.28977704,1,-0.549081087,1,0.374576747,1
0.447986931,-5.129274368,1,-2.413598776,1,-8.038942337,1,-0.007216756,1,0.012759787,1,-0.001034383,1,0.289747745,1,-0.549041033,1,0.374588192,1
0.451988488,-5.120094776,1,-2.424650908,1,-8.051756859,1,-0.004872268,1,0.010530269,1,0.000577015,1,0.289717197,1,-0.548994243,1,0.374602914,1
0.455986172,-5.146821499,1,-2.395166159,1,-8.004666328,1,-0.005248774,1,0.00658319,1,0.001056609,1,0.28969717,1,-0.548955798,1,0.374606848,1
0.459985673,-5.141510487,1,-2.421719074,1,-8.009970665,1,-0.007400803,1,0.007638835,1,-0.000695277,1,0.289667726,1,-0.54892838,1,0.374613374,1
0.46398747,-5.15937376,1,-2.399770975,1,-8.032644272,1,-0.005480321,1,0.00879825,1,-0.001988226,1,0.289655805,1,-0.548901498,1,0.374616683,1
0.467985153,-5.18905592,1,-2.370556831,1,-8.008338928,1,-0.003037064,1,0.005364921,1,0.000434466,1,0.289630681,1,-0.548873365,1,0.374630481,1
0.471984655,-5.183053017,1,-2.378572941,1,-8.013532639,1,-0.003280571,1,-6.52E-05,1,0.000172236,1,0.289622724,1,-0.548852801,1,0.374626279,1
0.475986689,-5.18873024,1,-2.384689331,1,-7.969765663,1,-0.00210449,1,0.002708415,1,-0.002242712,1,0.289602041,1,-0.548843205,1,0.374630392,1
0.479996175,-5.14930582,1,-2.395790577,1,-7.992828846,1,-0.002547998,1,0.00632299,1,-0.001907419,1,0.289597631,1,-0.548828125,1,0.374628603,1
0.484001786,-5.15072298,1,-2.381253958,1,-7.995384216,1,-0.001847498,1,0.00173684,1,-0.002470889,1,0.289586037,1,-0.548811376,1,0.374625742,1
0.488003582,-5.167264462,1,-2.385438919,1,-7.987185001,1,-0.002169689,1,0.002145518,1,-0.001249,1,0.289582968,1,-0.548799455,1,0.374618053,1
0.492001265,-5.137223244,1,-2.380408287,1,-7.981302738,1,-0.002175002,1,0.000429899,1,-0.004566219,1,0.289579451,1,-0.548784316,1,0.374610484,1
0.496000499,-5.151825428,1,-2.377610922,1,-7.99759531,1,0.002088759,1,0.003770229,1,-0.001510145,1,0.289578378,1,-0.54877311,1,0.374609172,1
0.500002027,-5.198668003,1,-2.382145166,1,-7.975125313,1,-0.002638652,1,0.000555238,1,-0.001040933,1,0.289581537,1,-0.548770607,1,0.374595702,1
0.503999472,-5.183868408,1,-2.413988829,1,-8.039502144,1,0.000405138,1,0.000289942,1,-0.001963401,1,0.289581716,1,-0.548765182,1,0.37459293,1
0.507999241,-5.156656742,1,-2.378103495,1,-8.010947227,1,0.002875397,1,-0.001110599,1,-0.000900122,1,0.289586991,1,-0.548754334,1,0.374583602,1
0.51200074,-5.143761158,1,-2.391565323,1,-8.001180649,1,0.000203784,1,0.002444379,1,0.001666634,1,0.289590955,1,-0.548748374,1,0.374586821,1
0.515998483,-5.16726017,1,-2.418932915,1,-8.015948296,1,-0.002127693,1,4.42E-06,1,-0.000111584,1,0.289583653,1,-0.548739791,1,0.374593914,1
0.519998193,-5.134706497,1,-2.407871962,1,-7.993897915,1,0.000422137,1,0.002221697,1,-0.001239051,1,0.28958863,1,-0.548731983,1,0.374583125,1
0.523999751,-5.160647392,1,-2.424910069,1,-8.008843422,1,-0.002759414,1,-0.001281271,1,0.000696981,1,0.289581239,1,-0.548734486,1,0.374583542,1
0.527997196,-5.14439249,1,-2.433654308,1,-7.988940716,1,-0.004075519,1,0.000324679,1,0.002877965,1,0.289570689,1,-0.548739791,1,0.374584317,1
0.531996667,-5.159258842,1,-2.376280785,1,-7.989841938,1,-0.002451547,1,0.000613501,1,0.001022879,1,0.289560199,1,-0.548736095,1,0.374590993,1
0.535998225,-5.185349941,1,-2.387839317,1,-7.991676807,1,-0.007081161,1,4.44E-05,1,0.002021843,1,0.289544642,1,-0.548744857,1,0.374591768,1
0.539995909,-5.157584667,1,-2.393785,1,-7.966362476,1,-0.004326072,1,-0.002028066,1,0.001063219,1,0.289526701,1,-0.548744023,1,0.374595284,1
0.54399538,-5.133134365,1,-2.423311234,1,-8.0028162,1,-0.006198752,1,0.00201841,1,-0.001530685,1,0.289497674,1,-0.548742652,1,0.374609947,1
0.547996938,-5.127247334,1,-2.410455704,1,-8.017759323,1,-0.008161245,1,-0.001729347,1,0.00482189,1,0.289476573,1,-0.548736095,1,0.374612868,1
0.551994622,-5.157588959,1,-2.381139517,1,-7.973941803,1,-0.007056111,1,-0.000222222,1,0.002108869,1,0.289444983,1,-0.548744857,1,0.374628305,1
0.555994093,-5.161914825,1,-2.392913818,1,-7.986749172,1,-0.006473078,1,0.000990799,1,0.002142245,1,0.289399028,1,-0.548749924,1,0.374650776,1
0.559995651,-5.182496548,1,-2.379543304,1,-8.012123108,1,-0.004098392,1,0.000999518,1,0.001507356,1,0.289364576,1,-0.548758388,1,0.374662697,1
0.563993335,-5.113481522,1,-2.371395111,1,-8.00487709,1,-0.009460128,1,0.000526275,1,0.002460707,1,0.289341122,1,-0.548761487,1,0.37467438,1
0.567992806,-5.135163784,1,-2.369443655,1,-8.039385796,1,-0.002528211,1,-0.003450732,1,0.003610114,1,0.289311349,1,-0.548770368,1,0.374680221,1
0.571994603,-5.139679909,1,-2.378731728,1,-8.010918617,1,-0.006550087,1,-0.000576215,1,0.003505418,1,0.289284289,1,-0.548781872,1,0.374696434,1
0.575992346,-5.14909029,1,-2.429595709,1,-8.036486626,1,-0.003728212,1,-0.001589573,1,0.004239863,1,0.289252222,1,-0.548799217,1,0.374712825,1
0.579991817,-5.158498764,1,-2.439334393,1,-7.990172863,1,-0.006571477,1,-0.003816776,1,0.002372722,1,0.289227605,1,-0.548800051,1,0.374723017,1
0.583993316,-5.168239594,1,-2.450962305,1,-8.029021263,1,-0.006152208,1,-0.002303533,1,0.007442318,1,0.289202154,1,-0.548816442,1,0.37473613,1
0.587991059,-5.159089565,1,-2.452934265,1,-8.022459984,1,-0.008836471,1,-0.005805681,1,0.003525253,1,0.289172351,1,-0.548830748,1,0.374747306,1
0.591990292,-5.186572075,1,-2.415630579,1,-8.013179779,1,-0.009568051,1,-0.005145552,1,0.002152487,1,0.289135456,1,-0.548846364,1,0.374758691,1
0.59599179,-5.187485218,1,-2.424126625,1,-7.993513107,1,-0.007164815,1,-0.003892881,1,0.005696959,1,0.2890971,1,-0.548867047,1,0.374781191,1
0.599995673,-5.17692852,1,-2.405560732,1,-8.00836277,1,-0.007295865,1,-0.003938993,1,0.005451564,1,0.289054036,1,-0.548883379,1,0.374795377,1
0.603995621,-5.171807289,1,-2.41202426,1,-8.018592834,1,-0.007708671,1,-0.004029745,1,0.008089386,1,0.289008915,1,-0.548904657,1,0.374821603,1
0.607997179,-5.164318085,1,-2.416958809,1,-7.991339684,1,-0.003898243,1,0.000620348,1,0.006163283,1,0.288956046,1,-0.548920989,1,0.374851227,1
0.611994624,-5.192879677,1,-2.375869274,1,-8.01305294,1,-0.008349143,1,-0.004807348,1,0.009522857,1,0.288918048,1,-0.548938811,1,0.374875665,1
0.615994096,-5.149335384,1,-2.385758877,1,-7.97304678,1,-0.006850837,1,-0.004941297,1,0.007264979,1,0.288860679,1,-0.548958957,1,0.374900997,1
0.619995654,-5.233178616,1,-2.379796267,1,-8.002964973,1,-0.008994405,1,-0.005746184,1,0.008027414,1,0.288813293,1,-0.548982739,1,0.374928355,1
0.623993099,-5.156300068,1,-2.39654541,1,-7.989909172,1,-0.009276461,1,-0.000454227,1,0.00349644,1,0.288760394,1,-0.548995912,1,0.374958217,1
0.62799257,-5.181406975,1,-2.374859095,1,-7.991954327,1,-0.009959862,1,-0.000397839,1,0.006665892,1,0.288714051,1,-0.549006224,1,0.37498492,1
0.631994128,-5.16713047,1,-2.39296031,1,-8.013390541,1,-0.004708163,1,-0.003169785,1,0.008616535,1,0.288664401,1,-0.54902637,1,0.375018507,1
0.63599205,-5.16765213,1,-2.371775389,1,-8.008049011,1,-0.009354581,1,-0.000828774,1,0.006332225,1,0.288619906,1,-0.549044013,1,0.375048041,1
0.639991581,-5.177894115,1,-2.394246817,1,-8.016768456,1,-0.008522003,1,0.001565733,1,0.006951944,1,0.28856799,1,-0.549056947,1,0.375079423,1
0.64399308,-5.176170349,1,-2.39279151,1,-8.001841545,1,-0.007161092,1,-0.002876262,1,0.006769067,1,0.288523823,1,-0.549069107,1,0.375108361,1
0.647990763,-5.17117548,1,-2.39198947,1,-8.013641357,1,-0.00756798,1,-0.000462115,1,0.007029135,1,0.288474441,1,-0.549077809,1,0.375146329,1
0.651990294,-5.180627823,1,-2.397106886,1,-7.975356102,1,-0.0058188,1,0.001036803,1,0.008000381,1,0.288434803,1,-0.549082756,1,0.375175089,1
0.655991793,-5.16222477,1,-2.368416071,1,-7.99487114,1,-0.003404685,1,0.002144357,1,0.009791462,1,0.288390696,1,-0.549087405,1,0.375207722,1
0.659989476,-5.206109047,1,-2.36696744,1,-7.987825871,1,-0.007970409,1,-0.00214016,1,0.007370394,1,0.288341105,1,-0.54909873,1,0.375249147,1
0.663989007,-5.165589809,1,-2.380634546,1,-7.994380474,1,-0.004592979,1,-0.001698732,1,0.00467961,1,0.288305432,1,-0.549111247,1,0.375278294,1
0.667991042,-5.175361633,1,-2.369266748,1,-8.007538795,1,-0.007314566,1,0.002817883,1,0.006211498,1,0.288266242,1,-0.54911536,1,0.375308603,1
0.671988964,-5.1708951,1,-2.331649542,1,-7.965807438,1,-0.003874456,1,-0.000414409,1,0.008151673,1,0.288225621,1,-0.549119115,1,0.375335693,1
0.675988495,-5.172697544,1,-2.405323744,1,-7.980522156,1,-0.004007566,1,0.001498111,1,0.004017476,1,0.288196206,1,-0.54911077,1,0.375363052,1
0.679989994,-5.169286728,1,-2.393599749,1,-7.99772501,1,-0.006585113,1,0.001706348,1,0.004897288,1,0.288165241,1,-0.54911679,1,0.375384808,1
0.683987737,-5.178859234,1,-2.444197893,1,-7.998333931,1,-0.002070347,1,0.002066253,1,0.005027012,1,0.288134158,1,-0.549118519,1,0.375404418,1
0.687987208,-5.186125278,1,-2.4198699,1,-7.965292454,1,-0.009435175,1,0.002983074,1,0.004719002,1,0.288146555,1,-0.549166977,1,0.375918597,1
0.691988707,-5.144581795,1,-2.443312883,1,-8.007110596,1,-0.009287108,1,0.001492522,1,0.005218545,1,0.288094699,1,-0.549170494,1,0.37594533,1
0.695986152,-5.173439026,1,-2.383701563,1,-7.986455917,1,-0.006981706,1,0.004805732,1,0.005917409,1,0.288047969,1,-0.549160838,1,0.375973731,1
0.699985683,-5.19814682,1,-2.410826921,1,-8.010902405,1,-0.006646764,1,0.006527212,1,0.005664594,1,0.288000047,1,-0.5491575,1,0.375997573,1
0.703987181,-5.154150009,1,-2.367498636,1,-7.992538452,1,-0.007644505,1,0.000809574,1,0.006151284,1,0.28794983,1,-0.549148083,1,0.376031637,1
0.707984626,-5.189971447,1,-2.372251272,1,-8.012588501,1,-0.00447949,1,0.001142771,1,0.00605499,1,0.287910223,1,-0.549145103,1,0.376058221,1
0.711984158,-5.163849831,1,-2.367421389,1,-8.002135277,1,-0.006571989,1,0.001831528,1,0.006363073,1,0.287868917,1,-0.549146533,1,0.376089036,1
0.715985656,-5.197608471,1,-2.409696102,1,-8.007865906,1,-0.007709794,1,0.001665443,1,0.004072534,1,0.287837565,1,-0.549140632,1,0.376111805,1
0.719989479,-5.154552937,1,-2.369730234,1,-8.005641937,1,-0.007073608,1,0.003787933,1,0.00473373,1,0.287794173,1,-0.549131453,1,0.376139551,1
0.723989248,-5.17882967,1,-2.371672153,1,-8.022294044,1,-0.00506402,1,0.003126496,1,0.003294905,1,0.287754536,1,-0.549125016,1,0.376158804,1
0.727990806,-5.181865215,1,-2.363445759,1,-7.981832504,1,-0.004804299,1,0.008280858,1,0.005174716,1,0.287717551,1,-0.549110651,1,0.376192391,1
0.73198849,-5.155802727,1,-2.345919847,1,-7.988622189,1,-0.007099798,1,0.005607366,1,0.005434745,1,0.28768456,1,-0.549094677,1,0.376216888,1
0.735987961,-5.192768574,1,-2.373295069,1,-7.992506504,1,-0.000388524,1,0.005205949,1,0.00279429,1,0.287652284,1,-0.549081504,1,0.376235783,1
0.739989519,-5.170616627,1,-2.36587739,1,-8.00041008,1,-0.005449765,1,0.003357451,1,0.000411677,1,0.287629902,1,-0.549067378,1,0.3762514,1
0.743987203,-5.158908367,1,-2.365618229,1,-7.982732296,1,-0.006489214,1,0.005385282,1,0.003683481,1,0.287600517,1,-0.549045086,1,0.376273483,1
0.747986674,-5.172494411,1,-2.388925076,1,-7.973789692,1,-0.004474219,1,0.008556484,1,0.001029909,1,0.287568331,1,-0.54902029,1,0.376287013,1
0.751988471,-5.205696106,1,-2.366895676,1,-8.003118515,1,-0.005990475,1,0.005474513,1,0.005437787,1,0.287535071,1,-0.549000621,1,0.376301885,1
0.755986154,-5.16059351,1,-2.378176928,1,-7.991883755,1,-0.004489023,1,0.009238827,1,0.002233092,1,0.287510574,1,-0.548968136,1,0.376327664,1
0.759985685,-5.179827213,1,-2.400086403,1,-7.992268085,1,-0.001277236,1,0.002551818,1,0.000908999,1,0.28748703,1,-0.5489344,1,0.376343489,1
0.763987482,-5.169437885,1,-2.389898539,1,-8.012601852,1,-0.006666057,1,0.009502162,1,0.002692387,1,0.287459791,1,-0.548907697,1,0.376351714,1
0.767985165,-5.174126625,1,-2.360793829,1,-7.982112885,1,0.000483407,1,0.009263225,1,0.000476562,1,0.287436604,1,-0.548876107,1,0.376369417,1
0.771984637,-5.165510178,1,-2.365041971,1,-8.01985836,1,-0.003173552,1,0.008781487,1,-0.002334341,1,0.287410259,1,-0.548840761,1,0.376383722,1
0.775986195,-5.196501732,1,-2.385884047,1,-7.993632317,1,-0.004668345,1,0.003897591,1,0.002193195,1,0.287391096,1,-0.548816085,1,0.376392603,1
0.779983878,-5.187429905,1,-2.404025555,1,-8.002058029,1,-0.004390323,1,0.006550667,1,-0.001822826,1,0.287375331,1,-0.548790336,1,0.376395226,1
0.783983588,-5.169734478,1,-2.406520367,1,-8.012695313,1,-0.001962624,1,0.005848474,1,0.001440696,1,0.287352949,1,-0.548767686,1,0.376412511,1
0.787985146,-5.166257858,1,-2.365348101,1,-7.994709015,1,9.45E-05,1,0.007959688,1,-0.002461618,1,0.287344486,1,-0.548746705,1,0.376412988,1
0.791982591,-5.176675797,1,-2.370268822,1,-8.037353516,1,-0.003781333,1,0.005109386,1,0.003424847,1,0.287330806,1,-0.548725963,1,0.376426965,1
0.795982063,-5.160017967,1,-2.373163462,1,-8.002718925,1,-0.000376961,1,0.004971833,1,0.0010626,1,0.287319839,1,-0.548712671,1,0.376439631,1
0.799983621,-5.173686981,1,-2.359503508,1,-8.012294769,1,-0.002110157,1,0.006302225,1,0.003195863,1,0.287322104,1,-0.548693776,1,0.376437545,1
0.803981066,-5.173410416,1,-2.37238431,1,-8.037118912,1,0.004063126,1,0.004061936,1,-0.002475878,1,0.287317097,1,-0.548681736,1,0.376444876,1
0.807980776,-5.135643482,1,-2.380274534,1,-8.010668755,1,-0.003690688,1,0.002525078,1,0.000700444,1,0.28731972,1,-0.548668027,1,0.376443863,1
0.811982334,-5.132097721,1,-2.358530045,1,-8.005871773,1,-0.000293202,1,0.001590253,1,0.001371272,1,0.287309825,1,-0.548663735,1,0.376447916,1
0.815980017,-5.179124355,1,-2.383525848,1,-7.979891777,1,-0.000703329,1,0.001953635,1,-0.001333288,1,0.287305593,1,-0.548658431,1,0.376449227,1
0.819979548,-5.158590317,1,-2.367865801,1,-7.992202759,1,-0.001981555,1,0.003398199,1,-0.001859616,1,0.287311614,1,-0.548650384,1,0.376442015,1
0.823981047,-5.192362785,1,-2.371063471,1,-7.979605198,1,0.000957119,1,-0.000354846,1,-0.000102867,1,0.287314057,1,-0.548641443,1,0.376434505,1
0.827979028,-5.167780399,1,-2.347221136,1,-8.028650284,1,-0.001840195,1,0.002060576,1,-0.00453049,1,0.287321568,1,-0.548632443,1,0.376427531,1
0.8319785,-5.156854153,1,-2.356177092,1,-7.960309982,1,0.001793568,1,-0.00149022,1,-0.000706511,1,0.287329704,1,-0.548615575,1,0.376415342,1
0.835980058,-5.207648754,1,-2.375348806,1,-7.991918087,1,0.001032322,1,0.004295009,1,-0.003794092,1,0.287335396,1,-0.548603237,1,0.376402974,1
0.839983642,-5.208454609,1,-2.339323521,1,-7.973416328,1,0.003866044,1,0.002348649,1,-0.003132738,1,0.287342727,1,-0.548586965,1,0.376399606,1
0.843983114,-5.178581715,1,-2.372098207,1,-8.012633324,1,0.000636759,1,0.00534682,1,0.001335703,1,0.287349522,1,-0.548576176,1,0.376396358,1
0.847984612,-5.147688389,1,-2.358462334,1,-8.008504868,1,0.002168486,1,0.001129517,1,-0.006119224,1,0.287369847,1,-0.548554957,1,0.376372159,1
0.851982355,-5.165239811,1,-2.354530573,1,-8.020402908,1,0.000393644,1,0.004286698,1,-0.004550227,1,0.287373692,1,-0.548540413,1,0.376365453,1
0.855981827,-5.16387701,1,-2.376264095,1,-7.990711212,1,0.001267177,1,0.003659789,1,-0.000781303,1,0.287378639,1,-0.548525155,1,0.376360059,1
0.859983385,-5.173765659,1,-2.371731758,1,-7.971702576,1,0.003036489,1,0.007228003,1,9.40E-05,1,0.287389398,1,-0.548503041,1,0.376350105,1
0.863981068,-5.235192299,1,-2.410070181,1,-8.023892403,1,0.003202982,1,0.007603997,1,-0.002808018,1,0.287392259,1,-0.548478067,1,0.37635535,1
0.86798054,-5.157876968,1,-2.386763334,1,-7.996921062,1,0.002381007,1,0.004815019,1,-0.000391901,1,0.287394673,1,-0.5484429,1,0.376345754,1
0.871982336,-5.164987087,1,-2.407450438,1,-7.980830669,1,0.003082749,1,0.007253718,1,-0.000393792,1,0.287392259,1,-0.54841733,1,0.37634322,1
0.87598002,-5.170110703,1,-2.413697481,1,-8.030050278,1,-0.001082402,1,0.011917947,1,-0.002614062,1,0.287387937,1,-0.548384309,1,0.376348495,1
0.879979491,-5.148863792,1,-2.408674002,1,-8.016239166,1,-0.002164605,1,0.00604368,1,0.001574477,1,0.287377954,1,-0.548350573,1,0.37635982,1
0.883981049,-5.14533186,1,-2.419216156,1,-8.011419296,1,-0.005008159,1,0.004581306,1,-0.001906073,1,0.287365913,1,-0.548327744,1,0.376366019,1
0.887978494,-5.171815395,1,-2.369891167,1,-7.999241829,1,-0.003752443,1,0.012007259,1,-0.000804693,1,0.287354112,1,-0.548294485,1,0.376367122,1
0.891978264,-5.205877304,1,-2.391739368,1,-8.042102814,1,-0.000872871,1,0.001440232,1,0.002233075,1,0.287341416,1,-0.548274279,1,0.376378059,1
0.895979762,-5.140779495,1,-2.39161253,1,-7.993692875,1,-0.001149515,1,0.005746435,1,-0.001040882,1,0.287330389,1,-0.548257589,1,0.376383126,1
0.899977446,-5.179172993,1,-2.372861624,1,-8.05270195,1,-0.002847509,1,0.003445926,1,-0.001640953,1,0.287325144,1,-0.548242271,1,0.376380295,1
0.903976977,-5.1914258,1,-2.39211154,1,-8.014125824,1,-0.001108217,1,0.002503145,1,-0.00157452,1,0.287316471,1,-0.548224807,1,0.3763794,1
0.907978475,-5.170877457,1,-2.400217056,1,-8.010868073,1,-0.003367028,1,0.005225046,1,0.000366407,1,0.287318826,1,-0.548211813,1,0.376381308,1
0.911976457,-5.176129818,1,-2.393985271,1,-7.99158287,1,-0.005503154,1,0.002267102,1,0.000314581,1,0.287308395,1,-0.548198462,1,0.376379132,1
0.915976167,-5.184169769,1,-2.337505102,1,-8.011512756,1,0.00210603,1,0.000817011,1,-0.006121747,1,0.287310541,1,-0.54819119,1,0.376367748,1
0.919977725,-5.172214031,1,-2.349811554,1,-8.003160477,1,-0.002984073,1,0.001750463,1,-0.001254671,1,0.287303925,1,-0.548170567,1,0.376367986,1
0.923975706,-5.161145687,1,-2.362215757,1,-7.973084927,1,0.000908344,1,0.002229213,1,-0.000926191,1,0.287306547,1,-0.548158169,1,0.376362741,1
0.927975178,-5.14918232,1,-2.355264187,1,-7.997035503,1,-0.000866815,1,0.002370676,1,-0.000798504,1,0.28731209,1,-0.548150599,1,0.376355499,1
0.931976676,-5.175158501,1,-2.355410099,1,-8.028998375,1,0.000640487,1,-0.001402191,1,-0.00077658,1,0.287313014,1,-0.548148572,1,0.376353323,1
0.935974658,-5.141631603,1,-2.351214409,1,-8.010793686,1,0.002768467,1,0.00244602,1,-0.001073112,1,0.287350297,1,-0.548258364,1,0.37639606,1
0.939974129,-5.141819477,1,-2.412032366,1,-8.038101196,1,0.00313209,1,-0.000372164,1,-0.000714999,1,0.287370026,1,-0.548205435,1,0.376868755,1
0.943975925,-5.141486168,1,-2.376208782,1,-8.018378258,1,0.003627884,1,0.001852919,1,-0.00298101,1,0.28738302,1,-0.548201978,1,0.376866579,1
0.947973609,-5.149300098,1,-2.412887096,1,-8.014457703,1,0.002104514,1,0.00194015,1,-0.004227776,1,0.287390292,1,-0.548193157,1,0.376857072,1
0.95197314,-5.173035145,1,-2.399652719,1,-8.008076668,1,0.003915194,1,0.002306805,1,0.00412094,1,0.287400454,1,-0.54819262,1,0.376857698,1
0.955974638,-5.154589176,1,-2.369673252,1,-8.016712189,1,0.001640138,1,-6.27E-06,1,-0.000163051,1,0.287405729,1,-0.54818368,1,0.376853228,1
0.959978223,-5.160823822,1,-2.392428637,1,-8.009072304,1,0.003562636,1,0.001333497,1,0.001983004,1,0.287412465,1,-0.548180103,1,0.376857042,1
0.963977754,-5.163627148,1,-2.39232707,1,-7.988378048,1,0.003344033,1,0.001626206,1,0.00063123,1,0.287417471,1,-0.548176527,1,0.376866102,1
0.967979491,-5.16566515,1,-2.403282642,1,-8.053079605,1,0.000710231,1,-0.002682425,1,0.001566283,1,0.287428796,1,-0.548168957,1,0.37686044,1
0.971977234,-5.150352478,1,-2.404266834,1,-8.01804924,1,7.69E-05,1,-0.002842984,1,0.000121306,1,0.287421584,1,-0.548174441,1,0.376862407,1
0.975976944,-5.102159023,1,-2.377364635,1,-8.003342628,1,-0.000860826,1,-0.000617687,1,-0.003436491,1,0.287423581,1,-0.548171818,1,0.376858652,1
0.979978502,-5.158656597,1,-2.396548033,1,-8.027583122,1,0.001972125,1,-0.003758814,1,-3.40E-05,1,0.287430555,1,-0.548171818,1,0.376851499,1
0.983976185,-5.137147903,1,-2.390236378,1,-8.004302025,1,-0.000828051,1,2.31E-05,1,0.001336267,1,0.287431955,1,-0.548176229,1,0.376851618,1
0.987975657,-5.15753603,1,-2.375532627,1,-7.988604546,1,0.001717836,1,-0.002266828,1,-0.001288187,1,0.287435085,1,-0.548175991,1,0.376849592,1
0.991977215,-5.142399788,1,-2.357248783,1,-7.986681938,1,0.002424435,1,-0.001399548,1,0.001249224,1,0.287441164,1,-0.548174679,1,0.376846373,1
0.995974898,-5.147050858,1,-2.375669956,1,-7.966317654,1,-0.001974039,1,0.002392154,1,-0.000979341,1,0.28744328,1,-0.548172712,1,0.376845956,1
0.999974668,-5.145884514,1,-2.412598133,1,-7.996696472,1,0.003091617,1,-0.003250846,1,-0.003131697,1,0.287448227,1,-0.548180163,1,0.376839995,1
1.003976226,-5.155937672,1,-2.388866425,1,-7.998316288,1,-0.002208107,1,0.002059517,1,-0.001980717,1,0.287443727,1,-0.548178434,1,0.376843631,1
1.007974148,-5.16435051,1,-2.352204561,1,-7.987365723,1,0.001240638,1,0.00023227,1,-0.000517273,1,0.2874479,1,-0.548172116,1,0.376839519,1
1.011973619,-5.18108654,1,-2.383084536,1,-7.990986824,1,-6.41E-05,1,0.001492216,1,-0.003795503,1,0.287454844,1,-0.548167229,1,0.376832426,1
1.015975118,-5.189085007,1,-2.369361401,1,-7.978545189,1,0.00409092,1,0.002649125,1,-0.004392633,1,0.287465543,1,-0.548161328,1,0.376819462,1
1.01997292,-5.162055492,1,-2.391174793,1,-8.030219078,1,-0.001873726,1,0.004253772,1,-0.003160564,1,0.28748858,1,-0.548144817,1,0.376804411,1
1.023972392,-5.16249752,1,-2.401490927,1,-7.990225792,1,0.000774441,1,0.005175096,1,-0.003055829,1,0.287495077,1,-0.548137188,1,0.376790464,1
1.02797389,-5.155850887,1,-2.403771162,1,-7.997590542,1,0.003758187,1,0.00160568,1,-0.001961919,1,0.28751111,1,-0.548121452,1,0.376783073,1
1.031971574,-5.184928417,1,-2.385796309,1,-8.020442963,1,0.002934213,1,0.000819259,1,-0.003589971,1,0.287528992,1,-0.548108339,1,0.376764476,1
1.035971045,-5.164404869,1,-2.387687206,1,-7.999234676,1,0.002362154,1,0.004075511,1,-0.00336798,1,0.28753829,1,-0.548098743,1,0.376757324,1
1.039972663,-5.198657036,1,-2.413982153,1,-7.990192413,1,0.000689882,1,0.002386401,1,-0.001811867,1,0.28754428,1,-0.548084676,1,0.376754075,1
1.043970346,-5.212104797,1,-2.389768362,1,-8.010375977,1,-0.001193289,1,0.001580553,1,-9.51E-05,1,0.287539482,1,-0.548083067,1,0.37675494,1
1.047969818,-5.137294292,1,-2.369307756,1,-8.025127411,1,0.002956851,1,0.004736528,1,-0.000101077,1,0.287554294,1,-0.548077047,1,0.376743704,1
1.051971555,-5.152789116,1,-2.394002914,1,-8.00474453,1,0.000472903,1,0.002159642,1,0.001822452,1,0.28755635,1,-0.548071861,1,0.376743823,1
1.055969238,-5.213693142,1,-2.37820816,1,-7.98859787,1,-0.00222821,1,0.003141849,1,-0.000686245,1,0.287551582,1,-0.548064291,1,0.376746178,1
1.05996871,-5.161201954,1,-2.420385361,1,-8.035597801,1,-0.002267565,1,-0.003675045,1,-0.002843368,1,0.287552416,1,-0.548056066,1,0.376743019,1
1.063970327,-5.153754234,1,-2.384976387,1,-8.014367104,1,-0.001591177,1,0.000244933,1,-0.001370611,1,0.287546337,1,-0.548056304,1,0.376742721,1
1.067968011,-5.149779797,1,-2.386221409,1,-8.036460876,1,8.04E-05,1,0.001190308,1,-0.00113564,1,0.28754732,1,-0.548055649,1,0.376742244,1
1.071967721,-5.186950684,1,-2.411752939,1,-7.984983444,1,-0.000417921,1,-0.001442008,1,-0.001578372,1,0.287538707,1,-0.548050106,1,0.376740575,1
1.075969338,-5.147966862,1,-2.394653797,1,-7.991595745,1,-0.001222076,1,0.001325336,1,0.001632917,1,0.287541062,1,-0.548055708,1,0.376742542,1
1.079972863,-5.158828259,1,-2.394381285,1,-8.001204491,1,0.0009589,1,-0.002557341,1,-0.003687955,1,0.287534475,1,-0.548051834,1,0.376743108,1
1.083972573,-5.141884804,1,-2.384218454,1,-7.980584621,1,-0.002341789,1,0.004351539,1,0.001273695,1,0.287524015,1,-0.548045516,1,0.376742303,1
1.087974191,-5.210021973,1,-2.376252413,1,-8.001617432,1,-0.002431007,1,0.004305691,1,-0.002607538,1,0.287507653,1,-0.548030853,1,0.376750737,1
1.091971874,-5.181843758,1,-2.351234436,1,-7.977941513,1,-0.004482234,1,0.003011278,1,-0.001515669,1,0.287499398,1,-0.548012912,1,0.376751333,1
1.095971346,-5.138883591,1,-2.357369423,1,-8.003143311,1,-0.002061297,1,0.00684861,1,0.001204687,1,0.287498385,1,-0.547997057,1,0.376745164,1
1.099972844,-5.161471367,1,-2.391369581,1,-7.989955902,1,-0.001764034,1,0.007292875,1,-0.001497237,1,0.287488759,1,-0.547974169,1,0.376754999,1
1.103970528,-5.142883778,1,-2.394015551,1,-8.009437561,1,-0.00189479,1,0.005581351,1,-0.00213097,1,0.287481248,1,-0.547946453,1,0.376758218,1
1.107969999,-5.164427757,1,-2.367733717,1,-8.015833855,1,-0.000346815,1,0.007635113,1,0.00205933,1,0.287476331,1,-0.547921717,1,0.37676242,1
1.111971617,-5.162017345,1,-2.424529552,1,-8.00725174,1,0.000433528,1,0.004776186,1,-0.000731132,1,0.287473142,1,-0.547900558,1,0.376768649,1
1.1159693,-5.152245522,1,-2.380988121,1,-8.010099411,1,-0.001748971,1,0.007306711,1,0.003848646,1,0.287462771,1,-0.547878981,1,0.376778781,1
1.119968772,-5.129453659,1,-2.353090286,1,-8.026738167,1,0.001104459,1,0.00698093,1,-0.002597427,1,0.287453055,1,-0.547853947,1,0.376786053,1
1.123970032,-5.15851593,1,-2.373179436,1,-7.999878883,1,-0.00117357,1,0.009097748,1,4.86E-05,1,0.287450314,1,-0.547827542,1,0.376783252,1
1.127967715,-5.168102264,1,-2.383237362,1,-8.008520126,1,-0.000521346,1,0.005408293,1,-0.005631478,1,0.287446678,1,-0.547798634,1,0.376779169,1
1.131967187,-5.163192272,1,-2.379343748,1,-7.986086845,1,-0.001460512,1,0.003283819,1,0.000492927,1,0.287446678,1,-0.547769189,1,0.376778513,1
1.135968804,-5.144530773,1,-2.367221594,1,-7.976904869,1,-0.001555235,1,0.009444834,1,0.00022751,1,0.28744036,1,-0.547743678,1,0.376775175,1
1.139966488,-5.1308918,1,-2.402877331,1,-8.002070427,1,0.000571332,1,0.008117323,1,-0.004830979,1,0.287433952,1,-0.547710955,1,0.376783282,1
1.14396596,-5.145931721,1,-2.408989668,1,-8.032305717,1,-0.001928963,1,0.00662661,1,-0.002255971,1,0.287433326,1,-0.547688246,1,0.376781285,1
1.147967696,-5.141396523,1,-2.410241842,1,-8.012925148,1,-0.000279716,1,0.007188655,1,-0.001137578,1,0.287433982,1,-0.547657907,1,0.376776159,1
1.151965499,-5.125469685,1,-2.460275173,1,-8.02907753,1,-0.005388728,1,0.00555937,1,0.000716867,1,0.28741622,1,-0.547633052,1,0.376780033,1
1.155964613,-5.155487537,1,-2.423734665,1,-8.018427849,1,-0.006269454,1,0.004825764,1,0.00126347,1,0.287392944,1,-0.547604024,1,0.376782507,1
1.15996623,-5.170193672,1,-2.403932333,1,-7.992962837,1,-0.006301528,1,0.002879332,1,-0.000747115,1,0.287381589,1,-0.547591746,1,0.376783848,1
1.163963914,-5.158297062,1,-2.426684141,1,-8.03901577,1,-0.006057155,1,0.005540824,1,0.001424405,1,0.287351608,1,-0.54757607,1,0.376795977,1
1.167963624,-5.154126644,1,-2.403528214,1,-8.050704002,1,-0.002565933,1,0.001191312,1,0.004531905,1,0.287316382,1,-0.547563016,1,0.376806259,1
1.171965241,-5.145058632,1,-2.395675182,1,-8.020142555,1,-0.003071713,1,0.005732954,1,0.001991295,1,0.287299812,1,-0.547551274,1,0.376813322,1
1.175962925,-5.147455215,1,-2.394168377,1,-8.01392746,1,-0.006822058,1,0.000582727,1,0.002206026,1,0.287269771,1,-0.547537804,1,0.376821578,1
1.179962397,-5.176437855,1,-2.361613512,1,-8.009726524,1,-0.005735632,1,0.005154414,1,0.000180843,1,0.287235022,1,-0.547532976,1,0.376831651,1
1.183963895,-5.19482708,1,-2.396843672,1,-8.021043777,1,-0.006447198,1,0.004282487,1,-0.001491615,1,0.287206531,1,-0.54751581,1,0.376833946,1
1.18796134,-5.171626568,1,-2.383367777,1,-7.978174686,1,-0.004602802,1,0.006508328,1,0.000882742,1,0.287229031,1,-0.547554731,1,0.377325773,1
1.191960812,-5.138786316,1,-2.351874828,1,-8.034711838,1,-0.006563435,1,0.002539291,1,-0.000638691,1,0.287199259,1,-0.54753828,1,0.37732771,1
1.19596231,-5.1808424,1,-2.372199774,1,-7.989717484,1,-0.002254024,1,0.007347025,1,-0.001098235,1,0.287176251,1,-0.547513366,1,0.377332032,1
1.199965954,-5.155014038,1,-2.359518051,1,-8.022904396,1,-0.001959676,1,0.004161683,1,0.000764351,1,0.287161708,1,-0.547494471,1,0.37733227,1
1.203965664,-5.133588791,1,-2.383163929,1,-8.00723362,1,-0.004276878,1,0.00421393,1,-0.001062043,1,0.287153482,1,-0.547478855,1,0.377330542,1
1.207967281,-5.117445946,1,-2.376314163,1,-8.013011932,1,-0.001489904,1,0.003840846,1,-0.003494797,1,0.28714776,1,-0.547469139,1,0.377329946,1
1.211964965,-5.146902084,1,-2.403842926,1,-7.98921442,1,0.001312029,1,0.003324361,1,-0.004087292,1,0.287140816,1,-0.547457099,1,0.37732023,1
1.215964437,-5.154891014,1,-2.391574383,1,-7.991875172,1,-0.004280257,1,0.002678912,1,-0.001162226,1,0.287137985,1,-0.547437072,1,0.37731427,1
1.219965935,-5.156894207,1,-2.410464287,1,-7.995025635,1,-0.00228149,1,0.00376128,1,-0.000282026,1,0.287136734,1,-0.547422528,1,0.377309203,1
1.223963857,-5.149624348,1,-2.389154911,1,-8.021780968,1,-0.000155065,1,0.003693236,1,-0.004000485,1,0.287138343,1,-0.54740411,1,0.377298832,1
1.227963448,-5.161365032,1,-2.373347759,1,-8.003138542,1,-0.001453738,1,0.004486175,1,-0.003356326,1,0.287137926,1,-0.547385991,1,0.377289355,1
1.231964946,-5.170821667,1,-2.394800663,1,-7.985272884,1,-0.00064057,1,0.006026427,1,-0.001501326,1,0.287135005,1,-0.547379255,1,0.377287507,1
1.235962629,-5.20230341,1,-2.406525373,1,-8.028849602,1,-0.002431599,1,0.001062238,1,-0.003362673,1,0.287130475,1,-0.547363281,1,0.377279878,1
1.239962101,-5.125450611,1,-2.405615568,1,-8.03320694,1,0.000642277,1,0.00033361,1,-0.004732376,1,0.287126541,1,-0.547352374,1,0.377271354,1
1.243963957,-5.150161743,1,-2.4216187,1,-8.025588036,1,-0.002251671,1,0.00012202,1,0.002130931,1,0.287116528,1,-0.547351658,1,0.377268493,1
1.24796164,-5.132906437,1,-2.394445896,1,-8.005678177,1,-0.000982304,1,0.005378653,1,-0.00230579,1,0.287113547,1,-0.54735446,1,0.377261102,1
1.251961112,-5.107051849,1,-2.403617144,1,-8.023882866,1,-0.004676108,1,-0.002955934,1,0.002543473,1,0.287100494,1,-0.547347903,1,0.377259582,1
1.255962849,-5.167983055,1,-2.387834549,1,-8.005524635,1,-0.001332299,1,0.000446829,1,-0.004450189,1,0.287100971,1,-0.54735297,1,0.377254009,1
1.259960532,-5.158347607,1,-2.396388054,1,-8.021942139,1,-0.002917765,1,-7.38E-05,1,-0.001066271,1,0.287093103,1,-0.54735446,1,0.377243936,1
1.263960361,-5.165852547,1,-2.378303051,1,-8.002019882,1,-0.004131984,1,-0.003382167,1,0.001233365,1,0.28708598,1,-0.547356367,1,0.377241731,1
1.267962098,-5.129411221,1,-2.372650862,1,-8.011345863,1,-0.000591271,1,-0.001330281,1,0.001505591,1,0.287078053,1,-0.547360599,1,0.377234399,1
1.271959782,-5.131124496,1,-2.366026402,1,-7.996638775,1,-0.001966002,1,-0.005187107,1,-0.001832323,1,0.287079304,1,-0.547363281,1,0.377222061,1
1.275959611,-5.136553288,1,-2.38470602,1,-8.04331398,1,0.001266441,1,-0.001856423,1,-0.004524237,1,0.287080169,1,-0.547367871,1,0.377215356,1
1.279961109,-5.105445862,1,-2.381295681,1,-8.018104553,1,6.65E-05,1,-0.000851115,1,0.00177713,1,0.287081718,1,-0.547375917,1,0.37721163,1
1.283958793,-5.148530483,1,-2.405768156,1,-8.065134048,1,-0.001580073,1,-0.002940772,1,-0.000461807,1,0.287084281,1,-0.547380626,1,0.377200335,1
1.287958503,-5.124939442,1,-2.417016029,1,-8.04695034,1,-0.001109653,1,-0.005222927,1,0.003581747,1,0.287081271,1,-0.547401726,1,0.377197236,1
1.29196012,-5.141290188,1,-2.397238255,1,-8.01466465,1,0.000597165,1,-0.005725823,1,0.000523699,1,0.287095279,1,-0.54741919,1,0.377186537,1
1.295958042,-5.132193089,1,-2.405212402,1,-8.033501625,1,0.001688305,1,-0.004212159,1,0.000339161,1,0.287088305,1,-0.547442973,1,0.377191126,1
1.299957514,-5.144127369,1,-2.359525204,1,-8.028590202,1,-0.000997683,1,-0.004409121,1,0.00165824,1,0.28709805,1,-0.547463298,1,0.3771815,1
1.303959012,-5.154765606,1,-2.411170006,1,-8.009291649,1,-0.001867632,1,-0.00609933,1,0.002330674,1,0.287093997,1,-0.547488689,1,0.377181113,1
1.307956696,-5.17579031,1,-2.380975008,1,-8.036594391,1,-0.001754653,1,-0.007692552,1,0.001409923,1,0.287092149,1,-0.547516823,1,0.37718147,1
1.311956167,-5.127532482,1,-2.405597925,1,-7.995593071,1,-0.001747266,1,-0.008338696,1,0.001474862,1,0.287092626,1,-0.547547162,1,0.377175808,1
1.315958023,-5.174813271,1,-2.430552006,1,-8.01893425,1,0.003591718,1,-0.005525862,1,-0.000392404,1,0.28709048,1,-0.547580898,1,0.377170086,1
1.319961548,-5.15753746,1,-2.417736769,1,-7.993663311,1,-0.002661597,1,-0.008860795,1,0.00379658,1,0.287086844,1,-0.547617853,1,0.377166778,1
1.323961377,-5.169154644,1,-2.409323692,1,-8.027395248,1,-0.001869416,1,-0.007229237,1,0.005208497,1,0.287067533,1,-0.547663748,1,0.377175212,1
1.327963114,-5.169231892,1,-2.4123981,1,-8.023586273,1,-0.004137715,1,-0.010076421,1,0.004869019,1,0.287040383,1,-0.547698021,1,0.377188832,1
1.331960797,-5.146249294,1,-2.350693941,1,-7.997770309,1,-0.001617341,1,-0.006921181,1,0.002993795,1,0.287021637,1,-0.547739446,1,0.377196848,1
1.335960269,-5.155359268,1,-2.376289845,1,-8.033261299,1,-0.002530737,1,-0.010796105,1,0.004381689,1,0.287002265,1,-0.54777956,1,0.377209038,1
1.339961886,-5.180094719,1,-2.362043619,1,-8.037555695,1,-0.005649233,1,-0.007727035,1,0.004703278,1,0.28698799,1,-0.547820449,1,0.377213418,1
1.343959332,-5.189618587,1,-2.363435268,1,-8.019780159,1,0.00034159,1,-0.011035659,1,0.002238729,1,0.286975652,1,-0.547860146,1,0.377221882,1
1.347958803,-5.162926674,1,-2.381172657,1,-8.005414009,1,0.003604432,1,-0.010692035,1,0.004537236,1,0.286975741,1,-0.547908902,1,0.377225697,1
1.351960301,-5.154185295,1,-2.359568834,1,-8.01362896,1,-0.000699722,1,-0.00955115,1,0.007125303,1,0.286977232,1,-0.547951341,1,0.377227157,1
1.355957985,-5.182073593,1,-2.356017351,1,-8.018022537,1,0.003560692,1,-0.010512461,1,0.004073138,1,0.286983192,1,-0.547997296,1,0.37723285,1
1.359957814,-5.140368938,1,-2.356592655,1,-8.047437668,1,0.001528928,1,-0.009691267,1,0.001032856,1,0.286992908,1,-0.548043013,1,0.377228618,1
1.363959312,-5.134243488,1,-2.37321806,1,-8.010810852,1,0.003988012,1,-0.012230142,1,0.0026424,1,0.287002414,1,-0.548097968,1,0.377226233,1
1.367956758,-5.160680294,1,-2.395498276,1,-8.007071495,1,-0.00108145,1,-0.013008144,1,0.003572212,1,0.287007034,1,-0.548148572,1,0.377230108,1
1.371956468,-5.144144535,1,-2.395762205,1,-8.043479919,1,0.003854821,1,-0.010050844,1,0.006051675,1,0.28702274,1,-0.548200011,1,0.377225339,1
1.375957966,-5.143125057,1,-2.400262833,1,-8.022354126,1,0.002050466,1,-0.011740166,1,0.003348554,1,0.287034303,1,-0.548263729,1,0.377229273,1
1.379955411,-5.126527786,1,-2.387285471,1,-7.990245342,1,0.00254836,1,-0.015028952,1,0.004546507,1,0.287048459,1,-0.548315525,1,0.377222151,1
1.383955002,-5.172371387,1,-2.340332508,1,-8.028671265,1,0.002705995,1,-0.016915115,1,0.004311508,1,0.28705889,1,-0.54837054,1,0.37722221,1
1.3879565,-5.168398857,1,-2.354161263,1,-8.015410423,1,0.002338297,1,-0.013941213,1,0.004110052,1,0.287084341,1,-0.548439145,1,0.377212942,1
1.391954184,-5.175788879,1,-2.383584738,1,-8.011039734,1,0.004172468,1,-0.01714842,1,3.43E-05,1,0.287098169,1,-0.548494339,1,0.377208114,1
1.395953655,-5.156005859,1,-2.369506121,1,-7.971639156,1,0.00492628,1,-0.017245565,1,0.004161431,1,0.287124753,1,-0.548554599,1,0.377202958,1
1.399955153,-5.166433334,1,-2.366552114,1,-7.983041763,1,0.003536061,1,-0.015175184,1,0.002663823,1,0.287147403,1,-0.548623323,1,0.377199411,1
1.403952837,-5.171443462,1,-2.403460503,1,-8.013302803,1,0.008997668,1,-0.013585359,1,0.001231441,1,0.287178069,1,-0.548679352,1,0.377189815,1
1.407952428,-5.151476383,1,-2.400695562,1,-8.005360603,1,0.003289643,1,-0.014687035,1,0.002022963,1,0.287204683,1,-0.548743904,1,0.37718308,1
1.411954165,-5.159823895,1,-2.423628807,1,-7.998356342,1,0.001595061,1,-0.012707748,1,0.003606468,1,0.287219822,1,-0.548803329,1,0.377186477,1
1.415951848,-5.182749271,1,-2.429201603,1,-8.016619682,1,0.003734802,1,-0.013844788,1,0.007908552,1,0.287215114,1,-0.548863292,1,0.377198219,1
1.41995132,-5.180219173,1,-2.426146984,1,-7.976311684,1,-0.002061994,1,-0.011864259,1,0.006038745,1,0.28721866,1,-0.548927426,1,0.377212286,1
1.423952937,-5.189049721,1,-2.443203688,1,-8.000480652,1,-0.004872203,1,-0.0134944,1,0.004885951,1,0.287192404,1,-0.54899174,1,0.377232999,1
1.427950621,-5.168227673,1,-2.434501648,1,-7.955454826,1,-0.004009995,1,-0.017960174,1,0.010910521,1,0.287170291,1,-0.549055815,1,0.377250731,1
1.431950092,-5.185987949,1,-2.424789906,1,-7.976988792,1,-0.005078632,1,-0.012450227,1,0.011901037,1,0.287137628,1,-0.549128115,1,0.377283335,1
1.435951591,-5.168814659,1,-2.420906067,1,-8.002491951,1,-0.00434443,1,-0.010451773,1,0.011075677,1,0.287139207,1,-0.549283087,1,0.377314031,1
1.439949274,-5.174031734,1,-2.454255581,1,-8.016836166,1,-0.00861861,1,-0.012792334,1,0.019848067,1,0.287085354,1,-0.54930526,1,0.377841353,1
1.443955183,-5.146421432,1,-2.478047371,1,-7.974914074,1,-0.010306757,1,-0.011727663,1,0.014283373,1,0.28701973,1,-0.549375057,1,0.377894044,1
1.447957039,-5.157681942,1,-2.439200163,1,-8.020350456,1,-0.006402426,1,-0.013802936,1,0.017963745,1,0.286941826,1,-0.549439907,1,0.37795797,1
1.451954722,-5.180219173,1,-2.427675247,1,-7.97712183,1,-0.015632169,1,-0.014977666,1,0.018742498,1,0.286856771,1,-0.549512386,1,0.378026873,1
1.455954432,-5.171368122,1,-2.386211157,1,-7.943562031,1,-0.016977355,1,-0.008045305,1,0.022624947,1,0.286749065,1,-0.549580216,1,0.378105283,1
1.459955931,-5.182782173,1,-2.365274906,1,-7.999365807,1,-0.016130429,1,-0.008516017,1,0.018765815,1,0.286646783,1,-0.549645543,1,0.37819013,1
1.463953614,-5.165554047,1,-2.356224537,1,-7.985991955,1,-0.016193114,1,-0.009572508,1,0.020377111,1,0.286546499,1,-0.549705744,1,0.378267169,1
1.467953444,-5.20450449,1,-2.319991589,1,-7.984926701,1,-0.012101767,1,-0.009540256,1,0.021722436,1,0.286437273,1,-0.549767017,1,0.378349274,1
1.47195518,-5.201702118,1,-2.380085468,1,-7.964684963,1,-0.015476834,1,-0.009528663,1,0.022996362,1,0.286340475,1,-0.549828112,1,0.378435791,1
1.475953102,-5.148756504,1,-2.393456697,1,-7.962812424,1,-0.016382378,1,-0.006572089,1,0.020109963,1,0.286229074,1,-0.549888313,1,0.378523648,1
1.479952931,-5.168678284,1,-2.398931026,1,-8.002370834,1,-0.015522765,1,-0.006176905,1,0.024041262,1,0.286119163,1,-0.549939394,1,0.378614306,1
1.48395443,-5.17263937,1,-2.316591263,1,-7.998958588,1,-0.013991858,1,-0.005196824,1,0.02154788,1,0.286006242,1,-0.549992323,1,0.378707498,1
1.487952352,-5.164822102,1,-2.302662134,1,-8.040439606,1,-0.013237001,1,-0.006597861,1,0.024268419,1,0.28590712,1,-0.550040305,1,0.378798127,1
1.491952181,-5.213637352,1,-2.274670124,1,-7.987022877,1,-0.008983456,1,-0.003377449,1,0.017321419,1,0.285809964,1,-0.55008918,1,0.378894299,1
1.495953679,-5.174442768,1,-2.29264617,1,-7.970270157,1,-0.011470587,1,-0.008637708,1,0.021797892,1,0.285720885,1,-0.550132573,1,0.37897405,1
1.499951601,-5.20245409,1,-2.282397747,1,-7.976643562,1,-0.003443022,1,-0.007873926,1,0.014824157,1,0.285649836,1,-0.550189614,1,0.379051328,1
1.503951073,-5.195510864,1,-2.271236897,1,-7.998426914,1,-0.006425255,1,-0.008130124,1,0.013813906,1,0.28558892,1,-0.550244272,1,0.379116863,1
1.507952929,-5.202578068,1,-2.297627449,1,-7.988201141,1,-0.001736796,1,-0.006554962,1,0.015971713,1,0.285540402,1,-0.550290346,1,0.379180461,1
1.511950612,-5.191017628,1,-2.287694216,1,-7.996238232,1,0.001854804,1,-0.005036286,1,0.012313885,1,0.28550601,1,-0.5503304,1,0.379234135,1
1.515950084,-5.227511406,1,-2.305692673,1,-8.002079964,1,-0.00223256,1,-0.004748926,1,0.009550735,1,0.285480589,1,-0.550361991,1,0.379284978,1
1.51995182,-5.230711937,1,-2.32186389,1,-8.014891624,1,0.003986969,1,-0.008474331,1,0.0107883,1,0.285460621,1,-0.550400257,1,0.379336387,1
1.523949862,-5.166862488,1,-2.347115278,1,-8.011925697,1,0.002220189,1,-0.007222992,1,0.011079085,1,0.28545326,1,-0.550437212,1,0.379368663,1
1.527949333,-5.193041325,1,-2.332966328,1,-7.996312141,1,0.005099383,1,-0.007411778,1,0.011775873,1,0.285447061,1,-0.550477743,1,0.379406631,1
1.531950831,-5.170778275,1,-2.335240602,1,-7.975683212,1,0.001626556,1,-0.002974687,1,0.008957588,1,0.285435021,1,-0.550503194,1,0.379449278,1
1.535948515,-5.169104099,1,-2.367488861,1,-7.985499382,1,0.003594928,1,-0.007394596,1,0.007246417,1,0.285428464,1,-0.550537765,1,0.37948516,1
1.539948344,-5.19525528,1,-2.328601837,1,-8.028523445,1,0.004228455,1,-0.005276371,1,0.012409088,1,0.285425246,1,-0.550567925,1,0.379523009,1
1.543950081,-5.180923462,1,-2.347700596,1,-8.000248909,1,0.003099851,1,-0.004035652,1,0.005384119,1,0.285420984,1,-0.550596416,1,0.379558563,1
1.547947764,-5.172482491,1,-2.348442554,1,-8.010803223,1,0.004801738,1,-0.007246241,1,0.009070262,1,0.285422087,1,-0.550623596,1,0.379588962,1
1.551947236,-5.169184208,1,-2.310249567,1,-8.008538246,1,0.000891585,1,-0.004097563,1,0.008213968,1,0.285421252,1,-0.55065465,1,0.379617423,1
1.555948853,-5.165778637,1,-2.331000566,1,-7.986059189,1,0.003131338,1,-0.002899629,1,0.005303686,1,0.285425365,1,-0.550679266,1,0.379650235,1
1.559946299,-5.22150135,1,-2.330298424,1,-8.015011787,1,0.006682815,1,-0.00380962,1,0.006107815,1,0.285425663,1,-0.550701141,1,0.379671454,1
1.563958049,-5.202264309,1,-2.341440678,1,-7.975752831,1,0.007279119,1,-0.005373517,1,0.005721604,1,0.285432041,1,-0.550727248,1,0.379695535,1
1.567965746,-5.144291401,1,-2.383612633,1,-7.987453938,1,0.008028311,1,-0.00365241,1,0.006823421,1,0.285442889,1,-0.550750315,1,0.379724085,1
1.571969271,-5.173775196,1,-2.382550716,1,-7.98927021,1,0.006898439,1,-0.000230171,1,0.003296334,1,0.285453409,1,-0.550773978,1,0.379749119,1
1.575968981,-5.176175117,1,-2.372778893,1,-7.992471218,1,0.000384937,1,-0.002932881,1,0.005071523,1,0.285464466,1,-0.550793946,1,0.379770994,1
1.579970598,-5.152013302,1,-2.399855614,1,-7.981007576,1,0.005900777,1,-0.003246561,1,0.005999173,1,0.285467952,1,-0.550810754,1,0.379788846,1
1.58396852,-5.151436329,1,-2.365096092,1,-7.978797436,1,0.003137022,1,-0.005595358,1,0.006037663,1,0.285472482,1,-0.550839007,1,0.37981534,1
1.587967992,-5.168331623,1,-2.353827238,1,-8.006547928,1,0.008262035,1,-0.001585512,1,0.004111617,1,0.285491347,1,-0.550858974,1,0.379825622,1
1.59196949,-5.17869997,1,-2.317613602,1,-8.020987511,1,0.003784349,1,-0.006296169,1,0.002663984,1,0.285504103,1,-0.550875962,1,0.379842341,1
1.595967174,-5.196040154,1,-2.334135532,1,-7.989515305,1,0.004478356,1,-0.004653268,1,0.001791208,1,0.285518795,1,-0.550884962,1,0.379851758,1
1.599966764,-5.214160442,1,-2.310809851,1,-7.979981422,1,0.00326379,1,-0.001162735,1,0.00161284,1,0.285533458,1,-0.550899684,1,0.379854292,1
1.603968263,-5.202614784,1,-2.362845659,1,-7.974263668,1,0.005991552,1,-0.003398535,1,0.001917154,1,0.285549045,1,-0.55091095,1,0.379865527,1
1.607965946,-5.209730148,1,-2.385884762,1,-7.985962391,1,0.010745365,1,-0.000156421,1,0.000649251,1,0.285576671,1,-0.550919414,1,0.379873276,1
1.611965418,-5.226123333,1,-2.3337152,1,-8.016907692,1,0.007981976,1,0.000174456,1,-0.00111017,1,0.285606891,1,-0.550928056,1,0.379869282,1
1.615967751,-5.19841671,1,-2.352260113,1,-7.993071079,1,0.005385859,1,-0.000963836,1,-0.002037135,1,0.285636187,1,-0.550932467,1,0.379865229,1
1.619965911,-5.198551178,1,-2.373975039,1,-8.006878853,1,0.003662498,1,0.001211715,1,-0.003624849,1,0.285663247,1,-0.550929964,1,0.379855305,1
1.623965383,-5.196140766,1,-2.362638712,1,-7.981621265,1,0.005287976,1,-0.002123914,1,-0.001824564,1,0.285688341,1,-0.550923288,1,0.379841864,1
1.627967238,-5.181277275,1,-2.393067122,1,-7.982182026,1,0.008499323,1,-0.001606791,1,-0.002718325,1,0.285715878,1,-0.550920427,1,0.379839242,1
1.631964922,-5.176662922,1,-2.33067441,1,-8.007343292,1,0.004016889,1,-0.000446868,1,-0.004012114,1,0.285751194,1,-0.550915003,1,0.379824638,1
1.635964394,-5.174914837,1,-2.39181447,1,-8.00845623,1,0.003021428,1,0.002662345,1,-0.002972438,1,0.285776615,1,-0.550899446,1,0.379812896,1
1.639966011,-5.194179535,1,-2.375091791,1,-7.975824833,1,0.005477843,1,0.002147729,1,-0.001370903,1,0.285800964,1,-0.550893009,1,0.379805833,1
1.643963695,-5.194245815,1,-2.354140043,1,-8.002283096,1,0.004200157,1,0.003278424,1,-0.005226484,1,0.285833716,1,-0.550887644,1,0.379790634,1
1.647963405,-5.162560463,1,-2.365987062,1,-7.983790398,1,0.003659094,1,-0.000412837,1,-0.003525553,1,0.285862148,1,-0.5508762,1,0.379781157,1
1.651964903,-5.195035934,1,-2.324018717,1,-7.987636566,1,0.006032051,1,0.001553037,1,-0.004145549,1,0.285898,1,-0.550867438,1,0.379765123,1
1.655962586,-5.191351414,1,-2.383956194,1,-8.002202988,1,0.0057773,1,-0.000872232,1,-0.004852036,1,0.285935521,1,-0.550857365,1,0.379749954,1
1.659962416,-5.190005302,1,-2.391335011,1,-8.01872921,1,0.009296903,1,0.002417441,1,-0.003440151,1,0.285973966,1,-0.550843835,1,0.379729599,1
1.663964152,-5.174124718,1,-2.356350183,1,-8.034219742,1,0.00910609,1,0.002039314,1,-0.004086654,1,0.286012799,1,-0.550831914,1,0.37971279,1
1.667961836,-5.180339813,1,-2.361427546,1,-8.006556511,1,0.00424255,1,0.003344988,1,-0.004959165,1,0.286049426,1,-0.550820172,1,0.379690707,1
1.671961308,-5.173698425,1,-2.373118162,1,-8.044370651,1,0.008342492,1,0.00018965,1,-0.006254087,1,0.286088049,1,-0.550819159,1,0.379665732,1
1.675962925,-5.175621033,1,-2.376538038,1,-8.005970001,1,0.006796419,1,0.004394431,1,-0.004277332,1,0.28613472,1,-0.550811529,1,0.379644036,1
1.679960847,-5.200264454,1,-2.36716342,1,-7.991969109,1,0.005898592,1,0.000469858,1,-0.005750927,1,0.286166549,1,-0.550800741,1,0.379617989,1
1.683966517,-5.205518246,1,-2.366970062,1,-8.029278755,1,0.00963228,1,0.000537882,1,-0.007910335,1,0.286205828,1,-0.55079484,1,0.379593939,1
1.687968016,-5.166167259,1,-2.358079433,1,-7.997885704,1,0.007946325,1,-0.003665648,1,-0.00643787,1,0.286266923,1,-0.550866127,1,0.380115211,1
1.691965938,-5.150565147,1,-2.340849638,1,-8.015490532,1,0.006757317,1,-0.00388477,1,-0.007331666,1,0.286321014,1,-0.550876141,1,0.38007915,1
1.695965409,-5.13322258,1,-2.35832572,1,-8.048957825,1,0.01005549,1,-0.008457253,1,-0.004802486,1,0.286376446,1,-0.550885797,1,0.380045712,1
1.699967027,-5.185350418,1,-2.332304001,1,-8.021160126,1,0.010621344,1,-0.00611383,1,-0.007977083,1,0.286429107,1,-0.550903559,1,0.380010664,1
1.70396471,-5.176707268,1,-2.344163418,1,-7.983063698,1,0.012230327,1,-0.004400429,1,-0.006250482,1,0.286497831,1,-0.550928295,1,0.379964471,1
1.707964182,-5.170453072,1,-2.37135911,1,-7.973864079,1,0.013082158,1,-0.007299517,1,-0.005714034,1,0.286569953,1,-0.550945938,1,0.379922867,1
1.711965919,-5.166326523,1,-2.35863781,1,-8.000707626,1,0.012248567,1,-0.011179738,1,-0.006877249,1,0.286633968,1,-0.550966024,1,0.379878581,1
1.715963602,-5.211170673,1,-2.391756058,1,-7.995877266,1,0.011543208,1,-0.00758898,1,-0.007319197,1,0.286700845,1,-0.550988674,1,0.379836977,1
1.719963193,-5.172593117,1,-2.375298977,1,-7.987804413,1,0.010955686,1,-0.005002381,1,-0.006792356,1,0.286760658,1,-0.551011205,1,0.379791617,1
1.72396493,-5.206306934,1,-2.399006367,1,-7.961227894,1,0.014262247,1,-0.005444794,1,-0.006760755,1,0.286825538,1,-0.551028311,1,0.37975055,1
1.727962613,-5.183214664,1,-2.426044941,1,-7.996278286,1,0.008642509,1,-0.006635468,1,-0.005681055,1,0.286888361,1,-0.551042676,1,0.379712999,1
1.731962085,-5.196412563,1,-2.399270773,1,-7.951834679,1,0.005761305,1,-0.005009226,1,-0.00499232,1,0.286937594,1,-0.551059365,1,0.379674971,1
1.735963941,-5.202529907,1,-2.359065533,1,-7.96498394,1,0.00230006,1,-0.003306855,1,-0.007875361,1,0.286976218,1,-0.551070631,1,0.379645586,1
1.739961624,-5.190749645,1,-2.348231792,1,-7.9609375,1,0.006123113,1,-0.004993405,1,-0.006410567,1,0.287016153,1,-0.551081538,1,0.37961036,1
1.743961096,-5.197685242,1,-2.350242853,1,-7.975939274,1,0.008469961,1,-0.000759204,1,-0.003265453,1,0.287054062,1,-0.551083744,1,0.379582375,1
1.747962594,-5.20781517,1,-2.374833822,1,-7.980041027,1,0.003139488,1,-0.002032183,1,-0.006155292,1,0.28709358,1,-0.551089823,1,0.379551142,1
1.751960039,-5.206427097,1,-2.37476635,1,-7.955662727,1,0.008133834,1,-2.66E-05,1,-0.008140987,1,0.28712672,1,-0.551083446,1,0.379522383,1
1.755959749,-5.188638687,1,-2.347420454,1,-7.973181725,1,0.004969382,1,-0.0003359,1,-0.008198907,1,0.287163377,1,-0.551075041,1,0.379486442,1
1.759961367,-5.206819534,1,-2.379406929,1,-7.984276295,1,0.006666531,1,-0.000738014,1,-0.00571142,1,0.287206948,1,-0.551077724,1,0.379452765,1
1.76395905,-5.166579723,1,-2.369269371,1,-7.974000454,1,0.007732578,1,0.000974913,1,-0.00582857,1,0.287248075,1,-0.551070035,1,0.379427105,1
1.767958522,-5.204510212,1,-2.366829395,1,-7.978338242,1,0.003699056,1,-0.002667753,1,-0.005758702,1,0.287278533,1,-0.551061511,1,0.379400849,1
1.77196002,-5.175947666,1,-2.388466597,1,-7.988526344,1,0.003627224,1,0.002189311,1,-0.007342563,1,0.287312686,1,-0.551050365,1,0.379372001,1
1.775957704,-5.184819221,1,-2.395363808,1,-7.978420258,1,0.006053814,1,0.002025827,1,-0.005050296,1,0.287344635,1,-0.551037729,1,0.379339397,1
1.779957294,-5.176557541,1,-2.3666749,1,-7.990226746,1,0.006037057,1,0.001806005,1,-0.005584284,1,0.287389636,1,-0.551025391,1,0.379309744,1
1.783958793,-5.189209461,1,-2.401180029,1,-7.997637272,1,0.005560153,1,0.003024451,1,-0.010190081,1,0.287431657,1,-0.551008105,1,0.37927708,1
1.787956476,-5.175598621,1,-2.332235336,1,-8.001300812,1,0.006802405,1,0.003702739,1,-0.003837558,1,0.287474215,1,-0.550991595,1,0.379245758,1
1.791955948,-5.173941135,1,-2.330678701,1,-8.00871563,1,0.006752365,1,0.003113235,1,-0.013556245,1,0.287524223,1,-0.550966263,1,0.379214525,1
1.795957804,-5.193827152,1,-2.353176355,1,-8.004283905,1,0.005802052,1,0.00021245,1,-0.007726091,1,0.287574083,1,-0.550947845,1,0.379174948,1
1.799955726,-5.177824974,1,-2.354254723,1,-7.990379333,1,0.00842024,1,0.006237743,1,-0.009468368,1,0.287617028,1,-0.5509215,1,0.37914145,1
1.803961396,-5.190883636,1,-2.364167929,1,-7.985582352,1,0.007849998,1,0.003890267,1,-0.009355122,1,0.287671685,1,-0.5508973,1,0.379109174,1
1.807963133,-5.177538872,1,-2.358670712,1,-7.985367775,1,0.00658454,1,0.005301248,1,-0.007929668,1,0.28771925,1,-0.550866902,1,0.379072845,1
1.811960816,-5.171417713,1,-2.369891405,1,-7.959979057,1,0.008228055,1,0.001986261,1,-0.00954501,1,0.287765443,1,-0.550839007,1,0.379044741,1
1.815960288,-5.171797276,1,-2.402745485,1,-8.042289734,1,0.005979107,1,0.002782679,1,-0.009258794,1,0.287816107,1,-0.550817728,1,0.379005075,1
1.819961905,-5.216229439,1,-2.399632215,1,-8.023365974,1,0.011095079,1,0.005252322,1,-0.010197848,1,0.287867844,1,-0.550792277,1,0.378966212,1
1.823959589,-5.208255291,1,-2.383176088,1,-7.993576527,1,0.008956099,1,0.001051878,1,-0.006932384,1,0.287922323,1,-0.550765991,1,0.378931046,1
1.827959061,-5.204359531,1,-2.356933117,1,-8.011294365,1,0.009648659,1,0.003415334,1,-0.013166651,1,0.287980497,1,-0.550744236,1,0.378891945,1
1.831960559,-5.221539497,1,-2.379947186,1,-8.021118164,1,0.01280463,1,0.001170686,1,-0.006007858,1,0.288041174,1,-0.550716937,1,0.378848195,1
1.835958242,-5.195913792,1,-2.36269331,1,-8.010807037,1,0.011236714,1,0.00461146,1,-0.010379823,1,0.288111925,1,-0.550701797,1,0.378806114,1
1.839958072,-5.187112331,1,-2.368719339,1,-8.035474777,1,0.014161657,1,0.003456389,1,-0.007871068,1,0.28818053,1,-0.550680697,1,0.378764987,1
1.84395957,-5.233582497,1,-2.379364729,1,-7.974584103,1,0.011749465,1,0.000504924,1,-0.010053094,1,0.288243294,1,-0.550664723,1,0.37872678,1
1.847957015,-5.183665752,1,-2.372806787,1,-7.98150301,1,0.009948093,1,0.002755083,1,-0.005652034,1,0.288303643,1,-0.550643206,1,0.378699005,1
1.851956725,-5.182947159,1,-2.361069679,1,-7.999545574,1,0.015726989,1,0.004585118,1,-0.008922249,1,0.28837496,1,-0.550620198,1,0.378660649,1
1.855958223,-5.217292309,1,-2.306939602,1,-8.029117584,1,0.011707396,1,0.004063705,1,-0.010160174,1,0.288440585,1,-0.550596356,1,0.378623307,1
1.859956026,-5.204721451,1,-2.342750549,1,-7.979620934,1,0.013997623,1,0.004886701,1,-0.013450423,1,0.288519144,1,-0.550571144,1,0.378578663,1
1.863955498,-5.23481369,1,-2.331656694,1,-7.961660385,1,0.013049469,1,0.004082507,1,-0.012484042,1,0.288595617,1,-0.55054009,1,0.37853092,1
1.867956996,-5.198477268,1,-2.317073345,1,-7.959668159,1,0.015384563,1,0.010625664,1,-0.016286243,1,0.288679302,1,-0.550496995,1,0.378485352,1
1.871954918,-5.232644558,1,-2.345435143,1,-7.957679749,1,0.017049909,1,0.005777624,1,-0.010416742,1,0.288771391,1,-0.550451338,1,0.378436327,1
1.875954747,-5.247851372,1,-2.405242682,1,-7.945940495,1,0.017395508,1,0.01282396,1,-0.016085025,1,0.288862824,1,-0.550404608,1,0.378382564,1
1.879956245,-5.179647923,1,-2.377472639,1,-7.967585087,1,0.012174437,1,0.011843687,1,-0.015335543,1,0.288944453,1,-0.550345361,1,0.378337234,1
1.883953929,-5.160104275,1,-2.338558674,1,-7.967905521,1,0.015227252,1,0.011183036,1,-0.017037001,1,0.289037883,1,-0.550284922,1,0.378283858,1
1.887953401,-5.174821854,1,-2.309357643,1,-7.99170208,1,0.020955784,1,0.012149081,1,-0.017297149,1,0.289142609,1,-0.550219178,1,0.378226876,1
1.891955256,-5.211736679,1,-2.266739368,1,-7.968231678,1,0.018747874,1,0.007789633,1,-0.02135187,1,0.289253563,1,-0.550148606,1,0.378156185,1
1.895953178,-5.237635136,1,-2.25656271,1,-7.960287571,1,0.020520799,1,0.011969896,1,-0.022511903,1,0.289381623,1,-0.550082564,1,0.378081858,1
1.899952888,-5.18494606,1,-2.2830441,1,-7.973383904,1,0.027515346,1,0.015690207,1,-0.025253348,1,0.289530963,1,-0.550006986,1,0.377993822,1
1.903954744,-5.147134781,1,-2.308207512,1,-7.97118187,1,0.026458969,1,0.012456305,1,-0.027543787,1,0.2896927,1,-0.549921691,1,0.377896667,1
1.907952428,-5.174906254,1,-2.351519346,1,-7.963955879,1,0.031520963,1,0.013856836,1,-0.028424345,1,0.289877713,1,-0.549838066,1,0.377787769,1
1.9119519,-5.176321983,1,-2.403906822,1,-7.955604553,1,0.031869993,1,0.015818208,1,-0.031756934,1,0.290065199,1,-0.549747288,1,0.377673268,1
1.915953398,-5.175230503,1,-2.379780293,1,-7.967334747,1,0.033080518,1,0.014980039,1,-0.032469321,1,0.290258884,1,-0.549650013,1,0.377546251,1
1.919951081,-5.170196056,1,-2.356975555,1,-7.944998741,1,0.032697741,1,0.020775322,1,-0.035931818,1,0.290458918,1,-0.549548149,1,0.37741828,1
1.92395699,-5.185265541,1,-2.330687761,1,-7.958752632,1,0.03765649,1,0.019096542,1,-0.035505127,1,0.290666133,1,-0.549438357,1,0.377281189,1
1.927958727,-5.192447186,1,-2.310401678,1,-7.960352898,1,0.040589053,1,0.017207703,1,-0.03683864,1,0.290894866,1,-0.549321294,1,0.377138466,1
1.93195653,-5.201441765,1,-2.378413439,1,-7.955209732,1,0.041513339,1,0.022893872,1,-0.036083952,1,0.291126937,1,-0.549200475,1,0.377003431,1
1.935956001,-5.226564407,1,-2.392898083,1,-7.985631466,1,0.042033773,1,0.022825236,1,-0.037856247,1,0.29135251,1,-0.549201727,1,0.376994997,1
1.9399575,-5.21620512,1,-2.38926506,1,-7.952859402,1,0.044047695,1,0.025140373,1,-0.038452543,1,0.291612953,1,-0.549017727,1,0.377316535,1
1.943954945,-5.180400372,1,-2.366723061,1,-7.937342644,1,0.047702845,1,0.029089708,1,-0.042912066,1,0.291879803,1,-0.548866749,1,0.377169669,1
1.947954655,-5.171803474,1,-2.352098465,1,-7.965323925,1,0.050219662,1,0.028142849,1,-0.043131873,1,0.292154849,1,-0.548714757,1,0.377017379,1
1.951956272,-5.201111794,1,-2.354280233,1,-7.967556477,1,0.048704192,1,0.032696228,1,-0.047472607,1,0.292442203,1,-0.548541546,1,0.376853645,1
1.955954194,-5.208586216,1,-2.357862949,1,-7.932052612,1,0.051473144,1,0.033700045,1,-0.049628623,1,0.292735398,1,-0.548363566,1,0.376682252,1
1.959953904,-5.22087574,1,-2.396382093,1,-7.939678192,1,0.05262183,1,0.036737673,1,-0.051509954,1,0.293036044,1,-0.548161805,1,0.376501083,1
1.963955402,-5.241547585,1,-2.419646263,1,-7.975115776,1,0.053833928,1,0.0347098,1,-0.054070786,1,0.293342412,1,-0.547963381,1,0.376321405,1
1.967953205,-5.194269657,1,-2.381794214,1,-7.972441196,1,0.056486171,1,0.043808952,1,-0.056522269,1,0.293659508,1,-0.547744751,1,0.376132965,1
1.971952677,-5.191203594,1,-2.34278965,1,-8.021100044,1,0.057038143,1,0.040304847,1,-0.052554194,1,0.293973833,1,-0.547518909,1,0.375941038,1
1.975954175,-5.164320946,1,-2.295257807,1,-7.991078854,1,0.058726169,1,0.044172265,1,-0.053650837,1,0.29428941,1,-0.547293961,1,0.375756353,1
1.979951859,-5.182731152,1,-2.299097538,1,-8.014101028,1,0.060388457,1,0.040336307,1,-0.057443354,1,0.294632614,1,-0.547070324,1,0.375541627,1
1.983951569,-5.159586906,1,-2.333687544,1,-8.029063225,1,0.062724173,1,0.040484782,1,-0.055460006,1,0.294979513,1,-0.546842873,1,0.375347704,1
1.987953424,-5.161551476,1,-2.479741812,1,-8.010359764,1,0.064301215,1,0.035254776,1,-0.056867678,1,0.295337319,1,-0.546633124,1,0.375149846,1
1.991951108,-5.108166218,1,-2.587720633,1,-7.960083485,1,0.060688417,1,0.036031395,1,-0.05425819,1,0.295692444,1,-0.546427906,1,0.374947757,1
1.99595058,-5.121241093,1,-2.694753408,1,-7.983594894,1,0.059330009,1,0.041172072,1,-0.048126113,1,0.296027541,1,-0.546225607,1,0.374763608,1
1.999952435,-5.103587627,1,-2.74631834,1,-7.999931812,1,0.050186012,1,0.032925684,1,-0.043473724,1,0.296331465,1,-0.546036124,1,0.374608785,1
2.003950119,-5.110936165,1,-2.71807909,1,-8.027050972,1,0.044014581,1,0.027738666,1,-0.034042027,1,0.296589941,1,-0.545864284,1,0.374472648,1
2.007949591,-5.104179859,1,-2.717915773,1,-8.026759148,1,0.04004813,1,0.030018764,1,-0.034993511,1,0.296813726,1,-0.545714438,1,0.374356151,1
2.011951447,-5.082623959,1,-2.772974014,1,-8.034404755,1,0.035050407,1,0.027488183,1,-0.023142617,1,0.297006071,1,-0.545568407,1,0.374269962,1
2.015949011,-5.087875366,1,-2.749139547,1,-8.061320305,1,0.024744472,1,0.022382405,1,-0.019536514,1,0.297143281,1,-0.545438528,1,0.37421298,1
2.019948721,-5.07370615,1,-2.780363083,1,-8.054048538,1,0.010956062,1,0.024333173,1,-0.010389742,1,0.29722929,1,-0.545326531,1,0.374172121,1
2.023950338,-5.107161045,1,-2.742779016,1,-8.058739662,1,0.005398215,1,0.022821741,1,-0.003723408,1,0.297275841,1,-0.54522717,1,0.374163389,1
2.027947664,-5.140011787,1,-2.718986511,1,-8.057859421,1,-0.000311839,1,0.017823245,1,-0.002050814,1,0.297273338,1,-0.545147061,1,0.374180883,1
2.031947374,-5.105888844,1,-2.635592222,1,-8.100207329,1,-0.008694834,1,0.014959424,1,0.001468534,1,0.297254562,1,-0.545078456,1,0.374192536,1
2.035948753,-5.070347309,1,-2.573926687,1,-8.075824738,1,-0.009366903,1,0.0179087,1,0.004392869,1,0.297201276,1,-0.545019329,1,0.374233305,1
2.039946556,-5.070935249,1,-2.502492428,1,-8.070612907,1,-0.013875447,1,0.007470576,1,0.000928449,1,0.297138363,1,-0.544966877,1,0.374266177,1
2.043952465,-5.108474255,1,-2.460014105,1,-8.05741787,1,-0.012291702,1,0.009741826,1,0.006119078,1,0.297073185,1,-0.544923902,1,0.374297559,1
2.047954082,-5.075706959,1,-2.39708972,1,-8.054204941,1,-0.007197451,1,0.005166823,1,0.000315025,1,0.297021091,1,-0.544898748,1,0.374330401,1
2.051952124,-5.109902382,1,-2.365087748,1,-8.090738297,1,-0.006032897,1,0.003424349,1,0.001903377,1,0.296982318,1,-0.544877052,1,0.374346733,1
2.055951595,-5.092894554,1,-2.328592539,1,-8.0629282,1,-0.001979829,1,0.004298069,1,-0.003753169,1,0.296969444,1,-0.54486537,1,0.374337733,1
2.059953213,-5.09472847,1,-2.344755411,1,-8.036473274,1,-0.002911672,1,-0.000652588,1,-0.004879375,1,0.29697603,1,-0.544855177,1,0.37432012,1
2.063950777,-5.111261845,1,-2.380843163,1,-8.029651642,1,-1.59E-05,1,-0.005777034,1,-0.004507825,1,0.296988666,1,-0.544850886,1,0.374297142,1
2.067950249,-5.095737457,1,-2.434060335,1,-8.019057274,1,0.002466048,1,-0.001850739,1,-0.00910484,1,0.297017038,1,-0.544848144,1,0.374263644,1
2.071951866,-5.137611389,1,-2.42915988,1,-8.015993118,1,0.006176192,1,-0.002575324,1,-0.005215626,1,0.29705584,1,-0.544855177,1,0.374225497,1
2.075949669,-5.097003937,1,-2.433329821,1,-8.051478386,1,0.007474393,1,-0.005256734,1,-0.009821298,1,0.297105759,1,-0.544856548,1,0.374180824,1
2.079949141,-5.083383083,1,-2.438039541,1,-8.034808159,1,0.008972663,1,-0.009556765,1,-0.006964458,1,0.297171503,1,-0.544869781,1,0.374126971,1
2.083950758,-5.096930981,1,-2.456187487,1,-8.026439667,1,0.009579527,1,-0.010345273,1,-0.006901512,1,0.297229826,1,-0.544893146,1,0.374084055,1
2.087948561,-5.087373734,1,-2.462542057,1,-7.982461452,1,0.010527896,1,-0.01336783,1,-0.011555655,1,0.297301114,1,-0.544924557,1,0.374023438,1
2.091948032,-5.129661083,1,-2.452752352,1,-7.961862564,1,0.010173256,1,-0.011216887,1,-0.004178182,1,0.297364235,1,-0.544965148,1,0.37396884,1
2.095949888,-5.13532877,1,-2.496164322,1,-8.030212402,1,0.011505728,1,-0.009495907,1,-0.008463396,1,0.297425985,1,-0.544994175,1,0.373928368,1
2.099947453,-5.133066654,1,-2.559934139,1,-7.960278988,1,0.008782438,1,-0.009666533,1,-0.000379112,1,0.297483176,1,-0.545030296,1,0.373893589,1
2.103946924,-5.144917965,1,-2.59163475,1,-7.954981804,1,0.001782324,1,-0.009226997,1,-0.001532403,1,0.297515631,1,-0.545064867,1,0.373870105,1
2.107948542,-5.144910336,1,-2.53011322,1,-7.995907784,1,0.000825494,1,-0.01008425,1,0.000985795,1,0.297526628,1,-0.545096338,1,0.37386179,1
2.111946344,-5.14008522,1,-2.546141863,1,-7.962517262,1,-0.000149318,1,-0.003307304,1,0.002362834,1,0.297531068,1,-0.545127213,1,0.373862028,1
2.115946054,-5.145334244,1,-2.56698513,1,-7.955456734,1,-0.005098016,1,-0.005490137,1,0.004414189,1,0.297512352,1,-0.545152009,1,0.373874128,1
2.119947433,-5.115124226,1,-2.549823761,1,-7.969432831,1,-0.006390414,1,-0.006291135,1,0.007530695,1,0.297482669,1,-0.545175552,1,0.37389648,1
2.123945236,-5.13038969,1,-2.565416574,1,-7.974562645,1,-0.007818094,1,-0.004620644,1,0.00955632,1,0.297439754,1,-0.54520911,1,0.373925865,1
2.127944946,-5.141178608,1,-2.524826288,1,-7.984755993,1,-0.01239857,1,-0.004868663,1,0.009138673,1,0.297379434,1,-0.545229852,1,0.373961449,1
2.131946564,-5.180201054,1,-2.561704874,1,-7.956917763,1,-0.012563406,1,-0.003509237,1,0.011875642,1,0.29730314,1,-0.54525584,1,0.37401256,1
2.13594389,-5.156903744,1,-2.545777559,1,-7.987103939,1,-0.016621858,1,-0.002563682,1,0.014595463,1,0.297226459,1,-0.545283973,1,0.374060333,1
2.1399436,-5.164173126,1,-2.54573679,1,-7.950971603,1,-0.016659757,1,-0.002964612,1,0.018296216,1,0.297121227,1,-0.545302689,1,0.374130249,1
2.143945217,-5.160796642,1,-2.550100327,1,-7.959605694,1,-0.022673272,1,0.002056693,1,0.017002892,1,0.297001719,1,-0.545323253,1,0.374215126,1
2.147943258,-5.140004158,1,-2.579925776,1,-7.969744205,1,-0.022543918,1,0.002390554,1,0.024945784,1,0.296869457,1,-0.545348942,1,0.374309063,1
2.151942968,-5.158033371,1,-2.55816412,1,-7.953973293,1,-0.023635454,1,0.003307542,1,0.024061207,1,0.296714664,1,-0.54536593,1,0.374419659,1
2.155944347,-5.138195038,1,-2.557093143,1,-7.991735458,1,-0.026964303,1,-0.000573581,1,0.025417954,1,0.296558142,1,-0.545385003,1,0.374531329,1
2.15994215,-5.106730938,1,-2.526620865,1,-8.033401489,1,-0.031169143,1,0.000334677,1,0.022548743,1,0.296396852,1,-0.545405686,1,0.374638319,1
2.163947821,-5.087478638,1,-2.488758802,1,-8.013604164,1,-0.029443495,1,0.000705214,1,0.026194479,1,0.29621464,1,-0.545431018,1,0.374751627,1
2.1679492,-5.11952734,1,-2.47582221,1,-8.019618034,1,-0.031147929,1,0.002471971,1,0.02611291,1,0.296032786,1,-0.545458019,1,0.374872625,1
2.171947002,-5.120273113,1,-2.480195761,1,-8.064134598,1,-0.029750407,1,-0.002966724,1,0.021642264,1,0.29585582,1,-0.545491219,1,0.3749865,1
2.175946474,-5.106599331,1,-2.450762987,1,-8.035803795,1,-0.029140549,1,-0.002808891,1,0.027212031,1,0.295672774,1,-0.545527518,1,0.375097096,1
2.17994833,-5.103471279,1,-2.471094131,1,-8.020576477,1,-0.030258168,1,0.002088909,1,0.026357118,1,0.295505881,1,-0.545567632,1,0.37520653,1
2.183946133,-5.111787319,1,-2.45264554,1,-8.03810215,1,-0.026646132,1,-0.006276597,1,0.024379119,1,0.29533872,1,-0.545616686,1,0.375315189,1
2.187945843,-5.117477417,1,-2.449159384,1,-8.043395042,1,-0.027011544,1,-0.003799781,1,0.02920904,1,0.295304418,1,-0.545687914,1,0.375734389,1
2.19194746,-5.093278408,1,-2.474892855,1,-8.033536911,1,-0.022931648,1,-0.006343422,1,0.026166175,1,0.295134634,1,-0.545750618,1,0.375843555,1
2.195945501,-5.102490902,1,-2.473822117,1,-8.050165176,1,-0.02920462,1,-0.010283152,1,0.027179126,1,0.294977903,1,-0.545806587,1,0.375943959,1
2.199944973,-5.115106583,1,-2.457474947,1,-8.06454277,1,-0.02694984,1,-0.012310088,1,0.020496674,1,0.294823945,1,-0.545878649,1,0.376040429,1
2.203946829,-5.120741367,1,-2.457407713,1,-8.034629822,1,-0.025660692,1,-0.011109825,1,0.025212076,1,0.294664979,1,-0.545956612,1,0.376141667,1
2.207944393,-5.11835146,1,-2.426118374,1,-8.02597332,1,-0.027139122,1,-0.020207433,1,0.027734887,1,0.294524759,1,-0.546049178,1,0.376227498,1
2.211944103,-5.105359077,1,-2.406056643,1,-8.035344124,1,-0.025761763,1,-0.017179647,1,0.024524074,1,0.294374108,1,-0.546145141,1,0.376313657,1
2.215945959,-5.107859135,1,-2.440556288,1,-8.051066399,1,-0.023306068,1,-0.020868586,1,0.025148898,1,0.294234335,1,-0.546248555,1,0.376391292,1
2.219943762,-5.099236488,1,-2.446518421,1,-8.008910179,1,-0.025136391,1,-0.020515515,1,0.022904884,1,0.294100791,1,-0.546372175,1,0.376475513,1
2.223943472,-5.141945362,1,-2.448809624,1,-8.018774986,1,-0.026664741,1,-0.022957556,1,0.028115641,1,0.293965459,1,-0.546482205,1,0.376551926,1
2.227945328,-5.121564865,1,-2.448713303,1,-8.013660431,1,-0.021081559,1,-0.02434683,1,0.02306921,1,0.293837816,1,-0.54660511,1,0.376633227,1
2.231942892,-5.130371571,1,-2.418536901,1,-7.964704037,1,-0.022597626,1,-0.027247207,1,0.023086604,1,0.29371503,1,-0.546726227,1,0.376696289,1
2.235942602,-5.188771725,1,-2.358968496,1,-7.955533028,1,-0.021152405,1,-0.024376288,1,0.024021607,1,0.293584913,1,-0.54685086,1,0.376766741,1
2.239944458,-5.162792683,1,-2.285985947,1,-7.972489834,1,-0.019237557,1,-0.021400001,1,0.023851305,1,0.293467343,1,-0.546971083,1,0.376841307,1
2.243942499,-5.177043438,1,-2.286949396,1,-7.96121788,1,-0.01498599,1,-0.022054695,1,0.021644287,1,0.293350697,1,-0.547076225,1,0.376914501,1
2.247941971,-5.177001476,1,-2.252234697,1,-7.948749542,1,-0.012026804,1,-0.019275971,1,0.013425109,1,0.293267846,1,-0.547178209,1,0.376959413,1
2.25194335,-5.179511547,1,-2.289916039,1,-7.938322067,1,-0.011007052,1,-0.019456426,1,0.013671282,1,0.293196201,1,-0.547270894,1,0.377003521,1
2.255941153,-5.219637394,1,-2.364328146,1,-7.931231976,1,-0.009445194,1,-0.019344579,1,0.011504847,1,0.293141127,1,-0.547352433,1,0.37703684,1
2.259940624,-5.164056301,1,-2.396220207,1,-7.933049202,1,-0.00573488,1,-0.011039129,1,0.011690033,1,0.293092072,1,-0.547420025,1,0.377071857,1
2.263942242,-5.175209999,1,-2.390513182,1,-7.959945679,1,-0.010160795,1,-0.010428669,1,0.009438508,1,0.293047786,1,-0.547475517,1,0.377101004,1
2.267940044,-5.188558578,1,-2.421687603,1,-7.944396496,1,-0.00785475,1,-0.014679449,1,0.014227756,1,0.29299432,1,-0.547537684,1,0.377139598,1
2.271939516,-5.192941189,1,-2.451586962,1,-7.920871258,1,-0.009818226,1,-0.005999739,1,0.013885696,1,0.292948961,1,-0.547586799,1,0.377178133,1
2.275941372,-5.174499512,1,-2.467057705,1,-7.935593605,1,-0.004399374,1,-0.006277807,1,0.012306352,1,0.292900801,1,-0.547637463,1,0.377222776,1
2.279939413,-5.147153378,1,-2.421213388,1,-7.952672958,1,-0.005031921,1,-0.011053458,1,0.012801287,1,0.292856336,1,-0.547685742,1,0.377269089,1
2.283944845,-5.188945293,1,-2.3750422,1,-7.950588703,1,0.005057093,1,-0.007524335,1,0.011843328,1,0.292821944,1,-0.547727704,1,0.377312362,1
2.287946701,-5.156782627,1,-2.319810629,1,-7.935551643,1,-0.002580097,1,-0.006731197,1,0.008760693,1,0.292803407,1,-0.547766209,1,0.377352595,1
2.291944742,-5.205232143,1,-2.294487,1,-7.963260174,1,0.004322446,1,-0.007925522,1,0.00937629,1,0.292788059,1,-0.547796786,1,0.377389967,1
2.295944214,-5.245371342,1,-2.316666126,1,-7.972194672,1,0.004008769,1,-0.002936201,1,0.003134799,1,0.292792082,1,-0.547823668,1,0.377410352,1
2.29994607,-5.190213203,1,-2.357592583,1,-7.921527863,1,0.005123165,1,-0.004796802,1,0.002016355,1,0.292810053,1,-0.547839701,1,0.377420366,1
2.303943634,-5.185307026,1,-2.375375748,1,-7.921758652,1,0.005476662,1,0.002481277,1,0.00242564,1,0.29282856,1,-0.547848105,1,0.377430111,1
2.307943344,-5.212460995,1,-2.396056652,1,-7.934325695,1,0.007960806,1,0.00352655,1,0.00370656,1,0.292841226,1,-0.547849834,1,0.377451748,1
2.311944962,-5.161740303,1,-2.43154335,1,-7.935036659,1,0.005710397,1,0.009161122,1,0.001836692,1,0.292867124,1,-0.547830284,1,0.377470732,1
2.315942764,-5.220199585,1,-2.408025265,1,-7.937937737,1,0.005399571,1,0.009581989,1,0.001062544,1,0.292891383,1,-0.547800899,1,0.377484292,1
2.319942236,-5.204452038,1,-2.42234087,1,-7.952689648,1,0.005289325,1,0.011830056,1,0.00411736,1,0.29289189,1,-0.547764957,1,0.377512544,1
2.323943615,-5.1804142,1,-2.410685778,1,-7.968998909,1,0.002921788,1,0.015092991,1,0.004442843,1,0.292905301,1,-0.547717094,1,0.377531648,1
2.327941418,-5.195146561,1,-2.427817106,1,-7.971913338,1,0.002302223,1,0.015286535,1,-0.004185176,1,0.292912543,1,-0.547653973,1,0.377553761,1
2.331940889,-5.186664581,1,-2.411771774,1,-8.018205643,1,0.003631071,1,0.013511546,1,-0.000201588,1,0.292915285,1,-0.54759562,1,0.377567381,1
2.335942745,-5.151719093,1,-2.456874371,1,-8.04010582,1,0.003311728,1,0.016332276,1,-0.000691979,1,0.292915404,1,-0.54753387,1,0.377585083,1
2.339940548,-5.128469944,1,-2.391777754,1,-8.004403114,1,0.003534335,1,0.018544294,1,-0.001606465,1,0.292916834,1,-0.547471523,1,0.377604544,1
2.34394002,-5.155956745,1,-2.410144567,1,-8.019782066,1,0.000521649,1,0.020957215,1,0.00101721,1,0.292918026,1,-0.547403276,1,0.377625793,1
2.347941637,-5.156860828,1,-2.416546345,1,-7.999700069,1,0.006431045,1,0.014121151,1,-0.007039964,1,0.292921603,1,-0.547335565,1,0.377633542,1
2.35193944,-5.166546345,1,-2.417665958,1,-7.997627735,1,0.003469695,1,0.022214282,1,-0.001911908,1,0.292934179,1,-0.547253966,1,0.377639055,1
2.355938911,-5.157849789,1,-2.435996532,1,-7.96620512,1,0.004226476,1,0.017484214,1,-0.004273308,1,0.292940587,1,-0.547179461,1,0.377649099,1
2.35994029,-5.148396015,1,-2.466532946,1,-8.020384789,1,0.003394929,1,0.019751035,1,-0.003061962,1,0.292949557,1,-0.547106504,1,0.37766391,1
2.363938093,-5.126327515,1,-2.513927698,1,-8.03321743,1,0.003298584,1,0.016971834,1,-0.003659228,1,0.292958856,1,-0.547029316,1,0.377674431,1
2.367937565,-5.1317029,1,-2.501447201,1,-8.042887688,1,0.000249273,1,0.018108679,1,0.000329896,1,0.292952955,1,-0.546967387,1,0.37768665,1
2.371939421,-5.141591549,1,-2.524181128,1,-8.03630352,1,-0.002493897,1,0.011145517,1,-0.001483048,1,0.292934,1,-0.546903908,1,0.377703905,1
2.375936985,-5.122358799,1,-2.503735781,1,-8.049614906,1,-0.003019208,1,0.012919635,1,-0.002469476,1,0.292916089,1,-0.546861708,1,0.377728224,1
2.379936457,-5.143522739,1,-2.480956793,1,-8.043745995,1,-0.010393279,1,0.012878252,1,0.004976667,1,0.292876422,1,-0.546811581,1,0.377756566,1
2.383938313,-5.140164852,1,-2.425461054,1,-8.024675369,1,-0.00665514,1,0.005883066,1,0.001257853,1,0.292834967,1,-0.546774626,1,0.377789438,1
2.387936115,-5.13691473,1,-2.397072077,1,-8.009984016,1,-0.007667579,1,0.008208256,1,0.006993624,1,0.292793751,1,-0.546742797,1,0.377826005,1
2.391935587,-5.136223793,1,-2.397230864,1,-8.01782608,1,-0.003631425,1,0.008296922,1,0.00616546,1,0.29274556,1,-0.546715319,1,0.377863884,1
2.395937204,-5.139116764,1,-2.370970488,1,-8.033222198,1,-0.008594487,1,0.00564975,1,0.003865968,1,0.292706072,1,-0.546688735,1,0.377902716,1
2.399935007,-5.183946609,1,-2.383112669,1,-8.020225525,1,-0.002968442,1,0.007611703,1,0.003923114,1,0.292671859,1,-0.546668112,1,0.377927601,1
2.403934717,-5.162639141,1,-2.391100168,1,-8.002461433,1,-0.002678816,1,0.008587474,1,0.005506177,1,0.29264313,1,-0.546649337,1,0.377961874,1
2.407942295,-5.164894581,1,-2.379126549,1,-7.987934589,1,0.001379434,1,0.00572883,1,-0.00088761,1,0.292632103,1,-0.546634078,1,0.377988935,1
2.411946297,-5.167089939,1,-2.387210608,1,-7.973112583,1,0.001502392,1,0.003625345,1,0.005507216,1,0.292627782,1,-0.546616733,1,0.378000647,1
2.415946245,-5.184710026,1,-2.384947538,1,-7.994682312,1,0.003186421,1,0.008838559,1,0.006217011,1,0.29263109,1,-0.546596825,1,0.378025323,1
2.419947863,-5.185866356,1,-2.368232727,1,-7.973673344,1,0.004890209,1,0.011552336,1,0.000809017,1,0.292631447,1,-0.546566546,1,0.378054976,1
2.423945189,-5.155573845,1,-2.315575123,1,-7.977796555,1,0.004705297,1,0.007937463,1,0.005949478,1,0.292650998,1,-0.546528935,1,0.378073514,1
2.427944899,-5.149768353,1,-2.321125746,1,-8.02182579,1,0.00731772,1,0.008646227,1,-0.003262424,1,0.29266423,1,-0.546489656,1,0.378091455,1
2.431946516,-5.171294689,1,-2.35095644,1,-8.000349045,1,0.007690443,1,0.007614737,1,-0.004288568,1,0.292708576,1,-0.546450555,1,0.378087074,1
2.435944557,-5.174622536,1,-2.421572685,1,-7.974209785,1,0.011733212,1,0.008609181,1,-0.0042661,1,0.292739272,1,-0.546528578,1,0.378204018,1
2.439944029,-5.159500122,1,-2.418295383,1,-7.991292953,1,0.012689319,1,0.00966955,1,-0.003278522,1,0.292802274,1,-0.546440899,1,0.378662884,1
2.443945408,-5.148856163,1,-2.378976583,1,-7.989722729,1,0.013311598,1,0.01346761,1,-0.007794845,1,0.292870045,1,-0.546384692,1,0.378646255,1
2.447943211,-5.174118519,1,-2.41823101,1,-7.994514465,1,0.015728734,1,0.010795845,1,-0.006341867,1,0.292935967,1,-0.546328306,1,0.378637701,1
2.451942682,-5.14766264,1,-2.389646292,1,-7.997009754,1,0.01511341,1,0.010946478,1,-0.007629581,1,0.293008506,1,-0.546272814,1,0.378617555,1
2.4559443,-5.202124119,1,-2.433655977,1,-7.985528946,1,0.01416784,1,0.017349215,1,-0.006786973,1,0.293075442,1,-0.546213269,1,0.378606915,1
2.459942102,-5.202672958,1,-2.492557764,1,-7.97317791,1,0.017680626,1,0.013856903,1,-0.009461461,1,0.293153048,1,-0.546150625,1,0.378585279,1
2.463941574,-5.146112442,1,-2.49946928,1,-7.965379715,1,0.010192792,1,0.01802225,1,-0.006641516,1,0.293212652,1,-0.546072483,1,0.378571153,1
2.46794343,-5.138516903,1,-2.519872904,1,-7.979474545,1,0.014196321,1,0.01415939,1,-0.005014278,1,0.293263674,1,-0.545997977,1,0.378564864,1
2.471941233,-5.108267307,1,-2.552781582,1,-7.991308689,1,0.006277559,1,0.015536132,1,-0.002371289,1,0.293300569,1,-0.545931637,1,0.37857455,1
2.475940704,-5.142374516,1,-2.579725742,1,-7.965563297,1,0.004409075,1,0.019652948,1,0.002043251,1,0.293318987,1,-0.54586035,1,0.378592551,1
2.479942322,-5.127651215,1,-2.59265399,1,-7.948721409,1,-0.001269658,1,0.017230045,1,0.004399764,1,0.293308914,1,-0.545788884,1,0.378629088,1
2.483940125,-5.123250008,1,-2.556902885,1,-7.957120895,1,-0.004472377,1,0.020751331,1,0.007054279,1,0.293268561,1,-0.5457322,1,0.378675163,1
2.487939596,-5.128495216,1,-2.575015306,1,-7.962526321,1,-0.008956102,1,0.023080271,1,0.007409411,1,0.293200731,1,-0.545665681,1,0.378744036,1
2.491941214,-5.141880035,1,-2.494275331,1,-7.975759506,1,-0.011311625,1,0.01973575,1,0.011923051,1,0.293123364,1,-0.545593858,1,0.37880832,1
2.495938778,-5.174152851,1,-2.479569674,1,-8.032892227,1,-0.015214731,1,0.025096983,1,0.013034768,1,0.29302448,1,-0.545518339,1,0.378899574,1
2.499938488,-5.149637699,1,-2.487722158,1,-7.983281136,1,-0.012551662,1,0.026800938,1,0.01254748,1,0.29291594,1,-0.545443416,1,0.378991932,1
2.503940105,-5.16084671,1,-2.490484953,1,-7.956278324,1,-0.01893276,1,0.022682127,1,0.013402782,1,0.292808533,1,-0.545372367,1,0.379085541,1
2.507937431,-5.110874653,1,-2.461924791,1,-8.01138401,1,-0.018740056,1,0.030063633,1,0.01458887,1,0.292675376,1,-0.545286894,1,0.379177511,1
2.51193738,-5.152357101,1,-2.450219393,1,-8.032834053,1,-0.022099789,1,0.024776731,1,0.016689466,1,0.292536616,1,-0.545210361,1,0.379289925,1
2.515938759,-5.139905453,1,-2.478063345,1,-8.012077332,1,-0.022842299,1,0.027835965,1,0.011984982,1,0.292395085,1,-0.545129657,1,0.379389167,1
2.519936323,-5.168700218,1,-2.417861462,1,-8.035902977,1,-0.022534378,1,0.029998451,1,0.019831231,1,0.292246968,1,-0.545038521,1,0.37949869,1
2.523936033,-5.17054081,1,-2.404101133,1,-7.99539566,1,-0.026677521,1,0.030454859,1,0.010793142,1,0.292087615,1,-0.544948578,1,0.379600406,1
2.527943611,-5.150337696,1,-2.38994813,1,-8.012546539,1,-0.023313049,1,0.03173722,1,0.012588438,1,0.291931063,1,-0.54484731,1,0.3797068,1
2.531947613,-5.177248478,1,-2.354489565,1,-8.017157555,1,-0.021450674,1,0.032676242,1,0.018368622,1,0.291783333,1,-0.54474169,1,0.379814625,1
2.535947323,-5.162967682,1,-2.37748003,1,-8.014066696,1,-0.024100276,1,0.032834753,1,0.012349844,1,0.291634381,1,-0.544633448,1,0.379928917,1
2.539948702,-5.112303257,1,-2.401566267,1,-8.006043434,1,-0.024457544,1,0.031428572,1,0.011917165,1,0.291496813,1,-0.544524014,1,0.380028486,1
2.543946505,-5.098419189,1,-2.42449522,1,-8.015837669,1,-0.022894023,1,0.031946477,1,0.012524959,1,0.29135704,1,-0.544408321,1,0.380126238,1
2.547945976,-5.093500137,1,-2.446658373,1,-8.05936718,1,-0.024201956,1,0.029777959,1,0.017383995,1,0.291215897,1,-0.544304073,1,0.380232066,1
2.551947594,-5.067374229,1,-2.443604946,1,-8.117562294,1,-0.018573824,1,0.029470045,1,0.013986275,1,0.291081488,1,-0.544207811,1,0.380336344,1
2.555945158,-5.070961475,1,-2.454308987,1,-8.114449501,1,-0.019834846,1,0.027891673,1,0.016964355,1,0.29094696,1,-0.544119716,1,0.380437911,1
2.55994463,-5.08063221,1,-2.506146193,1,-8.095339775,1,-0.019997843,1,0.019774426,1,0.020097479,1,0.290805012,1,-0.544051051,1,0.380550086,1
2.563946724,-5.124242783,1,-2.505431414,1,-8.053874016,1,-0.023689849,1,0.013694732,1,0.019663081,1,0.290665805,1,-0.544001341,1,0.380660892,1
2.567944765,-5.083818913,1,-2.544171333,1,-8.091567039,1,-0.029866675,1,0.01609035,1,0.021676309,1,0.290509164,1,-0.54396683,1,0.380780935,1
2.571944237,-5.090049267,1,-2.528788567,1,-8.067214966,1,-0.028407717,1,0.016161362,1,0.026117353,1,0.290334374,1,-0.54393822,1,0.380912602,1
2.575946093,-5.077970982,1,-2.522054672,1,-8.086129189,1,-0.030341277,1,0.012578914,1,0.0310074,1,0.290136874,1,-0.543913722,1,0.381058514,1
2.579943657,-5.115792274,1,-2.46040988,1,-8.085115433,1,-0.031913273,1,0.010856726,1,0.034559801,1,0.28993243,1,-0.543905437,1,0.381216377,1
2.583943129,-5.145140648,1,-2.470999002,1,-8.047739029,1,-0.035359036,1,0.01108778,1,0.036124118,1,0.289706588,1,-0.543901742,1,0.3813833,1
2.587944746,-5.157232285,1,-2.509581566,1,-8.042078972,1,-0.035213362,1,0.010293465,1,0.035541788,1,0.289474905,1,-0.543904126,1,0.381563962,1
2.59194231,-5.246191502,1,-2.400165558,1,-8.08680439,1,-0.046066787,1,0.00921413,1,0.033232227,1,0.289225876,1,-0.543899536,1,0.381734282,1
2.595942259,-5.258942127,1,-2.492223501,1,-8.004754066,1,-0.042786021,1,0.01529459,1,0.035817251,1,0.288964599,1,-0.543894351,1,0.38189739,1
2.599943638,-5.21529007,1,-2.360601664,1,-8.071265221,1,-0.045654844,1,0.02256177,1,0.038011335,1,0.288685322,1,-0.543864369,1,0.382100105,1
2.603941441,-5.133520603,1,-2.354842663,1,-8.093845367,1,-0.043500323,1,0.019213978,1,0.036286905,1,0.288416386,1,-0.543819904,1,0.382289499,1
2.607940912,-5.230595589,1,-2.318374634,1,-8.061585426,1,-0.044231974,1,0.015011588,1,0.033437409,1,0.288143575,1,-0.543793678,1,0.382471591,1
2.611942291,-5.242469788,1,-2.35980773,1,-7.978041172,1,-0.040304877,1,0.018387545,1,0.029129045,1,0.287888318,1,-0.543765008,1,0.382632107,1
2.615940094,-5.166538715,1,-2.43825841,1,-7.926280975,1,-0.043542597,1,0.022143684,1,0.029565992,1,0.28763181,1,-0.543718338,1,0.382799864,1
2.619939804,-5.081790924,1,-2.554187775,1,-7.954516888,1,-0.052255996,1,0.024363492,1,0.029817412,1,0.287364662,1,-0.54366219,1,0.382967472,1
2.623941422,-5.060563087,1,-2.630773544,1,-8.016029358,1,-0.053620324,1,0.023891207,1,0.037171967,1,0.287067235,1,-0.543603182,1,0.383149892,1
2.627938986,-5.028148174,1,-2.547115803,1,-8.033038139,1,-0.061422963,1,0.03245768,1,0.039291181,1,0.286738962,1,-0.543533802,1,0.383354902,1
2.631938934,-5.105706692,1,-2.53853488,1,-8.056012154,1,-0.066091955,1,0.030811485,1,0.041768283,1,0.286371738,1,-0.543463171,1,0.383573413,1
2.635940313,-5.133907318,1,-2.490979195,1,-8.032594681,1,-0.068134695,1,0.033488255,1,0.040783003,1,0.285978258,1,-0.543385029,1,0.383807153,1
2.639938116,-5.228638649,1,-2.422726154,1,-8.015427589,1,-0.073946297,1,0.033516958,1,0.041892804,1,0.285577774,1,-0.54330045,1,0.384037495,1
2.643937826,-5.223990917,1,-2.350921154,1,-8.052010536,1,-0.068862244,1,0.036471717,1,0.037674926,1,0.285180837,1,-0.543216944,1,0.384262174,1
2.647945166,-5.202510834,1,-2.28207469,1,-8.080121994,1,-0.071298882,1,0.03788409,1,0.038452603,1,0.284792483,1,-0.543121397,1,0.384471387,1
2.651949167,-5.144887924,1,-2.274662495,1,-8.032175064,1,-0.06984888,1,0.031554125,1,0.038367175,1,0.28440243,1,-0.543034017,1,0.38468951,1
2.655948877,-4.965219021,1,-2.19376874,1,-7.972872257,1,-0.058726773,1,0.028591238,1,0.036899462,1,0.284043193,1,-0.542965412,1,0.384887338,1
2.659950495,-4.897618294,1,-2.262028694,1,-8.130112648,1,-0.055731442,1,0.02379334,1,0.042575069,1,0.283704817,1,-0.54291451,1,0.385095596,1
2.663948298,-4.815289021,1,-2.236199856,1,-8.277172089,1,-0.04851687,1,0.009755763,1,0.038439728,1,0.283394516,1,-0.542893946,1,0.385289848,1
2.667947769,-4.854961872,1,-2.318660975,1,-8.305346489,1,-0.045587756,1,-0.004385124,1,0.044223711,1,0.283109874,1,-0.542921185,1,0.385486394,1
2.671949625,-4.94054985,1,-2.407453775,1,-8.295749664,1,-0.042892031,1,-0.014173864,1,0.042830765,1,0.282854408,1,-0.542997777,1,0.385662735,1
2.675947189,-4.980696678,1,-2.514611006,1,-8.233890533,1,-0.042276572,1,-0.024949819,1,0.046945252,1,0.28258127,1,-0.543130279,1,0.385839164,1
2.679946661,-5.065496922,1,-2.491355658,1,-8.243397713,1,-0.040375903,1,-0.036330529,1,0.052501462,1,0.282320619,1,-0.543306589,1,0.386023581,1
2.683948278,-5.055213451,1,-2.442369461,1,-8.266137123,1,-0.042934418,1,-0.0484397,1,0.052691728,1,0.282066494,1,-0.543525636,1,0.386207461,1
2.687946081,-4.893447399,1,-2.294350386,1,-8.368954659,1,-0.034720972,1,-0.064212486,1,0.055976741,1,0.281830072,1,-0.543802977,1,0.386368334,1
2.691945791,-4.840223312,1,-2.227421522,1,-8.459032059,1,-0.023008712,1,-0.084507935,1,0.057688482,1,0.281739891,1,-0.54414773,1,0.386856675,1
2.69594717,-4.846382618,1,-2.256886482,1,-8.567371368,1,-0.019652793,1,-0.104304112,1,0.05467217,1,0.281588554,1,-0.544577122,1,0.386985362,1
2.699944973,-4.807304382,1,-2.43493247,1,-8.478824615,1,-0.01140165,1,-0.129314065,1,0.059242085,1,0.281477928,1,-0.545083761,1,0.387089133,1
2.703944683,-4.860206127,1,-2.731630564,1,-8.526665688,1,-0.011287354,1,-0.157425731,1,0.059413329,1,0.281390548,1,-0.545702338,1,0.387169302,1
2.707946539,-4.758817673,1,-2.922526598,1,-8.632369041,1,-0.014487971,1,-0.184926167,1,0.068802066,1,0.281303465,1,-0.546412706,1,0.387233704,1
2.711944103,-4.609525681,1,-2.931866646,1,-8.863632202,1,-0.018765068,1,-0.21822463,1,0.077124968,1,0.281195253,1,-0.547261298,1,0.387292624,1
2.715944052,-4.271856308,1,-2.989978075,1,-9.054697037,1,-0.030192189,1,-0.26247409,1,0.091816984,1,0.281060249,1,-0.548275769,1,0.387368798,1
2.719945431,-4.050427437,1,-2.990978241,1,-9.524236679,1,-0.036217682,1,-0.339913696,1,0.115356512,1,0.280890882,1,-0.549541533,1,0.38743639,1
2.723943472,-3.643619537,1,-3.467861652,1,-9.893342018,1,-0.033698332,1,-0.449492007,1,0.157896265,1,0.28069672,1,-0.551201046,1,0.387531519,1
2.727943182,-3.226541281,1,-4.185770988,1,-10.17001057,1,0.038144417,1,-0.560138166,1,0.264019847,1,0.280543655,1,-0.553373814,1,0.387803376,1
2.731944799,-3.077817917,1,-3.642053604,1,-10.02168655,1,0.08061526,1,-0.646585226,1,0.364380658,1,0.280451208,1,-0.556049943,1,0.38844943,1
2.735942364,-2.850735426,1,-3.850998402,1,-10.84209728,1,0.110025719,1,-0.743418038,1,0.448894978,1,0.280334771,1,-0.559153199,1,0.389380872,1
2.739941835,-1.818125129,1,-4.746250629,1,-11.54393768,1,0.144059077,1,-0.898183763,1,0.556486726,1,0.280197948,1,-0.562826514,1,0.390587687,1
2.743943453,-1.734122515,1,-5.056519032,1,-11.6485281,1,0.206856787,1,-1.13257432,1,0.667610943,1,0.280126214,1,-0.567403734,1,0.3920618,1
2.747941017,-2.545386314,1,-5.270393372,1,-10.66225052,1,0.245268777,1,-1.325224757,1,0.754115403,1,0.280168504,1,-0.572963297,1,0.393684834,1
2.751940489,-3.911617041,1,-5.507405281,1,-11.65901184,1,0.294087082,1,-1.450815558,1,0.801074326,1,0.28029716,1,-0.579156041,1,0.395422041,1
2.755942345,-3.993198156,1,-6.40998888,1,-12.31958389,1,0.292261392,1,-1.544634461,1,0.829852283,1,0.280493259,1,-0.585832238,1,0.397197247,1
2.759940147,-4.661891937,1,-6.005217552,1,-13.01801872,1,0.371237129,1,-1.691509247,1,0.858402371,1,0.28084743,1,-0.592977405,1,0.398943901,1
2.763939619,-5.869935989,1,-7.29074049,1,-12.82156944,1,0.305450052,1,-1.786510944,1,0.888376474,1,0.281272918,1,-0.600667357,1,0.400658429,1
2.767947197,-6.661330223,1,-7.687949181,1,-13.36159515,1,0.222383261,1,-1.941141129,1,0.959968567,1,0.281331003,1,-0.608821452,1,0.402469903,1
2.771951199,-9.468863487,1,-8.579641342,1,-14.45370865,1,0.068214089,1,-2.076963425,1,1.058256388,1,0.280780673,1,-0.617687643,1,0.404452026,1
2.775950909,-7.930445194,1,-9.342535019,1,-13.38285828,1,-0.158170372,1,-2.120422125,1,1.007349849,1,0.279343128,1,-0.626899004,1,0.406553954,1
2.779952526,-7.439317226,1,-8.949502945,1,-13.05477905,1,-0.323911607,1,-2.212888718,1,1.052067518,1,0.277249634,1,-0.636327207,1,0.408465981,1
2.783950329,-8.341771126,1,-9.283827782,1,-13.48369217,1,-0.503794849,1,-2.335044861,1,1.175200939,1,0.27427274,1,-0.64629966,1,0.410688877,1
2.787950039,-11.01063156,1,-11.27535534,1,-14.14701653,1,-0.789596081,1,-2.331900835,1,1.417028427,1,0.269832104,1,-0.656716406,1,0.413809806,1
2.791951895,-9.526408195,1,-12.22777843,1,-13.85532284,1,-1.157475114,1,-2.23639369,1,1.558020949,1,0.26334843,1,-0.667120278,1,0.418066621,1
2.795949459,-10.63450432,1,-12.6091795,1,-14.38245106,1,-1.568937659,1,-2.112959623,1,1.641714454,1,0.254726142,1,-0.67718643,1,0.42313388,1
2.799949408,-9.757128716,1,-11.84152317,1,-15.22055149,1,-1.893495798,1,-1.926491618,1,1.679834366,1,0.244166553,1,-0.686664581,1,0.428878188,1
2.803950787,-12.65992737,1,-8.565275192,1,-17.18602943,1,-2.009882212,1,-1.61244607,1,1.582764149,1,0.232391119,1,-0.695176721,1,0.43496573,1
2.807948589,-13.59303761,1,-6.859046936,1,-19.42101097,1,-1.750098825,1,-1.126103997,1,1.385823488,1,0.220969051,1,-0.701838851,1,0.44091171,1
2.811948299,-9.596517563,1,-6.972764969,1,-19.79019165,1,-1.462841511,1,-0.680224955,1,1.228728533,1,0.210932747,1,-0.706454396,1,0.446560025,1
2.815949917,-4.281099319,1,-7.46300745,1,-19.19704819,1,-1.315569758,1,-0.365811944,1,1.129247665,1,0.20179522,1,-0.70941323,1,0.452086657,1
2.819947481,-0.180514753,1,-8.620105743,1,-16.94633675,1,-1.178553104,1,-0.274364591,1,1.035566092,1,0.193388268,1,-0.711458266,1,0.457343102,1
2.82394743,2.567129135,1,-9.274126053,1,-15.20252895,1,-1.125188708,1,-0.324655026,1,1.046813369,1,0.185503006,1,-0.713383079,1,0.462419331,1
2.827949047,4.280153751,1,-9.084469795,1,-14.29945469,1,-1.158438444,1,-0.427395165,1,1.12030077,1,0.177472949,1,-0.715637207,1,0.467705518,1
2.831947088,5.036023617,1,-8.541283607,1,-13.78677845,1,-1.175734043,1,-0.53258729,1,1.186730623,1,0.169115707,1,-0.718328953,1,0.473300219,1
2.835946798,5.342979431,1,-7.853792667,1,-13.61571217,1,-1.138269067,1,-0.593990922,1,1.224117637,1,0.160626084,1,-0.721350253,1,0.479144901,1
2.839948177,5.580936909,1,-7.217064857,1,-13.72808456,1,-1.050877571,1,-0.622410238,1,1.244584441,1,0.152264506,1,-0.724532604,1,0.485155493,1
2.84394598,5.562621593,1,-6.948061943,1,-13.87742519,1,-0.939131379,1,-0.599677145,1,1.245377421,1,0.144221917,1,-0.727698505,1,0.491259336,1
2.847945452,5.550360203,1,-7.018657207,1,-14.00759888,1,-0.832740664,1,-0.515580058,1,1.207944751,1,0.136616692,1,-0.730605364,1,0.497356921,1
2.851947308,5.929276943,1,-7.21983242,1,-13.94846058,1,-0.741718233,1,-0.393565536,1,1.146917105,1,0.129492149,1,-0.733035505,1,0.503317654,1
2.855944872,6.746474743,1,-7.390768528,1,-13.56300926,1,-0.68692255,1,-0.267831922,1,1.08203721,1,0.122798286,1,-0.734906554,1,0.509050012,1
2.859944344,7.947663307,1,-7.408200741,1,-12.93970013,1,-0.656353295,1,-0.157410532,1,1.024166465,1,0.116426833,1,-0.736240506,1,0.514551401,1
2.863946199,9.568782806,1,-7.231957912,1,-12.40127659,1,-0.642481863,1,-0.09136904,1,0.980901062,1,0.110274337,1,-0.737176538,1,0.51984936,1
2.867944002,10.85281754,1,-6.781095505,1,-12.00715542,1,-0.612131357,1,-0.068597846,1,0.956361234,1,0.104305707,1,-0.737901449,1,0.525007129,1
2.871943474,11.58490181,1,-6.253092766,1,-11.86203289,1,-0.539108515,1,-0.062445603,1,0.935868382,1,0.098582603,1,-0.738544226,1,0.530068159,1
2.87594533,11.75857258,1,-5.781855106,1,-11.76365089,1,-0.430026174,1,-0.060386769,1,0.910418987,1,0.093315259,1,-0.73914355,1,0.535001636,1
2.879943132,11.57789707,1,-5.325871944,1,-11.82285213,1,-0.275384605,1,-0.037568793,1,0.862843454,1,0.088690579,1,-0.739670753,1,0.539761364,1
2.883942842,11.09794235,1,-5.230273247,1,-12.02526093,1,-0.10583283,1,0.014586389,1,0.795798838,1,0.084891535,1,-0.740023434,1,0.544250429,1
2.887950659,10.24248219,1,-5.212309837,1,-12.39254761,1,0.071258895,1,0.108946323,1,0.692209482,1,0.082081035,1,-0.740039825,1,0.54831928,1
2.891954184,9.356019974,1,-5.335057259,1,-12.79887104,1,0.237063989,1,0.253341734,1,0.55752188,1,0.080368094,1,-0.739540219,1,0.551782131,1
2.895953894,8.681362152,1,-5.518507957,1,-13.04175377,1,0.384854913,1,0.443202496,1,0.38848263,1,0.079779722,1,-0.738316655,1,0.554497957,1
2.899955511,8.096487999,1,-5.630494595,1,-13.35182858,1,0.494419605,1,0.664452791,1,0.196559623,1,0.080314122,1,-0.736222625,1,0.556317508,1
2.903952837,8.02879715,1,-5.730210781,1,-13.50671959,1,0.604006112,1,0.892956138,1,-0.007108844,1,0.081951261,1,-0.733141065,1,0.55716455,1
2.907952309,8.247434616,1,-5.600623608,1,-13.58791351,1,0.676818848,1,1.105726123,1,-0.217990443,1,0.084618069,1,-0.729109704,1,0.55701679,1
2.911953926,8.401564598,1,-5.277525425,1,-13.57837677,1,0.748565257,1,1.296051383,1,-0.439686477,1,0.088272229,1,-0.724202573,1,0.555810928,1
2.915951729,8.644020081,1,-4.834616184,1,-13.43209457,1,0.818462908,1,1.46374464,1,-0.650710523,1,0.092876852,1,-0.718506336,1,0.553588212,1
2.9199512,8.832539558,1,-4.435866356,1,-13.2036705,1,0.893548429,1,1.592417598,1,-0.841599405,1,0.098380953,1,-0.712128699,1,0.55042094,1
2.923952579,8.819418907,1,-4.057482719,1,-12.96850491,1,0.95825696,1,1.708388925,1,-1.019554734,1,0.104706451,1,-0.705179513,1,0.546414435,1
2.927950382,8.716616631,1,-3.73293376,1,-12.80029774,1,1.019884586,1,1.802968621,1,-1.178894281,1,0.111743785,1,-0.697712719,1,0.54166925,1
2.931950092,8.511398315,1,-3.498478651,1,-12.61910439,1,1.058910847,1,1.882390022,1,-1.32509768,1,0.119338341,1,-0.689810812,1,0.536301076,1
2.93595171,8.116018295,1,-3.221679211,1,-12.45120907,1,1.089616656,1,1.960289836,1,-1.449830651,1,0.127374724,1,-0.681495428,1,0.530406594,1
2.939949274,7.557424545,1,-2.99053812,1,-12.41062069,1,1.116928101,1,2.04248023,1,-1.571017027,1,0.135796279,1,-0.672724783,1,0.524392664,1
2.943948746,7.080722332,1,-2.684208632,1,-12.4111681,1,1.135776281,1,2.134230852,1,-1.672403216,1,0.144468039,1,-0.663543463,1,0.517679989,1
2.947950602,6.51086235,1,-2.464501858,1,-12.4112711,1,1.140571952,1,2.224892855,1,-1.766862869,1,0.153291866,1,-0.653897524,1,0.510695517,1
2.951948404,6.017951012,1,-2.257068157,1,-12.37413597,1,1.143038988,1,2.317506552,1,-1.849362135,1,0.162202492,1,-0.643782198,1,0.503527761,1
2.955947876,5.563792229,1,-2.013105392,1,-12.25131226,1,1.147053838,1,2.407686949,1,-1.917481065,1,0.17113401,1,-0.633209646,1,0.496226221,1
2.959949493,4.945789337,1,-1.849199295,1,-12.29626369,1,1.151475549,1,2.4988482,1,-1.977097631,1,0.180055574,1,-0.622194767,1,0.488853157,1
2.963947296,4.329442024,1,-1.720024586,1,-12.22906494,1,1.146219492,1,2.59483099,1,-2.028240442,1,0.188902304,1,-0.61071521,1,0.481490612,1
2.967947006,3.684796572,1,-1.648823977,1,-12.16519928,1,1.141760588,1,2.70235014,1,-2.060112,1,0.197630689,1,-0.598745525,1,0.474206775,1
2.971948862,3.193907022,1,-1.433059454,1,-12.03580093,1,1.138002515,1,2.804218054,1,-2.081865549,1,0.206171647,1,-0.586297035,1,0.467076421,1
2.975946426,2.675113678,1,-1.300988913,1,-11.88208199,1,1.138473153,1,2.899369717,1,-2.088683605,1,0.21451965,1,-0.573398292,1,0.460154295,1
2.979946136,2.251717806,1,-1.10108912,1,-11.6771574,1,1.135463953,1,2.981546164,1,-2.083412409,1,0.222630054,1,-0.560097098,1,0.453522682,1
2.983947754,1.859076142,1,-0.960740149,1,-11.46426964,1,1.13865602,1,3.060038567,1,-2.061378479,1,0.23049058,1,-0.546452641,1,0.44721806,1
2.987945318,1.464554429,1,-0.790953398,1,-11.21441746,1,1.147099614,1,3.12024045,1,-2.023359776,1,0.238096759,1,-0.532532811,1,0.441294432,1
2.991945028,1.096005559,1,-0.65285784,1,-10.98651314,1,1.15166378,1,3.16262269,1,-1.97891891,1,0.24545294,1,-0.518421412,1,0.43578124,1
2.995946407,0.707955539,1,-0.531792462,1,-10.69899464,1,1.161996841,1,3.190225601,1,-1.919863582,1,0.252567261,1,-0.504174352,1,0.430699557,1
2.99994421,0.259953469,1,-0.442669153,1,-10.4825201,1,1.17727828,1,3.20544529,1,-1.859240651,1,0.259444445,1,-0.489884496,1,0.426067203,1
3.003943682,-0.178969741,1,-0.33539772,1,-10.23201752,1,1.186419249,1,3.202158689,1,-1.785978675,1,0.266116917,1,-0.4756037,1,0.421868533,1
3.00795126,-0.664448142,1,-0.311810642,1,-9.987437248,1,1.20099628,1,3.195349932,1,-1.714650512,1,0.27259016,1,-0.46139586,1,0.418120861,1
3.011955261,-1.225295067,1,-0.495141238,1,-9.812468529,1,1.21152842,1,3.177093267,1,-1.639918327,1,0.278875977,1,-0.447307348,1,0.414801657,1
3.015954971,-1.883847713,1,-0.822887063,1,-9.736465454,1,1.228510022,1,3.155686617,1,-1.562857985,1,0.284990191,1,-0.433358163,1,0.411901563,1
3.019956589,-2.834695101,1,-1.078536391,1,-9.870239258,1,1.252546072,1,3.139511585,1,-1.499216318,1,0.290985942,1,-0.419551194,1,0.409392715,1
3.023954153,-4.155355453,1,-1.10797143,1,-10.1063509,1,1.267302632,1,3.126260757,1,-1.466568708,1,0.296921402,1,-0.405848533,1,0.407166421,1
3.027953625,-5.81091547,1,-1.083618999,1,-10.37444782,1,1.282096624,1,3.146247864,1,-1.481005669,1,0.302831948,1,-0.392130941,1,0.405085653,1
3.031955242,-7.342628479,1,-1.262052774,1,-10.43382168,1,1.273688436,1,3.212530136,1,-1.518713355,1,0.308717966,1,-0.378218174,1,0.403038412,1
3.035952806,-8.457273483,1,-1.606681705,1,-10.38966656,1,1.24434042,1,3.31363368,1,-1.587692022,1,0.314498991,1,-0.363902926,1,0.40098846,1
3.039952278,-9.077828407,1,-1.786309123,1,-10.272295,1,1.194356918,1,3.429942369,1,-1.656278133,1,0.320110291,1,-0.349061787,1,0.398900509,1
3.043954134,-9.284418106,1,-1.73746717,1,-9.954686165,1,1.134216547,1,3.537001848,1,-1.731202841,1,0.325480282,1,-0.333697349,1,0.396776408,1
3.047951937,-9.164484024,1,-1.468487382,1,-9.628289223,1,1.070502877,1,3.610362053,1,-1.79179585,1,0.330583781,1,-0.317888856,1,0.394603193,1
3.051951408,-8.934216499,1,-0.928768039,1,-9.098377228,1,1.019418001,1,3.633533716,1,-1.835882306,1,0.335433841,1,-0.301807702,1,0.392372072,1
3.055953264,-8.787919998,1,-0.164930299,1,-8.507212639,1,0.996635854,1,3.59150219,1,-1.86439836,1,0.340117395,1,-0.285703063,1,0.390080392,1
3.059950829,-8.820388794,1,0.510170221,1,-7.894283772,1,0.991586924,1,3.50808382,1,-1.872439265,1,0.34473145,1,-0.269812465,1,0.387717128,1
3.0639503,-9.026281357,1,0.932852685,1,-7.313301086,1,1.025137186,1,3.372028351,1,-1.858838558,1,0.349385023,1,-0.25433284,1,0.385294974,1
3.067952156,-9.671227455,1,1.093581915,1,-6.703632832,1,1.061172128,1,3.223036051,1,-1.833810687,1,0.354151994,1,-0.239399403,1,0.382834375,1
3.07194972,-10.52687931,1,0.997602761,1,-6.084833622,1,1.087074995,1,3.051149845,1,-1.790000677,1,0.359024704,1,-0.225106999,1,0.380354583,1
3.075949669,-11.37078857,1,0.763461411,1,-5.510297298,1,1.077652693,1,2.862457514,1,-1.736041307,1,0.36390081,1,-0.21154961,1,0.377874732,1
3.079951048,-12.23982048,1,0.618306279,1,-4.948713779,1,1.04702425,1,2.651345968,1,-1.677578688,1,0.368659824,1,-0.198800206,1,0.375390023,1
3.083948612,-13.01854229,1,0.626463652,1,-4.467547894,1,0.992902875,1,2.425954103,1,-1.614848495,1,0.3732135,1,-0.186936125,1,0.372887492,1
3.087948322,-13.92004108,1,0.784230828,1,-4.144298553,1,0.925320566,1,2.193309069,1,-1.54612112,1,0.377512366,1,-0.176021889,1,0.370351255,1
3.09194994,-14.83600998,1,0.953283072,1,-3.735447884,1,0.853552699,1,1.959119081,1,-1.486757159,1,0.381517261,1,-0.16606088,1,0.367761135,1
3.095947266,-15.80282211,1,1.005669355,1,-3.425166368,1,0.769349337,1,1.717367291,1,-1.42975533,1,0.385202169,1,-0.157069325,1,0.365068555,1
3.099946976,-16.63959503,1,1.024768472,1,-3.156725407,1,0.677803695,1,1.483669758,1,-1.376580954,1,0.388537288,1,-0.14902319,1,0.362246037,1
3.103948593,-17.34452248,1,0.94594568,1,-2.924024343,1,0.578866839,1,1.260387778,1,-1.327924967,1,0.39148587,1,-0.141888991,1,0.359304965,1
3.107946157,-17.83593941,1,0.897556722,1,-2.727231741,1,0.475652248,1,1.037659764,1,-1.263956308,1,0.394015223,1,-0.135651991,1,0.356240511,1
3.111945629,-18.34990883,1,0.951624155,1,-2.729074955,1,0.372655481,1,0.826732099,1,-1.208704591,1,0.396124303,1,-0.130308062,1,0.353073478,1
3.115947247,-18.86662483,1,1.186752439,1,-2.836245298,1,0.295213133,1,0.626504004,1,-1.158205152,1,0.397864521,1,-0.125796184,1,0.349801838,1
3.119945049,-19.42434502,1,1.524685264,1,-2.957932949,1,0.240424275,1,0.468184561,1,-1.112039924,1,0.399340481,1,-0.122017734,1,0.346440732,1
3.123944998,-19.95482635,1,1.852678776,1,-2.978849888,1,0.206265703,1,0.329823762,1,-1.077628732,1,0.400642812,1,-0.118852675,1,0.343002558,1
3.127952576,-20.21160316,1,2.053604364,1,-2.903842449,1,0.200033307,1,0.205538899,1,-1.031148195,1,0.401876211,1,-0.116228446,1,0.339518249,1
3.131956577,-20.31878853,1,2.048966885,1,-2.736084223,1,0.206339285,1,0.094567291,1,-0.969022393,1,0.403087467,1,-0.114110895,1,0.336041987,1
3.135956287,-20.19502068,1,1.908140302,1,-2.495793343,1,0.205444306,1,-0.023965543,1,-0.898461223,1,0.404291868,1,-0.112509653,1,0.332629919,1
3.139957905,-19.96306801,1,1.683810949,1,-2.126828671,1,0.200147003,1,-0.140317261,1,-0.801862955,1,0.405466855,1,-0.111462563,1,0.329348087,1
3.143955708,-19.71484184,1,1.431166649,1,-1.680899143,1,0.188987345,1,-0.271087021,1,-0.679421902,1,0.406595677,1,-0.111043163,1,0.326272607,1
3.147955179,-2.200134993,1,-2.760805845,1,-8.05372715,1,-0.030658957,1,-0.793276429,1,-0.380642503,1,0.407331288,1,-0.111868836,1,0.323507547,1
3.151957035,-29.29754639,1,0.973821223,1,2.304633856,1,-0.147858247,1,-1.90768683,1,0.171644941,1,0.407310605,1,-0.116811439,1,0.320849389,1
3.155954599,-20.57857132,1,0.154155433,1,6.910422325,1,-0.516877651,1,-2.296710491,1,0.553898931,1,0.406187505,1,-0.125116333,1,0.318912446,1
3.159954071,-12.33458519,1,-0.067601539,1,6.476205349,1,-0.521815062,1,-3.111491442,1,0.902165294,1,0.404247105,1,-0.136128306,1,0.317289412,1
3.163955927,-23.27136803,1,0.923068345,1,6.780522346,1,-0.642678916,1,-3.914606094,1,1.389817834,1,0.402196884,1,-0.150871679,1,0.315975964,1
3.16795373,-31.67770195,1,1.155446887,1,5.105146885,1,-0.769480884,1,-4.535657406,1,1.835840583,1,0.399419218,1,-0.169032738,1,0.315301478,1
3.17195344,-35.79463577,1,0.727036536,1,3.775667667,1,-0.855563998,1,-4.904642105,1,2.134227037,1,0.396184444,1,-0.189548165,1,0.315319091,1
3.175955057,-32.11969757,1,0.856854498,1,0.363190502,1,-0.837349772,1,-5.16202116,1,2.407417059,1,0.392533928,1,-0.211690113,1,0.315961182,1
3.179952621,-18.57014084,1,-1.052229285,1,-9.014550209,1,-0.628814876,1,-5.191501617,1,2.387524366,1,0.389366329,1,-0.234471887,1,0.317079455,1
3.183952332,-31.52080536,1,-6.209251881,1,-17.53918648,1,-0.67626828,1,-5.008687019,1,2.119174004,1,0.38665697,1,-0.256977409,1,0.317686021,1
3.187953949,-34.29593658,1,-8.758537292,1,-22.95596313,1,-0.737387955,1,-4.144337177,1,1.733468771,1,0.38369292,1,-0.276878834,1,0.31905669,1
3.191951513,-28.06498146,1,-7.641145706,1,-24.85733032,1,-0.679244161,1,-3.266383886,1,1.42647934,1,0.38071537,1,-0.292947054,1,0.319407731,1
3.195950985,-24.27060318,1,-6.92518568,1,-23.9940567,1,-0.496305704,1,-2.54820323,1,1.168884754,1,0.378190547,1,-0.305629224,1,0.319954008,1
3.199952602,-18.0325985,1,-8.362692833,1,-21.07565308,1,-0.41469878,1,-2.036613703,1,0.975776553,1,0.376161695,1,-0.315652251,1,0.320570111,1
3.203950644,-9.609587669,1,-7.536707401,1,-16.88741684,1,-0.395008445,1,-1.886281729,1,0.972224236,1,0.374354661,1,-0.32426545,1,0.321379453,1
3.207950115,-5.772363663,1,-5.437652588,1,-12.2574482,1,-0.419714957,1,-1.968214512,1,1.074197054,1,0.372392982,1,-0.332885683,1,0.322418809,1
3.211951971,-3.005574226,1,-4.490010738,1,-8.713798523,1,-0.451569676,1,-2.106799364,1,1.181713581,1,0.370208204,1,-0.342112899,1,0.323731601,1
3.215949774,-2.195444822,1,-5.139574051,1,-6.476275921,1,-0.505309165,1,-2.196964025,1,1.298418283,1,0.367760271,1,-0.351973891,1,0.325319529,1
3.219949245,-1.602424979,1,-5.489531517,1,-5.491014481,1,-0.555127978,1,-2.197798491,1,1.355294824,1,0.364973366,1,-0.362093806,1,0.32727468,1
3.223950863,-0.489503533,1,-5.652017117,1,-4.6807127,1,-0.654661357,1,-2.149899483,1,1.360562682,1,0.361797214,1,-0.372160375,1,0.329402864,1
3.227948904,0.686993718,1,-5.547425747,1,-3.828216314,1,-0.76958847,1,-2.089644432,1,1.362474322,1,0.358102739,1,-0.381991982,1,0.331679374,1
3.231948376,1.873162866,1,-5.364380836,1,-3.210251331,1,-0.899426639,1,-2.121301889,1,1.351571679,1,0.3538872,1,-0.39174515,1,0.334015012,1
3.235949993,2.408119202,1,-4.498864174,1,-2.542128325,1,-0.979791641,1,-2.26479888,1,1.358945251,1,0.349249125,1,-0.401846111,1,0.336265683,1
3.239948034,2.474522352,1,-2.894735575,1,-3.367720127,1,-0.984171927,1,-2.473926783,1,1.34666419,1,0.344492018,1,-0.412588894,1,0.338303447,1
3.243947506,-0.822135031,1,-3.467155457,1,-5.399209976,1,-1.042887211,1,-2.708697796,1,1.353858948,1,0.339767873,1,-0.424158424,1,0.340033174,1
3.247955084,-6.236655712,1,-1.555858374,1,-7.182256699,1,-1.07962656,1,-2.777829885,1,1.463791013,1,0.334776103,1,-0.436457902,1,0.341904551,1
3.251958847,-13.24086952,1,-2.060925007,1,-9.770593643,1,-1.192337155,1,-2.696229696,1,1.601197124,1,0.329162061,1,-0.44880271,1,0.344280899,1
3.255958557,-19.79680061,1,-1.36685884,1,-12.20148468,1,-1.323976994,1,-2.323312283,1,1.767654777,1,0.322575092,1,-0.46051994,1,0.347807944,1
3.259960413,-23.59589195,1,-0.125623837,1,-14.01959324,1,-1.375464916,1,-1.776434302,1,1.760307074,1,0.315054893,1,-0.470588982,1,0.352507591,1
3.263957977,-22.80842018,1,0.5542835,1,-14.77393341,1,-1.242042661,1,-1.222676754,1,1.642512798,1,0.307397962,1,-0.478348643,1,0.357711673,1
3.267957449,-17.65386581,1,0.454020679,1,-13.17024326,1,-1.119400859,1,-0.782905221,1,1.438606143,1,0.300192505,1,-0.48396793,1,0.363056123,1
3.271959543,-10.50936794,1,0.14167662,1,-11.37225723,1,-0.953743875,1,-0.604022443,1,1.232784867,1,0.293786943,1,-0.488134325,1,0.367930949,1
3.275957584,-2.901165724,1,-0.723784745,1,-9.138720512,1,-0.852113545,1,-0.606918395,1,1.054868579,1,0.288224995,1,-0.491703033,1,0.3720783,1
3.279957294,1.215716362,1,-1.327975631,1,-7.520907879,1,-0.830409884,1,-0.852070451,1,1.015800595,1,0.283177197,1,-0.495612442,1,0.375660032,1
3.283958673,-2.426921606,1,-3.170222282,1,-9.004740715,1,-0.888508856,1,-1.055169702,1,0.979229093,1,0.278250962,1,-0.500458241,1,0.378830492,1
3.287956476,-10.44568443,1,-4.045538425,1,-13.22012711,1,-0.879107594,1,-0.809923291,1,0.880901992,1,0.273298651,1,-0.505195081,1,0.381716371,1
3.291956425,-10.53891563,1,-1.539162517,1,-12.09091568,1,-0.714067221,1,-0.374932468,1,0.768044472,1,0.268648356,1,-0.508298457,1,0.384623617,1
3.295958042,-7.159069061,1,1.107678056,1,-10.56477356,1,-0.559113979,1,-0.309936792,1,0.750169694,1,0.264708072,1,-0.510334849,1,0.387579948,1
3.299955606,-6.973864555,1,0.287713498,1,-9.832149506,1,-0.517365515,1,-0.374184847,1,0.687927365,1,0.261193216,1,-0.512428284,1,0.390373051,1
3.303955555,-6.494534969,1,-0.620936573,1,-9.529677391,1,-0.439414442,1,-0.394146115,1,0.525655389,1,0.258143008,1,-0.514522672,1,0.392639637,1
3.307957172,-4.295195103,1,-0.45347777,1,-9.479417801,1,-0.333201587,1,-0.445976704,1,0.413992971,1,0.255841941,1,-0.516623199,1,0.394203812,1
3.311955214,-4.893618584,1,-1.418465137,1,-9.639945984,1,-0.280612618,1,-0.434756309,1,0.419725299,1,0.253975511,1,-0.51876092,1,0.395534217,1
3.315954924,-4.23408556,1,-1.751470208,1,-9.095919609,1,-0.264231384,1,-0.428007573,1,0.40785861,1,0.252172321,1,-0.52082938,1,0.396889269,1
3.319956541,-4.749343395,1,-1.943848133,1,-9.384772301,1,-0.22568661,1,-0.396387368,1,0.412531316,1,0.25056839,1,-0.522863865,1,0.398223639,1
3.323954105,-6.908504963,1,-0.974334776,1,-9.45970726,1,-0.201414853,1,-0.313348353,1,0.443325907,1,0.248921037,1,-0.524669051,1,0.399750203,1
3.327953577,-5.835634708,1,-1.334781885,1,-8.284031868,1,-0.166568965,1,-0.29152739,1,0.433454961,1,0.24737975,1,-0.526239276,1,0.40140295,1
3.331955433,-5.470510483,1,-3.09902668,1,-8.22555542,1,-0.182230353,1,-0.327919871,1,0.375224143,1,0.245937467,1,-0.527838349,1,0.40286541,1
3.335953474,-5.426523209,1,-2.89871788,1,-8.635498047,1,-0.199567139,1,-0.331992894,1,0.325563073,1,0.244595662,1,-0.529465795,1,0.404049069,1
3.339952946,-5.553938866,1,-2.080327034,1,-8.401738167,1,-0.206056416,1,-0.319340169,1,0.329647779,1,0.243196711,1,-0.531041265,1,0.405166686,1
3.343954802,-5.173918247,1,-1.180024028,1,-8.956566811,1,-0.187556207,1,-0.307755798,1,0.304650068,1,0.241869926,1,-0.532567739,1,0.406245887,1
3.347952366,-5.086194038,1,-0.116505183,1,-8.993643761,1,-0.164592668,1,-0.320022792,1,0.289406955,1,0.240650043,1,-0.534059465,1,0.407243848,1
3.351951838,-6.191299438,1,0.237020552,1,-9.07735157,1,-0.10092707,1,-0.325600266,1,0.263670444,1,0.239654914,1,-0.535576642,1,0.408157676,1
