Time,inertial-6253.76535:estCompensatedAccelX,inertial-6253.76535:estCompensatedAccelX:valid,inertial-6253.76535:estCompensatedAccelY,inertial-6253.76535:estCompensatedAccelY:valid,inertial-6253.76535:estCompensatedAccelZ,inertial-6253.76535:estCompensatedAccelZ:valid,inertial-6253.76535:estAngularRateX,inertial-6253.76535:estAngularRateX:valid,inertial-6253.76535:estAngularRateY,inertial-6253.76535:estAngularRateY:valid,inertial-6253.76535:estAngularRateZ,inertial-6253.76535:estAngularRateZ:valid,inertial-6253.76535:estRoll,inertial-6253.76535:estRoll:valid,inertial-6253.76535:estPitch,inertial-6253.76535:estPitch:valid,inertial-6253.76535:estYaw,inertial-6253.76535:estYaw:valid
0,-4.681627274,1,-3.284780979,1,-8.043323517,1,0.011331493,1,0.008964272,1,-0.012657121,1,0.3776538372039795,1,-0.483007818,1,-0.570278823,1
0.004001792,-4.646602631,1,-3.249845982,1,-8.022517204,1,0.011398578,1,0.003427078,1,-0.012786474,1,0.3777215480804443,1,-0.482964069,1,-0.570332944,1
0.007999488,-4.655189514,1,-3.257858992,1,-8.059308052,1,0.01281614,1,0.005393227,1,-0.012944693,1,0.3777873516082764,1,-0.482933342,1,-0.570372343,1
0.011998976,-4.594220638,1,-3.261361599,1,-8.048617363,1,0.011074306,1,-0.000108045,1,-0.010529187,1,0.3778482973575592,1,-0.482904822,1,-0.570414662,1
0.016000768,-4.629288197,1,-3.262691259,1,-8.024964333,1,0.012656763,1,0.004303255,1,-0.009736672,1,0.3779148459434509,1,-0.482874781,1,-0.57045424,1
0.019998465,-4.635369778,1,-3.267469883,1,-8.019844055,1,0.010272585,1,0.003384107,1,-0.009396968,1,0.3779768943786621,1,-0.482851207,1,-0.570497155,1
0.023997951,-4.547699451,1,-3.24606204,1,-8.04426384,1,0.010093272,1,-0.001462534,1,-0.010519816,1,0.3780379891395569,1,-0.482830435,1,-0.570536971,1
0.027999744,-4.622068405,1,-3.27412653,1,-8.035793304,1,0.011899991,1,-0.000333173,1,-0.007089762,1,0.378096879,1,-0.482818395,1,-0.570568502,1
0.031997439,-4.596559525,1,-3.258055449,1,-8.059096336,1,0.008389654,1,-0.006135172,1,-0.00883062,1,0.3781582713127136,1,-0.482813209,1,-0.570608258,1
0.035997186,-4.600774288,1,-3.259875774,1,-8.034814835,1,0.009104939,1,-0.002850682,1,-0.00505543,1,0.3782060742378235,1,-0.482815653,1,-0.570638239,1
0.039998975,-4.640353203,1,-3.234974384,1,-8.021143913,1,0.010429304,1,-0.006023519,1,-0.009266404,1,0.3782621026039124,1,-0.48282522,1,-0.570674181,1
0.043996673,-4.634131432,1,-3.25111866,1,-8.045292854,1,0.013345357,1,-0.009483642,1,-0.008283057,1,0.3783277273178101,1,-0.482844383,1,-0.570719063,1
0.047996417,-4.6051898,1,-3.225410223,1,-8.048171043,1,0.009730659,1,-0.007808315,1,-0.003293341,1,0.3783892393112183,1,-0.482858866,1,-0.570756793,1
0.051997952,-4.62966013,1,-3.211787224,1,-8.043808937,1,0.011370037,1,-0.012367234,1,-0.005383336,1,0.3784534335136414,1,-0.482892007,1,-0.570790827,1
0.055995647,-4.646212101,1,-3.264586449,1,-8.056202888,1,0.009230403,1,-0.008393233,1,-0.007757059,1,0.3785200119018555,1,-0.482918024,1,-0.570837259,1
0.05999539,-4.633293629,1,-3.271306992,1,-8.018424988,1,0.011801859,1,-0.013495442,1,-0.004946584,1,0.3785775303840637,1,-0.482952952,1,-0.570873618,1
0.063996926,-4.659272671,1,-3.329976797,1,-7.994756699,1,0.01122416,1,-0.011415049,1,-0.005110677,1,0.3786371946334839,1,-0.482988536,1,-0.570908606,1
0.067994878,-4.647500038,1,-3.317052364,1,-7.989490032,1,0.008300906,1,-0.00863832,1,-0.003392998,1,0.3786883056163788,1,-0.483019501,1,-0.570940375,1
0.071994625,-4.653719902,1,-3.309553385,1,-7.995977402,1,0.003900258,1,-0.005073305,1,-0.004757874,1,0.3787161111831665,1,-0.48305589,1,-0.570957303,1
0.075996414,-4.658174992,1,-3.243582964,1,-8.00614357,1,0.002793567,1,-0.009824674,1,-0.002689648,1,0.3787423372268677,1,-0.48308149,1,-0.570982099,1
0.080000259,-4.659049988,1,-3.226331472,1,-8.018137932,1,0.007064502,1,-0.007535689,1,0.001424105,1,0.3787698447704315,1,-0.483116299,1,-0.571003795,1
0.083999999,-4.674648762,1,-3.172828197,1,-8.009812355,1,0.002489896,1,-0.009780341,1,5.983747541904449e-05,1,0.3787966966629028,1,-0.483141303,1,-0.571026385,1
0.088001534,-4.687235832,1,-3.179795742,1,-8.022705078,1,0.006211636,1,-0.002564065,1,-0.003355934,1,0.3788191676139832,1,-0.48316443,1,-0.571047127,1
0.091999486,-4.662414074,1,-3.139292955,1,-8.00060463,1,0.00763731,1,-0.003089267,1,-0.003620818,1,0.3788544535636902,1,-0.483173132,1,-0.571071684,1
0.095999233,-4.676295757,1,-3.164217472,1,-8.012003899,1,0.010866795,1,-0.003993491,1,-0.008717004,1,0.3789055645465851,1,-0.483188838,1,-0.571105421,1
0.100001022,-4.679132462,1,-3.168508768,1,-7.990935326,1,0.012086712,1,-0.00606257,1,-0.004380396,1,0.3789687752723694,1,-0.483205676,1,-0.571149468,1
0.103998721,-4.677515984,1,-3.210682631,1,-8.041854858,1,0.007547236,1,-0.004329431,1,-0.008709665,1,0.3790259957313538,1,-0.483214051,1,-0.571178555,1
0.107998461,-4.667330265,1,-3.204058647,1,-8.036243439,1,0.010973725,1,-0.005978489,1,-0.003629959,1,0.3790831565856934,1,-0.48323077,1,-0.571216106,1
0.112000257,-4.676992416,1,-3.206634998,1,-8.049674988,1,0.014585294,1,-0.008557498,1,-0.010045655,1,0.3791548013687134,1,-0.483250678,1,-0.571253896,1
0.115997955,-4.647204399,1,-3.235491991,1,-8.027882576,1,0.014906546,1,-0.003880444,1,-0.006128566,1,0.3792273998260498,1,-0.483259141,1,-0.571291208,1
0.119997442,-4.687264442,1,-3.234194994,1,-8.031453133,1,0.013908038,1,-0.004328761,1,-0.008974642,1,0.3793078064918518,1,-0.483268052,1,-0.571329832,1
0.123999231,-4.672738552,1,-3.267964602,1,-8.050753593,1,0.011600442,1,-0.005192958,1,-0.006438732,1,0.379377156,1,-0.483266562,1,-0.571364701,1
0.127996922,-4.646202087,1,-3.278438568,1,-7.995503426,1,0.011560302,1,-0.002149969,1,-0.0057734,1,0.3794395327568054,1,-0.483280241,1,-0.571394742,1
0.131996676,-4.683824539,1,-3.271708488,1,-8.018932343,1,0.014965588,1,-0.002490243,1,-0.007804165,1,0.3795051574707031,1,-0.483284026,1,-0.571432889,1
0.135998458,-4.644679546,1,-3.242614746,1,-8.018828392,1,0.01223311,1,-0.005706992,1,-0.00759387,1,0.3795630633831024,1,-0.483286768,1,-0.571461558,1
0.139996156,-4.67872858,1,-3.252573967,1,-7.988972187,1,0.008578515,1,-0.003147156,1,-0.009451093,1,0.3796234428882599,1,-0.48329404,1,-0.571500897,1
0.143995911,-4.663877964,1,-3.235465288,1,-7.981426716,1,0.012827577,1,-0.004527466,1,-0.005498255,1,0.3796796202659607,1,-0.483302534,1,-0.571537793,1
0.147997692,-4.65038538,1,-3.288825274,1,-8.017754555,1,0.004682825,1,-0.002459907,1,-0.007685744,1,0.3797411918640137,1,-0.483306438,1,-0.57157129,1
0.151995391,-4.628658772,1,-3.281231165,1,-8.023243904,1,0.010422964,1,-0.003735147,1,-0.00507899,1,0.3797890543937683,1,-0.48330456,1,-0.571599483,1
0.155995131,-4.641557217,1,-3.273620129,1,-8.00828743,1,0.006559471,1,-0.0004057,1,-0.002583179,1,0.3799464106559753,1,-0.483504832,1,-0.571679115,1
0.159996673,-4.655908585,1,-3.268260717,1,-8.000209808,1,0.008399915,1,-0.000519584,1,-0.010784965,1,0.3799484968185425,1,-0.483451068,1,-0.571952462,1
0.163994625,-4.687236309,1,-3.245242834,1,-8.038554192,1,0.007318275,1,-0.00421097,1,-0.003452168,1,0.3799834847450256,1,-0.483442903,1,-0.571970761,1
0.167994365,-4.701106071,1,-3.223840237,1,-8.029980659,1,0.005808366,1,0.002577579,1,-0.005580928,1,0.3800188899040222,1,-0.483440489,1,-0.572003186,1
0.171995908,-4.626533031,1,-3.207148075,1,-8.017380714,1,0.008844784,1,-0.001319801,1,-0.009281005,1,0.3800636529922485,1,-0.483435512,1,-0.572033405,1
0.17599386,-4.664848804,1,-3.259676695,1,-8.032084465,1,0.008000701,1,-0.002421251,1,-0.006585565,1,0.3801052868366241,1,-0.483432442,1,-0.572062314,1
0.179993346,-4.625564098,1,-3.226721525,1,-8.040010452,1,0.008233611,1,-0.002900298,1,-0.007564611,1,0.3801485896110535,1,-0.483429939,1,-0.572092056,1
0.183994874,-4.646639347,1,-3.21954751,1,-8.046907425,1,0.010341137,1,-0.004204878,1,-0.005170874,1,0.380206823,1,-0.483425289,1,-0.572124898,1
0.187992826,-4.623965263,1,-3.226961851,1,-8.030531883,1,0.01246391,1,-0.004681192,1,-0.01131084,1,0.3802666664123535,1,-0.483428985,1,-0.572158217,1
0.191992313,-4.674871445,1,-3.244006872,1,-8.025698662,1,0.01052725,1,0.001459923,1,-0.006970052,1,0.3803280591964722,1,-0.483421952,1,-0.572202682,1
0.195994362,-4.653005123,1,-3.268836498,1,-8.001379013,1,0.014408289,1,-0.004645018,1,-0.010504972,1,0.3804025650024414,1,-0.48341158,1,-0.572244525,1
0.199998215,-4.653817177,1,-3.2686584,1,-7.998371124,1,0.013361698,1,-0.002646413,1,-0.009850962,1,0.3804737329483032,1,-0.483403713,1,-0.572282314,1
0.203997955,-4.663410187,1,-3.296886444,1,-8.000873566,1,0.013066201,1,-0.003404602,1,-0.00688586,1,0.3805434107780457,1,-0.483404189,1,-0.572325945,1
0.207999751,-4.646548748,1,-3.278808117,1,-7.998526573,1,0.010695038,1,3.639678470790386e-05,1,-0.010195997,1,0.3805996179580688,1,-0.483391762,1,-0.572361887,1
0.211997434,-4.657271862,1,-3.280651569,1,-8.004723549,1,0.005126452,1,-0.000470635,1,-0.007913105,1,0.3806486129760742,1,-0.483387113,1,-0.572395802,1
0.215996921,-4.662379265,1,-3.342172146,1,-7.998690605,1,0.008045571,1,0.002400109,1,-0.009101121,1,0.3806989192962646,1,-0.483370394,1,-0.572431386,1
0.219998717,-4.652446747,1,-3.302844048,1,-7.960707664,1,0.005797229,1,0.001892011,1,-0.010177747,1,0.3807392120361328,1,-0.483359337,1,-0.572470248,1
0.223996416,-4.649111748,1,-3.277670383,1,-7.994129658,1,0.004772575,1,0.001818719,1,-0.005036047,1,0.3807695806026459,1,-0.483341038,1,-0.572496057,1
0.227996156,-4.675526142,1,-3.280945301,1,-8.009811401,1,-0.001295955,1,0.001558399,1,-0.001067644,1,0.3807917535305023,1,-0.483332396,1,-0.572510004,1
0.231997952,-4.667150974,1,-3.273259401,1,-7.985099792,1,0.000644795,1,0.004675211,1,-0.006072928,1,0.3808095455169678,1,-0.483304083,1,-0.572527766,1
0.23599565,-4.636568069,1,-3.25521946,1,-7.984574318,1,0.003747305,1,0.004537087,1,-0.001803698,1,0.3808140456676483,1,-0.483278483,1,-0.572531402,1
0.23999539,-4.656919479,1,-3.247680187,1,-7.987838745,1,-0.000251137,1,0.007054897,1,-0.00144459,1,0.3808299899101257,1,-0.483249843,1,-0.572539866,1
0.243996933,-4.667125225,1,-3.23849535,1,-7.984910488,1,0.001443632,1,0.008814598,1,-0.007259303,1,0.3808436393737793,1,-0.483219743,1,-0.572557569,1
0.247994617,-4.65226841,1,-3.28772521,1,-7.966657639,1,0.001365056,1,0.005759612,1,-0.002468295,1,0.3808501660823822,1,-0.48319006,1,-0.572568953,1
0.251994371,-4.617676258,1,-3.274666548,1,-8.005949974,1,0.004978005,1,0.006444436,1,-0.004025468,1,0.3808578252792358,1,-0.483155936,1,-0.572571039,1
0.255995899,-4.596491337,1,-3.254223585,1,-8.021244049,1,0.00315326,1,0.009235557,1,-0.004698873,1,0.3808748424053192,1,-0.483128428,1,-0.572584271,1
0.259993851,-4.616092682,1,-3.25451231,1,-8.026948929,1,0.002633536,1,-0.001571187,1,-0.003560479,1,0.3808834552764893,1,-0.483105302,1,-0.57259804,1
0.263993591,-4.653048992,1,-3.304436207,1,-8.027335167,1,-0.002170003,1,0.003423441,1,-0.007311484,1,0.380897194,1,-0.483093172,1,-0.572607994,1
0.267995149,-4.608354092,1,-3.312737703,1,-8.040641785,1,0.004230274,1,0.00497048,1,-0.001887665,1,0.3809075057506561,1,-0.483082116,1,-0.572618604,1
0.271992832,-4.589066982,1,-3.335928917,1,-8.037482262,1,-0.000723217,1,-0.000979066,1,0.001134192,1,0.3809105157852173,1,-0.483075678,1,-0.572613955,1
0.275992334,-4.660442352,1,-3.326989174,1,-8.019709587,1,-0.001763846,1,-0.001201074,1,-0.002619676,1,0.3809075057506561,1,-0.483070016,1,-0.572612226,1
0.2799941,-4.607684135,1,-3.286085367,1,-8.021771431,1,-0.002754968,1,0.002137827,1,0.001172089,1,0.3808943033218384,1,-0.483074993,1,-0.572608352,1
0.283991814,-4.631764412,1,-3.262736797,1,-8.053979874,1,-0.002511381,1,0.002570488,1,0.004192601,1,0.3808764219284058,1,-0.483072132,1,-0.572600663,1
0.287991285,-4.649635792,1,-3.243021488,1,-8.050092697,1,-0.00115381,1,-0.003070164,1,0.003379866,1,0.3808652758598328,1,-0.48307839,1,-0.572597206,1
0.291993082,-4.636495113,1,-3.275275707,1,-8.02553463,1,0.00077847,1,-0.002438857,1,0.0011731,1,0.380862296,1,-0.483094275,1,-0.572599113,1
0.295990795,-4.637164593,1,-3.241559029,1,-8.044681549,1,-0.003783769,1,-0.004512285,1,-0.002762579,1,0.3808621764183044,1,-0.483107626,1,-0.572607875,1
0.299990535,-4.631406307,1,-3.24895525,1,-8.019083977,1,-0.000653782,1,-0.005141567,1,0.005650371,1,0.3808671236038208,1,-0.483127534,1,-0.572613537,1
0.303992331,-4.660633564,1,-3.256712198,1,-8.015307426,1,-8.53E-05,1,-0.003806964,1,5.097407847642899e-05,1,0.3808684647083282,1,-0.483152807,1,-0.572611928,1
0.307990015,-4.662955284,1,-3.247110605,1,-7.983491421,1,0.001483718,1,-0.00317091,1,-0.000426333,1,0.3808803260326385,1,-0.483171225,1,-0.572624207,1
0.311989754,-4.659718513,1,-3.295171499,1,-8.0022192,1,0.001360324,1,-0.005461179,1,0.00272777,1,0.3808800280094147,1,-0.483185053,1,-0.572628796,1
0.315991551,-4.641214848,1,-3.247901917,1,-7.993655682,1,0.001861217,1,-0.003364203,1,-0.000271454,1,0.3808857500553131,1,-0.483201712,1,-0.572637916,1
0.319995135,-4.634725094,1,-3.244323015,1,-7.9871068,1,0.000292965,1,-0.004608433,1,0.001488134,1,0.380888045,1,-0.483223319,1,-0.572639942,1
0.323994875,-4.67057991,1,-3.231740475,1,-7.996794224,1,-0.000102702,1,-0.003871522,1,0.003355431,1,0.3808882236480713,1,-0.483241618,1,-0.57263732,1
0.327996671,-4.696259975,1,-3.238209963,1,-7.984107971,1,0.001688281,1,-0.001224602,1,-0.001631493,1,0.3808963894844055,1,-0.483257979,1,-0.572642267,1
0.331994355,-4.654105663,1,-3.253819227,1,-8.025462151,1,0.000789474,1,-0.002764793,1,-0.000115486,1,0.3809138536453247,1,-0.483264506,1,-0.572643876,1
0.335994124,-4.662854671,1,-3.280563831,1,-8.018889427,1,0.00270585,1,-0.00221752,1,-0.003165683,1,0.3809331059455872,1,-0.483275592,1,-0.572656989,1
0.339995652,-4.624701977,1,-3.261771441,1,-8.021472931,1,0.004499934,1,-0.003960935,1,0.000842663,1,0.3809332847595215,1,-0.483287454,1,-0.5726583,1
0.343993336,-4.646011829,1,-3.271261215,1,-8.019207001,1,0.003326515,1,-0.004005435,1,-0.003376211,1,0.3809539079666138,1,-0.483303815,1,-0.572671175,1
0.347993076,-4.646481991,1,-3.287176371,1,-8.006820679,1,0.001633801,1,-0.00434291,1,-0.001078032,1,0.3809601664543152,1,-0.483319312,1,-0.572676837,1
0.351994634,-4.663583755,1,-3.267331362,1,-7.989242077,1,0.003964301,1,-0.004224512,1,0.002103178,1,0.3809741139411926,1,-0.483329594,1,-0.572686076,1
0.355992585,-4.659813881,1,-3.288534641,1,-8.032774925,1,0.002104972,1,-0.002818347,1,-0.001442052,1,0.3809798359870911,1,-0.483347863,1,-0.57268399,1
0.359992325,-4.670617104,1,-3.295995951,1,-8.022701263,1,0.001107958,1,-0.007862403,1,0.001578437,1,0.380990058,1,-0.483369946,1,-0.572693527,1
0.363993853,-4.657804489,1,-3.270976782,1,-7.990188599,1,0.000629337,1,-0.0013556,1,0.001845988,1,0.380990744,1,-0.483389348,1,-0.572695553,1
0.367991567,-4.660709381,1,-3.263915062,1,-8.026817322,1,0.001519819,1,-0.005047953,1,0.001112422,1,0.3810036778450012,1,-0.48340562,1,-0.57270515,1
0.371991038,-4.650858402,1,-3.24958539,1,-8.034852982,1,-0.000378291,1,-0.007173072,1,0.000224822,1,0.3810031712055206,1,-0.483428031,1,-0.572698534,1
0.375992835,-4.663636684,1,-3.241423607,1,-8.014260292,1,0.001804434,1,-0.004211092,1,-0.000188982,1,0.3810107707977295,1,-0.483454645,1,-0.572705269,1
0.379990786,-4.675467491,1,-3.242865086,1,-8.024091721,1,0.000524359,1,-0.007655713,1,-0.00159458,1,0.3810248672962189,1,-0.483472377,1,-0.572714746,1
0.383990258,-4.648285389,1,-3.217611074,1,-8.011701584,1,0.004050042,1,-0.004225458,1,0.002569312,1,0.3810314834117889,1,-0.483496338,1,-0.572720647,1
0.387992054,-4.655750751,1,-3.21724844,1,-8.002142906,1,0.00382408,1,-0.005313716,1,-0.00231927,1,0.3810529708862305,1,-0.483517826,1,-0.572727919,1
0.391989768,-4.687493801,1,-3.223022938,1,-8.010466576,1,0.000254401,1,-0.006945626,1,0.001648106,1,0.3810689747333527,1,-0.483542025,1,-0.572731674,1
0.395989239,-4.63958931,1,-3.249277115,1,-8.026844978,1,0.003606733,1,-0.002973311,1,-0.000106811,1,0.3810811042785645,1,-0.483567685,1,-0.572738349,1
0.399991035,-4.6319561,1,-3.238274813,1,-8.016413689,1,0.007414954,1,-0.008254832,1,-0.00013234,1,0.3811010718345642,1,-0.483588606,1,-0.572747767,1
0.403988749,-4.647969723,1,-3.235296726,1,-8.028294563,1,0.007972002,1,-0.007340316,1,0.001318072,1,0.381141722,1,-0.483616322,1,-0.572758257,1
0.407988489,-4.684167862,1,-3.257522106,1,-8.029121399,1,0.005637169,1,-0.004833123,1,0.001506685,1,0.3812402188777924,1,-0.483792186,1,-0.573074102,1
0.411990285,-4.658349514,1,-3.314108133,1,-7.99808073,1,0.004870809,1,-0.003667475,1,-0.002679985,1,0.3812670111656189,1,-0.483818889,1,-0.573086917,1
0.415987968,-4.684509277,1,-3.331090927,1,-7.984044552,1,0.005102451,1,-0.007007559,1,-0.001350394,1,0.3812873363494873,1,-0.483839452,1,-0.573095202,1
0.419987708,-4.651964664,1,-3.286353111,1,-7.973889351,1,0.002095989,1,-0.005668971,1,0.002574301,1,0.3813090920448303,1,-0.483861864,1,-0.573105693,1
0.423989505,-4.631457329,1,-3.315504074,1,-8.004553795,1,0.001742121,1,-0.006012422,1,-0.000845236,1,0.3813211917877197,1,-0.483878046,1,-0.57311517,1
0.427987188,-4.673090935,1,-3.311419487,1,-8.03187561,1,0.002064587,1,-0.002368926,1,0.00104602,1,0.3813234567642212,1,-0.483894944,1,-0.573112011,1
0.431986958,-4.64578867,1,-3.28205514,1,-8.039587975,1,0.00111114,1,-0.007139866,1,-0.000478358,1,0.3813266158103943,1,-0.483915001,1,-0.573108375,1
0.435988724,-4.647262096,1,-3.278276205,1,-7.988874435,1,0.000396316,1,0.000584147,1,0.003767745,1,0.3813266754150391,1,-0.483928561,1,-0.573104918,1
0.439986676,-4.650239468,1,-3.260755301,1,-8.015587807,1,-0.000330828,1,-0.00257867,1,0.001834365,1,0.381325901,1,-0.48394829,1,-0.573102713,1
0.443992585,-4.614661694,1,-3.2578578,1,-8.007024765,1,-2.25E-05,1,-0.006740452,1,0.003246579,1,0.3813250660896301,1,-0.483960658,1,-0.573093951,1
0.447994381,-4.650393486,1,-3.224966049,1,-8.029480934,1,0.003637307,1,-0.003889958,1,0.000485808,1,0.3813400268554688,1,-0.483983576,1,-0.573101759,1
0.451992333,-4.65664053,1,-3.235647917,1,-8.029022217,1,0.003771145,1,-0.010100947,1,0.00172741,1,0.3813506960868835,1,-0.484014452,1,-0.573107839,1
0.455992073,-4.669573784,1,-3.248123884,1,-8.047381401,1,0.005309035,1,-0.007987401,1,-0.00051409,1,0.3813685178756714,1,-0.48404175,1,-0.573117197,1
0.459993601,-4.669585705,1,-3.258867264,1,-8.037780762,1,0.004837506,1,-0.005526138,1,-0.000697356,1,0.3813899755477905,1,-0.484062076,1,-0.573122621,1
0.463991553,-4.6398983,1,-3.27727437,1,-8.004261971,1,0.003856664,1,-0.011699819,1,-0.002210302,1,0.3814103007316589,1,-0.484095842,1,-0.573131502,1
0.467991054,-4.643994331,1,-3.295128107,1,-8.02232933,1,0.002404871,1,-0.007262751,1,0.002298043,1,0.381438285,1,-0.48413524,1,-0.573152065,1
0.471992821,-4.665844917,1,-3.297171116,1,-8.01962471,1,0.001486525,1,-0.00713351,1,-0.000233121,1,0.3814554214477539,1,-0.484166831,1,-0.57315588,1
0.475990534,-4.642573833,1,-3.326756477,1,-8.000946999,1,0.0044634,1,-0.005442141,1,-0.001230468,1,0.3814707398414612,1,-0.484190375,1,-0.573164642,1
0.479990005,-4.673620701,1,-3.272953749,1,-8.00470829,1,-0.003158092,1,-0.007650553,1,0.003206177,1,0.3814780116081238,1,-0.484219134,1,-0.573165596,1
0.483991802,-4.646569729,1,-3.285294771,1,-7.999771595,1,0.001479418,1,-0.004710237,1,0.003799316,1,0.3814800381660461,1,-0.484257251,1,-0.573164701,1
0.487989515,-4.683986187,1,-3.270171165,1,-8.020334244,1,0.00017822,1,-0.008377359,1,-0.001444845,1,0.3814885020256042,1,-0.484291762,1,-0.573169172,1
0.491988987,-4.686790466,1,-3.273313284,1,-8.001069069,1,0.003320919,1,-0.004939907,1,0.003871108,1,0.3814951777458191,1,-0.484321862,1,-0.573177218,1
0.495990783,-4.658462524,1,-3.269982576,1,-7.997639179,1,-0.001758325,1,-0.003787761,1,-0.001906322,1,0.3814997673034668,1,-0.48434642,1,-0.573178053,1
0.499988467,-4.689805031,1,-3.280711174,1,-7.968952656,1,-0.000423838,1,-0.008079275,1,0.002592175,1,0.3815053105354309,1,-0.484368443,1,-0.573188663,1
0.503988206,-4.633779049,1,-3.289891481,1,-8.006258011,1,0.000771703,1,-0.004813818,1,0.0037518,1,0.3815080523490906,1,-0.484389693,1,-0.573192716,1
0.507990003,-4.636374474,1,-3.261189699,1,-8.01418972,1,-0.000598338,1,-0.006391344,1,0.002404305,1,0.3815098106861115,1,-0.484417588,1,-0.573197007,1
0.511987686,-4.617187023,1,-3.280287027,1,-8.029317856,1,-0.000835998,1,-0.009430793,1,0.003889337,1,0.3815041780471802,1,-0.484446853,1,-0.573194623,1
0.515987456,-4.624778748,1,-3.267448902,1,-7.991522312,1,-0.002603532,1,-0.005341262,1,0.00207202,1,0.381505549,1,-0.484483361,1,-0.573192358,1
0.519989252,-4.628556728,1,-3.291558266,1,-8.021487236,1,8.316594175994396e-05,1,-0.011135696,1,0.005787651,1,0.3814981281757355,1,-0.484519482,1,-0.57319504,1
0.523986936,-4.64866972,1,-3.281719685,1,-8.026947021,1,0.000718335,1,-0.010609935,1,0.001867537,1,0.3815000951290131,1,-0.484561592,1,-0.573193073,1
0.527986705,-4.650322914,1,-3.242482901,1,-8.042054176,1,0.000787023,1,-0.008423263,1,0.004723022,1,0.3814998269081116,1,-0.484605908,1,-0.573196471,1
0.531988502,-4.666191578,1,-3.299953699,1,-7.996501923,1,-0.001170683,1,-0.009687991,1,0.004862343,1,0.3815022706985474,1,-0.484651297,1,-0.573191583,1
0.535986423,-4.669309616,1,-3.308212996,1,-7.984714985,1,-0.001183572,1,-0.011323329,1,0.00680198,1,0.3814982175827026,1,-0.484692305,1,-0.573193252,1
0.539986193,-4.6714077,1,-3.29269433,1,-7.992910862,1,-0.001858725,1,-0.009365967,1,0.004418485,1,0.3814905881881714,1,-0.484732956,1,-0.573191166,1
0.543987691,-4.646944046,1,-3.275695324,1,-8.009985924,1,0.001290875,1,-0.01116679,1,0.007810821,1,0.3814764022827148,1,-0.484780818,1,-0.573182225,1
0.547985435,-4.627069473,1,-3.25370717,1,-8.027901649,1,-0.001105636,1,-0.010634626,1,0.00718425,1,0.3814711570739746,1,-0.484818488,1,-0.573175311,1
0.551985145,-4.639307022,1,-3.273646593,1,-8.003630638,1,-0.003747904,1,-0.009950965,1,0.002610573,1,0.3814585208892822,1,-0.484864593,1,-0.573173285,1
0.555986702,-4.661870003,1,-3.277639627,1,-7.99209404,1,-0.005202977,1,-0.008645455,1,0.002459964,1,0.3814437389373779,1,-0.484905958,1,-0.573171854,1
0.559984386,-4.705963135,1,-3.29843235,1,-8.007107735,1,-0.004435972,1,-0.011769592,1,0.006831629,1,0.3814350366592407,1,-0.484947205,1,-0.573174298,1
0.563989997,-4.647249699,1,-3.266323566,1,-8.011548042,1,-0.001734629,1,-0.009171418,1,0.009566836,1,0.3814258277416229,1,-0.48499307,1,-0.573168099,1
0.567992091,-4.66953516,1,-3.21983695,1,-8.01060009,1,-0.003002928,1,-0.011229406,1,0.007106983,1,0.3814073801040649,1,-0.485039324,1,-0.573153913,1
0.571990013,-4.698217392,1,-3.222388983,1,-7.975194931,1,-0.005170405,1,-0.007914157,1,0.003064376,1,0.381389856,1,-0.485080808,1,-0.573146701,1
0.575989485,-4.652508736,1,-3.206087112,1,-7.981108189,1,-0.000505789,1,-0.008862671,1,0.003051432,1,0.3813773393630981,1,-0.485116482,1,-0.573142052,1
0.579991281,-4.685242176,1,-3.20284462,1,-7.997242451,1,8.752546273171902e-05,1,-0.012999761,1,0.004997761,1,0.3813683390617371,1,-0.485153884,1,-0.573145449,1
0.583988965,-4.665400982,1,-3.232023239,1,-7.981229305,1,0.002140476,1,-0.005058949,1,0.00113727,1,0.3813657760620117,1,-0.485188931,1,-0.573146164,1
0.587988496,-4.660766125,1,-3.234386683,1,-7.969103336,1,-0.00148164,1,-0.008253086,1,0.001899241,1,0.3813704252243042,1,-0.485221446,1,-0.573145866,1
0.591990292,-4.674861908,1,-3.230594635,1,-7.993427753,1,0.001406223,1,-0.003614883,1,0.002586897,1,0.3813734352588654,1,-0.485251039,1,-0.573146462,1
0.595987976,-4.691454411,1,-3.272228718,1,-7.984628677,1,0.004038121,1,-0.006942218,1,0.002771628,1,0.3813840746879578,1,-0.485284477,1,-0.573151469,1
0.599987686,-4.666543007,1,-3.295110464,1,-7.96991539,1,-0.001296782,1,-0.005426067,1,-0.001606309,1,0.3813920319080353,1,-0.485307515,1,-0.573153198,1
0.603989482,-4.670247078,1,-3.30496192,1,-7.984913349,1,-0.000307396,1,-0.001158393,1,0.002598738,1,0.3813907206058502,1,-0.485325426,1,-0.573164582,1
0.607987225,-4.676672935,1,-3.290346861,1,-8.00122261,1,0.000470868,1,-0.005214464,1,-0.001109645,1,0.3813859820365906,1,-0.485343605,1,-0.573159873,1
0.611986935,-4.663046837,1,-3.260355949,1,-7.969677925,1,-0.001625842,1,-0.004440174,1,0.003656956,1,0.3813850581645966,1,-0.485361099,1,-0.573165119,1
0.615988731,-4.660685062,1,-3.282907248,1,-8.010015488,1,-0.000600866,1,-0.002993617,1,-0.000476453,1,0.3813741505146027,1,-0.485378325,1,-0.573154986,1
0.619986415,-4.670532227,1,-3.245450258,1,-8.006126404,1,-0.002749393,1,-0.001755698,1,0.004626623,1,0.3813663125038147,1,-0.48538959,1,-0.573153257,1
0.623986185,-4.663106918,1,-3.240424871,1,-8.023905754,1,-0.000674149,1,-0.003183378,1,0.005133152,1,0.3813594579696655,1,-0.485412359,1,-0.57314527,1
0.627987981,-4.676348209,1,-3.242265224,1,-8.02953434,1,-0.000485937,1,-0.003392189,1,-0.000390061,1,0.381351501,1,-0.485424042,1,-0.573142231,1
0.631985903,-4.650147915,1,-3.247573614,1,-8.01631546,1,0.000571657,1,-0.007340862,1,0.005307538,1,0.3813475370407104,1,-0.485443503,1,-0.573127747,1
0.635985672,-4.682557106,1,-3.265638351,1,-7.969979763,1,-0.001165306,1,-0.002814516,1,0.004957316,1,0.3813446462154388,1,-0.485468149,1,-0.573123336,1
0.639987469,-4.667665958,1,-3.274446487,1,-8.017109871,1,-0.000101559,1,-0.003333764,1,0.00622123,1,0.3813307285308838,1,-0.485489786,1,-0.57310915,1
0.643985391,-4.652386665,1,-3.264887333,1,-7.98867321,1,-0.004406359,1,-0.001897616,1,0.004109298,1,0.3813167810440063,1,-0.485512972,1,-0.573105752,1
0.64798516,-4.667982578,1,-3.251924992,1,-8.011960983,1,-0.003210197,1,-0.00682814,1,0.006916568,1,0.3812982439994812,1,-0.485539138,1,-0.573100328,1
0.651986659,-4.675869465,1,-3.263078213,1,-7.991403103,1,-0.002617764,1,-0.004838245,1,0.003562055,1,0.3812817931175232,1,-0.485568017,1,-0.573085427,1
0.655984402,-4.667901993,1,-3.264226437,1,-7.996128559,1,-0.003016311,1,-0.005887325,1,0.006126824,1,0.3813891410827637,1,-0.485789657,1,-0.573137045,1
0.659983873,-4.655271053,1,-3.259474277,1,-8.000555038,1,-0.003040938,1,-0.004807703,1,0.004093315,1,0.3813331723213196,1,-0.485757768,1,-0.573378623,1
0.66398567,-4.675287724,1,-3.284174442,1,-8.014452934,1,-0.002266395,1,-0.003688533,1,0.001819909,1,0.3813267946243286,1,-0.48578158,1,-0.573373675,1
0.667983353,-4.656767845,1,-3.246552706,1,-7.984407902,1,-0.004504075,1,-0.005266057,1,0.00113474,1,0.3813179135322571,1,-0.485806525,1,-0.573369443,1
0.671982825,-4.683477402,1,-3.262380838,1,-8.012033463,1,-0.001509731,1,-0.002971387,1,0.00366888,1,0.3813047707080841,1,-0.485832155,1,-0.573368549,1
0.675984621,-4.685525894,1,-3.248942137,1,-7.984416962,1,-0.003797207,1,-0.003632292,1,0.002013899,1,0.3812964558601379,1,-0.485844165,1,-0.57336241,1
0.679982364,-4.680670261,1,-3.210696459,1,-7.996619225,1,0.000880478,1,-0.00470194,1,-6.18E-05,1,0.3812872171401978,1,-0.485870212,1,-0.573355556,1
0.683987975,-4.671746254,1,-3.233711958,1,-8.023590088,1,-0.004311471,1,-0.001260952,1,0.001674886,1,0.3812865018844604,1,-0.485892117,1,-0.573355794,1
0.687989771,-4.683496952,1,-3.230172634,1,-7.996363163,1,0.002643381,1,-0.006274651,1,0.001219771,1,0.3812877535820007,1,-0.485913396,1,-0.573357821,1
0.691987455,-4.676126957,1,-3.291820765,1,-8.013295174,1,0.001824622,1,-0.006740934,1,0.001989589,1,0.381288081,1,-0.485926151,1,-0.573362589,1
0.695987225,-4.675521374,1,-3.303629875,1,-7.97994566,1,-0.005107698,1,-0.006702262,1,0.001166714,1,0.3812832832336426,1,-0.485947818,1,-0.573360145,1
0.699989021,-4.669788361,1,-3.245144129,1,-7.990418434,1,-0.003394119,1,-0.002156063,1,0.002093271,1,0.3812810182571411,1,-0.485969037,1,-0.573369741,1
0.703986704,-4.658280373,1,-3.237514496,1,-7.996251583,1,-0.002747342,1,-0.006844736,1,0.003502843,1,0.3812674582004547,1,-0.485984683,1,-0.573362589,1
0.707986414,-4.666241169,1,-3.221113205,1,-7.985205173,1,-0.003317501,1,-0.005115442,1,-0.001322092,1,0.3812587261199951,1,-0.486002117,1,-0.573362112,1
0.711988211,-4.671540737,1,-3.28085494,1,-7.991842747,1,-0.002262973,1,-0.005374353,1,0.004868955,1,0.3812554478645325,1,-0.486025155,1,-0.573362887,1
0.715985894,-4.637076378,1,-3.301769972,1,-7.996707916,1,0.001409151,1,-0.003749664,1,0.002497725,1,0.3812546133995056,1,-0.486047834,1,-0.573364854,1
0.719985664,-4.638268471,1,-3.293835878,1,-7.977161884,1,-0.002622742,1,-0.003856238,1,0.002571239,1,0.381249726,1,-0.486069649,1,-0.573360741,1
0.72398746,-4.651108265,1,-3.317275286,1,-7.980083466,1,-0.001885446,1,-0.006041136,1,0.002181451,1,0.3812275528907776,1,-0.486093849,1,-0.573357642,1
0.727985382,-4.674246788,1,-3.331743479,1,-7.973642826,1,-0.007175016,1,-0.006753196,1,0.002533461,1,0.3812128305435181,1,-0.486117512,1,-0.573350549,1
0.731985152,-4.659243107,1,-3.298005104,1,-8.009674072,1,-0.001628051,1,-0.009421363,1,0.002977946,1,0.3811939656734467,1,-0.486149967,1,-0.573351324,1
0.73598671,-4.664945602,1,-3.24814105,1,-8.006866455,1,-0.004996929,1,-0.007017527,1,0.005977759,1,0.3811714053153992,1,-0.486183465,1,-0.57334125,1
0.739984632,-4.674921513,1,-3.238049507,1,-7.99266386,1,-0.004785415,1,-0.005445975,1,0.004326136,1,0.3811508119106293,1,-0.486217618,1,-0.573329508,1
0.743984401,-4.655767441,1,-3.279461145,1,-8.015159607,1,-0.004211044,1,-0.006201212,1,0.002304422,1,0.3811323046684265,1,-0.486246675,1,-0.573316932,1
0.747985899,-4.646018505,1,-3.258996487,1,-8.026787758,1,-0.003514984,1,-0.012302469,1,0.005855391,1,0.381117582,1,-0.486294031,1,-0.573314667,1
0.751983881,-4.688929081,1,-3.256276608,1,-8.00623703,1,-0.005086526,1,-0.010960253,1,0.006592099,1,0.381097138,1,-0.486330152,1,-0.57330215,1
0.755983353,-4.685059547,1,-3.277958393,1,-8.029848099,1,-0.002482225,1,-0.009700763,1,0.005811445,1,0.3810729384422302,1,-0.486377448,1,-0.573291779,1
0.759985149,-4.691441536,1,-3.225326061,1,-8.005301476,1,-0.002472915,1,-0.011470429,1,0.007972948,1,0.3810603022575378,1,-0.486426979,1,-0.57327795,1
0.763982832,-4.688382149,1,-3.236210585,1,-7.967885971,1,-0.002432939,1,-0.010392416,1,0.006383884,1,0.381040484,1,-0.486474842,1,-0.573262572,1
0.767982364,-4.684168816,1,-3.274935722,1,-7.982729435,1,-0.001724353,1,-0.009296245,1,0.004065104,1,0.3810274004936218,1,-0.486525893,1,-0.57325536,1
0.7719841,-4.677652359,1,-3.239195585,1,-7.99109745,1,-7.70E-05,1,-0.012271835,1,0.005247056,1,0.3810199499130249,1,-0.486568302,1,-0.573252141,1
0.775981843,-4.67022562,1,-3.212944746,1,-8.013188362,1,-0.002360719,1,-0.01259162,1,0.00616809,1,0.3810139894485474,1,-0.486620277,1,-0.573244393,1
0.779981315,-4.680751324,1,-3.208101749,1,-8.016542435,1,-0.002612354,1,-0.012176416,1,0.002667674,1,0.3810144066810608,1,-0.486672223,1,-0.573251963,1
0.783983111,-4.688049316,1,-3.243464231,1,-8.007376671,1,0.004099728,1,-0.010798389,1,0.000129137,1,0.3810184597969055,1,-0.486723125,1,-0.573251665,1
0.787980795,-4.700947285,1,-3.262916803,1,-8.004243851,1,-0.004659284,1,-0.010337684,1,0.008197168,1,0.3810186386108398,1,-0.486772835,1,-0.573258996,1
0.791980565,-4.647367001,1,-3.271240234,1,-7.937735558,1,-0.000270974,1,-0.012202905,1,0.004095279,1,0.3810223042964935,1,-0.486818314,1,-0.573256791,1
0.795982361,-4.685394764,1,-3.254033566,1,-7.99552393,1,-0.000963742,1,-0.011096161,1,0.002659748,1,0.3810139298439026,1,-0.486865997,1,-0.573249876,1
0.799980044,-4.660082817,1,-3.270623684,1,-8.019411087,1,0.000346489,1,-0.009962942,1,0.003715215,1,0.3810203075408936,1,-0.48691082,1,-0.573249996,1
0.803985894,-4.689722061,1,-3.257984877,1,-7.96441412,1,-0.001403798,1,-0.008919393,1,0.005491216,1,0.3810158967971802,1,-0.486950666,1,-0.57324183,1
0.80798769,-4.704293728,1,-3.291648149,1,-7.985528946,1,-0.00281409,1,-0.009188507,1,0.004596663,1,0.3810132443904877,1,-0.486992806,1,-0.57324183,1
0.811985433,-4.672228813,1,-3.263211012,1,-8.003038406,1,0.001811544,1,-0.010583889,1,0.004713645,1,0.3810116350650787,1,-0.487036318,1,-0.573230624,1
0.815985143,-4.686473846,1,-3.292763233,1,-8.004806519,1,-0.004929871,1,-0.009897895,1,0.008088421,1,0.3810093998908997,1,-0.487075329,1,-0.573224127,1
0.819986939,-4.690847397,1,-3.255811214,1,-7.97910881,1,-0.002194035,1,-0.013116117,1,0.00514636,1,0.3809975981712341,1,-0.487125218,1,-0.573219001,1
0.823984921,-4.725151062,1,-3.278625965,1,-7.977899551,1,-0.007486772,1,-0.011131246,1,0.008314189,1,0.3809769749641418,1,-0.487174034,1,-0.5732041,1
0.827984631,-4.674965382,1,-3.238815546,1,-7.989661217,1,0.000580742,1,-0.007581653,1,0.00437694,1,0.3809594213962555,1,-0.487215161,1,-0.573197722,1
0.831986189,-4.705769539,1,-3.254575014,1,-8.027808189,1,-0.004429241,1,-0.011382871,1,0.008878149,1,0.3809484541416168,1,-0.487254441,1,-0.57318598,1
0.835984111,-4.671953678,1,-3.233253479,1,-7.99562645,1,-0.003423359,1,-0.00950624,1,0.007275837,1,0.3809306621551514,1,-0.487294257,1,-0.573170543,1
0.839983881,-4.701203346,1,-3.26414609,1,-7.986746311,1,-0.004411549,1,-0.009179275,1,0.004923678,1,0.3809193968772888,1,-0.487342685,1,-0.573167145,1
0.843985677,-4.716320038,1,-3.248553038,1,-8.001963615,1,-0.002256273,1,-0.008723137,1,0.006886539,1,0.3808973729610443,1,-0.487386912,1,-0.573151529,1
0.847983599,-4.707571983,1,-3.234958172,1,-8.014245033,1,-0.000150432,1,-0.007867291,1,0.004882469,1,0.3808920979499817,1,-0.48742491,1,-0.573141277,1
0.851983607,-4.700763226,1,-3.221746445,1,-8.025951385,1,0.001440019,1,-0.008673046,1,0.007610479,1,0.3808817267417908,1,-0.487464726,1,-0.573127449,1
0.855985641,-4.709164619,1,-3.227342844,1,-7.967133522,1,0.001368934,1,-0.007620018,1,0.006153921,1,0.3808810412883759,1,-0.487500072,1,-0.573116183,1
0.859983623,-4.741169453,1,-3.285693169,1,-7.966891289,1,0.000849474,1,-0.007438053,1,0.003601975,1,0.3808755874633789,1,-0.487544417,1,-0.573099017,1
0.863983333,-4.699799538,1,-3.280272961,1,-8.011563301,1,0.000659134,1,-0.00664638,1,0.0082433,1,0.3808598816394806,1,-0.48757714,1,-0.573084712,1
0.867985129,-4.685272217,1,-3.280811071,1,-7.988826752,1,0.003333097,1,-0.005876605,1,0.007904071,1,0.3808549344539642,1,-0.487617671,1,-0.573072374,1
0.871982872,-4.694256783,1,-3.285009146,1,-7.98293829,1,0.002140928,1,-0.007879278,1,0.007485755,1,0.3808544278144836,1,-0.487658322,1,-0.573060989,1
0.875982344,-4.674771309,1,-3.266962051,1,-7.975322723,1,-0.002663227,1,-0.007320707,1,0.005298757,1,0.3808360695838928,1,-0.487692863,1,-0.573039234,1
0.87998414,-4.675840378,1,-3.267310381,1,-7.98157835,1,-0.002648258,1,-0.007014892,1,0.010025635,1,0.380817711,1,-0.487732261,1,-0.57302171,1
0.883981824,-4.680412769,1,-3.246054888,1,-7.989575863,1,-0.001455773,1,-0.002602716,1,0.009197265,1,0.380795807,1,-0.487767011,1,-0.572988153,1
0.887981594,-4.649305344,1,-3.276640177,1,-8.007016182,1,-0.003194449,1,-0.010215466,1,0.011486534,1,0.3807739913463593,1,-0.487806141,1,-0.572962701,1
0.89198333,-4.626615047,1,-3.250178576,1,-8.003541946,1,-0.004998571,1,-0.006388975,1,0.008868586,1,0.3807525634765625,1,-0.487855077,1,-0.57294333,1
0.895981073,-4.637686253,1,-3.306020498,1,-7.982665062,1,-0.006491794,1,-0.009221701,1,0.008620366,1,0.3807200193405151,1,-0.487899244,1,-0.572918355,1
0.899980783,-4.661888599,1,-3.318803787,1,-7.968384266,1,-0.008443956,1,-0.006745255,1,0.015640758,1,0.3806832730770111,1,-0.487945497,1,-0.572890282,1
0.90398258,-4.699170589,1,-3.317619562,1,-7.991231441,1,-0.012681128,1,-0.012174306,1,0.012280531,1,0.3806266188621521,1,-0.487993628,1,-0.572850108,1
0.907980263,-4.694740295,1,-3.279318333,1,-7.973655701,1,-0.01307652,1,-0.007903572,1,0.010603317,1,0.3806470036506653,1,-0.488188893,1,-0.57311821,1
0.911980033,-4.682771683,1,-3.251779795,1,-7.98903656,1,-0.007868351,1,-0.006419681,1,0.011187298,1,0.3805955052375793,1,-0.488233477,1,-0.573079467,1
0.915981591,-4.69733429,1,-3.211413145,1,-7.99143362,1,-0.009263226,1,-0.005457657,1,0.012830634,1,0.3805434107780457,1,-0.488277018,1,-0.57304287,1
0.919979274,-4.678320885,1,-3.187866926,1,-8.015593529,1,-0.004171303,1,-0.013372048,1,0.014898079,1,0.3804912567138672,1,-0.488333791,1,-0.572992444,1
0.923984885,-4.648108482,1,-3.21397543,1,-8.008874893,1,-0.004373007,1,-0.008245371,1,0.016221762,1,0.380453885,1,-0.488389224,1,-0.57294488,1
0.927986681,-4.74333334,1,-3.233785152,1,-8.035264015,1,-0.004573037,1,-0.006582277,1,0.012706267,1,0.380417526,1,-0.488438189,1,-0.572900772,1
0.931984663,-4.718878269,1,-3.200963974,1,-8.004356384,1,-0.003753811,1,-0.008568708,1,0.009079267,1,0.3803891837596893,1,-0.488489479,1,-0.572875023,1
0.935984373,-4.709332466,1,-3.160616398,1,-8.020102501,1,-0.001152918,1,-0.003394873,1,0.008461496,1,0.3803647458553314,1,-0.488517612,1,-0.572857082,1
0.939986169,-4.711061478,1,-3.193333149,1,-8.008029938,1,0.001633615,1,-0.008071196,1,0.011608871,1,0.3803458213806152,1,-0.488560677,1,-0.572827518,1
0.943984151,-4.677434921,1,-3.212104797,1,-7.980494499,1,-0.002970668,1,-0.009804915,1,0.006410623,1,0.3803353309631348,1,-0.488604128,1,-0.572809398,1
0.947983861,-4.738098145,1,-3.224071264,1,-7.992474079,1,-0.001646853,1,-0.009895274,1,0.007568667,1,0.3803271055221558,1,-0.488650799,1,-0.572790921,1
0.951985657,-4.698682785,1,-3.232437849,1,-8.027993202,1,0.00658135,1,-0.006655037,1,0.011437556,1,0.3803375959396362,1,-0.488688111,1,-0.572776437,1
0.955983341,-4.693140507,1,-3.278287411,1,-7.9907341,1,0.004000418,1,-0.009106253,1,0.01056744,1,0.3803534507751465,1,-0.488733888,1,-0.572752714,1
0.95998311,-4.655857563,1,-3.307309389,1,-7.980510235,1,-0.000573145,1,-0.011033885,1,0.008229923,1,0.3803476393222809,1,-0.488782138,1,-0.572731018,1
0.963984907,-4.688170433,1,-3.22971034,1,-8.006299973,1,-5.99E-05,1,-0.008992537,1,0.007204121,1,0.3803440034389496,1,-0.488834292,1,-0.572717667,1
0.967982829,-4.717101097,1,-3.224149704,1,-7.990572453,1,0.000822976,1,-0.006727564,1,0.010972691,1,0.3803297877311707,1,-0.488880336,1,-0.57269156,1
0.971982598,-4.704395771,1,-3.250126362,1,-7.959747314,1,0.001281912,1,-0.007307337,1,0.005291242,1,0.3803256154060364,1,-0.488929391,1,-0.572670519,1
0.975984395,-4.668302536,1,-3.263393402,1,-8.007814407,1,0.002283322,1,-0.009423188,1,0.009183764,1,0.3803156316280365,1,-0.488981426,1,-0.572651505,1
0.979982078,-4.702005863,1,-3.285502195,1,-7.994318962,1,-0.000251395,1,-0.009417731,1,0.010749391,1,0.3803089261054993,1,-0.489032596,1,-0.572623193,1
0.983981848,-4.70945406,1,-3.278401852,1,-7.955944538,1,-0.006048545,1,-0.009935815,1,0.010280592,1,0.3802874684333801,1,-0.489081234,1,-0.57259053,1
0.987983644,-4.719912052,1,-3.233645916,1,-7.960073471,1,-0.001928463,1,-0.005527056,1,0.009019325,1,0.3802661597728729,1,-0.489123136,1,-0.572558403,1
0.991981328,-4.723086357,1,-3.214473963,1,-8.012939453,1,-0.00359012,1,-0.006936398,1,0.012019921,1,0.3802412748336792,1,-0.489166051,1,-0.572523177,1
0.995981038,-4.73738575,1,-3.236610889,1,-8.007423401,1,-0.001837288,1,-0.005837872,1,0.009172821,1,0.3802171349525452,1,-0.489206642,1,-0.572489679,1
0.999982834,-4.693109989,1,-3.252165556,1,-7.981133461,1,-0.003914131,1,-0.004794862,1,0.00979398,1,0.3801931738853455,1,-0.489246935,1,-0.572459519,1
1.003980517,-4.700186253,1,-3.255553484,1,-7.986884117,1,-0.00040884,1,-0.006225381,1,0.00819904,1,0.3801778256893158,1,-0.489282072,1,-0.572433949,1
1.007980347,-4.679162502,1,-3.218766212,1,-7.983977318,1,-0.00178911,1,-0.00067779,1,0.013336303,1,0.3801583051681519,1,-0.489316285,1,-0.572402954,1
1.011981845,-4.689089298,1,-3.232299089,1,-7.983785629,1,0.001084649,1,-0.004180398,1,0.00620045,1,0.3801336288452148,1,-0.489344954,1,-0.572368622,1
1.015979767,-4.699985504,1,-3.199502945,1,-8.003277779,1,-0.003051076,1,-0.010812408,1,0.01103938,1,0.3801223635673523,1,-0.489375114,1,-0.572347939,1
1.019979477,-4.692883015,1,-3.248786211,1,-8.009082794,1,-0.002394286,1,-0.00668526,1,0.00756719,1,0.380102277,1,-0.489420384,1,-0.572322011,1
1.023981094,-4.722574234,1,-3.23483181,1,-7.99030304,1,0.000727178,1,-0.011080612,1,0.005683406,1,0.3800930976867676,1,-0.489464641,1,-0.572302759,1
1.027978778,-4.707623005,1,-3.265538216,1,-7.970338345,1,-0.000388419,1,-0.00674542,1,0.00972613,1,0.3800974488258362,1,-0.48951143,1,-0.572281539,1
1.031978488,-4.717977047,1,-3.240066528,1,-7.976984978,1,0.00045213,1,-0.0087314,1,0.006187075,1,0.3800936937332153,1,-0.489544213,1,-0.572260559,1
1.035979986,-4.705915451,1,-3.231432438,1,-7.993475914,1,-0.000370941,1,-0.004295135,1,0.009234181,1,0.3800809979438782,1,-0.489590406,1,-0.572235227,1
1.03997767,-4.702917099,1,-3.223525763,1,-8.011098862,1,-0.00070722,1,-0.008087669,1,0.006121316,1,0.3800778687000275,1,-0.489625335,1,-0.572215736,1
1.04398334,-4.707942009,1,-3.201591253,1,-8.000584602,1,-0.000940156,1,-0.007293056,1,0.006370146,1,0.3800643384456635,1,-0.489660144,1,-0.57219553,1
1.047985196,-4.73406744,1,-3.265078068,1,-7.968892097,1,0.004030081,1,-0.008151273,1,0.007158573,1,0.3800631165504456,1,-0.489697367,1,-0.572169065,1
1.05198288,-4.720926285,1,-3.240522623,1,-8.000370979,1,0.001992091,1,-0.009026137,1,0.004993163,1,0.3800571262836456,1,-0.489729434,1,-0.572144806,1
1.055982351,-4.735132217,1,-3.251700163,1,-7.969239235,1,0.00312792,1,-0.003345459,1,0.007634092,1,0.3800601661205292,1,-0.489767075,1,-0.572141588,1
1.059984088,-4.701844692,1,-3.258825779,1,-7.980484009,1,-0.000127522,1,-0.010142871,1,0.005820036,1,0.380053699,1,-0.48979634,1,-0.57212919,1
1.063981771,-4.73265028,1,-3.243010998,1,-7.990688801,1,0.003028,1,-0.004416343,1,0.003965516,1,0.3800481557846069,1,-0.489824921,1,-0.5721156,1
1.067981362,-4.723415375,1,-3.240822792,1,-8.015100479,1,-8.50E-05,1,-0.006991786,1,0.007373663,1,0.3800421357154846,1,-0.489854783,1,-0.57210362,1
1.071983337,-4.724006653,1,-3.229261637,1,-7.995525837,1,0.001131978,1,-0.001902283,1,0.008680119,1,0.3800345063209534,1,-0.489880264,1,-0.572083831,1
1.075981259,-4.696267605,1,-3.24982667,1,-7.988809109,1,0.001940402,1,-0.00984575,1,0.008003927,1,0.3800360560417175,1,-0.489910454,1,-0.572075903,1
1.079981327,-4.728823662,1,-3.247863054,1,-7.977180004,1,-0.002359803,1,-0.004216308,1,0.003947726,1,0.3800289630889893,1,-0.48994571,1,-0.572056293,1
1.083983064,-4.681946754,1,-3.257354498,1,-7.981811047,1,-0.001671925,1,-0.004989587,1,0.005497472,1,0.3800236880779266,1,-0.489972591,1,-0.572042346,1
1.087980747,-4.668309689,1,-3.260026217,1,-7.992500782,1,-0.000293215,1,-0.006690544,1,0.008351492,1,0.3800114095211029,1,-0.490000874,1,-0.572023094,1
1.091980577,-4.683675766,1,-3.250616789,1,-7.952213764,1,0.000717749,1,-0.006677183,1,0.005826468,1,0.3799986243247986,1,-0.490041226,1,-0.572003603,1
1.095982313,-4.713678837,1,-3.250230551,1,-7.971549034,1,-0.000352812,1,-0.005670039,1,0.004832042,1,0.3799960017204285,1,-0.490074933,1,-0.571989536,1
1.099979997,-4.689181805,1,-3.266260862,1,-7.992224216,1,-0.000716173,1,-0.006114797,1,0.003451805,1,0.3799888491630554,1,-0.490106851,1,-0.571976006,1
1.103979826,-4.693475723,1,-3.239193201,1,-8.017291069,1,-0.000581638,1,-0.006405258,1,0.011768537,1,0.3799744248390198,1,-0.490137309,1,-0.571955621,1
1.107981324,-4.708664894,1,-3.22107935,1,-7.999292374,1,-0.000799828,1,-0.006810817,1,0.008038392,1,0.3799684643745422,1,-0.490178078,1,-0.571940005,1
1.111979246,-4.714138508,1,-3.245870829,1,-8.004938126,1,-0.001994485,1,-0.008858708,1,0.004114842,1,0.3799606263637543,1,-0.490219086,1,-0.571928322,1
1.115978956,-4.701069832,1,-3.220573664,1,-7.990530491,1,0.001151747,1,-0.009558835,1,0.005629578,1,0.3799492716789246,1,-0.490252167,1,-0.571910918,1
1.119980574,-4.709814548,1,-3.265175104,1,-8.005984306,1,0.001613289,1,-0.0104762,1,0.004359861,1,0.379945308,1,-0.490285546,1,-0.57190454,1
1.123978496,-4.700527191,1,-3.243209839,1,-8.011574745,1,0.002099511,1,-0.005852325,1,0.006635577,1,0.3799546360969543,1,-0.490325719,1,-0.57189548,1
1.127978206,-4.676149368,1,-3.248032331,1,-8.018908501,1,0.003822969,1,-0.012553607,1,0.006060466,1,0.3799608945846558,1,-0.490372717,1,-0.571888149,1
1.131979823,-4.684467316,1,-3.28162837,1,-8.018603325,1,0.001185449,1,-0.009863616,1,0.008377727,1,0.3799614012241364,1,-0.49042207,1,-0.571880579,1
1.135977507,-4.688703537,1,-3.263566017,1,-7.997435093,1,0.005632257,1,-0.010745111,1,0.007544606,1,0.3799618482589722,1,-0.490479231,1,-0.571870148,1
1.139977217,-4.663070202,1,-3.27782464,1,-7.989105225,1,3.912206739187241e-05,1,-0.01591544,1,0.008262037,1,0.3799701333045959,1,-0.490540057,1,-0.571858406,1
1.143978953,-4.714304447,1,-3.26905036,1,-7.990374565,1,0.003838996,1,-0.01429531,1,0.010949845,1,0.3799702227115631,1,-0.490606844,1,-0.571844935,1
1.147976756,-4.674091816,1,-3.303025723,1,-7.984767437,1,0.002071704,1,-0.013493526,1,0.012191376,1,0.3799688816070557,1,-0.49067986,1,-0.571821988,1
1.151976228,-4.719706059,1,-3.285426617,1,-7.997582436,1,1.101125963032246e-05,1,-0.012432779,1,0.00984072,1,0.3799757957458496,1,-0.490741491,1,-0.571805954,1
1.155977964,-4.714146137,1,-3.264552832,1,-8.012887001,1,-0.00201137,1,-0.01624546,1,0.011403801,1,0.3800649344921112,1,-0.491002351,1,-0.571847737,1
1.159975648,-4.700756073,1,-3.288206577,1,-7.988678932,1,-0.002703025,1,-0.017931366,1,0.015891271,1,0.380017102,1,-0.491033554,1,-0.572054923,1
1.163981318,-4.69631958,1,-3.263317585,1,-7.964129925,1,0.003021925,1,-0.016741946,1,0.007780446,1,0.3800018727779388,1,-0.491111815,1,-0.572029233,1
1.167983055,-4.744432926,1,-3.249905586,1,-7.979017258,1,5.165953189134598e-05,1,-0.016131543,1,0.010723819,1,0.3799993693828583,1,-0.491187274,1,-0.572017252,1
1.171980858,-4.71921587,1,-3.259977102,1,-7.966646671,1,-0.001314658,1,-0.020070858,1,0.013795789,1,0.3799872994422913,1,-0.491263479,1,-0.571992993,1
1.175980568,-4.702479839,1,-3.246070623,1,-8.01121521,1,-0.000644033,1,-0.017775724,1,0.011752129,1,0.3799712061882019,1,-0.491348445,1,-0.571977496,1
1.179982305,-4.733308315,1,-3.232738972,1,-7.980580807,1,-0.002304556,1,-0.013981534,1,0.011329997,1,0.3799554407596588,1,-0.491427124,1,-0.571958423,1
1.183979988,-4.709672928,1,-3.243712664,1,-7.979104996,1,-0.001420549,1,-0.017253166,1,0.014769604,1,0.3799436092376709,1,-0.491508275,1,-0.571939111,1
1.187979817,-4.692957878,1,-3.273779631,1,-7.974606514,1,-0.001117646,1,-0.017412215,1,0.012551643,1,0.3799388408660889,1,-0.491587996,1,-0.571919382,1
1.191981554,-4.687253952,1,-3.292068243,1,-7.99032259,1,-0.002135576,1,-0.023577437,1,0.009552239,1,0.3799188733100891,1,-0.491684169,1,-0.57189393,1
1.195979238,-4.709486485,1,-3.253755569,1,-7.956213951,1,-0.000358556,1,-0.014981436,1,0.01419122,1,0.3799034357070923,1,-0.491769761,1,-0.57187295,1
1.199979067,-4.716366768,1,-3.227343321,1,-8.002853394,1,-0.001545439,1,-0.021593807,1,0.014737263,1,0.3798863887786865,1,-0.491863787,1,-0.571853161,1
1.203980803,-4.72043705,1,-3.20750761,1,-7.992742062,1,-0.002485018,1,-0.019933002,1,0.012727806,1,0.3798733353614807,1,-0.491951972,1,-0.571832538,1
1.207978725,-4.739975452,1,-3.211591721,1,-7.963654041,1,-0.000820873,1,-0.020301905,1,0.013241146,1,0.3798621892929077,1,-0.492041916,1,-0.571810722,1
1.211978555,-4.757150173,1,-3.220942497,1,-7.953880787,1,-0.003252966,1,-0.021629825,1,0.011004698,1,0.3798419833183289,1,-0.492134571,1,-0.571792722,1
1.215980291,-4.744828224,1,-3.214637995,1,-7.922283173,1,-0.001104936,1,-0.015619159,1,0.010302269,1,0.3798276782035828,1,-0.492220759,1,-0.571780443,1
1.219978213,-4.738171577,1,-3.19550395,1,-7.934160233,1,-0.001323207,1,-0.016812777,1,0.008207923,1,0.3798107504844666,1,-0.492297232,1,-0.57177043,1
1.223978043,-4.767616749,1,-3.165075064,1,-7.965796471,1,-0.00056208,1,-0.016136996,1,0.009479517,1,0.3797927498817444,1,-0.492373526,1,-0.571751356,1
1.227979541,-4.738659382,1,-3.166875839,1,-7.968422413,1,-0.002061346,1,-0.017960133,1,0.004026189,1,0.3797889053821564,1,-0.492444158,1,-0.571749389,1
1.231977463,-4.757092476,1,-3.185724974,1,-7.968984127,1,0.003122869,1,-0.011727779,1,0.006685839,1,0.3797816038131714,1,-0.492509544,1,-0.57174921,1
1.235977173,-4.745731831,1,-3.20768714,1,-7.977397919,1,0.0010884,1,-0.013681763,1,0.010191357,1,0.3797816932201385,1,-0.492574573,1,-0.57174027,1
1.239979029,-4.73731041,1,-3.226864576,1,-7.967926025,1,-0.000123343,1,-0.009194831,1,0.003210144,1,0.379783034,1,-0.492632389,1,-0.571730852,1
1.243976712,-4.733019829,1,-3.2160604,1,-7.952916145,1,0.001293082,1,-0.011801615,1,0.005148338,1,0.3797796964645386,1,-0.492685765,1,-0.571726382,1
1.247976184,-4.742053986,1,-3.237689495,1,-7.978313923,1,-0.00211026,1,-0.009522748,1,0.006661243,1,0.3797789812088013,1,-0.492732674,1,-0.571724892,1
1.25197804,-4.75158596,1,-3.239715815,1,-7.946462154,1,-0.000696575,1,-0.005219257,1,0.006032251,1,0.3797771036624908,1,-0.492771298,1,-0.571708381,1
1.255975723,-4.750529766,1,-3.312767029,1,-7.931346416,1,-0.003101713,1,-0.009402429,1,0.005304979,1,0.3797653913497925,1,-0.492816836,1,-0.571697295,1
1.259975195,-4.770268917,1,-3.285143852,1,-7.982183933,1,-0.002910144,1,-0.010757094,1,0.005629235,1,0.3797484040260315,1,-0.492855787,1,-0.571682572,1
1.263976932,-4.728858471,1,-3.27475214,1,-7.986584187,1,-0.003759392,1,-0.007563228,1,0.008022958,1,0.3797267973423004,1,-0.492900819,1,-0.57166326,1
1.267974615,-4.735221386,1,-3.277463198,1,-7.974612236,1,-0.005490091,1,-0.002695488,1,0.013952004,1,0.3796893358230591,1,-0.492931545,1,-0.571637809,1
1.271974444,-4.76871109,1,-3.231832266,1,-7.945850849,1,-0.007481917,1,-0.007011008,1,0.006838042,1,0.3796432614326477,1,-0.49296549,1,-0.57159692,1
1.275976181,-4.752621174,1,-3.218889713,1,-7.945959091,1,-0.009609097,1,-0.009535505,1,0.01634906,1,0.3796031475067139,1,-0.493006468,1,-0.571566045,1
1.279973865,-4.73435545,1,-3.233206272,1,-7.961679935,1,-0.005442624,1,-0.006427306,1,0.00940008,1,0.3795556426048279,1,-0.493045598,1,-0.571530282,1
1.283979535,-4.747464657,1,-3.206474304,1,-7.950047493,1,-0.00630439,1,0.000334218,1,0.010356459,1,0.379515529,1,-0.49308008,1,-0.571505845,1
1.287981272,-4.746398926,1,-3.207335234,1,-7.93071413,1,-0.005266353,1,-0.005095696,1,0.006748623,1,0.3794786930084229,1,-0.493098527,1,-0.571468115,1
1.291978955,-4.729986668,1,-3.200585842,1,-7.955806732,1,-0.00469467,1,-0.005268391,1,0.007813917,1,0.3794460892677307,1,-0.493128866,1,-0.571436465,1
1.295978785,-4.743940353,1,-3.203037024,1,-7.952392578,1,-0.005857197,1,-0.002128142,1,0.006945571,1,0.3794187605381012,1,-0.493149579,1,-0.57141149,1
1.299980521,-4.761352062,1,-3.18793726,1,-7.982338428,1,-0.005091033,1,-0.003608522,1,0.007891222,1,0.3793871700763702,1,-0.493174732,1,-0.571378648,1
1.303978443,-4.743496895,1,-3.165400028,1,-7.993638992,1,-0.003701652,1,-0.004553306,1,0.007113625,1,0.3793609142303467,1,-0.493197709,1,-0.571357369,1
1.307978272,-4.739143848,1,-3.212973118,1,-7.995446682,1,-0.002102201,1,-0.005530054,1,0.008531826,1,0.3793390393257141,1,-0.493225425,1,-0.571332574,1
1.311979771,-4.730765343,1,-3.235851526,1,-7.971102715,1,5.128118209540844e-05,1,-0.002235956,1,0.004548135,1,0.3793194890022278,1,-0.493242443,1,-0.5713076,1
1.315977693,-4.735526562,1,-3.247505903,1,-8.007455826,1,-0.001840243,1,-0.00480732,1,0.007584593,1,0.3792996406555176,1,-0.493266344,1,-0.571292043,1
1.319977522,-4.710464478,1,-3.24943614,1,-7.980352879,1,-0.00039958,1,-0.005203348,1,0.004458152,1,0.3792837262153625,1,-0.493295759,1,-0.571278155,1
1.32397902,-4.719111919,1,-3.243363619,1,-8.006803513,1,-0.000524206,1,-0.004051472,1,0.00854841,1,0.3792590498924255,1,-0.493330181,1,-0.571250439,1
1.327976704,-4.741649628,1,-3.218686104,1,-7.997928619,1,-0.001505506,1,-0.004910265,1,0.007385149,1,0.3792402744293213,1,-0.493358403,1,-0.571232259,1
1.331976175,-4.735301495,1,-3.253470659,1,-7.998832226,1,0.001746134,1,-0.006784488,1,0.008536552,1,0.379222959,1,-0.493391037,1,-0.571210027,1
1.335978031,-4.758268833,1,-3.256638765,1,-7.999171257,1,-0.005884686,1,-0.005106186,1,0.006347283,1,0.3791995644569397,1,-0.493427694,1,-0.571182728,1
1.339975715,-4.726644993,1,-3.2404809,1,-7.964429855,1,-0.002310325,1,-0.003673016,1,0.00597122,1,0.379167914,1,-0.493452966,1,-0.571162939,1
1.343975186,-4.73340416,1,-3.20684576,1,-7.962329865,1,-0.00482413,1,-0.003062371,1,0.010580698,1,0.3791435956954956,1,-0.493481517,1,-0.571138442,1
1.347976923,-4.725479126,1,-3.215696812,1,-7.954016685,1,-0.00454508,1,-0.003941488,1,0.005960631,1,0.3791170120239258,1,-0.493507385,1,-0.571111262,1
1.351974607,-4.739386082,1,-3.25562501,1,-7.984009266,1,-0.007850068,1,-0.005072678,1,0.0050534,1,0.3790909051895142,1,-0.493527919,1,-0.571086407,1
1.355974436,-4.742856979,1,-3.239476442,1,-7.922792435,1,-0.002012003,1,-0.000977959,1,0.006435836,1,0.3790655434131622,1,-0.493553221,1,-0.571059644,1
1.359976172,-4.779252529,1,-3.213979959,1,-7.956365585,1,-0.002267123,1,-0.004215316,1,0.011380052,1,0.3790381252765656,1,-0.493574858,1,-0.571029186,1
1.363973856,-4.759670258,1,-3.236319304,1,-7.973118305,1,-0.005034719,1,-0.00246579,1,-0.000861763,1,0.3790053725242615,1,-0.493590623,1,-0.571004987,1
1.367973685,-4.735906124,1,-3.157016516,1,-7.913594723,1,-0.002276672,1,0.001654407,1,0.004391002,1,0.3789852857589722,1,-0.493601024,1,-0.570984125,1
1.371975422,-4.715128899,1,-3.183347225,1,-7.975631237,1,-0.005739637,1,-0.005248027,1,0.004460837,1,0.3789612054824829,1,-0.493611634,1,-0.570972681,1
1.375973105,-4.729097843,1,-3.196351051,1,-7.962212563,1,-0.003770938,1,0.000396563,1,0.00486479,1,0.3789394199848175,1,-0.493623644,1,-0.570955694,1
1.379972816,-4.730239391,1,-3.193933487,1,-7.948531628,1,0.001079539,1,0.001420544,1,0.003071022,1,0.3789202272891998,1,-0.493630886,1,-0.570934892,1
1.383974671,-4.781757832,1,-3.176801205,1,-7.980345249,1,-0.002537098,1,0.000933658,1,0.00496185,1,0.3789032101631165,1,-0.49363488,1,-0.570922315,1
1.387972355,-4.778418064,1,-3.171324968,1,-7.928348541,1,-0.001312535,1,-0.002074371,1,0.002481945,1,0.3788898289203644,1,-0.493637294,1,-0.570909202,1
1.391972065,-4.760631561,1,-3.218267202,1,-7.951902866,1,0.001588355,1,0.000304193,1,0.001667174,1,0.3788855671882629,1,-0.493641555,1,-0.570897102,1
1.395973682,-4.707896709,1,-3.203293085,1,-8.004616737,1,0.002370109,1,-0.002352667,1,0.002248889,1,0.3788857460021973,1,-0.493644238,1,-0.570891023,1
1.399971366,-4.707880974,1,-3.262955904,1,-7.951210022,1,0.000622936,1,0.002073714,1,5.719531327486038e-05,1,0.3788869976997375,1,-0.493643641,1,-0.570884109,1
1.403971076,-4.724059105,1,-3.227307558,1,-7.964121819,1,-0.003069615,1,-0.003806266,1,0.003327966,1,0.3788807392120361,1,-0.493649095,1,-0.570876479,1
1.407978773,-4.745117664,1,-3.233540535,1,-7.96464777,1,0.000113125,1,-0.001746168,1,0.000538778,1,0.3789324760437012,1,-0.493816763,1,-0.571181178,1
1.411982894,-4.75173378,1,-3.224324226,1,-7.969723701,1,-0.003046648,1,0.003331502,1,-0.000123185,1,0.3789242506027222,1,-0.493813992,1,-0.571169794,1
1.415982842,-4.743494987,1,-3.197745085,1,-7.981135845,1,-0.000806188,1,-0.000537094,1,-0.000254231,1,0.3789253532886505,1,-0.493814826,1,-0.571171522,1
1.419984937,-4.74224472,1,-3.190922976,1,-7.971018314,1,0.002661181,1,0.003735173,1,-0.003226731,1,0.3789263069629669,1,-0.493810266,1,-0.571166813,1
1.423983097,-4.754337311,1,-3.212465048,1,-7.930854797,1,-0.001511303,1,0.002828915,1,-0.000121315,1,0.378926694,1,-0.493798196,1,-0.571173549,1
1.427982807,-4.76930666,1,-3.192627907,1,-7.954299927,1,0.00445688,1,0.003143109,1,-0.002159824,1,0.3789369165897369,1,-0.493789554,1,-0.571175992,1
1.431984663,-4.737495899,1,-3.204811096,1,-7.945268154,1,0.002233009,1,0.001917706,1,-0.002110857,1,0.3789534568786621,1,-0.493770331,1,-0.571189404,1
1.435982347,-4.737940788,1,-3.193075895,1,-7.962719917,1,0.001747091,1,0.002450244,1,-0.003594574,1,0.3789684474468231,1,-0.493758678,1,-0.571201861,1
1.439981818,-4.722311974,1,-3.207485199,1,-7.956139565,1,0.001485968,1,0.004273885,1,-0.004380685,1,0.3789846301078796,1,-0.493739873,1,-0.571212888,1
1.443983674,-4.717096329,1,-3.206102371,1,-7.969343662,1,0.001058686,1,0.004798674,1,-0.004422567,1,0.3789950013160706,1,-0.493717462,1,-0.57122159,1
1.447981358,-4.730110645,1,-3.27579236,1,-7.967087269,1,0.002306889,1,0.002490249,1,-0.004701195,1,0.3790217936038971,1,-0.493697584,1,-0.57123816,1
1.451980829,-4.744790077,1,-3.250337839,1,-7.927305698,1,0.005198818,1,0.008799488,1,-0.004333463,1,0.3790335655212402,1,-0.493666708,1,-0.571244121,1
1.455982566,-4.737076283,1,-3.260213375,1,-7.945161819,1,0.003508463,1,0.004412658,1,-0.005769306,1,0.3790443539619446,1,-0.493635893,1,-0.571252406,1
1.459980249,-4.781167507,1,-3.263472795,1,-7.9115839,1,-0.000937911,1,0.008988282,1,-0.005086843,1,0.3790413737297058,1,-0.493603289,1,-0.571258783,1
1.463980079,-4.709561825,1,-3.26324749,1,-7.928293705,1,-0.000386218,1,0.009040741,1,-0.000692357,1,0.3790422677993774,1,-0.493568659,1,-0.571252286,1
1.467981815,-4.739154339,1,-3.300098419,1,-7.911999226,1,-0.005358768,1,0.008027798,1,-0.004909755,1,0.3790256381034851,1,-0.493533194,1,-0.571243584,1
1.471979499,-4.735181808,1,-3.242248297,1,-7.948456764,1,-0.001401741,1,0.006253025,1,0.000636254,1,0.3790042400360107,1,-0.493496507,1,-0.571236014,1
1.475979209,-4.734745979,1,-3.222849607,1,-7.970282555,1,-0.003474941,1,0.006467678,1,-0.001609919,1,0.3789851069450378,1,-0.493464738,1,-0.571231365,1
1.479980826,-4.748782635,1,-3.18682313,1,-7.984169483,1,-0.006908176,1,0.007995475,1,-0.0011453,1,0.3789675533771515,1,-0.493430704,1,-0.571220875,1
1.48397851,-4.753368378,1,-3.196895838,1,-7.991933823,1,-0.004131464,1,0.0088952,1,-0.004344721,1,0.3789436221122742,1,-0.493389547,1,-0.571214736,1
1.48797822,-4.742490768,1,-3.182993412,1,-7.990702629,1,-0.005470576,1,0.008924418,1,-0.002685684,1,0.3789306282997131,1,-0.493355185,1,-0.571213722,1
1.491979718,-4.705427647,1,-3.204264641,1,-7.96192646,1,-0.003514219,1,0.009286617,1,-0.000613499,1,0.3789166212081909,1,-0.493311018,1,-0.571211278,1
1.495977759,-4.748841763,1,-3.210288286,1,-7.990735054,1,-0.00147557,1,0.007776547,1,-0.001393418,1,0.3789077997207642,1,-0.493268281,1,-0.571206212,1
1.499977469,-4.775562286,1,-3.259356737,1,-7.978094578,1,-0.002091715,1,0.011799563,1,-0.006822946,1,0.3788955807685852,1,-0.493227333,1,-0.571207464,1
1.503979206,-4.727184772,1,-3.212505102,1,-7.981793404,1,-0.002695466,1,0.009933557,1,-0.001870173,1,0.3788842558860779,1,-0.493186355,1,-0.571204424,1
1.507977247,-4.727524281,1,-3.227165461,1,-7.991538048,1,-0.004129504,1,0.007612904,1,-0.002003156,1,0.3788719177246094,1,-0.493143976,1,-0.571201742,1
1.511976957,-4.725046635,1,-3.209903955,1,-7.968066692,1,-0.001778821,1,0.011357343,1,-0.002410603,1,0.3788526058197021,1,-0.493109435,1,-0.571196735,1
1.515978456,-4.714330196,1,-3.24605751,1,-7.964892864,1,-0.00702742,1,0.006927435,1,-0.005367875,1,0.3788355588912964,1,-0.493066132,1,-0.571195483,1
1.519976497,-4.710328579,1,-3.277605057,1,-7.961988926,1,-0.00081203,1,0.012606656,1,0.000396531,1,0.3788138628005981,1,-0.493019193,1,-0.571185172,1
1.523975968,-4.693330765,1,-3.239719391,1,-7.987105846,1,-0.004994043,1,0.015227225,1,-0.002304914,1,0.3787903785705566,1,-0.492969334,1,-0.57117182,1
1.527983904,-4.706676006,1,-3.259257555,1,-7.966466904,1,-0.003927407,1,0.007259811,1,-0.001716476,1,0.3787658214569092,1,-0.492920727,1,-0.571161687,1
1.531987667,-4.718845367,1,-3.25509572,1,-7.949710369,1,-0.001922003,1,0.010870885,1,-0.003457614,1,0.3787363171577454,1,-0.492879361,1,-0.571150005,1
1.535987735,-4.732201576,1,-3.265994072,1,-7.978332043,1,-0.004733146,1,0.011848966,1,0.00190734,1,0.3787106275558472,1,-0.492842764,1,-0.571133852,1
1.539989471,-4.706801891,1,-3.223712444,1,-7.968892097,1,-0.006189565,1,0.007029636,1,-0.000795222,1,0.3786842226982117,1,-0.49280864,1,-0.571120024,1
1.543987513,-4.718706131,1,-3.216093063,1,-7.996185303,1,-0.005802623,1,0.011820804,1,0.002923821,1,0.3786579370498657,1,-0.49276787,1,-0.571109712,1
1.547986984,-4.734750748,1,-3.194956541,1,-8.011385918,1,-0.006522871,1,0.011051966,1,-0.001276896,1,0.378623366,1,-0.49272567,1,-0.571084559,1
1.551988721,-4.732694149,1,-3.221800804,1,-7.951332092,1,-0.006878748,1,0.008498358,1,0.000433273,1,0.378589928,1,-0.492686152,1,-0.571070313,1
1.555986404,-4.718614578,1,-3.229981661,1,-7.968285561,1,-0.001816529,1,0.012534147,1,-0.002180098,1,0.3785701990127563,1,-0.492642283,1,-0.571058869,1
1.559986234,-4.724521637,1,-3.215195894,1,-7.939911842,1,-0.008079918,1,0.011351155,1,-0.000902893,1,0.3785427212715149,1,-0.492594302,1,-0.571047962,1
1.56398797,-4.727402687,1,-3.219759941,1,-7.983044147,1,-0.004026492,1,0.014791038,1,-0.004079549,1,0.3785156011581421,1,-0.492551327,1,-0.571036577,1
1.567985654,-4.730640888,1,-3.19641161,1,-7.948750973,1,-0.006354067,1,0.012331046,1,-0.002553114,1,0.3784900009632111,1,-0.492496639,1,-0.571020603,1
1.571985364,-4.710052013,1,-3.200757027,1,-7.973845482,1,-0.004300592,1,0.016261874,1,-0.00174059,1,0.3784703612327576,1,-0.492450655,1,-0.571011543,1
1.57598722,-4.741503239,1,-3.204212189,1,-7.948137283,1,-0.003555818,1,0.009559466,1,-0.001764782,1,0.3784435391426086,1,-0.492389083,1,-0.570994198,1
1.579984903,-4.751955986,1,-3.218426943,1,-7.965065956,1,-0.005231853,1,0.013945855,1,-0.004621981,1,0.3784155547618866,1,-0.492343426,1,-0.570974112,1
1.583984613,-4.754467487,1,-3.212185621,1,-7.948766232,1,-0.003698908,1,0.013800841,1,-0.001046308,1,0.3784008026123047,1,-0.492281914,1,-0.570974469,1
1.587986231,-4.73047924,1,-3.208243847,1,-7.992081165,1,-0.002357655,1,0.016747244,1,-0.005611548,1,0.3783805966377258,1,-0.492231399,1,-0.570968568,1
1.591984153,-4.753018856,1,-3.176006079,1,-8.00690937,1,0.000509247,1,0.016366117,1,-0.00622524,1,0.3783752918243408,1,-0.492166549,1,-0.570966244,1
1.595983863,-4.738074303,1,-3.204811811,1,-7.944876671,1,-0.002490468,1,0.014719166,1,-0.009242298,1,0.3783732652664185,1,-0.492108703,1,-0.570963025,1
1.599985361,-4.719985485,1,-3.16631484,1,-7.938577652,1,0.000153477,1,0.014531963,1,-0.002092256,1,0.3783636093139648,1,-0.492043525,1,-0.570957124,1
1.603983045,-4.748765945,1,-3.195776939,1,-7.948998928,1,-0.00059031,1,0.017027715,1,-0.009218454,1,0.378367543,1,-0.491966635,1,-0.570960641,1
1.607982874,-4.739565372,1,-3.185280561,1,-7.953644276,1,-0.000369198,1,0.018652827,1,-0.00867334,1,0.3783677220344543,1,-0.491891384,1,-0.570970058,1
1.611984372,-4.75618124,1,-3.188474894,1,-7.953286648,1,-4.64E-05,1,0.019392615,1,-0.008489451,1,0.3783610165119171,1,-0.491811603,1,-0.570970654,1
1.615982056,-4.807564735,1,-3.187566996,1,-7.947359562,1,0.001102598,1,0.024794322,1,-0.007491585,1,0.3783585131168365,1,-0.491717517,1,-0.570971608,1
1.619981527,-4.758020401,1,-3.187233686,1,-7.931776047,1,0.001669152,1,0.026509188,1,-0.00965115,1,0.3783567547798157,1,-0.491616786,1,-0.570963621,1
1.623983383,-4.763207912,1,-3.203985929,1,-7.94079113,1,0.004880799,1,0.024075586,1,-0.008037399,1,0.3783602118492126,1,-0.491507113,1,-0.57095772,1
1.627981305,-4.748441696,1,-3.227385044,1,-7.93145752,1,0.003482466,1,0.026250411,1,-0.008359737,1,0.3783677816390991,1,-0.491398603,1,-0.570947051,1
1.631981015,-4.72584343,1,-3.205713272,1,-7.964632034,1,0.003018829,1,0.027457764,1,-0.007198883,1,0.3783814311027527,1,-0.491283417,1,-0.570931554,1
1.635982871,-4.731818199,1,-3.241211891,1,-7.967322826,1,0.007515153,1,0.025208006,1,-0.005978928,1,0.3783925175666809,1,-0.491172105,1,-0.570927382,1
1.639980793,-4.727200508,1,-3.248222589,1,-7.98299408,1,0.00676868,1,0.026281141,1,-0.009523092,1,0.3784140348434448,1,-0.491058886,1,-0.570918679,1
1.643980265,-4.725665092,1,-3.251216412,1,-7.997276783,1,0.006616196,1,0.028621724,1,-0.007111275,1,0.3784359991550446,1,-0.490945667,1,-0.570906103,1
1.6479882,-4.732340336,1,-3.242398739,1,-7.998730659,1,0.0057458,1,0.026458321,1,-0.009303495,1,0.3784579038619995,1,-0.490833759,1,-0.570898175,1
1.651992083,-4.713711739,1,-3.204997778,1,-8.003300667,1,0.006774629,1,0.029101666,1,-0.008725613,1,0.3784821629524231,1,-0.4907161,1,-0.570891261,1
1.655992031,-4.761931896,1,-3.200707197,1,-7.988049507,1,0.007290486,1,0.02799038,1,-0.01128157,1,0.3786028325557709,1,-0.490811348,1,-0.57094878,1
1.659993887,-4.706848145,1,-3.13642168,1,-7.96721077,1,0.007698243,1,0.032759324,1,-0.011201331,1,0.3785932064056396,1,-0.490633845,1,-0.571169794,1
1.66399157,-4.704600334,1,-3.145412683,1,-8.006874084,1,0.007449984,1,0.027841261,1,-0.011814935,1,0.378619522,1,-0.490508258,1,-0.571163714,1
1.667991281,-4.733570576,1,-3.137890577,1,-8.001197815,1,0.009073238,1,0.031641632,1,-0.013045006,1,0.3786501884460449,1,-0.490369558,1,-0.571162462,1
1.671992779,-4.682082653,1,-3.153954268,1,-7.953277588,1,0.011371586,1,0.032472949,1,-0.013829136,1,0.3786876201629639,1,-0.490233094,1,-0.571165562,1
1.675990582,-4.728805065,1,-3.173258543,1,-7.95866251,1,0.013883436,1,0.033660326,1,-0.017848318,1,0.3787401616573334,1,-0.490093172,1,-0.571176946,1
1.679990292,-4.710185528,1,-3.163692236,1,-7.975253105,1,0.011813737,1,0.032436695,1,-0.017554434,1,0.3787972927093506,1,-0.489943296,1,-0.571190119,1
1.68399179,-4.725771904,1,-3.182368517,1,-8.013206482,1,0.013614064,1,0.033494353,1,-0.020822771,1,0.3788692951202393,1,-0.489794135,1,-0.571215212,1
1.687989712,-4.691970348,1,-3.206106663,1,-7.986501217,1,0.015418403,1,0.031221647,1,-0.017572658,1,0.3789411783218384,1,-0.489641607,1,-0.571235001,1
1.691989303,-4.6778512,1,-3.176975012,1,-8.016734123,1,0.020963524,1,0.02981375,1,-0.019536972,1,0.3790231347084045,1,-0.489499182,1,-0.571260393,1
1.695990801,-4.673351288,1,-3.189996719,1,-8.053971291,1,0.023315171,1,0.031306941,1,-0.019273659,1,0.3791124224662781,1,-0.489352673,1,-0.571285665,1
1.699988484,-4.704391003,1,-3.236842871,1,-8.021857262,1,0.018814122,1,0.030916272,1,-0.017939527,1,0.3792096376419067,1,-0.489205122,1,-0.571314514,1
1.703988194,-4.676793098,1,-3.265844107,1,-8.049201012,1,0.018767426,1,0.029698387,1,-0.022939149,1,0.3793010711669922,1,-0.489063948,1,-0.571348608,1
1.70799005,-4.676219463,1,-3.321255207,1,-8.006026268,1,0.018609218,1,0.030772239,1,-0.020691583,1,0.3793982267379761,1,-0.48892349,1,-0.571388483,1
1.711987972,-4.659673214,1,-3.34362936,1,-8.012960434,1,0.023397166,1,0.02839648,1,-0.019715847,1,0.3794960379600525,1,-0.488785684,1,-0.571429729,1
1.715987682,-4.677523136,1,-3.313867569,1,-8.032969475,1,0.020505693,1,0.024137516,1,-0.02062273,1,0.379585862,1,-0.488668442,1,-0.571465135,1
1.719989538,-4.690998077,1,-3.339929104,1,-8.046580315,1,0.016681474,1,0.023232378,1,-0.01629585,1,0.3796688318252563,1,-0.488551021,1,-0.5714975,1
1.723987222,-4.668137074,1,-3.311120033,1,-8.013707161,1,0.009324248,1,0.021702692,1,-0.012940351,1,0.3797367811203003,1,-0.488444597,1,-0.571523488,1
1.727986693,-4.673487663,1,-3.287894487,1,-8.033978462,1,0.009076261,1,0.020589685,1,-0.013681451,1,0.3797786235809326,1,-0.488342762,1,-0.571544886,1
1.73198843,-4.686662674,1,-3.280755281,1,-7.999711514,1,0.011496442,1,0.017537588,1,-0.01200908,1,0.3798258006572723,1,-0.488254786,1,-0.571563244,1
1.735986471,-4.652305126,1,-3.294329643,1,-8.020841599,1,0.005968588,1,0.023535322,1,-0.011098085,1,0.3798633217811584,1,-0.488160133,1,-0.571581364,1
1.739986181,-4.695950031,1,-3.271263599,1,-8.020517349,1,0.004891797,1,0.01519105,1,-0.010741659,1,0.379896343,1,-0.488069594,1,-0.571591496,1
1.743987918,-4.654379845,1,-3.252560616,1,-8.005549431,1,0.004603019,1,0.019912949,1,-0.012815157,1,0.3799242079257965,1,-0.4879843,1,-0.571609437,1
1.747985959,-4.685208321,1,-3.248124838,1,-7.992471218,1,0.006588224,1,0.015777318,1,-0.006095271,1,0.3799507617950439,1,-0.487901449,1,-0.571623504,1
1.751985669,-4.683213711,1,-3.254023314,1,-7.999518394,1,0.004108013,1,0.019580159,1,-0.014726903,1,0.3799708187580109,1,-0.487817645,1,-0.571634352,1
1.755987406,-4.673122883,1,-3.270748615,1,-7.943725586,1,0.003708293,1,0.019072991,1,-0.009319937,1,0.3799962401390076,1,-0.487736106,1,-0.571647525,1
1.759985209,-4.682140827,1,-3.230288506,1,-8.010241508,1,0.001346832,1,0.0184936,1,-0.009931673,1,0.3800027668476105,1,-0.487650186,1,-0.571648419,1
1.763985157,-4.679073334,1,-3.214609146,1,-8.015346527,1,0.0028589,1,0.019587673,1,-0.005215676,1,0.3800128400325775,1,-0.487566978,1,-0.571649075,1
1.767992854,-4.655565739,1,-3.264384747,1,-8.049099922,1,-0.000341016,1,0.017935662,1,-0.007989662,1,0.3800235092639923,1,-0.487493187,1,-0.571650982,1
1.771996379,-4.656160355,1,-3.234904289,1,-8.021577835,1,0.005615492,1,0.014138571,1,-0.006975946,1,0.3800422549247742,1,-0.487420678,1,-0.571651995,1
1.775996208,-4.648862362,1,-3.247266293,1,-8.038445473,1,0.002420937,1,0.013122548,1,-0.008192831,1,0.3800586760044098,1,-0.487358183,1,-0.571659744,1
1.779997706,-4.663667679,1,-3.30224967,1,-8.039336205,1,0.003021458,1,0.013742479,1,-0.005788845,1,0.3800784349441528,1,-0.487305135,1,-0.571665585,1
1.78399539,-4.669102669,1,-3.295634985,1,-8.020858765,1,0.00192067,1,0.009831804,1,-0.006575424,1,0.3800916969776154,1,-0.487243831,1,-0.571673155,1
1.7879951,-4.649251461,1,-3.271813154,1,-8.022467613,1,0.005844634,1,0.009396576,1,-0.001950306,1,0.3801145553588867,1,-0.487199962,1,-0.571680486,1
1.791996717,-4.674884796,1,-3.286973476,1,-8.030553818,1,0.001740958,1,0.009262515,1,-0.005004964,1,0.3801257312297821,1,-0.487160265,1,-0.571682394,1
1.795994639,-4.63662529,1,-3.323931456,1,-7.997822762,1,0.004423844,1,0.008644021,1,-0.003847174,1,0.3801381886005402,1,-0.48712337,1,-0.571683347,1
1.799994349,-4.671947956,1,-3.303872585,1,-7.97365284,1,0.000807125,1,0.005231386,1,-0.003685189,1,0.3801347017288208,1,-0.487095565,1,-0.571679294,1
1.803995848,-4.663751125,1,-3.322296143,1,-8.001814842,1,-0.002482852,1,0.008234392,1,-0.000236954,1,0.3801260590553284,1,-0.487080425,1,-0.571671665,1
1.807993889,-4.66745472,1,-3.347394705,1,-7.983487606,1,-0.000141521,1,0.001679407,1,-0.000764819,1,0.3801129758358002,1,-0.487060338,1,-0.57165879,1
1.811993361,-4.6647892,1,-3.313930035,1,-7.992929459,1,-0.004861264,1,0.00925725,1,0.002844943,1,0.3800914287567139,1,-0.487046599,1,-0.571639061,1
1.815994859,-4.656720638,1,-3.301637411,1,-7.971820831,1,-0.009383932,1,0.004925528,1,0.00470424,1,0.3800569772720337,1,-0.48703143,1,-0.571617246,1
1.819992542,-4.683851719,1,-3.290152073,1,-7.998497009,1,-0.008932274,1,0.003143331,1,0.002962561,1,0.3800114989280701,1,-0.487015545,1,-0.57159394,1
1.823992014,-4.694874763,1,-3.293173552,1,-7.997662544,1,-0.008908581,1,0.005756473,1,0.005044283,1,0.3799737095832825,1,-0.487005532,1,-0.571574748,1
1.82799387,-4.698245049,1,-3.27521348,1,-7.996804714,1,-0.009419527,1,0.004326353,1,0.004455355,1,0.3799183964729309,1,-0.486997217,1,-0.571545362,1
1.831991553,-4.673880577,1,-3.240386724,1,-8.026061058,1,-0.00933698,1,0.006122611,1,0.005645126,1,0.3798638582229614,1,-0.486983478,1,-0.571511984,1
1.835991025,-4.66549778,1,-3.172966242,1,-7.988950729,1,-0.008357396,1,0.003154212,1,0.003142529,1,0.3798190355300903,1,-0.486971647,1,-0.571480393,1
1.839992881,-4.687517643,1,-3.181165695,1,-8.01727581,1,-0.009065294,1,0.003658562,1,0.001945303,1,0.3797752857208252,1,-0.486968815,1,-0.571457267,1
1.843990564,-4.700232506,1,-3.213206768,1,-8.019036293,1,-0.004788877,1,-0.000147073,1,0.002154829,1,0.3797472715377808,1,-0.486973554,1,-0.571442902,1
1.847990274,-4.693832874,1,-3.153548002,1,-7.995077133,1,0.000505295,1,0.0035211,1,-0.001458605,1,0.3797370791435242,1,-0.486967832,1,-0.57144022,1
1.851992011,-4.709635258,1,-3.155335188,1,-8.010398865,1,0.002456322,1,-0.002224015,1,-0.001205726,1,0.3797459304332733,1,-0.486968398,1,-0.571449876,1
1.855989814,-4.681507587,1,-3.153789043,1,-7.993700504,1,0.003311818,1,-0.000615127,1,-0.003164339,1,0.3797597885131836,1,-0.486972958,1,-0.571459115,1
1.859989762,-4.694916248,1,-3.21903491,1,-8.00248909,1,0.006591569,1,-0.00268426,1,-0.006694654,1,0.3797852993011475,1,-0.486967444,1,-0.571488976,1
1.863991499,-4.683695793,1,-3.183982611,1,-7.989262581,1,0.003242277,1,-0.001159913,1,-0.005431714,1,0.3798172771930695,1,-0.486962229,1,-0.57151562,1
1.867989302,-4.648697853,1,-3.224164963,1,-7.999461651,1,0.005527173,1,-0.000320944,1,-0.007657515,1,0.3798663020133972,1,-0.486955166,1,-0.571547449,1
1.871989012,-4.65450716,1,-3.14409399,1,-8.002727509,1,0.005619071,1,0.000629417,1,-0.006230355,1,0.3799049258232117,1,-0.486946583,1,-0.571577132,1
1.87599051,-4.650431156,1,-3.066956282,1,-8.037870407,1,0.015014436,1,-0.000815527,1,-0.007271692,1,0.379964143,1,-0.486933112,1,-0.571612597,1
1.879988432,-4.685175419,1,-3.022753239,1,-8.070313454,1,0.017428374,1,0.001756667,1,-0.008596821,1,0.3800366520881653,1,-0.486924082,1,-0.571643412,1
1.883988261,-4.708173752,1,-3.044611692,1,-8.036540985,1,0.023401501,1,-0.003801264,1,-0.014738346,1,0.3801441192626953,1,-0.486917824,1,-0.571703196,1
1.887995958,-4.723678589,1,-3.137230158,1,-7.991379738,1,0.024458339,1,-0.001398359,1,-0.014761047,1,0.380270779,1,-0.486908257,1,-0.571769714,1
1.891999722,-4.729815006,1,-3.240260363,1,-7.931854248,1,0.024474904,1,0.000533326,1,-0.0179187,1,0.3804135322570801,1,-0.486882836,1,-0.571842313,1
1.895999432,-4.741328716,1,-3.260730028,1,-7.958688259,1,0.029771101,1,0.00294195,1,-0.015242295,1,0.3805566430091858,1,-0.48684901,1,-0.571912646,1
1.900001049,-4.718511581,1,-3.326365471,1,-7.951280594,1,0.024193751,1,0.002831458,1,-0.016194452,1,0.3806856274604797,1,-0.486814141,1,-0.571971297,1
1.903998733,-4.760603428,1,-3.310989618,1,-7.981770515,1,0.02574902,1,0.00525425,1,-0.014152758,1,0.3808097243309021,1,-0.486781418,1,-0.572030365,1
1.907998443,-4.725025654,1,-3.333061695,1,-7.943762302,1,0.021876285,1,0.009477413,1,-0.016153235,1,0.3809702396392822,1,-0.486855567,1,-0.572380126,1
1.911999941,-4.670119762,1,-3.33612442,1,-7.981048584,1,0.015842965,1,0.006190319,1,-0.011896048,1,0.3810687065124512,1,-0.486802399,1,-0.572424352,1
1.915997744,-4.68705368,1,-3.367955923,1,-7.944024563,1,0.016774075,1,0.00722301,1,-0.010155384,1,0.3811501562595367,1,-0.486758471,1,-0.572460771,1
1.919997215,-4.659453869,1,-3.362767696,1,-7.969775677,1,0.009227282,1,0.010675925,1,-0.007273992,1,0.3812156915664673,1,-0.486713588,1,-0.572481275,1
1.923998952,-4.624485016,1,-3.35886097,1,-8.012534142,1,0.008203497,1,0.005965134,1,-0.004361891,1,0.3812587857246399,1,-0.486672044,1,-0.572496474,1
1.927996635,-4.643125534,1,-3.32141304,1,-8.000717163,1,0.001502169,1,0.010251972,1,-0.007948207,1,0.3812870383262634,1,-0.486632079,1,-0.572513342,1
1.931996107,-4.637722969,1,-3.359177351,1,-7.936649799,1,0.0057271,1,0.009744823,1,-0.001371352,1,0.3813003897666931,1,-0.486592859,1,-0.57252264,1
1.935997963,-4.671146393,1,-3.273935556,1,-7.96241188,1,0.000506372,1,0.009645232,1,-0.002876864,1,0.3813044726848602,1,-0.486547709,1,-0.572521985,1
1.939995646,-4.656206608,1,-3.226554871,1,-7.974621296,1,0.005453012,1,0.011196731,1,-0.007106557,1,0.3813100457191467,1,-0.486498266,1,-0.572512686,1
1.943995118,-4.705168247,1,-3.226187468,1,-7.976711273,1,0.001301347,1,0.015964,1,-0.004003047,1,0.3813246488571167,1,-0.486441314,1,-0.572515965,1
1.947996974,-4.624288559,1,-3.182528496,1,-8.015595436,1,0.003987524,1,0.01240104,1,-0.005239182,1,0.3813319206237793,1,-0.486374646,1,-0.572514176,1
1.951994658,-4.620695591,1,-3.23454237,1,-8.046822548,1,0.006219134,1,0.013116545,1,-0.005536733,1,0.3813538253307343,1,-0.486324131,1,-0.572516382,1
1.955994368,-4.615766525,1,-3.249712706,1,-8.034155846,1,0.007943149,1,0.010245003,1,-0.010542097,1,0.381377637,1,-0.486271709,1,-0.572528601,1
1.959996104,-4.599127769,1,-3.297469139,1,-8.045454025,1,0.001379964,1,0.004742833,1,-0.005926171,1,0.3814085423946381,1,-0.486230046,1,-0.572541356,1
1.963993907,-4.612210274,1,-3.26164031,1,-8.058923721,1,0.008041575,1,0.005708203,1,-0.006560938,1,0.3814424872398376,1,-0.486197412,1,-0.572560191,1
1.967993855,-4.625207424,1,-3.234551191,1,-8.082101822,1,0.002955769,1,-0.001030096,1,-0.00991099,1,0.3814818263053894,1,-0.486176133,1,-0.572586119,1
1.971995592,-4.528128147,1,-3.368617773,1,-7.956707478,1,-0.001424784,1,-0.009108038,1,-0.009764731,1,0.3815124034881592,1,-0.48618421,1,-0.572633386,1
1.975993395,-4.657868385,1,-3.356529713,1,-8.158886909,1,0.008765565,1,-0.00234723,1,-0.003733104,1,0.3815498054027557,1,-0.486195028,1,-0.57266444,1
1.979993105,-4.611922264,1,-3.387615919,1,-8.162036896,1,0.010338861,1,-0.012244118,1,-0.00229242,1,0.3815987408161163,1,-0.486220598,1,-0.572683275,1
1.983994603,-4.628277302,1,-3.450777054,1,-8.125377655,1,0.006848757,1,-0.015910797,1,0.003679072,1,0.3816299438476563,1,-0.486275792,1,-0.572701573,1
1.987992525,-4.619233608,1,-3.404802799,1,-8.157403946,1,-0.000837135,1,-0.021697322,1,0.003453251,1,0.3816544115543365,1,-0.486347735,1,-0.572717845,1
1.991992116,-4.636953354,1,-3.448770046,1,-8.138370514,1,-0.002698397,1,-0.02547585,1,0.007677497,1,0.3816654682159424,1,-0.486444533,1,-0.572746575,1
1.995993614,-4.659805775,1,-3.41003108,1,-8.074079514,1,-0.006530304,1,-0.032108262,1,0.009833556,1,0.3816608190536499,1,-0.486568689,1,-0.572761238,1
1.999991298,-4.675528526,1,-3.327723265,1,-8.098199844,1,-0.004725735,1,-0.036833946,1,0.010270946,1,0.381639689,1,-0.486708313,1,-0.572770357,1
2.003991127,-4.658125401,1,-3.258123875,1,-8.124144554,1,-0.00409834,1,-0.038300239,1,0.012147852,1,0.3816280961036682,1,-0.486863196,1,-0.572789669,1
2.007998943,-4.676010609,1,-3.164829969,1,-8.126904488,1,-0.004153015,1,-0.043489631,1,0.009226175,1,0.3816162943840027,1,-0.487031758,1,-0.572817266,1
2.012002707,-4.666492939,1,-3.205379725,1,-8.163015366,1,-0.000686296,1,-0.041718297,1,0.011625088,1,0.3816135823726654,1,-0.487207323,1,-0.572855115,1
2.016002655,-4.701948643,1,-3.20486784,1,-8.124867439,1,-0.005892018,1,-0.055086035,1,0.004209667,1,0.3816214203834534,1,-0.487401336,1,-0.572908521,1
2.020004272,-4.734173298,1,-3.211625814,1,-8.167612076,1,-0.002547114,1,-0.055266317,1,0.008834301,1,0.3816363215446472,1,-0.487605691,1,-0.572976708,1
2.024002075,-4.728471279,1,-3.232391119,1,-8.143898964,1,-0.00091594,1,-0.055082496,1,0.006024499,1,0.38165468,1,-0.48781538,1,-0.573033571,1
2.028001547,-4.73539114,1,-3.296919823,1,-8.106514931,1,0.000549607,1,-0.053313192,1,0.001585194,1,0.3816897869110107,1,-0.488026828,1,-0.573113263,1
2.032003403,-4.71608305,1,-3.196323395,1,-8.1443367,1,-0.005468817,1,-0.059804637,1,0.006107167,1,0.3817194700241089,1,-0.488243073,1,-0.573189497,1
2.036000967,-4.854715824,1,-3.215484858,1,-8.156433105,1,0.000453961,1,-0.061157729,1,-0.000136973,1,0.3817494213581085,1,-0.488478899,1,-0.573282003,1
2.040000439,-4.78466177,1,-3.174909353,1,-8.222048759,1,0.002170901,1,-0.05838741,1,0.003904257,1,0.3817818760871887,1,-0.488695562,1,-0.573361278,1
2.044002295,-4.822949409,1,-3.239687443,1,-8.230583191,1,-0.000588947,1,-0.060189396,1,-0.002063003,1,0.3818343877792358,1,-0.488916993,1,-0.573465645,1
2.048000097,-4.847042084,1,-3.184953213,1,-8.31534481,1,0.000435846,1,-0.067412108,1,-0.003420949,1,0.3818995356559753,1,-0.489157498,1,-0.573590755,1
2.051999807,-4.70263052,1,-3.347742558,1,-8.370161057,1,0.010442644,1,-0.07696186,1,-0.001082037,1,0.3819858133792877,1,-0.489409566,1,-0.573720574,1
2.056001425,-4.629946709,1,-3.57236886,1,-8.427118301,1,0.031932551,1,-0.085124537,1,0.0254866,1,0.3821024894714355,1,-0.489722103,1,-0.573809385,1
2.059999228,-4.3611269,1,-3.915079594,1,-8.615410805,1,0.079521939,1,-0.097139537,1,0.073104039,1,0.382298082,1,-0.490128338,1,-0.573772192,1
2.063998938,-3.954920292,1,-4.081896782,1,-8.850937843,1,0.1558112055063248,1,-0.128801674,1,0.1547062695026398,1,0.3826288878917694,1,-0.490710944,1,-0.57348609,1
2.068000793,-3.521940947,1,-4.277597427,1,-8.934319496,1,0.2151838541030884,1,-0.178482771,1,0.2410599887371063,1,0.3831143081188202,1,-0.491569638,1,-0.572915912,1
2.071998358,-3.27287674,1,-4.753696442,1,-9.055393219,1,0.225702628,1,-0.278024822,1,0.3302421569824219,1,0.3836252689361572,1,-0.492834806,1,-0.572106659,1
2.075998306,-3.534416199,1,-4.737591267,1,-8.88669014,1,0.2256809771060944,1,-0.365297854,1,0.3914629518985748,1,0.3840528726577759,1,-0.494586557,1,-0.571119547,1
2.079999924,-3.718400955,1,-4.76455307,1,-8.751943588,1,0.2968279123306274,1,-0.384092152,1,0.4571710526943207,1,0.3845491409301758,1,-0.496611238,1,-0.569983602,1
2.083997965,-3.7997756,1,-4.632224083,1,-9.247410774,1,0.3781198859214783,1,-0.379276633,1,0.5005535483360291,1,0.3852440714836121,1,-0.498731852,1,-0.568606436,1
2.087997675,-3.63915205,1,-4.007056713,1,-9.668606758,1,0.3962509632110596,1,-0.448104322,1,0.4887340664863586,1,0.3861429691314697,1,-0.501012981,1,-0.56720984,1
2.091999292,-3.346105576,1,-3.480035067,1,-10.11263466,1,0.4322637915611267,1,-0.543868721,1,0.482992947,1,0.3872092962265015,1,-0.50357604,1,-0.566002309,1
2.095996857,-2.582887888,1,-3.870755911,1,-10.79561424,1,0.5089340209960938,1,-0.659955919,1,0.498099148,1,0.3886143565177917,1,-0.506544471,1,-0.564963698,1
2.099996567,-2.821159124,1,-4.96399641,1,-10.75236034,1,0.4552648365497589,1,-0.81516546,1,0.4940569996833801,1,0.3901500403881073,1,-0.510043204,1,-0.564158261,1
2.103998184,-2.403532267,1,-5.01050663,1,-10.7878437,1,0.5085750818252563,1,-0.93403101,1,0.5400465130805969,1,0.3917430639266968,1,-0.514047027,1,-0.563502371,1
2.107995987,-2.728581905,1,-4.990819931,1,-10.76248264,1,0.5461408495903015,1,-1.053398728,1,0.5853968858718872,1,0.3935436606407166,1,-0.518605828,1,-0.56287837,1
2.111995459,-3.468639612,1,-5.841360569,1,-12.0060339,1,0.6098653078079224,1,-1.157586217,1,0.6159154176712036,1,0.3955583572387695,1,-0.523608685,1,-0.562277436,1
2.115997076,-3.518330812,1,-6.808664799,1,-12.13068771,1,0.5707622170448303,1,-1.221768379,1,0.6255891919136047,1,0.3977173566818237,1,-0.528973043,1,-0.561744869,1
2.119994879,-2.126829863,1,-7.134436131,1,-10.75669289,1,0.4307515025138855,1,-1.333959937,1,0.6506739854812622,1,0.3994934558868408,1,-0.534659863,1,-0.561307967,1
2.12399435,-4.012664795,1,-6.986787796,1,-10.89171505,1,0.3579965829849243,1,-1.454162598,1,0.7362799048423767,1,0.4008189141750336,1,-0.540872991,1,-0.560889959,1
2.128002405,-5.13196516,1,-7.734840393,1,-12.57061291,1,0.3910341560840607,1,-1.534392357,1,0.7986043095588684,1,0.4020221531391144,1,-0.547569454,1,-0.560315311,1
2.132006168,-6.870285511,1,-9.555020332,1,-11.68582726,1,0.2830317914485931,1,-1.661793351,1,0.9392260313034058,1,0.4029799401760101,1,-0.554838598,1,-0.559471786,1
2.136005878,-4.695936203,1,-9.547135353,1,-10.83838177,1,0.1143809854984283,1,-1.742697716,1,0.9789671897888184,1,0.4032121002674103,1,-0.562597573,1,-0.558449805,1
2.140007734,-6.105554104,1,-9.001256943,1,-11.17658043,1,-0.067436129,1,-1.80363214,1,1.075565934181213,1,0.4026718437671661,1,-0.570741415,1,-0.557279766,1
2.144005299,-7.816037655,1,-9.314091682,1,-11.35480022,1,-0.190685228,1,-1.811055064,1,1.192179799079895,1,0.4012974202632904,1,-0.579178929,1,-0.555712879,1
2.148005009,-8.194019318,1,-10.49049282,1,-11.92091084,1,-0.394051582,1,-1.759888172,1,1.324831366539001,1,0.3989334106445313,1,-0.587733626,1,-0.553507864,1
2.152006865,-7.574751377,1,-11.24162102,1,-11.57604885,1,-0.70251888,1,-1.664311528,1,1.406325697898865,1,0.3951407670974731,1,-0.59618479,1,-0.550604463,1
2.156004667,-9.031582832,1,-12.0724287,1,-12.10607815,1,-1.039822102,1,-1.577878594,1,1.428296208381653,1,0.3897782564163208,1,-0.6043455,1,-0.547268152,1
2.160004377,-11.37584686,1,-11.92686653,1,-13.17637062,1,-1.325304151,1,-1.422227859,1,1.388946294784546,1,0.3829412162303925,1,-0.612020433,1,-0.543959439,1
2.164005995,-12.06099129,1,-11.70641613,1,-15.1121769,1,-1.49756968,1,-1.119290352,1,1.265114784240723,1,0.3751224875450134,1,-0.61874342,1,-0.540220916,1
2.168003559,-10.32732582,1,-11.31697464,1,-16.42353058,1,-1.62977159,1,-0.726991892,1,1.123743772506714,1,0.3666285872459412,1,-0.623923421,1,-0.536391199,1
2.172003269,-6.643589497,1,-10.28248024,1,-16.51988983,1,-1.698620319,1,-0.396675169,1,0.9727914929389954,1,0.3576938509941101,1,-0.627473593,1,-0.532527864,1
2.176004887,-3.636645794,1,-9.112266541,1,-15.7223835,1,-1.681547046,1,-0.216405481,1,0.8644776344299316,1,0.3487190008163452,1,-0.629867554,1,-0.528792739,1
2.180002928,-0.538046122,1,-8.303488731,1,-14.58769512,1,-1.598267674,1,-0.145573035,1,0.8220069408416748,1,0.3400247097015381,1,-0.631664813,1,-0.525179982,1
2.184002638,1.720015645027161,1,-7.747354984,1,-13.36526108,1,-1.500627756,1,-0.152568594,1,0.8397665023803711,1,0.3316633105278015,1,-0.633321762,1,-0.521546364,1
2.188004255,2.962146520614624,1,-7.453187466,1,-12.86659241,1,-1.388698936,1,-0.182469308,1,0.8800119161605835,1,0.3236594796180725,1,-0.635045648,1,-0.517775297,1
2.192002535,3.479541063308716,1,-7.613826752,1,-12.51090431,1,-1.286630392,1,-0.238318607,1,0.9440728425979614,1,0.3159639239311218,1,-0.637000322,1,-0.513804317,1
2.196002245,4.016936779022217,1,-7.852495193,1,-12.10403919,1,-1.206905484,1,-0.250959724,1,0.9920225143432617,1,0.3084614872932434,1,-0.639137805,1,-0.509579122,1
2.200003862,4.270145893096924,1,-7.605487347,1,-11.88324738,1,-1.129880786,1,-0.231764928,1,1.026445508003235,1,0.30113101,1,-0.64127028,1,-0.505138457,1
2.204001427,4.357409000396729,1,-7.381835938,1,-12.0178566,1,-1.029991269,1,-0.214004785,1,1.052445173,1,0.2940295934677124,1,-0.643351197,1,-0.50048703,1
2.208001137,4.332069396972656,1,-7.357123375,1,-12.13559437,1,-0.937955976,1,-0.155519679,1,1.047973275184631,1,0.2872341275215149,1,-0.645275235,1,-0.495716214,1
2.212002754,4.319496154785156,1,-7.292784214,1,-12.07685661,1,-0.851853013,1,-0.058682252,1,1.011044025421143,1,0.2807527780532837,1,-0.646855533,1,-0.490923822,1
2.216000557,4.688154220581055,1,-7.173131466,1,-11.98675156,1,-0.758285522,1,0.050626501,1,0.9678696990013123,1,0.2746515274047852,1,-0.647950768,1,-0.486148536,1
2.220000029,4.916123390197754,1,-7.248111248,1,-11.88295746,1,-0.671243489,1,0.1567051857709885,1,0.9135348200798035,1,0.2689619362354279,1,-0.64855963,1,-0.481452614,1
2.224001884,5.232486248016357,1,-7.376424789,1,-11.71221828,1,-0.594049752,1,0.2732865214347839,1,0.8582215309143066,1,0.2636723816394806,1,-0.648658633,1,-0.476874232,1
2.227999449,5.697254180908203,1,-7.295268536,1,-11.46824265,1,-0.521512389,1,0.3807415962219238,1,0.791091263,1,0.2587662935256958,1,-0.648245156,1,-0.472453356,1
2.23199892,6.037752151489258,1,-7.210543156,1,-11.24508858,1,-0.440085769,1,0.4794445037841797,1,0.734397292,1,0.2542704045772552,1,-0.647356153,1,-0.468203157,1
2.236000776,6.247789859771729,1,-7.106269836,1,-11.10375023,1,-0.35905838,1,0.5690210461616516,1,0.6694948077201843,1,0.2502225935459137,1,-0.646028161,1,-0.464147121,1
2.239998579,6.291077136993408,1,-7.014003754,1,-11.01409245,1,-0.268519491,1,0.6527503728866577,1,0.5960880517959595,1,0.2466562390327454,1,-0.644291461,1,-0.460316628,1
2.243998289,6.074166774749756,1,-6.847982407,1,-10.94637299,1,-0.164841637,1,0.7364630699157715,1,0.5189145803451538,1,0.2436543852090836,1,-0.642152727,1,-0.456767082,1
2.248005867,5.845528125762939,1,-6.897445679,1,-10.82827568,1,-0.067834929,1,0.8366338014602661,1,0.4262444972991943,1,0.2412405014038086,1,-0.639561713,1,-0.453533351,1
2.252009392,5.694450855255127,1,-6.913728237,1,-10.75159073,1,0.019374413,1,0.9386688470840454,1,0.3223516941070557,1,0.2394450902938843,1,-0.636469305,1,-0.450675696,1
2.256009579,5.575724601745605,1,-6.935986519,1,-10.64630318,1,0.09232872,1,1.038174986839294,1,0.2048141062259674,1,0.2382200658321381,1,-0.632875383,1,-0.448240399,1
2.260010958,5.593740463256836,1,-6.923749447,1,-10.57897949,1,0.1504237949848175,1,1.131613492965698,1,0.086712427,1,0.2375430017709732,1,-0.628788531,1,-0.446259379,1
2.26400876,5.770186901092529,1,-6.954404354,1,-10.44105911,1,0.1946679800748825,1,1.218769907951355,1,-0.033304594,1,0.2373662739992142,1,-0.624246716,1,-0.444765806,1
2.268008232,5.899559975,1,-6.844864368,1,-10.3080492,1,0.242671788,1,1.277311325073242,1,-0.154028878,1,0.2376603037118912,1,-0.619297266,1,-0.443777442,1
2.272009611,5.956223487854004,1,-6.622341156,1,-10.21972084,1,0.2847418487071991,1,1.326279997825623,1,-0.279324383,1,0.2384410500526428,1,-0.614023924,1,-0.443301588,1
2.276007414,5.909998416900635,1,-6.319455147,1,-10.08991814,1,0.3315584659576416,1,1.369425296783447,1,-0.396329224,1,0.239699975,1,-0.608459532,1,-0.443347305,1
2.280006886,5.858093262,1,-6.098405838,1,-9.97734642,1,0.3867555558681488,1,1.399356603622437,1,-0.513910115,1,0.2414452582597733,1,-0.602645278,1,-0.443883151,1
2.284008503,5.815315723419189,1,-5.903557301,1,-9.826356888,1,0.4337515234947205,1,1.431363463401794,1,-0.631328106,1,0.243685246,1,-0.596593559,1,-0.444930404,1
2.288006067,5.886368274688721,1,-5.626401901,1,-9.74879837,1,0.4827404916286469,1,1.450554251670837,1,-0.748898983,1,0.2463884502649307,1,-0.590334773,1,-0.44647482,1
2.292005777,5.626258373260498,1,-5.457373142,1,-9.559104919,1,0.5248276591300964,1,1.463668704032898,1,-0.871376097,1,0.2495390921831131,1,-0.583891273,1,-0.448546797,1
2.296007395,5.490257740020752,1,-5.136030197,1,-9.59086132,1,0.574065089,1,1.484062910079956,1,-0.98445636,1,0.2531464099884033,1,-0.577247858,1,-0.451086342,1
2.300005436,5.518951892852783,1,-4.912409782,1,-9.434082985,1,0.6020550727844238,1,1.499712228775024,1,-1.103615999,1,0.2571299374103546,1,-0.570425153,1,-0.454107344,1
2.304005146,5.361365795135498,1,-4.778753281,1,-9.388245583,1,0.6220360994338989,1,1.504219055175781,1,-1.224926949,1,0.2614679932594299,1,-0.56343168,1,-0.457627594,1
2.308007002,5.194271087646484,1,-4.558932304,1,-9.301049232,1,0.6387929320335388,1,1.508574128,1,-1.32786262,1,0.2661086022853851,1,-0.556275785,1,-0.461597502,1
2.312004566,4.961991310119629,1,-4.286149979,1,-9.25730896,1,0.6497081518173218,1,1.519364476203918,1,-1.430041552,1,0.270977795,1,-0.548976362,1,-0.465970755,1
2.316004038,4.693945407867432,1,-4.109853745,1,-9.224872589,1,0.6615713834762573,1,1.530617475509644,1,-1.516486287,1,0.2760453522205353,1,-0.541510165,1,-0.47067827,1
2.320005894,4.402389526367188,1,-4.001785278,1,-9.250683784,1,0.6660932302474976,1,1.552133917808533,1,-1.603814363,1,0.2812722027301788,1,-0.533861876,1,-0.475692153,1
2.324003696,4.209143639,1,-3.762215614,1,-9.280849457,1,0.6631488800048828,1,1.573804020881653,1,-1.675529957,1,0.2865939736366272,1,-0.526019454,1,-0.480964452,1
2.328003168,4.090761661529541,1,-3.521042824,1,-9.339552879,1,0.6669294238090515,1,1.600462436676025,1,-1.731992006,1,0.2919732928276062,1,-0.517974854,1,-0.486408472,1
2.332004786,3.837572813034058,1,-3.326869011,1,-9.542047501,1,0.6852399110794067,1,1.623069882392883,1,-1.778339863,1,0.2974141836166382,1,-0.509768009,1,-0.49197185,1
2.336002588,3.538833379745483,1,-3.195030212,1,-9.783558846,1,0.7175728678703308,1,1.654113531112671,1,-1.81015718,1,0.3029409348964691,1,-0.501386702,1,-0.497602403,1
2.340002298,2.920576810836792,1,-3.105862379,1,-10.06375408,1,0.7518259286880493,1,1.693456411361694,1,-1.842682242,1,0.3085581064224243,1,-0.492805809,1,-0.503230155,1
2.344004154,2.306333065032959,1,-3.074561596,1,-10.19148064,1,0.7825437784194946,1,1.765762329101563,1,-1.867967248,1,0.3142754435539246,1,-0.483948171,1,-0.508844614,1
2.348001719,1.813092589378357,1,-3.118692398,1,-10.28976345,1,0.8071178793907166,1,1.854375958442688,1,-1.900009394,1,0.3200147151947021,1,-0.474710673,1,-0.514371395,1
2.352001429,1.592107653617859,1,-3.072445869,1,-10.38154411,1,0.8103953003883362,1,1.949716687202454,1,-1.918040037,1,0.325689971,1,-0.465069383,1,-0.519770801,1
2.356003046,1.507398605,1,-3.018492937,1,-10.46233177,1,0.8172270059585571,1,2.050744533538818,1,-1.92969346,1,0.3312837481498718,1,-0.455024838,1,-0.525015771,1
2.360000849,1.471792936325073,1,-2.77174139,1,-10.50696754,1,0.8191540241241455,1,2.139997243881226,1,-1.934930682,1,0.3367526531219482,1,-0.444564462,1,-0.530074596,1
2.364000559,1.617715239524841,1,-2.464262962,1,-10.51251316,1,0.8377395272254944,1,2.216259479522705,1,-1.930777788,1,0.3421212136745453,1,-0.433767259,1,-0.534928679,1
2.368008614,1.606039047241211,1,-2.282015085,1,-10.54590034,1,0.8573102951049805,1,2.292463779449463,1,-1.924357295,1,0.3474377393722534,1,-0.422679514,1,-0.539557338,1
2.372013092,1.408559918403625,1,-2.05200839,1,-10.73031235,1,0.9050624966621399,1,2.358403921127319,1,-1.915339947,1,0.3527383208274841,1,-0.411308169,1,-0.543942213,1
2.376013517,1.080305814743042,1,-1.876347303,1,-10.80274296,1,0.9551241993904114,1,2.429167985916138,1,-1.905077696,1,0.3581087589263916,1,-0.399674386,1,-0.548111916,1
2.380015135,0.6698673963546753,1,-1.775977492,1,-10.85501289,1,1.006105303764343,1,2.506991386413574,1,-1.900485039,1,0.363533616,1,-0.38775152,1,-0.552042782,1
2.384012938,0.159197211,1,-1.913591027,1,-10.88259792,1,1.036581516265869,1,2.595836877822876,1,-1.898056149,1,0.369001031,1,-0.37549895,1,-0.555750966,1
2.388012648,-0.10654889,1,-2.120543003,1,-10.92467117,1,1.063321828842163,1,2.691325664520264,1,-1.9036448,1,0.3744635879993439,1,-0.362880111,1,-0.559227943,1
2.392014027,-0.400053322,1,-2.31328702,1,-10.9607935,1,1.061666608,1,2.783684253692627,1,-1.904769063,1,0.3798434138298035,1,-0.349894106,1,-0.562476933,1
2.396011829,-0.573130608,1,-2.438172817,1,-10.97113705,1,1.052905917167664,1,2.870834112167358,1,-1.903915882,1,0.385091096,1,-0.336558104,1,-0.565507114,1
2.400011301,-0.85854739,1,-2.383701086,1,-10.89673519,1,1.041212797164917,1,2.956472873687744,1,-1.902284503,1,0.3901921808719635,1,-0.322887897,1,-0.568300247,1
2.404013157,-1.182533622,1,-2.271856308,1,-10.80966187,1,1.022814989089966,1,3.042247772216797,1,-1.890832067,1,0.3951072692871094,1,-0.30889681,1,-0.570841372,1
2.408010721,-1.25568521,1,-2.131519794,1,-10.58211422,1,1.016707539558411,1,3.121001482009888,1,-1.878829598,1,0.3998550772666931,1,-0.294566512,1,-0.573028922,1
2.412010431,-1.187757373,1,-1.972831011,1,-10.3794899,1,1.009339690208435,1,3.178424119949341,1,-1.856921434,1,0.4044755399227142,1,-0.280042887,1,-0.575060308,1
2.416012287,-1.182147384,1,-1.785898089,1,-10.08195877,1,1.009862184524536,1,3.225071192,1,-1.828052282,1,0.4089912474155426,1,-0.265362561,1,-0.57682246,1
2.42001009,-1.16963017,1,-1.682243228,1,-9.751987457,1,1.014166355133057,1,3.244086980819702,1,-1.781895638,1,0.4134212136268616,1,-0.250608265,1,-0.578322351,1
2.424009562,-1.084692001,1,-1.628433943,1,-9.395525932,1,1.020298719406128,1,3.244957685470581,1,-1.726415992,1,0.4177912175655365,1,-0.23589623,1,-0.57953614,1
2.428011179,-1.253832102,1,-1.642467618,1,-9.093866348,1,1.028891682624817,1,3.225477457046509,1,-1.663025022,1,0.4221072494983673,1,-0.221315861,1,-0.580477595,1
2.432008982,-1.292745948,1,-1.793182969,1,-8.705225945,1,1.026122570037842,1,3.187294721603394,1,-1.583975673,1,0.4263508319854736,1,-0.206944734,1,-0.581131577,1
2.436008692,-1.47898531,1,-1.85200572,1,-8.373270988,1,1.009068250656128,1,3.139902353286743,1,-1.502204537,1,0.4304985404014587,1,-0.192871064,1,-0.581507266,1
2.440010548,-1.704349875,1,-1.969272375,1,-8.057271004,1,0.9855210781097412,1,3.065685987472534,1,-1.406416535,1,0.4345090687274933,1,-0.179159179,1,-0.581592023,1
2.444008112,-2.020537376,1,-2.195131302,1,-7.818369865,1,0.9687975645065308,1,2.989507675170898,1,-1.285754442,1,0.4383793771266937,1,-0.165894389,1,-0.581362724,1
2.448007822,-2.364406347,1,-2.644044638,1,-7.820171833,1,0.981603205,1,2.926050662994385,1,-1.154979229,1,0.4421650767326355,1,-0.153105319,1,-0.580736995,1
2.452009439,-3.164391518,1,-3.026465178,1,-8.268242836,1,1.014465332,1,2.875451326370239,1,-1.02494359,1,0.4459842145442963,1,-0.140757203,1,-0.57968384,1
2.456007242,-4.566619396,1,-3.087415934,1,-8.730601311,1,1.057163715362549,1,2.850242614746094,1,-0.925804257,1,0.4499302506446838,1,-0.128757492,1,-0.578219652,1
2.460006952,-5.956177711,1,-3.088142633,1,-9.216450691,1,1.112956404685974,1,2.845583915710449,1,-0.859226704,1,0.4540548026561737,1,-0.116963819,1,-0.57643497,1
2.464008331,-7.346585274,1,-3.230276108,1,-9.692212105,1,1.163476824760437,1,2.868434190750122,1,-0.828665912,1,0.4583801627159119,1,-0.105224304,1,-0.574397743,1
2.468006372,-8.459103584,1,-3.288792133,1,-9.990401268,1,1.210385203361511,1,2.900926113128662,1,-0.843050361,1,0.462922603,1,-0.093408123,1,-0.572245657,1
2.472006083,-9.084730148,1,-3.242161036,1,-10.083601,1,1.251517057418823,1,2.916560411453247,1,-0.882401943,1,0.4676590859889984,1,-0.081452735,1,-0.570096314,1
2.4760077,-9.256063461,1,-3.111171961,1,-9.913433075,1,1.286947608,1,2.901741266,1,-0.934662998,1,0.4725767970085144,1,-0.06942527,1,-0.568056226,1
2.480005264,-9.300225258,1,-2.789367914,1,-9.663748741,1,1.323690056800842,1,2.836023330688477,1,-0.993614972,1,0.4776764810085297,1,-0.057449952,1,-0.566223383,1
2.484004974,-9.38583374,1,-2.220813274,1,-9.332399368,1,1.372750878334045,1,2.735703706741333,1,-1.045169115,1,0.4829811155796051,1,-0.045676786,1,-0.564677894,1
2.488006353,-9.640380859,1,-1.795217156,1,-8.946220398,1,1.422101378440857,1,2.603550672531128,1,-1.092076063,1,0.4885193705558777,1,-0.034238786,1,-0.56347239,1
2.492010355,-10.02957535,1,-1.763413548,1,-8.490647316,1,1.475108385,1,2.463409423828125,1,-1.129378319,1,0.4942913055419922,1,-0.023208015,1,-0.562621355,1
2.496010065,-10.18546581,1,-2.028991461,1,-8.162806511,1,1.503556489944458,1,2.302407026290894,1,-1.144408822,1,0.5002469420433044,1,-0.012652556,1,-0.562078655,1
2.500011683,-10.44153023,1,-2.274096489,1,-7.778306484,1,1.515133023262024,1,2.133924722671509,1,-1.153678179,1,0.5062997341156006,1,-0.002667132,1,-0.56182909,1
2.504009485,-11.13705921,1,-2.273223639,1,-7.590328693,1,1.493370890617371,1,1.951126575469971,1,-1.157761335,1,0.5123177170753479,1,0.006721347,1,-0.561875105,1
2.508008957,-11.83410168,1,-1.982474566,1,-7.343082905,1,1.455309629440308,1,1.765899062156677,1,-1.150275946,1,0.5182111859321594,1,0.015464035,1,-0.562223673,1
2.512010813,-12.7994051,1,-1.362743139,1,-7.073823929,1,1.424100160598755,1,1.608784675598145,1,-1.14823842,1,0.5239555835723877,1,0.023603613,1,-0.562851906,1
2.516008615,-13.69426346,1,-0.657767594,1,-6.905359268,1,1.399996042251587,1,1.456676721572876,1,-1.143875837,1,0.5295771360397339,1,0.03120264,1,-0.563734651,1
2.520008087,-14.57205105,1,-0.06928017,1,-6.674517632,1,1.390473008155823,1,1.322390794754028,1,-1.1340729,1,0.5351146459579468,1,0.038304176,1,-0.564844668,1
2.524009943,-15.28351784,1,0.2262234836816788,1,-6.212129116,1,1.376669883728027,1,1.200838446617126,1,-1.103030801,1,0.5405977368354797,1,0.044934586,1,-0.566106617,1
2.528007746,-15.91132355,1,0.3646239340305328,1,-5.668334007,1,1.343406438827515,1,1.090556263923645,1,-1.063436389,1,0.5459766387939453,1,0.051101599,1,-0.567461014,1
2.532007456,-16.25550652,1,0.1847128421068192,1,-4.988084316,1,1.273074507713318,1,0.9897972941398621,1,-0.984736204,1,0.5511462092399597,1,0.056792352,1,-0.568800092,1
2.536009312,-16.57811928,1,-0.258919358,1,-4.220012188,1,1.185822964,1,0.8842460513114929,1,-0.873238564,1,0.5559963583946228,1,0.061934032,1,-0.570003808,1
2.540006876,-17.05544281,1,-0.50923264,1,-3.783051014,1,1.086442708969116,1,0.7645958065986633,1,-0.729682624,1,0.5604841709136963,1,0.066438563,1,-0.570982814,1
2.544006586,-17.96825981,1,-0.377937198,1,-3.23337245,1,0.9700279235839844,1,0.6543225049972534,1,-0.587583303,1,0.5645570755004883,1,0.070247039,1,-0.571700811,1
2.548008442,-18.8674202,1,-0.060389325,1,-2.693370342,1,0.855821431,1,0.5510843992233276,1,-0.431029499,1,0.5681859254837036,1,0.073380351,1,-0.572116792,1
2.552006245,-19.61559868,1,0.3018162250518799,1,-2.170547485,1,0.7431953549385071,1,0.4505915641784668,1,-0.281857967,1,0.5713716745376587,1,0.075844489,1,-0.572236657,1
2.556005955,-20.12121391,1,0.4022171497344971,1,-1.758062482,1,0.6370974779129028,1,0.3565340638160706,1,-0.13709569,1,0.574148953,1,0.077660777,1,-0.572057366,1
2.560007334,-20.49324989,1,0.2509025931358337,1,-1.410077095,1,0.5291427373886108,1,0.2497647553682327,1,0.006391117,1,0.5765108466148376,1,0.078824751,1,-0.571612,1
2.564005136,-20.82928276,1,0.2026274800300598,1,-0.984355628,1,0.4166184067726135,1,0.1281925588846207,1,0.1467570662498474,1,0.5784624218940735,1,0.079293117,1,-0.570931077,1
2.568004847,-21.04885101,1,0.2149683386087418,1,-0.52992326,1,0.3035929501056671,1,-0.003468044,1,0.2832995057106018,1,0.5799704790115356,1,0.079034373,1,-0.570070624,1
2.572006702,-20.64736176,1,0.1959510445594788,1,-0.058929246,1,0.1764233410358429,1,-0.16398564,1,0.4237483739852905,1,0.5810181498527527,1,0.077990964,1,-0.569068491,1
2.576004505,-21.41716957,1,-0.052887417,1,-0.03446348,1,0.063033655,1,-0.341743201,1,0.5294745564460754,1,0.5815674662590027,1,0.076017201,1,-0.568035722,1
2.580003977,-20.03781128,1,-0.25609687,1,0.6158466935157776,1,-0.074125946,1,-0.504502714,1,0.6299231052398682,1,0.5816141366958618,1,0.073371351,1,-0.567013025,1
2.584005594,-19.32151031,1,-0.512952566,1,0.7773633599281311,1,-0.215024576,1,-0.730873704,1,0.7188448905944824,1,0.581102729,1,0.069818512,1,-0.566115379,1
2.588003397,-19.02474022,1,-0.958271503,1,0.9768937826156616,1,-0.347917616,1,-0.961321831,1,0.7993381023406982,1,0.5800142884254456,1,0.06532146,1,-0.56543088,1
2.592002869,-2.337989569,1,-7.537064552,1,-8.16805172,1,-0.72330296,1,-1.284148335,1,0.9898083806037903,1,0.5781075358390808,1,0.0597241,1,-0.564946771,1
2.596004725,0.7259581089019775,1,-0.917184889,1,-6.340433121,1,-0.588125706,1,-2.41099,1,1.554119348526001,1,0.574970007,1,0.050825033,1,-0.564771652,1
2.600002289,-3.804190636,1,-5.121645927,1,-2.947698116,1,-0.912121892,1,-2.593812227,1,1.652398467063904,1,0.5724016427993774,1,0.038477436,1,-0.564825237,1
2.60400176,18.04955482,1,-12.4062376,1,-11.54195118,1,-1.047501087,1,-2.436617851,1,1.386922836303711,1,0.568177342,1,0.027006354,1,-0.565084636,1
2.608003616,9.400357246398926,1,-13.44417572,1,-13.76636314,1,-1.11248529,1,-2.972263336,1,1.620365738868713,1,0.5640255212783813,1,0.014598575,1,-0.565835118,1
2.612007141,7.862411975860596,1,-14.86997509,1,-12.13711929,1,-1.423954248,1,-2.777296066,1,1.585589289665222,1,0.5589308142662048,1,0.00135088,1,-0.566582203,1
2.616006613,11.34941673278809,1,-16.03899765,1,-15.8337574,1,-1.679135203,1,-2.847316504,1,1.655763030052185,1,0.5527766942977905,1,-0.011497974,1,-0.566960096,1
2.620008469,12.94224548339844,1,-11.42836475,1,-14.43833828,1,-1.643435359,1,-3.196424246,1,1.875350713729858,1,0.5459725260734558,1,-0.025437236,1,-0.567277014,1
2.624006033,7.914459705352783,1,-10.63877296,1,-11.93630123,1,-1.752654433,1,-3.69707799,1,1.819116353988647,1,0.5393795371055603,1,-0.041083224,1,-0.568005443,1
2.62800622,3.782414913,1,-10.61386585,1,-12.07328987,1,-1.81821847,1,-4.093104362,1,1.895661712,1,0.5322680473327637,1,-0.058231894,1,-0.569629669,1
2.632007837,-0.362875998,1,-6.153839588,1,-10.76672554,1,-1.921057105,1,-4.479373455,1,1.942279696464539,1,0.5249317288398743,1,-0.077044204,1,-0.571618736,1
2.63600564,-7.2038064,1,-3.019469023,1,-11.57330418,1,-1.908279538,1,-4.761362076,1,1.913453102111816,1,0.5174512267112732,1,-0.096921697,1,-0.574135542,1
2.64000535,-13.09986496,1,1.735133051872253,1,-12.58639622,1,-1.617718101,1,-4.807243347,1,1.899258375167847,1,0.5106315016746521,1,-0.117396168,1,-0.576951385,1
2.644006968,-13.82002163,1,4.834310531616211,1,-15.04436207,1,-1.143483162,1,-4.670366287,1,1.788431406021118,1,0.5053808093070984,1,-0.137524113,1,-0.579735339,1
2.648004532,-16.94691277,1,4.421793937683105,1,-16.60144806,1,-0.879033923,1,-4.478647709,1,1.639909982681274,1,0.5018349289894104,1,-0.15683268,1,-0.582561493,1
2.652004242,-16.9549675,1,6.196143627166748,1,-17.84451485,1,-0.612887263,1,-4.183621407,1,1.558630585670471,1,0.4993066489696503,1,-0.175188914,1,-0.585341752,1
2.656005859,-16.77931976,1,6.519640445709229,1,-16.92812538,1,-0.167858183,1,-4.004144192,1,1.621768355369568,1,0.4981963038444519,1,-0.192607224,1,-0.587655425,1
2.660003662,-15.75478649,1,2.828617572784424,1,-17.31358337,1,0.031810991,1,-3.65189743,1,1.715717434883118,1,0.4981579184532166,1,-0.209134489,1,-0.58820188,1
2.664003372,-16.29524994,1,2.673576117,1,-16.49202347,1,0.2552864849567413,1,-3.281791687,1,1.843152881,1,0.4987916052341461,1,-0.224772587,1,-0.588579357,1
2.668004751,-16.32245064,1,1.093450903892517,1,-15.42205143,1,0.4475664496421814,1,-2.867191076,1,1.877211213111877,1,0.5000495910644531,1,-0.23914215,1,-0.58790338,1
2.672002792,-15.90529728,1,-2.108261824,1,-14.09465027,1,0.5198864340782166,1,-2.558570385,1,1.907501220703125,1,0.5016504526138306,1,-0.252247363,1,-0.58642149,1
2.676002502,-14.24838638,1,-5.285402298,1,-11.7361412,1,0.6171700954437256,1,-2.238675117,1,1.838787078857422,1,0.5033764839172363,1,-0.264250457,1,-0.584374964,1
2.68000412,-12.04227638,1,-8.838235855,1,-10.71639633,1,0.575809658,1,-2.06608057,1,1.691834688186646,1,0.5052775740623474,1,-0.275172174,1,-0.582253933,1
2.684001684,-10.88095188,1,-11.32198429,1,-8.472027779,1,0.4133665263652802,1,-1.965131283,1,1.560700893,1,0.506730855,1,-0.285408586,1,-0.580364347,1
2.688001394,-8.841601372,1,-13.69670773,1,-7.546320438,1,0.2485119551420212,1,-1.897055268,1,1.343452095985413,1,0.5077055096626282,1,-0.294946611,1,-0.578974187,1
2.692003012,-7.904371738,1,-14.18731403,1,-5.939894676,1,-0.018694449,1,-1.891716838,1,1.197596073150635,1,0.5079033970832825,1,-0.304060459,1,-0.578183949,1
2.696000814,-6.135210514,1,-13.89857578,1,-5.500692844,1,-0.263535231,1,-1.874462962,1,1.048890113830566,1,0.5072792172431946,1,-0.312808096,1,-0.577914596,1
2.700000286,-5.912559509,1,-12.60579205,1,-5.891987801,1,-0.540240467,1,-1.904273987,1,1.017923831939697,1,0.5057060718536377,1,-0.321405053,1,-0.578002989,1
2.704002142,-6.329524994,1,-9.841561317,1,-6.257228374,1,-0.738452494,1,-1.833218932,1,1.040577888,1,0.5031113028526306,1,-0.329957247,1,-0.57800889,1
2.707999706,-6.831916809,1,-7.071115971,1,-7.07046032,1,-0.852188647,1,-1.723364592,1,1.069786906242371,1,0.4998086094856262,1,-0.338231146,1,-0.577712953,1
2.711999178,-6.96038866,1,-4.692684174,1,-8.252633095,1,-0.927577019,1,-1.5441401,1,1.130874276161194,1,0.495979905,1,-0.346059799,1,-0.576922119,1
2.716001034,-7.586809158,1,-3.403526783,1,-8.519968033,1,-0.941960633,1,-1.38527298,1,1.195870280265808,1,0.4917571544647217,1,-0.353437603,1,-0.575525165,1
2.719998837,-6.815413475,1,-2.42108798,1,-8.814751625,1,-0.911898732,1,-1.238798261,1,1.221080065,1,0.4873662889003754,1,-0.360335171,1,-0.57358259,1
2.723998547,-7.058678627,1,-3.251184464,1,-9.244867325,1,-0.872850537,1,-1.163195729,1,1.212949275970459,1,0.4830275177955627,1,-0.366840541,1,-0.571359158,1
2.728000164,-7.218376637,1,-4.720533848,1,-8.320872307,1,-0.870647907,1,-1.070550799,1,1.134563326835632,1,0.4787022173404694,1,-0.372984052,1,-0.56909138,1
2.732004166,-5.855162621,1,-5.386331558,1,-8.178731918,1,-0.881842136,1,-1.047723532,1,1.029666543006897,1,0.4744535684585571,1,-0.378710389,1,-0.567041516,1
2.736004114,-5.435177803,1,-6.236876488,1,-8.04911232,1,-0.914066494,1,-1.061100602,1,0.9509536027908325,1,0.4702237844467163,1,-0.384272397,1,-0.565320909,1
2.74000597,-4.716672897,1,-6.01806736,1,-8.088458061,1,-0.971995592,1,-1.075260997,1,0.9224479794502258,1,0.4658786058425903,1,-0.389773428,1,-0.563800156,1
2.744003534,-4.350441933,1,-5.631697178,1,-8.209256172,1,-1.022535563,1,-1.077941179,1,0.9313386678695679,1,0.4613251388072968,1,-0.395287812,1,-0.562305808,1
2.748003244,-4.888467312,1,-4.886829376,1,-8.695900917,1,-1.047634721,1,-1.084932923,1,0.9573922157287598,1,0.4565689563751221,1,-0.400849551,1,-0.560712337,1
2.752004862,-5.05701685,1,-4.054620743,1,-8.587265015,1,-1.070145965,1,-1.015540719,1,0.9827950596809387,1,0.4516253471374512,1,-0.406329602,1,-0.558920443,1
2.756002903,-4.580429077,1,-2.847013235,1,-8.870463371,1,-1.06221199,1,-0.990739524,1,0.9733157157897949,1,0.446572483,1,-0.411623567,1,-0.556956708,1
2.760002375,-4.390390396,1,-2.589274168,1,-8.770809174,1,-1.033777475,1,-0.972384751,1,0.9483994841575623,1,0.4416028261184692,1,-0.416829586,1,-0.555011928,1
2.764003754,-5.404194355,1,-1.980250359,1,-9.284169197,1,-1.019598246,1,-0.963345826,1,0.9213244318962097,1,0.4367050528526306,1,-0.421935976,1,-0.553090811,1
2.768001556,-5.933676243,1,-1.336515069,1,-9.509794235,1,-0.948913753,1,-0.900775909,1,0.8657689094543457,1,0.4320022463798523,1,-0.426834643,1,-0.55125761,1
2.772001028,-6.131944656,1,-1.134530783,1,-9.543243408,1,-0.866742849,1,-0.840657413,1,0.8020734190940857,1,0.4276407659053802,1,-0.431397319,1,-0.549538016,1
2.776002645,-5.420037746,1,-0.909301341,1,-9.711769104,1,-0.789761961,1,-0.81151557,1,0.778722882,1,0.4236375689506531,1,-0.435686946,1,-0.547878444,1
2.78000021,-5.448647976,1,-1.530784488,1,-9.401008606,1,-0.708826661,1,-0.778573692,1,0.7088568210601807,1,0.4200195670127869,1,-0.439821362,1,-0.546331465,1
2.78399992,-5.656852722,1,-2.922297955,1,-9.649759293,1,-0.665987015,1,-0.762492955,1,0.6485778093338013,1,0.4166767001152039,1,-0.443732709,1,-0.544959843,1
2.788001776,-5.372457504,1,-2.548820019,1,-9.409320831,1,-0.601373613,1,-0.753676176,1,0.557337761,1,0.413660467,1,-0.447473764,1,-0.54386127,1
2.791999578,-5.591108799,1,-3.264875889,1,-9.234137535,1,-0.557298303,1,-0.747889221,1,0.5119139552116394,1,0.4109934568405151,1,-0.45106414,1,-0.543058634,1
2.79599905,-4.143879414,1,-1.753498077,1,-9.804471016,1,-0.531695485,1,-0.758536816,1,0.4530838429927826,1,0.4085204601287842,1,-0.454566091,1,-0.542395532,1
2.800000668,-4.991915226,1,-2.16438055,1,-9.411592484,1,-0.469664782,1,-0.751292884,1,0.427587092,1,0.4063148498535156,1,-0.458055586,1,-0.541940153,1
2.80399847,-4.560853004,1,-2.472084522,1,-9.236801147,1,-0.431995392,1,-0.744163752,1,0.3921761810779572,1,0.4043455719947815,1,-0.461432099,1,-0.541569471,1
2.807997942,-4.89563942,1,-2.953313351,1,-8.954889297,1,-0.386906713,1,-0.738545835,1,0.3525006473064423,1,0.4026037156581879,1,-0.464764655,1,-0.541341126,1
2.811999798,-6.873405457,1,-2.315326691,1,-9.378902435,1,-0.323793679,1,-0.714588225,1,0.2953465580940247,1,0.4011447429656982,1,-0.467981786,1,-0.541288733,1
2.815997362,-5.370543957,1,-1.829238534,1,-8.752921104,1,-0.243378222,1,-0.67521596,1,0.2656729221343994,1,0.4000451266765594,1,-0.470945537,1,-0.541354835,1
2.819997072,-5.18354702,1,-1.863412857,1,-8.85338974,1,-0.169790313,1,-0.693678439,1,0.2376338541507721,1,0.3992998898029327,1,-0.473873883,1,-0.541523516,1
2.82399869,-5.50894022,1,-1.929423094,1,-9.086070061,1,-0.098225057,1,-0.673684359,1,0.2035276889801025,1,0.3988947868347168,1,-0.476735145,1,-0.541803718,1
2.827996492,-5.135851383,1,-1.965975761,1,-8.5258255,1,-0.032596357,1,-0.661379278,1,0.1697417944669724,1,0.3988108932971954,1,-0.479494274,1,-0.542194903,1
2.831996202,-5.852070808,1,-2.41273284,1,-8.317501068,1,0.029118866,1,-0.655615747,1,0.1526625901460648,1,0.3990272879600525,1,-0.482184887,1,-0.542674839,1
2.835997581,-5.676017761,1,-2.881011486,1,-7.981310368,1,0.068410084,1,-0.628051162,1,0.132134885,1,0.3994786739349365,1,-0.484783351,1,-0.543217361,1
2.839995384,-5.45010376,1,-3.325139761,1,-7.81797123,1,0.082169719,1,-0.607001007,1,0.1267275661230087,1,0.4000470042228699,1,-0.487254441,1,-0.543765128,1
2.843995094,-5.193925858,1,-3.723824978,1,-7.794036865,1,0.079481699,1,-0.581980109,1,0.1257697343826294,1,0.4006173014640808,1,-0.489636451,1,-0.544285297,1
2.847996712,-5.207124233,1,-4.048319817,1,-7.635799408,1,0.062658042,1,-0.55831486,1,0.1275462508201599,1,0.4011367857456207,1,-0.491934776,1,-0.544777393,1
2.852000475,-5.693223,1,-4.053516865,1,-7.528101444,1,0.037326522,1,-0.525975287,1,0.1222581341862679,1,0.4015503525733948,1,-0.494135499,1,-0.54522413,1
2.856000185,-5.457932949,1,-3.885538101,1,-7.384033203,1,0.015623773,1,-0.484917819,1,0.1150065958499908,1,0.4018485546112061,1,-0.496181577,1,-0.545625746,1
2.860002041,-5.425168514,1,-3.755774021,1,-7.459349155,1,-0.005648348,1,-0.45604682,1,0.1124573722481728,1,0.4020421206951141,1,-0.498090595,1,-0.545983255,1
2.864000082,-5.325109959,1,-3.56631875,1,-7.47986269,1,-0.01709527,1,-0.426529914,1,0.1028291508555412,1,0.402163178,1,-0.499874651,1,-0.546323001,1
2.867999554,-5.266639233,1,-3.505315304,1,-7.495016575,1,-0.025819121,1,-0.402926147,1,0.094520129,1,0.4022345542907715,1,-0.501550019,1,-0.546652615,1
2.872000933,-5.184698105,1,-3.57003355,1,-7.602091312,1,-0.027178112,1,-0.379588097,1,0.089318819,1,0.4022746384143829,1,-0.503134608,1,-0.546971381,1
2.875998735,-5.318402767,1,-3.559747458,1,-7.662661552,1,-0.036204334,1,-0.360125631,1,0.08049091,1,0.4023023843765259,1,-0.504631042,1,-0.54728204,1
2.879998207,-5.044830799,1,-3.642668009,1,-7.770991325,1,-0.041569028,1,-0.34078759,1,0.083097003,1,0.4022912383079529,1,-0.506051898,1,-0.547559917,1
2.884000063,-4.949225426,1,-3.670903921,1,-7.805836678,1,-0.054324325,1,-0.329722196,1,0.085727505,1,0.4022240936756134,1,-0.507422388,1,-0.547815382,1
2.887997627,-4.902046204,1,-3.97151494,1,-7.772199154,1,-0.075416677,1,-0.324421078,1,0.085756987,1,0.4020752906799316,1,-0.508756399,1,-0.548022747,1
2.891997099,-4.822619438,1,-4.232571125,1,-7.76406002,1,-0.097733527,1,-0.310915112,1,0.1011016070842743,1,0.401806653,1,-0.510065377,1,-0.548190355,1
2.895998955,-4.924152374,1,-4.274328232,1,-7.66910696,1,-0.117458023,1,-0.303928584,1,0.1106642335653305,1,0.4014242887496948,1,-0.511375546,1,-0.548295915,1
2.899996758,-5.211951733,1,-4.17577076,1,-7.867385387,1,-0.132976383,1,-0.300418705,1,0.1324591338634491,1,0.4009419977664948,1,-0.512679279,1,-0.548329473,1
2.903996229,-4.450388908,1,-3.85161972,1,-7.874731541,1,-0.149196208,1,-0.290783435,1,0.1275696903467178,1,0.400354266,1,-0.513972223,1,-0.54828608,1
2.907997847,-4.958888531,1,-3.855215788,1,-7.846014977,1,-0.156976417,1,-0.295814276,1,0.1389719992876053,1,0.3990752398967743,1,-0.520321846,1,-0.548713744,1
2.911995649,-4.861192226,1,-3.533281088,1,-7.926011086,1,-0.1656207,1,-0.291476786,1,0.1501297354698181,1,0.3983832001686096,1,-0.521615267,1,-0.548619807,1
2.915995359,-4.769221306,1,-3.412107229,1,-7.963921547,1,-0.170622796,1,-0.302969724,1,0.1499606072902679,1,0.3976561427116394,1,-0.522945583,1,-0.54851079,1
2.919997215,-4.892255783,1,-3.280920982,1,-7.948015213,1,-0.152834982,1,-0.297943681,1,0.1601543575525284,1,0.3969431817531586,1,-0.524291813,1,-0.548387527,1
2.92399478,-4.914305687,1,-3.184917927,1,-7.955042362,1,-0.136026114,1,-0.295889199,1,0.1614277064800262,1,0.3962886929512024,1,-0.525633812,1,-0.548243761,1
2.927994728,-4.978358746,1,-3.091681004,1,-7.912765026,1,-0.119160019,1,-0.301678658,1,0.1614019870758057,1,0.3957013487815857,1,-0.52698791,1,-0.548085332,1
2.931996107,-4.734840393,1,-3.077778816,1,-7.994220257,1,-0.099218048,1,-0.312700123,1,0.1654526442289352,1,0.395188034,1,-0.528372169,1,-0.547936559,1
2.93599391,-4.721514702,1,-3.146828413,1,-8.106900215,1,-0.065560557,1,-0.326023281,1,0.1705334335565567,1,0.3947791159152985,1,-0.529807806,1,-0.547790289,1
2.93999362,-5.018875599,1,-3.167985439,1,-7.58188343,1,-0.048544683,1,-0.324459195,1,0.1917001754045486,1,0.3944438695907593,1,-0.531323612,1,-0.547577858,1
2.943995237,-5.15476799,1,-3.012341022,1,-7.924054146,1,-0.023780875,1,-0.367922693,1,0.1874782592058182,1,0.3942112922668457,1,-0.532889187,1,-0.547394872,1
2.947992802,-5.117632389,1,-2.657164574,1,-8.042943001,1,0.028467406,1,-0.369193137,1,0.1947342753410339,1,0.3941329419612885,1,-0.534547091,1,-0.547230363,1
2.951992512,-5.164529324,1,-2.811356068,1,-7.880428314,1,0.04420431,1,-0.384351343,1,0.1987607479095459,1,0.3942094445228577,1,-0.536237895,1,-0.547062576,1
2.955994129,-5.351678848,1,-3.025336504,1,-7.70187521,1,0.035851695,1,-0.379522532,1,0.1879415810108185,1,0.3942989110946655,1,-0.537956655,1,-0.546917856,1
2.95999217,-5.46863842,1,-3.092650175,1,-7.564814091,1,0.039018102,1,-0.369097769,1,0.1777379214763641,1,0.394384503,1,-0.539625645,1,-0.546806931,1
2.96399188,-5.389424324,1,-2.914121389,1,-7.643431664,1,0.05899056,1,-0.367183834,1,0.1762944012880325,1,0.3945230841636658,1,-0.541246057,1,-0.546711743,1
2.967993498,-5.102300644,1,-2.883452415,1,-7.421107292,1,0.071443893,1,-0.332091749,1,0.1844263523817062,1,0.3947098553180695,1,-0.542848229,1,-0.546549678,1
2.971997261,-5.384449482,1,-3.239047527,1,-7.447720528,1,0.078029945,1,-0.34973368,1,0.1776002794504166,1,0.3949294090270996,1,-0.544380069,1,-0.546399355,1
2.975996971,-5.307107925,1,-3.483879566,1,-7.474533081,1,0.080198072,1,-0.323435903,1,0.1732985526323318,1,0.3951704502105713,1,-0.545881212,1,-0.546256661,1
2.979998827,-5.038778782,1,-3.366447926,1,-7.451437473,1,0.06868618,1,-0.311172992,1,0.1809110045433044,1,0.3953529298305511,1,-0.54731667,1,-0.546061814,1
2.983996391,-5.137548923,1,-3.504395723,1,-7.376691818,1,0.069817066,1,-0.296042651,1,0.1881016492843628,1,0.3954927325248718,1,-0.548722863,1,-0.54581511,1
2.987995863,-5.014799118,1,-3.769873619,1,-7.35147047,1,0.058640849,1,-0.283251375,1,0.1979144811630249,1,0.3955890834331512,1,-0.55008322,1,-0.545507193,1
2.991997719,-4.853191853,1,-4.136107445,1,-7.498323441,1,0.023716934,1,-0.286400586,1,0.2090989649295807,1,0.395569384,1,-0.551444352,1,-0.545141935,1
2.995995283,-5.233002186,1,-4.188166618,1,-7.655439377,1,-0.003028194,1,-0.288272411,1,0.2251135110855103,1,0.3953911364078522,1,-0.552834749,1,-0.544726193,1
2.999994993,-3.988682508,1,-4.08046484,1,-7.554186821,1,-0.004271694,1,-0.273756534,1,0.2262583673000336,1,0.3950963616371155,1,-0.554178357,1,-0.544223607,1
3.003996611,-5.101758957,1,-4.038743973,1,-7.553982258,1,-0.010402116,1,-0.282801419,1,0.2485272288322449,1,0.3947956562042236,1,-0.555595458,1,-0.543697834,1
3.007994413,-4.964975357,1,-3.722996235,1,-7.68558979,1,-0.02225697,1,-0.281162381,1,0.2570361793041229,1,0.3944231271743774,1,-0.55702734,1,-0.543108165,1
3.011994123,-5.024740219,1,-3.27792573,1,-7.760072231,1,-0.01829363,1,-0.292545915,1,0.2662607431411743,1,0.3940115869045258,1,-0.558488548,1,-0.542489111,1
3.015995741,-5.171421051,1,-3.15756464,1,-7.781383514,1,-0.010342151,1,-0.296457648,1,0.2634658217430115,1,0.3936218619346619,1,-0.559977293,1,-0.541860342,1
3.019993305,-4.954485416,1,-3.113177776,1,-7.460140228,1,-0.013794189,1,-0.272072941,1,0.2697101831436157,1,0.3932070136070251,1,-0.561461985,1,-0.541190326,1
3.023993015,-5.269654751,1,-3.214887857,1,-7.78950882,1,-0.004893208,1,-0.306499988,1,0.2654527723789215,1,0.3928474187850952,1,-0.562951207,1,-0.540563703,1
3.027994633,-5.216715336,1,-3.270317078,1,-7.658261776,1,-0.022899065,1,-0.306057781,1,0.2627731263637543,1,0.3924700021743774,1,-0.564493775,1,-0.539963245,1
3.031992435,-5.32870388,1,-2.964598656,1,-7.636219501,1,-0.003079108,1,-0.309707105,1,0.264947772,1,0.3920947313308716,1,-0.566025853,1,-0.53937006,1
3.035992146,-5.317136765,1,-2.886227608,1,-7.654751301,1,0.014856889,1,-0.31359753,1,0.2597270011901855,1,0.3917988538742065,1,-0.567580283,1,-0.538784206,1
3.039993525,-5.400274277,1,-2.723151445,1,-7.743972301,1,0.024089012,1,-0.311992139,1,0.2576430439949036,1,0.3915700912475586,1,-0.569126189,1,-0.538209736,1
3.043991566,-4.762342453,1,-2.832883358,1,-7.283869267,1,0.024837296,1,-0.289167136,1,0.2410672903060913,1,0.3913565874099731,1,-0.570636094,1,-0.537667811,1
3.047991037,-5.488461494,1,-2.598204136,1,-7.685961723,1,0.045225158,1,-0.314225525,1,0.2390493899583817,1,0.3912290930747986,1,-0.572134137,1,-0.537162483,1
3.051992655,-5.548506737,1,-2.607997656,1,-7.713011265,1,0.05142371,1,-0.32069242,1,0.2219674289226532,1,0.3911802172660828,1,-0.57366097,1,-0.536718845,1
3.055990219,-5.389808655,1,-2.8305583,1,-7.700739861,1,0.046096098,1,-0.330538243,1,0.2129147201776505,1,0.3911787867546082,1,-0.575191736,1,-0.536343038,1
3.059989691,-5.361124516,1,-2.795659304,1,-7.708402157,1,0.048380289,1,-0.341474593,1,0.208207369,1,0.3911900818347931,1,-0.576755404,1,-0.536031067,1
3.063991547,-5.31637764,1,-2.867928743,1,-7.686235428,1,0.05471845,1,-0.353566498,1,0.206211045,1,0.3912563920021057,1,-0.578351259,1,-0.535761356,1
3.067989588,-5.290400028,1,-3.306868315,1,-7.633727551,1,0.059712358,1,-0.355752319,1,0.2135109901428223,1,0.3913300633430481,1,-0.579985023,1,-0.535477817,1
3.071989059,-6.110244751,1,-3.317576647,1,-7.984117985,1,0.050903842,1,-0.368994206,1,0.2363380789756775,1,0.391385555,1,-0.58166343,1,-0.535144806,1
3.075990677,-4.696596146,1,-3.363070965,1,-7.801046848,1,0.056358844,1,-0.374163598,1,0.2268489152193069,1,0.3914052844047546,1,-0.583324075,1,-0.534785986,1
3.079988718,-5.312987328,1,-3.307238579,1,-7.740903854,1,0.0365717,1,-0.402522266,1,0.2280994951725006,1,0.391423762,1,-0.58512342,1,-0.534481883,1
3.083988428,-5.13836813,1,-3.662369251,1,-7.538352966,1,0.040946584,1,-0.399162591,1,0.2510750293731689,1,0.3913942575454712,1,-0.586966813,1,-0.534162343,1
3.087990284,-5.301496983,1,-3.474166393,1,-7.755133152,1,0.037355922,1,-0.417773873,1,0.2597087621688843,1,0.3913435637950897,1,-0.588865936,1,-0.533771455,1
3.091993809,-5.014717579,1,-3.066607237,1,-7.571398258,1,0.026017219,1,-0.418456733,1,0.2601064145565033,1,0.391224205,1,-0.590829313,1,-0.533356607,1
3.09599328,-5.228392601,1,-4.376790047,1,-7.683366776,1,0.035192151,1,-0.440739423,1,0.2760785818099976,1,0.3911269307136536,1,-0.592839122,1,-0.53295958,1
3.099995136,-5.28372097,1,-3.976778507,1,-7.522565365,1,0.017432056,1,-0.449372381,1,0.3008821904659271,1,0.390951544,1,-0.594912946,1,-0.532488108,1
3.103992939,-5.308840275,1,-6.510529041,1,-7.673964024,1,-0.007595117,1,-0.424965709,1,0.3178271949291229,1,0.3906973600387573,1,-0.597026646,1,-0.531921685,1
