Time,inertial-6253.76535:estCompensatedAccelX,inertial-6253.76535:estCompensatedAccelX:valid,inertial-6253.76535:estCompensatedAccelY,inertial-6253.76535:estCompensatedAccelY:valid,inertial-6253.76535:estCompensatedAccelZ,inertial-6253.76535:estCompensatedAccelZ:valid,inertial-6253.76535:estAngularRateX,inertial-6253.76535:estAngularRateX:valid,inertial-6253.76535:estAngularRateY,inertial-6253.76535:estAngularRateY:valid,inertial-6253.76535:estAngularRateZ,inertial-6253.76535:estAngularRateZ:valid,inertial-6253.76535:estRoll,inertial-6253.76535:estRoll:valid,inertial-6253.76535:estPitch,inertial-6253.76535:estPitch:valid,inertial-6253.76535:estYaw,inertial-6253.76535:estYaw:valid
0,-5.759727955,1,-2.533534765,1,-7.496999741,1,-0.000224816,1,0.000320606,1,-0.002907404,1,0.336453229,1,-0.619721174,1,0.011634314,1
0.003999488,-5.754546165,1,-2.547412634,1,-7.5553689,1,-0.00040113,1,-0.000359017,1,0.0023434,1,0.336451173,1,-0.619728267,1,0.011631608,1
0.008001024,-5.801147938,1,-2.550154209,1,-7.508332729,1,0.001114981,1,-0.000880218,1,0.001812713,1,0.336456835,1,-0.619728923,1,0.011633549,1
0.011998976,-5.783298016,1,-2.542363644,1,-7.552320957,1,-0.003791222,1,0.000471789,1,0.000474519,1,0.336453497,1,-0.619732499,1,0.011640578,1
0.015998464,-5.782930374,1,-2.557685852,1,-7.504094601,1,-0.000180386,1,0.000860486,1,0.003883667,1,0.336433858,1,-0.619727373,1,0.011649556,1
0.02,-5.791046143,1,-2.514387846,1,-7.524300098,1,-0.002446682,1,-0.000520759,1,-8.21E-05,1,0.336426258,1,-0.619726479,1,0.011651224,1
0.023997696,-5.777336121,1,-2.542580843,1,-7.510976791,1,-0.001144118,1,0.001346493,1,0.00481536,1,0.336410582,1,-0.619724274,1,0.011656821,1
0.027997185,-5.74192667,1,-2.491633177,1,-7.522688866,1,-0.002773767,1,0.001032536,1,-0.004286472,1,0.336396635,1,-0.619725406,1,0.011668539,1
0.03199872,-5.800244808,1,-2.51529026,1,-7.528862953,1,0.001544729,1,0.001704347,1,0.00269885,1,0.33638972,1,-0.619728446,1,0.011671131,1
0.035996415,-5.772091866,1,-2.494796515,1,-7.519100189,1,-0.00194015,1,-0.001458888,1,-0.00146273,1,0.336389005,1,-0.619727254,1,0.011666846,1
0.039995905,-5.719937325,1,-2.50295496,1,-7.527676582,1,0.000520761,1,0.000285358,1,-0.001837379,1,0.336191863,1,-0.61980474,1,0.011931229,1
0.043997698,-5.763481617,1,-2.529676437,1,-7.502466679,1,0.0001645,1,-0.000152646,1,-0.000511012,1,0.336195081,1,-0.619808316,1,0.011927919,1
0.047995392,-5.725306511,1,-2.546265125,1,-7.535634518,1,0.000865103,1,-0.003456279,1,0.000176879,1,0.33620882,1,-0.619809151,1,0.011920501,1
0.051994879,-5.767942429,1,-2.529287577,1,-7.541365623,1,0.004907186,1,-0.001357433,1,-0.002055028,1,0.33621937,1,-0.619809091,1,0.01191998,1
0.055996671,-5.780929565,1,-2.520938158,1,-7.560221195,1,0.003470156,1,-0.002937389,1,-0.003247793,1,0.336238503,1,-0.619814992,1,0.011907271,1
0.05999437,-5.755165577,1,-2.539227247,1,-7.50843811,1,0.004212033,1,-0.000952671,1,-0.00147803,1,0.336254299,1,-0.61981529,1,0.01188794,1
0.063999742,-5.770550728,1,-2.524541378,1,-7.532320976,1,0.002922348,1,-0.00206652,1,0.001813946,1,0.336273968,1,-0.619817555,1,0.011880664,1
0.068001539,-5.761066914,1,-2.545979261,1,-7.570748329,1,0.003496423,1,-0.000951148,1,-0.004230739,1,0.336298466,1,-0.619824111,1,0.01186793,1
0.071999229,-5.749730587,1,-2.529700279,1,-7.547154427,1,0.002528213,1,-0.002744056,1,-0.001674571,1,0.336316943,1,-0.619817495,1,0.011861302,1
0.075998977,-5.739809513,1,-2.564274311,1,-7.554651737,1,0.000966721,1,-0.003327016,1,-0.002571934,1,0.336339235,1,-0.619830132,1,0.01184941,1
0.080000512,-5.802398205,1,-2.555833578,1,-7.55829525,1,0.003848848,1,-0.000429195,1,-0.000987339,1,0.336360455,1,-0.6198349,1,0.011838537,1
0.083998211,-5.726196766,1,-2.540837526,1,-7.511464596,1,0.002170809,1,-0.003340695,1,0.000204813,1,0.336380184,1,-0.619847834,1,0.011832079,1
0.087997697,-5.770387173,1,-2.564145088,1,-7.5206604,1,0.00190783,1,-0.002486739,1,-0.00214073,1,0.336396664,1,-0.619861364,1,0.011814141,1
0.091999233,-5.743864059,1,-2.555876493,1,-7.510182858,1,0.002299051,1,-0.004805656,1,0.000194514,1,0.336408615,1,-0.619875968,1,0.011805819,1
0.09599667,-5.753593922,1,-2.546593666,1,-7.527173519,1,-0.003003631,1,-0.001772152,1,-0.001088574,1,0.336412877,1,-0.619882584,1,0.011804529,1
0.099996418,-5.762728691,1,-2.54334259,1,-7.561497211,1,0.001909387,1,-0.007215301,1,0.003768239,1,0.336422563,1,-0.61989665,1,0.011799364,1
0.103997953,-5.765134335,1,-2.544254065,1,-7.528529644,1,0.000397793,1,-0.004279122,1,0.002276705,1,0.336432099,1,-0.619912446,1,0.011789472,1
0.107995652,-5.754269123,1,-2.512753248,1,-7.532034874,1,-0.00053038,1,-0.004902948,1,-0.000881152,1,0.336444885,1,-0.619937718,1,0.011780599,1
0.111995138,-5.782001495,1,-2.535839796,1,-7.559509754,1,0.003226055,1,-0.006884347,1,0.001336197,1,0.336453974,1,-0.619951367,1,0.011773343,1
0.115996674,-5.744361877,1,-2.510029793,1,-7.54958725,1,0.003726217,1,-0.011092636,1,-0.003794429,1,0.33647722,1,-0.61997807,1,0.011760276,1
0.119994365,-5.772201061,1,-2.508303642,1,-7.531048298,1,0.000775843,1,-0.006656601,1,0.003169864,1,0.336489081,1,-0.620004177,1,0.011752099,1
0.123993859,-5.789399624,1,-2.505015373,1,-7.527246952,1,0.003214078,1,-0.006334283,1,0.002360186,1,0.336503208,1,-0.62003535,1,0.011742163,1
0.127995387,-5.803276539,1,-2.519454956,1,-7.534761429,1,0.004316736,1,-0.008343245,1,0.003613752,1,0.336516798,1,-0.62006098,1,0.01173303,1
0.131993085,-5.801783562,1,-2.547949553,1,-7.489813328,1,0.003952416,1,-0.007571448,1,-0.000285624,1,0.336537182,1,-0.620090663,1,0.01172658,1
0.135992572,-5.745979786,1,-2.544935465,1,-7.519211292,1,0.004037389,1,-0.006582526,1,-0.001742014,1,0.336568773,1,-0.620121717,1,0.011702253,1
0.139994368,-5.749126434,1,-2.539480448,1,-7.539552212,1,0.002851555,1,-0.006281639,1,-0.000346681,1,0.336593628,1,-0.620148301,1,0.011687337,1
0.143992066,-5.769757271,1,-2.563243389,1,-7.510381699,1,0.008144295,1,-0.011193967,1,-0.001184477,1,0.336613923,1,-0.620177925,1,0.011677907,1
0.147991553,-5.797754288,1,-2.518354893,1,-7.488591194,1,0.001098459,1,-0.009744231,1,-0.000311926,1,0.33663708,1,-0.620212376,1,0.011654806,1
0.151993349,-5.791326523,1,-2.55667758,1,-7.509843349,1,0.000895174,1,-0.004324179,1,-0.003488776,1,0.336648107,1,-0.620242596,1,0.011649769,1
0.155991033,-5.790322781,1,-2.517327309,1,-7.50880909,1,0.001087803,1,-0.005634573,1,0.00069403,1,0.336664736,1,-0.620256364,1,0.011634309,1
0.159990534,-5.791935444,1,-2.522686243,1,-7.506244659,1,-0.00205301,1,-0.006391764,1,-0.002760311,1,0.336663544,1,-0.620278835,1,0.011628787,1
0.163992062,-5.800298691,1,-2.511494875,1,-7.523607731,1,-8.79E-05,1,-0.002733718,1,0.002507766,1,0.336655498,1,-0.620294034,1,0.011630783,1
0.167989761,-5.79398632,1,-2.521829844,1,-7.524181843,1,0.001252692,1,-0.002356525,1,-0.000168189,1,0.336661875,1,-0.620314956,1,0.011621378,1
0.171990022,-5.781397343,1,-2.553561926,1,-7.528604031,1,-0.003426895,1,-0.004147339,1,0.000400074,1,0.336664021,1,-0.6203233,1,0.011619912,1
0.17599155,-5.748948097,1,-2.530909061,1,-7.494218826,1,0.000105874,1,-0.001587434,1,0.001186536,1,0.336657405,1,-0.620343804,1,0.011620604,1
0.179989249,-5.830155849,1,-2.564441204,1,-7.536589146,1,-0.001326724,1,-0.005279452,1,-0.000221367,1,0.336664498,1,-0.620356381,1,0.011618271,1
0.183994874,-5.786539078,1,-2.570554733,1,-7.527159691,1,0.000101896,1,-0.003617087,1,-0.001689773,1,0.336661518,1,-0.6203686,1,0.011618518,1
0.187996417,-5.778791428,1,-2.546993256,1,-7.545843124,1,0.000536926,1,0.000705471,1,0.002424047,1,0.336660206,1,-0.620377719,1,0.011626039,1
0.191994116,-5.795791149,1,-2.555331945,1,-7.507482529,1,-0.005182231,1,-0.004324366,1,0.001612555,1,0.336651206,1,-0.620388925,1,0.011631993,1
0.195993856,-5.806861877,1,-2.509567261,1,-7.522280693,1,-0.002422545,1,-0.003781852,1,0.002358521,1,0.336648703,1,-0.620400727,1,0.011626661,1
0.199995399,-5.763981342,1,-2.523036242,1,-7.532223225,1,-0.002645402,1,-0.001671859,1,0.002018663,1,0.336637735,1,-0.620418966,1,0.011633405,1
0.203993082,-5.750631809,1,-2.489073038,1,-7.533260345,1,-0.000713866,1,-0.001086229,1,3.37E-05,1,0.336627066,1,-0.620428622,1,0.011638109,1
0.207992569,-5.750100136,1,-2.51247263,1,-7.513456345,1,-0.001997382,1,-0.003857323,1,-0.002298558,1,0.336629391,1,-0.620439947,1,0.011634695,1
0.211994365,-5.766343117,1,-2.532830477,1,-7.519830704,1,0.002335995,1,-0.00645692,1,0.001135962,1,0.336628437,1,-0.620457172,1,0.0116317,1
0.215992317,-5.767877579,1,-2.493615389,1,-7.489448547,1,-0.00043792,1,-0.004019647,1,0.000589637,1,0.336630821,1,-0.620470703,1,0.011630228,1
0.219991803,-5.773235798,1,-2.517540693,1,-7.516623497,1,0.002911861,1,-0.004237956,1,0.000333992,1,0.336639762,1,-0.620488524,1,0.01162979,1
0.223993346,-5.753219128,1,-2.526267052,1,-7.544166565,1,0.00291132,1,-0.003247559,1,-0.001676878,1,0.336657286,1,-0.620507121,1,0.011619893,1
0.227991045,-5.742288113,1,-2.54474926,1,-7.521168232,1,0.001798542,1,-0.006474562,1,0.002242774,1,0.336664408,1,-0.620520294,1,0.011617627,1
0.231990531,-5.750171661,1,-2.524059296,1,-7.527205944,1,-0.001786129,1,-0.005553891,1,0.003257065,1,0.336675256,1,-0.620540559,1,0.011608708,1
0.235992327,-5.760440826,1,-2.573610067,1,-7.545933247,1,0.00496882,1,-0.004446561,1,0.001493252,1,0.336686671,1,-0.620562434,1,0.011604402,1
0.239990011,-5.784741879,1,-2.544741631,1,-7.533434391,1,0.003209698,1,-0.005752624,1,-0.002071633,1,0.336702347,1,-0.620586216,1,0.011599963,1
0.243989497,-5.76070118,1,-2.526541471,1,-7.520321846,1,0.002891152,1,-0.006894931,1,0.001955635,1,0.336720228,1,-0.62061429,1,0.011590629,1
0.24799104,-5.767464161,1,-2.522202492,1,-7.50428915,1,0.002299907,1,-0.007798526,1,-0.001557092,1,0.336736798,1,-0.620636225,1,0.011581295,1
0.251988739,-5.755699635,1,-2.545881033,1,-7.514520168,1,0.001522543,1,-0.00872038,1,0.004954088,1,0.336755812,1,-0.620666206,1,0.011569251,1
0.25598821,-5.745632172,1,-2.52042222,1,-7.532754898,1,0.003482048,1,-0.011707581,1,0.001612053,1,0.336764038,1,-0.620701969,1,0.011563419,1
0.259990275,-5.771464348,1,-2.511749506,1,-7.530050278,1,-0.000160532,1,-0.006456079,1,-0.000292333,1,0.336782277,1,-0.620732486,1,0.011556041,1
0.263988227,-5.784125805,1,-2.554073334,1,-7.540118694,1,0.004690152,1,-0.00716931,1,0.005775228,1,0.336791933,1,-0.620769322,1,0.011554822,1
0.267987967,-5.791220188,1,-2.509869814,1,-7.550444126,1,0.004089382,1,-0.005582782,1,-0.001334695,1,0.336806238,1,-0.620798171,1,0.011546411,1
0.271989495,-5.780835629,1,-2.511754751,1,-7.52213192,1,0.005057812,1,-0.010861806,1,0.003353588,1,0.336833507,1,-0.620833635,1,0.011533807,1
0.275987208,-5.787320137,1,-2.5461514,1,-7.515766144,1,0.003890027,1,-0.011531285,1,-0.000425681,1,0.336854696,1,-0.620868325,1,0.011521602,1
0.27998668,-5.771340847,1,-2.553145409,1,-7.503103733,1,0.00585881,1,-0.007757305,1,0.004022646,1,0.336875796,1,-0.620905757,1,0.011518933,1
0.283988476,-5.795125484,1,-2.565220594,1,-7.517991066,1,0.001842826,1,-0.008476567,1,0.002472566,1,0.336883783,1,-0.620937824,1,0.011517889,1
0.287986189,-5.775571823,1,-2.531266689,1,-7.521158218,1,0.0014173,1,-0.007836089,1,0.001591037,1,0.336705804,1,-0.621091962,1,0.011712417,1
0.291985929,-5.784832001,1,-2.535429716,1,-7.522920132,1,0.000175792,1,-0.010451002,1,-0.000583864,1,0.33671844,1,-0.621075749,1,0.011761762,1
0.295987457,-5.769537449,1,-2.510871172,1,-7.515931129,1,0.005703149,1,-0.006294369,1,0.000553238,1,0.33672899,1,-0.621105373,1,0.011755506,1
0.299985141,-5.759797096,1,-2.550077677,1,-7.513189316,1,0.000531129,1,-0.010781379,1,0.003939451,1,0.336733758,1,-0.621140718,1,0.011759011,1
0.30399105,-5.755513668,1,-2.54741168,1,-7.514527321,1,-0.000134791,1,-0.003636238,1,0.000662351,1,0.336730897,1,-0.621171415,1,0.011760202,1
0.307992846,-5.778101444,1,-2.504577398,1,-7.507764816,1,0.001599467,1,-0.007263084,1,-0.000466383,1,0.336730033,1,-0.621200264,1,0.011755674,1
0.311990798,-5.794359684,1,-2.511909485,1,-7.520710945,1,0.001852798,1,-0.009071853,1,0.001605935,1,0.336745143,1,-0.621232867,1,0.011740647,1
0.315990269,-5.80224371,1,-2.504252672,1,-7.518968105,1,-0.001893625,1,-0.007666225,1,-0.001080893,1,0.336753011,1,-0.621269643,1,0.011727035,1
0.319991797,-5.781225681,1,-2.489453077,1,-7.5119524,1,-2.29E-06,1,-0.004444039,1,0.002409908,1,0.336755335,1,-0.621299148,1,0.011723205,1
0.323989511,-5.788740158,1,-2.514843702,1,-7.510384083,1,0.003623599,1,-0.009125778,1,-0.001959055,1,0.336767137,1,-0.621327519,1,0.011712879,1
0.327988982,-5.794268608,1,-2.495740652,1,-7.506333351,1,0.000445828,1,-0.002695897,1,0.001780773,1,0.336779743,1,-0.62134999,1,0.011701767,1
0.331990778,-5.773592472,1,-2.515240431,1,-7.517621994,1,-0.00071023,1,-0.008171778,1,-0.001635027,1,0.336793423,1,-0.621378362,1,0.011688763,1
0.335988492,-5.781589031,1,-2.511495829,1,-7.536831856,1,0.00260804,1,-0.008310629,1,-0.004263421,1,0.336811721,1,-0.621398091,1,0.011667768,1
0.339987963,-5.755125523,1,-2.516017914,1,-7.527833939,1,0.004735565,1,-0.005294267,1,0.001111784,1,0.336840093,1,-0.621420503,1,0.011646916,1
0.343989491,-5.783585548,1,-2.511065006,1,-7.545511723,1,0.003305828,1,-0.008217657,1,-0.002441176,1,0.336866468,1,-0.6214481,1,0.011631858,1
0.347987205,-5.778068542,1,-2.543900251,1,-7.554669857,1,0.005442389,1,-0.00669857,1,-0.003464619,1,0.336886168,1,-0.621470571,1,0.011616566,1
0.351986676,-5.778922558,1,-2.543354034,1,-7.548441887,1,0.007112721,1,-0.007173038,1,-0.003950213,1,0.336920977,1,-0.621493876,1,0.011595331,1
0.355988473,-5.779480934,1,-2.54588747,1,-7.497139931,1,0.002595138,1,-0.006523687,1,0.002159699,1,0.336947739,1,-0.621522248,1,0.011581074,1
0.359986186,-5.782405376,1,-2.584839582,1,-7.498802662,1,0.003982333,1,-0.004904683,1,0.000291557,1,0.336967796,1,-0.621544123,1,0.011569086,1
0.363985926,-5.749230862,1,-2.542310238,1,-7.506561756,1,0.0023364,1,-0.007220372,1,0.002419814,1,0.336994112,1,-0.621569157,1,0.011561862,1
0.367987722,-5.744731426,1,-2.53499794,1,-7.52115202,1,-0.002101683,1,-0.008331254,1,-0.002217779,1,0.337007821,1,-0.621602535,1,0.011549919,1
0.371985406,-5.749339104,1,-2.575838089,1,-7.527274609,1,0.000853901,1,-0.006167144,1,-0.000350299,1,0.337023258,1,-0.621637642,1,0.011534885,1
0.375984907,-5.781101227,1,-2.608878851,1,-7.506361485,1,-0.00204121,1,-0.006829286,1,0.003715349,1,0.337029278,1,-0.621663809,1,0.01153487,1
0.379986674,-5.78576231,1,-2.541834116,1,-7.501230717,1,0.00309734,1,-0.004945641,1,0.004058171,1,0.337026,1,-0.621692777,1,0.011538769,1
0.383984387,-5.755351067,1,-2.493789196,1,-7.542609692,1,0.000771827,1,-0.009111887,1,0.000781367,1,0.337034196,1,-0.621729851,1,0.011540287,1
0.387984127,-5.788161278,1,-2.515985727,1,-7.510986805,1,-0.000181469,1,-0.005623277,1,0.009409003,1,0.337040037,1,-0.621761501,1,0.011531493,1
0.391985655,-5.781316757,1,-2.510896921,1,-7.501606464,1,-0.000471431,1,-0.007654909,1,0.00211792,1,0.337031841,1,-0.621797562,1,0.01154532,1
0.395983607,-5.822059155,1,-2.529902935,1,-7.493824005,1,0.000722081,1,-0.008534919,1,0.004644703,1,0.337038457,1,-0.621835291,1,0.011537228,1
0.399983108,-5.770324707,1,-2.511507034,1,-7.542109489,1,-0.001500401,1,-0.003925528,1,-0.000275296,1,0.337040722,1,-0.621860683,1,0.011541514,1
0.403984904,-5.808053493,1,-2.527371168,1,-7.47369051,1,0.001246049,1,-0.001889277,1,0.003630991,1,0.337041467,1,-0.621886432,1,0.011538888,1
0.407982856,-5.777235031,1,-2.489864111,1,-7.507875443,1,-0.001197329,1,-0.007845284,1,0.001603894,1,0.337053597,1,-0.621913314,1,0.011532977,1
0.411982328,-5.781019211,1,-2.475404024,1,-7.493156433,1,0.00128662,1,-0.004368572,1,0.001660795,1,0.337054908,1,-0.621938169,1,0.011532315,1
0.415984124,-5.779648304,1,-2.473625183,1,-7.507216454,1,0.005483942,1,-0.0039776,1,-0.000805599,1,0.337072849,1,-0.621960759,1,0.011526885,1
0.419981837,-5.819662571,1,-2.486484051,1,-7.507238388,1,0.00186969,1,-0.006801718,1,-0.002347594,1,0.337091148,1,-0.621980608,1,0.011515656,1
0.423987448,-5.805674553,1,-2.500030518,1,-7.520198345,1,0.007485239,1,-0.001587475,1,0.000749717,1,0.337118387,1,-0.621993482,1,0.01149733,1
0.427989244,-5.797784805,1,-2.535904169,1,-7.494321346,1,0.002971725,1,-0.003228259,1,-0.000919928,1,0.337135673,1,-0.622002006,1,0.011488656,1
0.431987196,-5.799395084,1,-2.494553089,1,-7.471176147,1,0.005947677,1,-0.001492473,1,-0.001960575,1,0.337154418,1,-0.622011602,1,0.011477148,1
0.435986698,-5.812394142,1,-2.540985823,1,-7.500187874,1,0.00457422,1,-0.00161006,1,-0.0057147,1,0.337180644,1,-0.622016549,1,0.011458082,1
0.439988494,-5.821213722,1,-2.545833111,1,-7.47900486,1,0.000127538,1,0.003458957,1,-0.002012342,1,0.337196648,1,-0.622018099,1,0.011442273,1
0.443986177,-5.773290634,1,-2.53465414,1,-7.493370056,1,0.002494352,1,0.000397751,1,-0.002669343,1,0.337204754,1,-0.622013628,1,0.011437583,1
0.447985649,-5.799335957,1,-2.547086,1,-7.471662521,1,-0.000384138,1,0.004977111,1,-0.000960175,1,0.337210715,1,-0.621997297,1,0.01143351,1
0.451987207,-5.818177223,1,-2.549350262,1,-7.463686466,1,-0.002558027,1,0.003669277,1,-0.001776704,1,0.337217271,1,-0.621982694,1,0.011429767,1
0.45598489,-5.787899017,1,-2.532171011,1,-7.48249054,1,-0.001021426,1,0.006364783,1,-0.000863909,1,0.337211132,1,-0.621960402,1,0.011427229,1
0.45998463,-5.788705826,1,-2.542096138,1,-7.484367847,1,0.001164368,1,0.00734907,1,-0.001646766,1,0.337203383,1,-0.621935964,1,0.011439875,1
0.463986188,-5.783249378,1,-2.532433033,1,-7.511205196,1,-0.000367498,1,0.00411662,1,0.001806045,1,0.337196857,1,-0.621906161,1,0.011440712,1
0.467983603,-5.789251804,1,-2.534330845,1,-7.510293484,1,0.000244797,1,0.004842457,1,-0.002267408,1,0.337181598,1,-0.621877193,1,0.011459323,1
0.471983373,-5.796541691,1,-2.507921457,1,-7.514881611,1,0.002338784,1,0.005347835,1,-0.001369206,1,0.337180138,1,-0.621850431,1,0.011464034,1
0.47598514,-5.778744221,1,-2.478537798,1,-7.518901825,1,0.002331441,1,0.009932436,1,0.002057664,1,0.33718586,1,-0.62181741,1,0.011473414,1
0.47998336,-5.783669949,1,-2.492346287,1,-7.585060596,1,0.002905793,1,0.005822447,1,-0.000632201,1,0.337187409,1,-0.621795177,1,0.011482435,1
0.483982861,-5.798810005,1,-2.458708048,1,-7.536785603,1,0.003670386,1,0.003801588,1,-0.002285,1,0.337205529,1,-0.621766269,1,0.011486871,1
0.487984389,-5.83246851,1,-2.469113111,1,-7.53489399,1,0.007961636,1,0.006631229,1,-0.003113735,1,0.337232232,1,-0.621739864,1,0.011480887,1
0.491982073,-5.797935486,1,-2.504749775,1,-7.537425995,1,0.007026863,1,0.003119329,1,-0.006802831,1,0.337269425,1,-0.621714532,1,0.011472502,1
0.495981574,-5.784213543,1,-2.556261778,1,-7.521614552,1,0.00720304,1,0.001409096,1,-0.002911031,1,0.337302953,1,-0.621694803,1,0.011465073,1
0.499983102,-5.78647089,1,-2.563987494,1,-7.542618752,1,0.012428375,1,0.002010415,1,-0.003464225,1,0.337353975,1,-0.621680975,1,0.011451338,1
0.503981054,-5.79630518,1,-2.570434093,1,-7.545610428,1,0.007668532,1,0.003963984,1,-0.004442912,1,0.33740449,1,-0.621667266,1,0.011431281,1
0.507980525,-5.744440556,1,-2.564199686,1,-7.487091541,1,0.010434957,1,0.00295916,1,-0.001645956,1,0.337447166,1,-0.621646464,1,0.011417085,1
0.511982322,-5.754825592,1,-2.529520273,1,-7.500933647,1,0.008605834,1,0.005250587,1,-0.004385877,1,0.337485731,1,-0.621625423,1,0.011408821,1
0.515980005,-5.800597668,1,-2.527224302,1,-7.509609222,1,0.00448547,1,0.000685961,1,-0.006762853,1,0.337525785,1,-0.621609449,1,0.011397511,1
0.519979537,-5.798946857,1,-2.559156656,1,-7.504327297,1,0.004065812,1,0.002545615,1,-0.002980587,1,0.337559879,1,-0.62159276,1,0.011375541,1
0.523981333,-5.768517017,1,-2.50958252,1,-7.465393543,1,0.008230198,1,0.007608817,1,-0.00572262,1,0.337599695,1,-0.621568382,1,0.011358615,1
0.527979255,-5.80236721,1,-2.540446281,1,-7.499843121,1,0.005421044,1,0.00269101,1,-0.003994604,1,0.337632298,1,-0.62153697,1,0.011335914,1
0.531978726,-5.779588699,1,-2.532382727,1,-7.483586788,1,0.005458475,1,0.006962747,1,-0.003963077,1,0.337671131,1,-0.621507049,1,0.01131988,1
0.535980523,-5.770114422,1,-2.501271009,1,-7.484891891,1,0.006481238,1,0.010050526,1,-0.007219687,1,0.337702155,1,-0.621468067,1,0.01131335,1
0.539978266,-5.773100376,1,-2.504912376,1,-7.480123997,1,0.005935846,1,0.007098468,1,-0.002760152,1,0.337531209,1,-0.621508241,1,0.011580237,1
0.543984115,-5.789387703,1,-2.53100729,1,-7.48572588,1,0.007620334,1,0.007788464,1,-0.004390218,1,0.337565571,1,-0.621477842,1,0.011573037,1
0.547985911,-5.808260441,1,-2.498077393,1,-7.486816406,1,0.009178001,1,0.011408081,1,-0.005400324,1,0.337605298,1,-0.621436298,1,0.011568302,1
0.551983595,-5.813212395,1,-2.492000818,1,-7.515632153,1,0.011085995,1,0.009581579,1,-0.00582845,1,0.33765614,1,-0.621387601,1,0.011556552,1
0.555983365,-5.817553043,1,-2.446587563,1,-7.461706638,1,0.014376822,1,0.012388583,1,-0.010076547,1,0.337711215,1,-0.621332884,1,0.011545777,1
0.559984922,-5.812891483,1,-2.411381245,1,-7.475140572,1,0.013893559,1,0.013665663,1,-0.009602576,1,0.337796301,1,-0.621274054,1,0.011516572,1
0.563982308,-5.830343246,1,-2.45660305,1,-7.435172081,1,0.018302482,1,0.01706885,1,-0.012866966,1,0.337878823,1,-0.621193945,1,0.011494955,1
0.567982078,-5.783490658,1,-2.51942277,1,-7.474714756,1,0.024813764,1,0.018553076,1,-0.011567609,1,0.337992221,1,-0.621115565,1,0.011463761,1
0.571983874,-5.796975613,1,-2.467328787,1,-7.453080177,1,0.031106099,1,0.01886463,1,-0.012097249,1,0.33811143,1,-0.621029556,1,0.011445926,1
0.575982094,-5.790960312,1,-2.493388891,1,-7.480511189,1,0.035789516,1,0.021874545,1,-0.008043695,1,0.338254869,1,-0.620943189,1,0.011429884,1
0.579981565,-5.843635559,1,-2.485274553,1,-7.462483883,1,0.037156224,1,0.024280621,1,-0.00389535,1,0.338401377,1,-0.620847046,1,0.011429804,1
0.583983362,-5.799697876,1,-2.498081446,1,-7.491931438,1,0.038363926,1,0.027202571,1,-0.01236474,1,0.338566095,1,-0.620742321,1,0.011424137,1
0.587981284,-5.781784534,1,-2.528779745,1,-7.476952076,1,0.041210957,1,0.027407894,1,-0.010711703,1,0.338728309,1,-0.620622277,1,0.011416958,1
0.591980815,-5.808504581,1,-2.545754671,1,-7.504387379,1,0.044552919,1,0.029432565,1,-0.010373823,1,0.338903666,1,-0.62049973,1,0.011404316,1
0.595982313,-5.779491425,1,-2.570857286,1,-7.507740974,1,0.035752855,1,0.02802874,1,-0.010726387,1,0.339066744,1,-0.620370328,1,0.011398607,1
0.599980056,-5.765145302,1,-2.58454752,1,-7.491716385,1,0.037086882,1,0.030405408,1,-0.016804282,1,0.339225978,1,-0.620238185,1,0.011380915,1
0.603979528,-5.778883457,1,-2.579180002,1,-7.486443043,1,0.033774056,1,0.028341379,1,-0.014236253,1,0.339384824,1,-0.620100379,1,0.011360806,1
0.607981324,-5.769412041,1,-2.589183331,1,-7.518972397,1,0.033007421,1,0.035088643,1,-0.014388554,1,0.339525729,1,-0.619964063,1,0.011342926,1
0.611979246,-5.746799469,1,-2.611613512,1,-7.518378258,1,0.03056952,1,0.030265154,1,-0.015963323,1,0.339664936,1,-0.619823933,1,0.011324434,1
0.615978777,-5.773656368,1,-2.619161367,1,-7.518792629,1,0.022225112,1,0.032575194,1,-0.014623869,1,0.339784175,1,-0.619679391,1,0.011306105,1
0.619980574,-5.794242859,1,-2.646018744,1,-7.521036625,1,0.023025252,1,0.032324202,1,-0.014511557,1,0.339891613,1,-0.619544685,1,0.011294216,1
0.623978496,-5.793681145,1,-2.648695469,1,-7.521241665,1,0.019311853,1,0.033131741,1,-0.009772653,1,0.339978516,1,-0.619398773,1,0.011288562,1
0.627977967,-5.792022705,1,-2.630234718,1,-7.507435322,1,0.018960178,1,0.031665329,1,-0.015152382,1,0.340057939,1,-0.619255364,1,0.011279924,1
0.631979525,-5.745811462,1,-2.630990505,1,-7.582671165,1,0.01001093,1,0.03238,1,-0.013117213,1,0.340114564,1,-0.6191172,1,0.011277459,1
0.635977209,-5.759881973,1,-2.602849245,1,-7.544071674,1,0.011296542,1,0.030401988,1,-0.008934835,1,0.340160728,1,-0.618985176,1,0.011273365,1
0.639976978,-5.781458378,1,-2.588343859,1,-7.566632271,1,0.00705545,1,0.030259231,1,-0.010991754,1,0.340189815,1,-0.618856013,1,0.011277091,1
0.643978775,-5.773390293,1,-2.59670639,1,-7.541005135,1,0.007166418,1,0.031658012,1,-0.010138359,1,0.340215266,1,-0.618721664,1,0.01128352,1
0.647976458,-5.760529041,1,-2.602041245,1,-7.592981815,1,0.001901298,1,0.027480504,1,-0.010609213,1,0.340239465,1,-0.618598163,1,0.011291602,1
0.651976168,-5.765045166,1,-2.571679354,1,-7.546992302,1,0.001230547,1,0.028225753,1,-0.007234796,1,0.340239406,1,-0.618480086,1,0.011303217,1
0.655977726,-5.774956226,1,-2.608589411,1,-7.571685314,1,0.000830156,1,0.028711028,1,-0.007920468,1,0.340245336,1,-0.61836344,1,0.011311551,1
0.65997541,-5.775627613,1,-2.605895519,1,-7.536858082,1,-0.00530165,1,0.03351767,1,-0.003404748,1,0.340225846,1,-0.618246794,1,0.011334697,1
0.66398108,-5.778031349,1,-2.581837416,1,-7.533734798,1,-0.002133347,1,0.025501512,1,-0.005979795,1,0.340203464,1,-0.618130505,1,0.011354557,1
0.667982876,-5.744724274,1,-2.586734772,1,-7.571937561,1,-0.000873878,1,0.026468867,1,-0.003417625,1,0.340182662,1,-0.618023813,1,0.011378473,1
0.671980798,-5.729697704,1,-2.580187082,1,-7.553981781,1,-0.005527454,1,0.022971777,1,-0.003859449,1,0.340150476,1,-0.617922366,1,0.011397873,1
0.675980568,-5.745218754,1,-2.625342131,1,-7.567928791,1,-0.009513373,1,0.023183513,1,-0.00473687,1,0.340110779,1,-0.617820799,1,0.011419245,1
0.679982066,-5.745955467,1,-2.607536316,1,-7.535439491,1,-0.006926611,1,0.022510707,1,-0.00229268,1,0.34006983,1,-0.617732286,1,0.011447555,1
0.68397975,-5.75128603,1,-2.577945709,1,-7.567755699,1,-0.008058296,1,0.020909086,1,-0.002486347,1,0.340027094,1,-0.617643714,1,0.011462362,1
0.687979281,-5.718962669,1,-2.518091917,1,-7.602603436,1,-0.005266187,1,0.018581029,1,-0.001473347,1,0.339990824,1,-0.617564678,1,0.011476569,1
0.691980779,-5.717651367,1,-2.49802947,1,-7.60448885,1,-0.007256437,1,0.016923124,1,-0.00266817,1,0.339954942,1,-0.617491543,1,0.011491172,1
0.695978761,-5.724859715,1,-2.544925213,1,-7.579888821,1,-0.006902156,1,0.016435513,1,-0.005486622,1,0.339933217,1,-0.617423952,1,0.011490767,1
0.699978232,-5.692286015,1,-2.537417173,1,-7.615216255,1,-0.002823692,1,0.014563847,1,-0.00572994,1,0.339918196,1,-0.617357254,1,0.011487473,1
0.703980029,-5.721365452,1,-2.562406301,1,-7.602675438,1,-0.002493855,1,0.01256413,1,-0.00496727,1,0.339906037,1,-0.617298961,1,0.01148124,1
0.707977712,-5.716173172,1,-2.604305983,1,-7.593171597,1,-0.004351854,1,0.009870993,1,-0.003685266,1,0.339889467,1,-0.617258072,1,0.011476461,1
0.711977482,-5.686555862,1,-2.618477583,1,-7.566269398,1,-0.008034551,1,0.003709883,1,-0.001614473,1,0.33986187,1,-0.61722219,1,0.011469809,1
0.715979278,-5.726933479,1,-2.656302691,1,-7.578710556,1,-0.004626557,1,0.006028014,1,-0.001740539,1,0.339834452,1,-0.617196441,1,0.011468531,1
0.719976962,-5.723461151,1,-2.656946421,1,-7.565584183,1,-0.013023199,1,0.002610154,1,0.001464577,1,0.339801908,1,-0.617181778,1,0.011464895,1
0.723976433,-5.708050251,1,-2.662853003,1,-7.580094814,1,-0.013403374,1,0.003184474,1,0.000780147,1,0.339749753,1,-0.617172301,1,0.011475718,1
0.727977991,-5.731462955,1,-2.636679411,1,-7.52311945,1,-0.014789136,1,0.000980819,1,0.003708178,1,0.339695513,1,-0.617163241,1,0.011486091,1
0.731975675,-5.708863735,1,-2.664960623,1,-7.537651539,1,-0.016864032,1,0.002790478,1,0.006375966,1,0.339621365,1,-0.61716938,1,0.011499826,1
0.735975444,-5.743115425,1,-2.674859047,1,-7.521075249,1,-0.017727036,1,-0.003148866,1,0.007105632,1,0.339540213,1,-0.61718142,1,0.01153073,1
0.739976943,-5.767199516,1,-2.660028219,1,-7.529983044,1,-0.019406505,1,-0.000951457,1,0.009555459,1,0.339443803,1,-0.617197394,1,0.011561879,1
0.743974686,-5.73204422,1,-2.607319355,1,-7.509886742,1,-0.022500563,1,0.00300112,1,0.007399701,1,0.339339852,1,-0.617207348,1,0.011598371,1
0.747974157,-5.727914333,1,-2.587672472,1,-7.5067029,1,-0.023173291,1,0.000680858,1,0.009931237,1,0.33922112,1,-0.617213964,1,0.01164719,1
0.751975656,-5.743901253,1,-2.620973825,1,-7.52320528,1,-0.022748142,1,-0.00142421,1,0.013798684,1,0.339099824,1,-0.617225587,1,0.011694111,1
0.755973101,-5.679296494,1,-2.63282156,1,-7.527202606,1,-0.02529614,1,0.003249292,1,0.019656766,1,0.338959187,1,-0.61724174,1,0.011761803,1
0.75997287,-5.726325512,1,-2.673579216,1,-7.521034718,1,-0.032945294,1,0.001598946,1,0.016068278,1,0.338793516,1,-0.617255569,1,0.011835538,1
0.763974428,-5.763597012,1,-2.691261053,1,-7.512393951,1,-0.035347536,1,0.003115094,1,0.014496017,1,0.338621855,1,-0.617265582,1,0.011918055,1
0.76797235,-5.754018784,1,-2.610738516,1,-7.498940468,1,-0.034508757,1,0.004637946,1,0.015707513,1,0.338434011,1,-0.617270768,1,0.012003504,1
0.77197212,-5.768679142,1,-2.553881168,1,-7.514132023,1,-0.03831856,1,0.007168835,1,0.022033442,1,0.338221312,1,-0.617277086,1,0.012110157,1
0.775973618,-5.73708868,1,-2.557491302,1,-7.499419689,1,-0.041745592,1,0.006609492,1,0.021884369,1,0.338001102,1,-0.617275238,1,0.012220477,1
0.779971302,-5.79761219,1,-2.555815935,1,-7.528832436,1,-0.036725219,1,0.008980294,1,0.018482046,1,0.337779343,1,-0.61726588,1,0.012342725,1
0.783977211,-5.776608467,1,-2.529517651,1,-7.52900219,1,-0.041507456,1,0.012327228,1,0.022592666,1,0.33756423,1,-0.617249846,1,0.012449257,1
0.787979007,-5.78328228,1,-2.51905179,1,-7.516159058,1,-0.041526683,1,0.012533154,1,0.021287188,1,0.337180436,1,-0.617354035,1,0.012715603,1
0.791976988,-5.792890072,1,-2.539465904,1,-7.514591694,1,-0.03997352,1,0.013063649,1,0.023780715,1,0.336953849,1,-0.61728996,1,0.012893133,1
0.795976698,-5.80918169,1,-2.56733942,1,-7.507321358,1,-0.037693933,1,0.011938904,1,0.022627626,1,0.336722493,1,-0.617275894,1,0.013017256,1
0.799978495,-5.796490669,1,-2.513380051,1,-7.574877739,1,-0.036814958,1,0.017059447,1,0.024930917,1,0.336493403,1,-0.617248297,1,0.013146896,1
0.803976178,-5.765832424,1,-2.543928385,1,-7.519875526,1,-0.038995463,1,0.017590892,1,0.021356421,1,0.336265624,1,-0.617224574,1,0.013274604,1
0.807975709,-5.766689777,1,-2.545986891,1,-7.52835083,1,-0.036468036,1,0.017465269,1,0.021408338,1,0.336039692,1,-0.617193878,1,0.013406499,1
0.811977446,-5.760934353,1,-2.513605118,1,-7.552246094,1,-0.039980147,1,0.015512085,1,0.019651651,1,0.335817635,1,-0.617166758,1,0.013537546,1
0.815975189,-5.764722347,1,-2.485358477,1,-7.544695854,1,-0.036024097,1,0.014660492,1,0.023385657,1,0.335581213,1,-0.61713165,1,0.013673599,1
0.819974661,-5.742038727,1,-2.489904881,1,-7.568155289,1,-0.033204161,1,0.016663926,1,0.017932167,1,0.33537358,1,-0.617099524,1,0.013800862,1
0.823976219,-5.781159401,1,-2.429328203,1,-7.584271431,1,-0.033675097,1,0.018223608,1,0.019605506,1,0.335171759,1,-0.617067933,1,0.013913939,1
0.827973902,-5.799759388,1,-2.446137905,1,-7.572744846,1,-0.027866196,1,0.015128803,1,0.021666674,1,0.334965408,1,-0.617031395,1,0.014044825,1
0.831973612,-5.768278122,1,-2.451882362,1,-7.591457367,1,-0.028444417,1,0.011941643,1,0.016939431,1,0.334787726,1,-0.617003143,1,0.014154253,1
0.835975409,-5.732487202,1,-2.426483154,1,-7.614370346,1,-0.025706382,1,0.016379802,1,0.017003788,1,0.334619701,1,-0.616980016,1,0.014257793,1
0.83997339,-5.741396427,1,-2.465228319,1,-7.615709305,1,-0.020652641,1,0.008451102,1,0.013836291,1,0.33448118,1,-0.616954327,1,0.014344377,1
0.843972862,-5.742678642,1,-2.442575932,1,-7.596888542,1,-0.022820499,1,0.006023149,1,0.014410011,1,0.334358931,1,-0.616942763,1,0.014421062,1
0.84797442,-5.740234852,1,-2.507489681,1,-7.607872963,1,-0.015632825,1,0.004741977,1,0.011698339,1,0.33424741,1,-0.616932869,1,0.014486706,1
0.851971865,-5.746159554,1,-2.570429564,1,-7.626008511,1,-0.017827686,1,-0.002195002,1,0.01086273,1,0.33414501,1,-0.616944253,1,0.014544885,1
0.855971575,-5.746924877,1,-2.563370466,1,-7.623365879,1,-0.014192728,1,-0.00222948,1,0.010764912,1,0.334044158,1,-0.616963148,1,0.014597463,1
0.859973133,-5.723336697,1,-2.606004715,1,-7.632726192,1,-0.015680449,1,-0.006207036,1,0.016075635,1,0.333954006,1,-0.616989851,1,0.014651524,1
0.863971055,-5.714829922,1,-2.615815878,1,-7.624813557,1,-0.016642811,1,-0.004344036,1,0.013712613,1,0.333854109,1,-0.617027938,1,0.014707446,1
0.867970586,-5.751043797,1,-2.599091291,1,-7.62100029,1,-0.015216595,1,-0.010587681,1,0.013716094,1,0.333753884,1,-0.61707896,1,0.014757207,1
0.871972084,-5.734993458,1,-2.578542709,1,-7.614627361,1,-0.019832741,1,-0.011436208,1,0.016886717,1,0.333643258,1,-0.617142141,1,0.014810341,1
0.875969768,-5.752897739,1,-2.523758411,1,-7.592841625,1,-0.018625526,1,-0.013718589,1,0.015876686,1,0.333526909,1,-0.617209375,1,0.014871142,1
0.879969537,-5.769776344,1,-2.514711857,1,-7.595443726,1,-0.016683869,1,-0.011796883,1,0.021265013,1,0.333415568,1,-0.617284358,1,0.014939769,1
0.883971095,-5.77605629,1,-2.490829229,1,-7.590972424,1,-0.015982663,1,-0.014895964,1,0.017341573,1,0.333311081,1,-0.617357254,1,0.014998011,1
0.887969017,-5.737648964,1,-2.403954268,1,-7.567223549,1,-0.013774725,1,-0.015780155,1,0.01669999,1,0.333213568,1,-0.617437959,1,0.015053201,1
0.891968489,-5.785981655,1,-2.414889336,1,-7.564534664,1,-0.010354328,1,-0.017793089,1,0.015543997,1,0.333123207,1,-0.617522776,1,0.01510548,1
0.895970285,-5.772919178,1,-2.417300224,1,-7.548465252,1,-0.013682272,1,-0.019622292,1,0.012236023,1,0.333051562,1,-0.617604792,1,0.015141303,1
0.899968028,-5.775512218,1,-2.421765327,1,-7.530817032,1,-0.012688318,1,-0.016565334,1,0.010221573,1,0.332996219,1,-0.617689312,1,0.015160568,1
0.9039675,-5.772751331,1,-2.393730402,1,-7.522575855,1,-0.011592891,1,-0.015090652,1,0.009260574,1,0.332943916,1,-0.617765069,1,0.015181995,1
0.907975435,-5.780954361,1,-2.405303478,1,-7.574677467,1,-0.004941092,1,-0.019605717,1,0.006212579,1,0.33291018,1,-0.61784482,1,0.015189604,1
0.911979258,-5.782448292,1,-2.421616554,1,-7.517829418,1,-0.005479665,1,-0.01428858,1,0.007935125,1,0.332880795,1,-0.617917895,1,0.015205633,1
0.915979028,-5.780962944,1,-2.524900913,1,-7.532860756,1,-0.001630844,1,-0.017477993,1,0.004066354,1,0.332872778,1,-0.617982566,1,0.015197065,1
0.919980824,-5.766031265,1,-2.601059437,1,-7.558427334,1,-0.002872256,1,-0.011132916,1,0.002444886,1,0.332859814,1,-0.618042052,1,0.015203646,1
0.923978508,-5.733044624,1,-2.600276709,1,-7.504226208,1,-0.009384102,1,-0.010344241,1,0.00422351,1,0.332837105,1,-0.618093193,1,0.015202634,1
0.927978218,-5.794768333,1,-2.583674431,1,-7.537600517,1,-0.011181925,1,-0.010386526,1,0.008896844,1,0.332787931,1,-0.618145108,1,0.015223926,1
0.931980014,-5.79109621,1,-2.568114281,1,-7.51774168,1,-0.01134978,1,-0.008287208,1,0.010664154,1,0.332727939,1,-0.618195593,1,0.015248749,1
0.935977757,-5.776188374,1,-2.570685625,1,-7.50929594,1,-0.01770697,1,-0.010557932,1,0.011200977,1,0.3326599,1,-0.618247867,1,0.01527824,1
0.939977467,-5.75554657,1,-2.556584835,1,-7.516578674,1,-0.016584607,1,-0.007075152,1,0.013049673,1,0.332567155,1,-0.618295729,1,0.015330034,1
0.943979025,-5.769361019,1,-2.561981678,1,-7.537531376,1,-0.016583154,1,-0.00687263,1,0.01640019,1,0.33246541,1,-0.618348956,1,0.01538657,1
0.94797647,-5.760508537,1,-2.584958553,1,-7.573356628,1,-0.016431663,1,-0.008876126,1,0.01343574,1,0.332360268,1,-0.618394494,1,0.015455965,1
0.95197618,-5.766457081,1,-2.561414719,1,-7.578546047,1,-0.018207639,1,-0.007859821,1,0.019758428,1,0.332243323,1,-0.618445158,1,0.01552042,1
0.955977738,-5.770489693,1,-2.548559904,1,-7.547134399,1,-0.020518821,1,-0.007174006,1,0.023548091,1,0.332116663,1,-0.618509412,1,0.015602169,1
0.959975421,-5.773650169,1,-2.564839125,1,-7.576247215,1,-0.021740513,1,-0.006010481,1,0.025569843,1,0.331976175,1,-0.618561029,1,0.015700722,1
0.963975191,-5.765353203,1,-2.509261608,1,-7.538194656,1,-0.022962023,1,-0.007772457,1,0.025907544,1,0.331823826,1,-0.618617713,1,0.015804823,1
0.967976689,-5.757479191,1,-2.458275318,1,-7.499567986,1,-0.018920299,1,-0.005044797,1,0.026474578,1,0.331665754,1,-0.618676841,1,0.015919283,1
0.971974373,-5.76964426,1,-2.403012037,1,-7.54170084,1,-0.024266813,1,-0.005162804,1,0.023837302,1,0.3315126,1,-0.618724644,1,0.016032454,1
0.975974143,-5.769838333,1,-2.396599293,1,-7.525166512,1,-0.016155146,1,-0.000375143,1,0.025166191,1,0.331362665,1,-0.618771434,1,0.01613895,1
0.9799757,-5.768072605,1,-2.388589144,1,-7.523488998,1,-0.014205839,1,-0.00024291,1,0.020893067,1,0.331235707,1,-0.618813515,1,0.016242079,1
0.983973384,-5.79237318,1,-2.41741538,1,-7.510095119,1,-0.013387452,1,-0.002253877,1,0.021524865,1,0.331122726,1,-0.618842602,1,0.016335765,1
0.987972856,-5.75855875,1,-2.499741316,1,-7.496387482,1,-0.010029713,1,-0.001135535,1,0.020968704,1,0.331016093,1,-0.618878424,1,0.016436243,1
0.991974652,-5.731368065,1,-2.54775095,1,-7.503516674,1,-0.010258545,1,0.003761884,1,0.019606438,1,0.33091104,1,-0.618904531,1,0.01653859,1
0.995972335,-5.721101284,1,-2.557234764,1,-7.524554253,1,-0.015317054,1,-0.004705804,1,0.023118746,1,0.330801934,1,-0.61893034,1,0.016630271,1
0.999971867,-5.751979351,1,-2.609563112,1,-7.506350517,1,-0.016255207,1,-0.00011765,1,0.022594875,1,0.330683589,1,-0.618964672,1,0.016731942,1
1.003973603,-5.694554329,1,-2.573681355,1,-7.539775848,1,-0.018767001,1,0.00227646,1,0.022780634,1,0.330548376,1,-0.618999183,1,0.016839236,1
1.007971287,-5.713071823,1,-2.607105255,1,-7.568591118,1,-0.02195948,1,-0.004347521,1,0.029552059,1,0.330404818,1,-0.619036496,1,0.016957855,1
1.011970758,-5.707247257,1,-2.5630126,1,-7.52439642,1,-0.024512412,1,0.001334548,1,0.034108486,1,0.330229819,1,-0.619087756,1,0.017093992,1
1.015972376,-5.752164841,1,-2.47401309,1,-7.568206787,1,-0.023188936,1,-0.008462018,1,0.036459249,1,0.330044955,1,-0.619134009,1,0.017246844,1
1.019970059,-5.742802143,1,-2.483159542,1,-7.579399586,1,-0.024918078,1,-0.003409762,1,0.033695266,1,0.329859912,1,-0.619196892,1,0.017404491,1
1.023969769,-5.760034561,1,-2.473466396,1,-7.597498894,1,-0.022108074,1,-0.006214831,1,0.036457311,1,0.329672903,1,-0.61926198,1,0.017556166,1
1.027983308,-5.752051353,1,-2.500160933,1,-7.614439011,1,-0.021463649,1,-0.005839011,1,0.035375871,1,0.32948786,1,-0.619336367,1,0.017716084,1
1.031993032,-5.730986118,1,-2.543619394,1,-7.568898201,1,-0.026320253,1,-0.007072075,1,0.038720068,1,0.329307258,1,-0.619417369,1,0.017866625,1
1.03599894,-5.789038181,1,-2.592797756,1,-7.551257133,1,-0.027706787,1,-0.009749527,1,0.042821094,1,0.329107761,1,-0.619507015,1,0.018042637,1
1.040000796,-5.757559299,1,-2.634073019,1,-7.531518936,1,-0.028214918,1,-0.012434649,1,0.039963204,1,0.328702033,1,-0.619672775,1,0.018466854,1
1.04399848,-5.773028851,1,-2.603975296,1,-7.501986504,1,-0.033443302,1,-0.013400041,1,0.041955315,1,0.32847929,1,-0.619781137,1,0.01863708,1
1.04799819,-5.750799656,1,-2.539403677,1,-7.517223358,1,-0.034578919,1,-0.013208091,1,0.050646976,1,0.328231275,1,-0.619885564,1,0.018825931,1
1.052000046,-5.736826897,1,-2.484964609,1,-7.525790691,1,-0.036085431,1,-0.008959509,1,0.04532792,1,0.327963948,1,-0.619995177,1,0.01903503,1
1.055997729,-5.754831791,1,-2.508756161,1,-7.531605721,1,-0.036886305,1,-0.011255893,1,0.050985668,1,0.327702105,1,-0.620096982,1,0.019232301,1
1.059997201,-5.732347012,1,-2.570181608,1,-7.526191235,1,-0.043337855,1,-0.011776489,1,0.048629455,1,0.327421665,1,-0.62019968,1,0.019441033,1
1.063998699,-5.764091492,1,-2.585361242,1,-7.525308132,1,-0.046894733,1,-0.007969126,1,0.050574828,1,0.327126026,1,-0.620294571,1,0.019657312,1
1.067996383,-5.792273998,1,-2.569515467,1,-7.503475666,1,-0.047756724,1,-0.00868297,1,0.051719531,1,0.326808929,1,-0.620393217,1,0.019877836,1
1.071995854,-5.781887531,1,-2.506901979,1,-7.500375271,1,-0.051392298,1,-0.004349112,1,0.054643773,1,0.326477587,1,-0.620486438,1,0.020113738,1
1.075997472,-5.754863262,1,-2.470889568,1,-7.539653778,1,-0.051639792,1,-0.003951062,1,0.050431702,1,0.326146722,1,-0.620577455,1,0.020347059,1
1.079995155,-5.778344631,1,-2.44073987,1,-7.557121277,1,-0.045170259,1,-0.007328189,1,0.049809106,1,0.325810909,1,-0.620657921,1,0.020581344,1
1.083994627,-5.737012386,1,-2.398091316,1,-7.595561504,1,-0.052308116,1,-0.002956798,1,0.052965261,1,0.325479031,1,-0.620743871,1,0.02081571,1
1.087996125,-5.672289848,1,-2.441228867,1,-7.567725182,1,-0.050599385,1,-0.009717435,1,0.051080387,1,0.325154364,1,-0.620833516,1,0.021039445,1
1.091993809,-5.698260784,1,-2.442264557,1,-7.613776684,1,-0.045936957,1,-0.009226374,1,0.048394952,1,0.324838161,1,-0.620927095,1,0.021267092,1
1.0959934,-5.683511257,1,-2.438407183,1,-7.631864548,1,-0.045334637,1,-0.008986536,1,0.055163488,1,0.324523717,1,-0.62102282,1,0.02148789,1
1.099995136,-5.725718975,1,-2.378075361,1,-7.634740353,1,-0.047665853,1,-0.013001961,1,0.052642118,1,0.324202746,1,-0.621124923,1,0.02172,1
1.10399282,-5.732630253,1,-2.342772961,1,-7.661814213,1,-0.041770458,1,-0.014857984,1,0.052427329,1,0.323888958,1,-0.621238887,1,0.021959631,1
1.107992291,-5.748262405,1,-2.302116632,1,-7.602643013,1,-0.038384736,1,-0.011753307,1,0.058495518,1,0.323599577,1,-0.621361494,1,0.022187822,1
1.111993909,-5.850609779,1,-2.319227457,1,-7.548613548,1,-0.032231871,1,-0.015704518,1,0.052300725,1,0.323322684,1,-0.621486187,1,0.022417003,1
1.115991592,-5.838892937,1,-2.329576969,1,-7.549715042,1,-0.033967242,1,-0.015409139,1,0.048858687,1,0.323065698,1,-0.621608138,1,0.022628378,1
1.119991064,-5.820391178,1,-2.349976778,1,-7.530648708,1,-0.028183181,1,-0.013597884,1,0.04880457,1,0.322830141,1,-0.621727467,1,0.022835892,1
1.123992801,-5.791184902,1,-2.354877472,1,-7.56528759,1,-0.030457694,1,-0.015844813,1,0.048358202,1,0.322597146,1,-0.621843874,1,0.023034975,1
1.127990484,-5.833342552,1,-2.399703026,1,-7.550822735,1,-0.028502636,1,-0.014132525,1,0.04771243,1,0.322360754,1,-0.621959329,1,0.023237431,1
1.131990314,-5.842882156,1,-2.396202564,1,-7.475667477,1,-0.031578656,1,-0.011131131,1,0.048500028,1,0.322126925,1,-0.622066677,1,0.023438552,1
1.135991812,-5.826106548,1,-2.364993572,1,-7.501829624,1,-0.029881181,1,-0.008852647,1,0.049166001,1,0.321889371,1,-0.622165143,1,0.023647876,1
1.139989495,-5.849657536,1,-2.377187729,1,-7.492561817,1,-0.027625702,1,-0.007412963,1,0.046811532,1,0.321655691,1,-0.622249126,1,0.023852898,1
1.143989205,-5.868146896,1,-2.392688036,1,-7.474587917,1,-0.026202284,1,-0.00636492,1,0.047578208,1,0.32142657,1,-0.622334301,1,0.02405506,1
1.147996902,-5.799329281,1,-2.413327217,1,-7.520837307,1,-0.030579139,1,-0.002641523,1,0.045726482,1,0.321191549,1,-0.622405767,1,0.024267999,1
1.152000546,-5.811058998,1,-2.440030813,1,-7.521751404,1,-0.029048463,1,-0.002044007,1,0.044028629,1,0.320954829,1,-0.622472584,1,0.024478365,1
1.156000257,-5.795546532,1,-2.438277006,1,-7.499587059,1,-0.031093927,1,0.002860179,1,0.0427269,1,0.320708454,1,-0.622522891,1,0.024691733,1
1.160001755,-5.803717613,1,-2.399066448,1,-7.544771194,1,-0.032837413,1,0.004202828,1,0.046589464,1,0.32044965,1,-0.622572243,1,0.024919156,1
1.163999438,-5.786198139,1,-2.412031651,1,-7.561704636,1,-0.035287421,1,0.000288326,1,0.045331694,1,0.320185483,1,-0.622622311,1,0.025138725,1
1.167999029,-5.805672646,1,-2.379490376,1,-7.561396122,1,-0.031191951,1,0.003814598,1,0.050340869,1,0.319928408,1,-0.622673571,1,0.025358228,1
1.172000527,-5.780844212,1,-2.311345816,1,-7.567524433,1,-0.034607001,1,0.003517484,1,0.04338444,1,0.319663167,1,-0.622725964,1,0.02558426,1
1.175998211,-5.784802437,1,-2.319246769,1,-7.590968132,1,-0.026762979,1,0.003321258,1,0.043899052,1,0.319416165,1,-0.622772515,1,0.025795048,1
1.179997683,-5.742357254,1,-2.346327543,1,-7.590120316,1,-0.028783012,1,0.002892019,1,0.045440927,1,0.319172204,1,-0.622811019,1,0.026007485,1
1.183999181,-5.726011276,1,-2.381474972,1,-7.602359295,1,-0.028459435,1,-0.000530953,1,0.042423006,1,0.318932414,1,-0.622857273,1,0.026216725,1
1.187996984,-5.738343716,1,-2.447903633,1,-7.565057278,1,-0.028270805,1,-0.006145532,1,0.04453367,1,0.318696618,1,-0.622922957,1,0.026416225,1
1.191996694,-5.734712601,1,-2.492216349,1,-7.569069862,1,-0.030164771,1,-0.006150723,1,0.042442076,1,0.318473458,1,-0.622992396,1,0.026607804,1
1.19599843,-5.711843491,1,-2.445678711,1,-7.609756947,1,-0.029894887,1,-0.008841515,1,0.039562427,1,0.318233818,1,-0.623072624,1,0.02679872,1
1.199996114,-5.681044102,1,-2.376153946,1,-7.668726444,1,-0.028593594,1,-0.01368363,1,0.039109942,1,0.31801486,1,-0.623167813,1,0.026974821,1
1.203995705,-5.689114094,1,-2.296554327,1,-7.689537048,1,-0.027025176,1,-0.018923311,1,0.039210211,1,0.317812562,1,-0.623281598,1,0.027131228,1
1.207997441,-5.666815758,1,-2.269013882,1,-7.712222099,1,-0.020560801,1,-0.019582151,1,0.041713268,1,0.31761384,1,-0.62340802,1,0.027298594,1
1.211995125,-5.723741055,1,-2.262281418,1,-7.761885643,1,-0.020882219,1,-0.032589123,1,0.035871405,1,0.31745708,1,-0.623565674,1,0.027436469,1
1.215994596,-5.710117817,1,-2.332895041,1,-7.707134724,1,-0.012135133,1,-0.037702162,1,0.035887383,1,0.317308009,1,-0.623751223,1,0.027559819,1
1.219996214,-5.703501225,1,-2.368162394,1,-7.767611027,1,-0.013436751,1,-0.04657305,1,0.038146514,1,0.317185581,1,-0.623954594,1,0.027672689,1
1.223993897,-5.679323673,1,-2.308867693,1,-7.759304047,1,-0.004599341,1,-0.052603837,1,0.035828065,1,0.317090899,1,-0.624191225,1,0.027768979,1
1.227993608,-5.673997402,1,-2.333376884,1,-7.75131321,1,0.002954703,1,-0.061566904,1,0.039559714,1,0.317028403,1,-0.624461472,1,0.027846809,1
1.231995106,-5.659790993,1,-2.310503483,1,-7.830890656,1,0.003702552,1,-0.071527779,1,0.030085217,1,0.317005694,1,-0.624761045,1,0.02790918,1
1.235992789,-5.665694237,1,-2.286502123,1,-7.852379799,1,0.012763357,1,-0.081539631,1,0.032173887,1,0.317024171,1,-0.62510258,1,0.027939076,1
1.239992619,-5.667719364,1,-2.198702097,1,-7.914723396,1,0.020952778,1,-0.100176387,1,0.034062926,1,0.317086786,1,-0.625494242,1,0.027944528,1
1.243994117,-5.685667515,1,-2.201315165,1,-7.955842495,1,0.029591154,1,-0.112199165,1,0.028593991,1,0.317205697,1,-0.625932395,1,0.027925031,1
1.247991562,-5.686834335,1,-2.283163071,1,-7.937586308,1,0.041226778,1,-0.124178134,1,0.030100465,1,0.317375004,1,-0.626416683,1,0.027881918,1
1.251991034,-5.68584919,1,-2.293772697,1,-7.957152843,1,0.048714291,1,-0.139692277,1,0.027973112,1,0.317598253,1,-0.62696445,1,0.027812008,1
1.255992532,-5.661890984,1,-2.375241041,1,-7.996304512,1,0.059641495,1,-0.164316818,1,0.032667089,1,0.317872941,1,-0.627574801,1,0.027719766,1
1.259990215,-5.720230579,1,-2.376219988,1,-7.99068594,1,0.060844257,1,-0.181597859,1,0.028906908,1,0.318186074,1,-0.628271759,1,0.027603487,1
1.263989806,-5.745217323,1,-2.322217941,1,-8.081102371,1,0.071242593,1,-0.199790329,1,0.031139426,1,0.318536043,1,-0.629034877,1,0.027455486,1
1.267997146,-5.663542747,1,-2.38537097,1,-8.074270248,1,0.074510403,1,-0.221527845,1,0.032233998,1,0.318942845,1,-0.629866958,1,0.027268087,1
1.272001028,-5.614903927,1,-2.383177042,1,-8.209835052,1,0.072195165,1,-0.23908183,1,0.032251611,1,0.319354892,1,-0.63077724,1,0.027064575,1
1.276000738,-5.731153488,1,-2.378512859,1,-8.145216942,1,0.087357543,1,-0.258615792,1,0.037308861,1,0.319819421,1,-0.631773531,1,0.026822452,1
1.280002356,-5.703165054,1,-2.66493845,1,-8.192873955,1,0.09689834,1,-0.283307821,1,0.048517946,1,0.320322692,1,-0.632854402,1,0.026595391,1
1.284000039,-5.47426939,1,-2.951432228,1,-8.490309715,1,0.126801699,1,-0.320478737,1,0.078894801,1,0.320874393,1,-0.634062767,1,0.026415905,1
1.287999511,-5.221164227,1,-3.289577961,1,-8.749855995,1,0.184669137,1,-0.379563123,1,0.136736155,1,0.321519256,1,-0.635512471,1,0.026373899,1
1.292001247,-4.739430904,1,-4.069914818,1,-9.181711197,1,0.226694152,1,-0.482261807,1,0.220991567,1,0.322256982,1,-0.637310922,1,0.026592681,1
1.295998931,-4.363048553,1,-4.581055641,1,-9.425186157,1,0.230724335,1,-0.626872838,1,0.33106333,1,0.322901249,1,-0.639754653,1,0.027023161,1
1.299998522,-4.646448612,1,-4.837694645,1,-9.294675827,1,0.290999532,1,-0.768741727,1,0.445640594,1,0.323496759,1,-0.642897964,1,0.027749464,1
1.30400002,-5.330417633,1,-4.7964077,1,-8.53860569,1,0.379570276,1,-0.878442943,1,0.538531601,1,0.324232757,1,-0.646689236,1,0.028763223,1
1.307997704,-6.396537781,1,-4.548141479,1,-7.971073151,1,0.454728097,1,-0.853417277,1,0.576959372,1,0.325127721,1,-0.650711775,1,0.030040968,1
1.311997175,-6.574269772,1,-4.311848164,1,-8.602596283,1,0.487282157,1,-0.842773855,1,0.561340332,1,0.326196939,1,-0.654633224,1,0.031401012,1
1.315999031,-6.466663837,1,-4.235964775,1,-9.012465477,1,0.490003526,1,-0.8795892,1,0.529562294,1,0.327407539,1,-0.658591092,1,0.032617606,1
1.319996715,-6.694005489,1,-4.513563633,1,-9.371767998,1,0.482076526,1,-0.916759551,1,0.512890875,1,0.328743994,1,-0.662653923,1,0.033636447,1
1.323996186,-6.622142315,1,-4.979258537,1,-8.951664925,1,0.431127042,1,-0.955930948,1,0.503103018,1,0.330021441,1,-0.666874647,1,0.034540873,1
1.327997684,-7.727547646,1,-5.046599865,1,-9.327708244,1,0.387673467,1,-1.000369906,1,0.511601627,1,0.331147254,1,-0.671233654,1,0.035361953,1
1.33199513,-8.991688728,1,-4.918485165,1,-9.591153145,1,0.344203681,1,-1.046420693,1,0.510462523,1,0.332141161,1,-0.675764501,1,0.03611467,1
1.335994601,-10.42046833,1,-5.155485153,1,-9.768340111,1,0.264487147,1,-1.084724903,1,0.596058369,1,0.332837194,1,-0.680510819,1,0.036976524,1
1.339996219,-10.45590305,1,-5.403539658,1,-9.559015274,1,0.116801232,1,-1.084872842,1,0.697769284,1,0.332755148,1,-0.685460269,1,0.038317885,1
1.343993902,-9.888978958,1,-4.934431076,1,-9.417765617,1,-0.002886237,1,-1.113546371,1,0.782538831,1,0.331861913,1,-0.690571785,1,0.040068623,1
1.347993612,-10.67108536,1,-5.212588787,1,-9.185441971,1,-0.140047282,1,-1.133303404,1,0.942587316,1,0.330095351,1,-0.69594264,1,0.04239988,1
1.351995111,-11.76033115,1,-5.623850346,1,-9.813951492,1,-0.320974797,1,-1.139983773,1,1.107384324,1,0.327177823,1,-0.701574087,1,0.045532301,1
1.355992794,-13.75937843,1,-7.036036015,1,-10.09057522,1,-0.580541551,1,-1.055598497,1,1.255176544,1,0.32276082,1,-0.707271457,1,0.049600359,1
1.359992266,-14.89177513,1,-7.279171467,1,-10.86649323,1,-0.869321823,1,-0.907129824,1,1.261630177,1,0.316796839,1,-0.712605834,1,0.054317474,1
1.363993883,-17.83544731,1,-6.705028057,1,-12.52936935,1,-1.097310901,1,-0.693898261,1,1.216814756,1,0.309589058,1,-0.717202604,1,0.059261121,1
1.367991805,-16.5166111,1,-6.218702793,1,-14.03624821,1,-1.176713705,1,-0.438649744,1,1.11786449,1,0.301699638,1,-0.720761597,1,0.064282507,1
1.371991277,-13.90341854,1,-6.249421597,1,-14.6659584,1,-1.176201105,1,-0.190534279,1,1.01593399,1,0.293721974,1,-0.723202884,1,0.069225371,1
1.375992775,-10.25902462,1,-6.481309414,1,-14.60133362,1,-1.188792586,1,-0.017761566,1,0.959205508,1,0.285756707,1,-0.724698424,1,0.07412,1
1.379990578,-7.005212307,1,-6.405323505,1,-13.68916512,1,-1.19976604,1,0.04391655,1,0.963104308,1,0.277698159,1,-0.725686014,1,0.079067953,1
1.383990049,-4.264177322,1,-6.210359573,1,-12.93501949,1,-1.192874074,1,-0.003200647,1,1.045736194,1,0.269455761,1,-0.726666987,1,0.084272437,1
1.387997746,-2.205195904,1,-6.188972473,1,-12.28733921,1,-1.176362514,1,-0.103241436,1,1.174412727,1,0.260953754,1,-0.728025734,1,0.089939564,1
1.392001271,-1.128192782,1,-6.449616432,1,-11.98635387,1,-1.164404273,1,-0.228020534,1,1.306483626,1,0.252148509,1,-0.729922771,1,0.096151851,1
1.396000981,-0.767927408,1,-7.185088634,1,-12.05014229,1,-1.18706429,1,-0.327625424,1,1.449503064,1,0.242923006,1,-0.732347608,1,0.102954417,1
1.400002599,-1.39646399,1,-7.746503353,1,-12.30953217,1,-1.275246501,1,-0.409019351,1,1.58918035,1,0.232996911,1,-0.735221803,1,0.110434435,1
1.404000282,-1.784668088,1,-7.63813591,1,-12.40432072,1,-1.377695441,1,-0.437854499,1,1.694215178,1,0.222219124,1,-0.738363504,1,0.118558869,1
1.407999754,-1.498807788,1,-6.720575809,1,-12.52215958,1,-1.428550124,1,-0.421543062,1,1.763594031,1,0.210750803,1,-0.741547406,1,0.127210304,1
1.412001491,-0.586105943,1,-6.013154507,1,-12.96543407,1,-1.381303668,1,-0.390220404,1,1.782759547,1,0.199030638,1,-0.744586825,1,0.136199579,1
1.415999532,-0.654152751,1,-6.022537231,1,-13.28240585,1,-1.296953201,1,-0.352989048,1,1.779079914,1,0.187466905,1,-0.747425318,1,0.145325318,1
1.419999003,-0.536459088,1,-5.87569046,1,-13.55569267,1,-1.181907296,1,-0.294322938,1,1.767662883,1,0.176224306,1,-0.749976099,1,0.154533371,1
1.424000502,0.360174268,1,-6.193315506,1,-13.30662632,1,-1.063586712,1,-0.259950548,1,1.737803221,1,0.16545777,1,-0.752247691,1,0.163733795,1
1.427997947,1.327183604,1,-6.426822662,1,-12.84360313,1,-0.943671703,1,-0.223581582,1,1.703483701,1,0.155207813,1,-0.754295588,1,0.1728338,1
1.431997657,2.21831131,1,-6.854632854,1,-12.60851002,1,-0.836502731,1,-0.20595175,1,1.670820951,1,0.145498469,1,-0.756146789,1,0.181821808,1
1.435999513,2.503137827,1,-7.304647446,1,-12.54621601,1,-0.747975767,1,-0.20211409,1,1.63319838,1,0.13624683,1,-0.757884085,1,0.190674677,1
1.439997196,2.730473518,1,-7.522005081,1,-12.43354034,1,-0.670991838,1,-0.179307446,1,1.58212173,1,0.127461717,1,-0.759485483,1,0.199323505,1
1.443996668,2.808295727,1,-7.654674053,1,-12.30900288,1,-0.612275779,1,-0.154727131,1,1.512848616,1,0.119119458,1,-0.760912716,1,0.207700789,1
1.447998166,2.962144375,1,-7.637928486,1,-12.24155903,1,-0.550130546,1,-0.131404236,1,1.427277923,1,0.111282177,1,-0.762156665,1,0.215687945,1
1.45199585,3.160057545,1,-7.539112091,1,-12.1026144,1,-0.480068535,1,-0.081379473,1,1.326582432,1,0.104011931,1,-0.763172507,1,0.223215058,1
1.455995679,3.112205267,1,-7.480904579,1,-12.1025629,1,-0.403494865,1,-0.041097324,1,1.203350067,1,0.097436637,1,-0.763930321,1,0.230159432,1
1.459997177,3.184058905,1,-7.388580322,1,-12.00022888,1,-0.327179134,1,0.015221878,1,1.067902684,1,0.091651909,1,-0.764415205,1,0.236414745,1
1.463995099,3.336017132,1,-7.260287762,1,-11.84566402,1,-0.246146828,1,0.07701841,1,0.929229736,1,0.08668524,1,-0.764580846,1,0.241949007,1
1.467994571,3.522230864,1,-7.091282368,1,-11.64008427,1,-0.152472705,1,0.140515506,1,0.780634403,1,0.082585283,1,-0.764437079,1,0.246720031,1
1.471996188,3.739588499,1,-6.912250519,1,-11.47627831,1,-0.058235232,1,0.196129322,1,0.639346659,1,0.079405516,1,-0.763996184,1,0.250718206,1
1.475993872,3.939481735,1,-6.730515003,1,-11.30445576,1,0.045007471,1,0.258537322,1,0.493971616,1,0.077161066,1,-0.763259351,1,0.253931731,1
1.479993343,4.075817108,1,-6.564812183,1,-11.09274387,1,0.135159254,1,0.315452486,1,0.351458579,1,0.075831905,1,-0.762249589,1,0.256379932,1
1.48399508,4.254248142,1,-6.41644907,1,-10.91898632,1,0.223743141,1,0.370827526,1,0.219464213,1,0.075365484,1,-0.76096344,1,0.258097142,1
1.487992883,4.389511585,1,-6.303261757,1,-10.79029655,1,0.300306708,1,0.421119332,1,0.088431552,1,0.075726546,1,-0.759433508,1,0.259106159,1
1.491992354,4.500187397,1,-6.181952,1,-10.66532803,1,0.367862523,1,0.475439578,1,-0.029142182,1,0.076816075,1,-0.757653534,1,0.259459257,1
1.495994091,4.518745899,1,-6.005781651,1,-10.60373306,1,0.423072815,1,0.51785481,1,-0.140348643,1,0.078573816,1,-0.755647063,1,0.259203345,1
1.499991775,4.413907528,1,-5.848754883,1,-10.56811142,1,0.475368232,1,0.57181108,1,-0.246180281,1,0.080929391,1,-0.753409684,1,0.258385092,1
1.503991246,4.247384548,1,-5.650710106,1,-10.63878918,1,0.524429619,1,0.625810981,1,-0.344304681,1,0.083843887,1,-0.750920415,1,0.257047355,1
1.507998943,4.011748791,1,-5.40669775,1,-10.72567177,1,0.575433969,1,0.686171293,1,-0.442951262,1,0.087297291,1,-0.748169839,1,0.255207598,1
1.512002587,3.641083002,1,-5.139614105,1,-10.78875256,1,0.616604686,1,0.757834911,1,-0.54281503,1,0.091260821,1,-0.745123744,1,0.252889752,1
1.516002297,3.299874067,1,-4.959842682,1,-10.87303448,1,0.659557581,1,0.833146095,1,-0.636324763,1,0.095698081,1,-0.74174571,1,0.250102282,1
1.520004153,2.972969294,1,-4.861255169,1,-10.88792324,1,0.698234141,1,0.927707434,1,-0.731438339,1,0.100587882,1,-0.737972975,1,0.246871188,1
1.524001837,2.672044754,1,-4.734677315,1,-10.93972111,1,0.729928315,1,1.02463913,1,-0.819129527,1,0.105868824,1,-0.733770788,1,0.243246198,1
1.528001308,2.384560823,1,-4.550286293,1,-11.0284605,1,0.767795205,1,1.143687606,1,-0.905128002,1,0.111515433,1,-0.729084015,1,0.239277601,1
1.532002807,2.126346588,1,-4.241834641,1,-10.99194145,1,0.804940939,1,1.25397265,1,-0.989973307,1,0.117524058,1,-0.723886847,1,0.234971061,1
1.53600049,2.000981092,1,-3.944833994,1,-10.92908001,1,0.842603385,1,1.368980646,1,-1.070323825,1,0.123863481,1,-0.718188465,1,0.230370894,1
1.539999962,1.876533866,1,-3.802722692,1,-10.83746624,1,0.880781829,1,1.476163745,1,-1.138442993,1,0.130505264,1,-0.711946607,1,0.225477502,1
1.544001579,1.763282299,1,-3.633889198,1,-10.74755383,1,0.91369909,1,1.572828889,1,-1.206592083,1,0.137369707,1,-0.7052719,1,0.220440656,1
1.547999263,1.810848832,1,-3.53024292,1,-10.52112579,1,0.939519107,1,1.661447525,1,-1.255685925,1,0.144418463,1,-0.698162556,1,0.215251863,1
1.551998734,1.736011267,1,-3.419474602,1,-10.37826347,1,0.959476471,1,1.746598363,1,-1.298991323,1,0.151576087,1,-0.690670371,1,0.209994823,1
1.556000233,1.586605549,1,-3.297570944,1,-10.19593048,1,0.981520057,1,1.810556889,1,-1.324768662,1,0.158816099,1,-0.682837486,1,0.204708114,1
1.559998155,1.325080514,1,-3.137493849,1,-10.04774952,1,1.002094388,1,1.871104717,1,-1.35820663,1,0.166087106,1,-0.674696863,1,0.199433044,1
1.563997746,1.091244817,1,-3.004747391,1,-9.877802849,1,1.020420551,1,1.938387871,1,-1.37601006,1,0.173388287,1,-0.666265368,1,0.194193184,1
1.567999244,0.773431122,1,-2.920857668,1,-9.779937744,1,1.044801235,1,1.990293622,1,-1.397875667,1,0.180681273,1,-0.657567441,1,0.189028591,1
1.571996927,0.427773327,1,-2.83797884,1,-9.650463104,1,1.056987882,1,2.049924135,1,-1.410789847,1,0.187971979,1,-0.648600578,1,0.183935091,1
1.575996399,0.13231045,1,-2.721894026,1,-9.508636475,1,1.069647074,1,2.09787035,1,-1.432171583,1,0.195233881,1,-0.639374435,1,0.178929299,1
1.579998255,-0.0837318,1,-2.596999645,1,-9.427448273,1,1.09040308,1,2.150717258,1,-1.445370913,1,0.202476561,1,-0.629905701,1,0.17400752,1
1.583995938,-0.276655287,1,-2.449318647,1,-9.29328537,1,1.112622261,1,2.193151474,1,-1.456401706,1,0.209709764,1,-0.620213509,1,0.169182315,1
1.58799541,-0.431644738,1,-2.318570852,1,-9.120846748,1,1.140873909,1,2.225835085,1,-1.475422144,1,0.216949001,1,-0.610326588,1,0.164448321,1
1.591996908,-0.609864831,1,-2.203077555,1,-8.976377487,1,1.169950724,1,2.251176119,1,-1.483292937,1,0.224207148,1,-0.600298405,1,0.159810588,1
1.595994592,-0.760019124,1,-2.134474993,1,-8.792528152,1,1.198438168,1,2.269937515,1,-1.486534238,1,0.231482133,1,-0.590145648,1,0.155290574,1
1.599994063,-0.994005442,1,-2.109421253,1,-8.633840561,1,1.231025815,1,2.269871473,1,-1.485153198,1,0.238761753,1,-0.579924881,1,0.150891647,1
1.603995919,-1.289649367,1,-2.141001225,1,-8.532670021,1,1.255590081,1,2.271437883,1,-1.483056068,1,0.246056318,1,-0.56968075,1,0.146627784,1
1.607993603,-1.602879286,1,-2.091013432,1,-8.419021606,1,1.276946306,1,2.26138711,1,-1.476420164,1,0.253347009,1,-0.559435785,1,0.142484844,1
1.611993313,-1.917017698,1,-2.094454527,1,-8.27890873,1,1.294705153,1,2.253479958,1,-1.461066246,1,0.260600895,1,-0.549204648,1,0.138489068,1
1.61599493,-2.292830706,1,-2.092776299,1,-8.207854271,1,1.317667723,1,2.243478298,1,-1.456797719,1,0.267813683,1,-0.538999617,1,0.134647474,1
1.619992375,-2.60699439,1,-2.104531527,1,-8.165198326,1,1.333912849,1,2.230308771,1,-1.440822124,1,0.275000781,1,-0.528820872,1,0.130952343,1
1.623992085,-3.019075632,1,-2.081383467,1,-8.165178299,1,1.359421849,1,2.227557182,1,-1.4274863,1,0.282167137,1,-0.518674731,1,0.12740244,1
1.627999783,-3.478225946,1,-2.002667189,1,-8.167722702,1,1.386336803,1,2.223703861,1,-1.426109076,1,0.289323807,1,-0.508527637,1,0.123996332,1
1.632003307,-3.979932785,1,-1.908149242,1,-8.12790966,1,1.406273961,1,2.238615274,1,-1.421446919,1,0.296481937,1,-0.498342961,1,0.120718479,1
1.636003017,-4.307225227,1,-1.899858475,1,-8.034418106,1,1.424245,1,2.257656813,1,-1.418601513,1,0.303633898,1,-0.488080472,1,0.117575161,1
1.640004635,-4.542559624,1,-1.943634987,1,-7.905516624,1,1.436538815,1,2.286592245,1,-1.408540964,1,0.310741842,1,-0.477711529,1,0.114596397,1
1.644002318,-4.745820999,1,-2.0360322,1,-7.775204182,1,1.447106481,1,2.308581591,1,-1.395830631,1,0.317789018,1,-0.467235148,1,0.111802615,1
1.648002028,-4.861861706,1,-2.04101491,1,-7.649046898,1,1.459769249,1,2.330642462,1,-1.373133898,1,0.324761748,1,-0.456677645,1,0.10920272,1
1.652003527,-5.079828262,1,-2.058970928,1,-7.576908588,1,1.465808511,1,2.348067045,1,-1.353044033,1,0.331660986,1,-0.446055919,1,0.106819071,1
1.656001329,-5.325045586,1,-1.995576739,1,-7.478534698,1,1.487757444,1,2.373165131,1,-1.333485842,1,0.33848995,1,-0.435373247,1,0.104648523,1
1.660000801,-5.61455965,1,-1.884292006,1,-7.417951584,1,1.504240155,1,2.379225492,1,-1.322135448,1,0.345301777,1,-0.424643964,1,0.102651343,1
1.664002299,-6.003762722,1,-1.781812072,1,-7.444944859,1,1.511413932,1,2.387791634,1,-1.323709011,1,0.352099001,1,-0.413873315,1,0.100770518,1
1.667999983,-6.367794514,1,-1.85940814,1,-7.384038925,1,1.523986697,1,2.403850555,1,-1.328158259,1,0.358891636,1,-0.40304482,1,0.098993905,1
1.671999454,-6.636788845,1,-1.938361168,1,-7.467105865,1,1.541600227,1,2.416337729,1,-1.343152285,1,0.365680873,1,-0.392135888,1,0.097289085,1
1.67600131,-7.027451038,1,-1.965924978,1,-7.503683567,1,1.541390777,1,2.428786516,1,-1.372693419,1,0.372483432,1,-0.381130487,1,0.095606521,1
1.679998994,-7.215575695,1,-1.980886936,1,-7.520890236,1,1.541336656,1,2.445874691,1,-1.408010364,1,0.379268348,1,-0.370025933,1,0.093899421,1
1.683998466,-7.344000816,1,-1.904572845,1,-7.489856243,1,1.528425097,1,2.444360495,1,-1.442135811,1,0.386032403,1,-0.358834386,1,0.092144474,1
1.688000202,-7.452197075,1,-1.980655551,1,-7.404036522,1,1.514022231,1,2.431123734,1,-1.477683663,1,0.392757088,1,-0.347592771,1,0.090327233,1
1.691998005,-7.419137001,1,-2.00431776,1,-7.312134266,1,1.485040307,1,2.407563448,1,-1.515112877,1,0.399390817,1,-0.336349428,1,0.088426858,1
1.695997477,-7.337557793,1,-2.021557093,1,-7.197165966,1,1.456061244,1,2.356783867,1,-1.542251229,1,0.405928314,1,-0.325180352,1,0.086435966,1
1.699998975,-7.348902225,1,-1.998689175,1,-7.054703712,1,1.417631388,1,2.297815323,1,-1.557106256,1,0.41233027,1,-0.314169407,1,0.084349193,1
1.703996658,-7.434290886,1,-1.882220626,1,-6.93992424,1,1.373807192,1,2.211081982,1,-1.582545042,1,0.418575197,1,-0.303381354,1,0.082140863,1
1.707996368,-7.609087467,1,-1.689929128,1,-6.758569241,1,1.32786262,1,2.123182058,1,-1.598506331,1,0.424661577,1,-0.292858243,1,0.079788454,1
1.711997986,-7.822154522,1,-1.489526987,1,-6.526977539,1,1.27798593,1,2.022418976,1,-1.608587861,1,0.430579722,1,-0.2826491,1,0.0772845,1
1.715995431,-7.906842709,1,-1.301590562,1,-6.335942745,1,1.230675459,1,1.903067112,1,-1.625827551,1,0.436338276,1,-0.272800922,1,0.074608356,1
1.719995141,-8.022269249,1,-1.105116725,1,-6.189959526,1,1.180264831,1,1.774820566,1,-1.624157429,1,0.441922277,1,-0.263377696,1,0.071758337,1
1.723996878,-8.120750427,1,-0.886032343,1,-6.071990967,1,1.135995269,1,1.628153086,1,-1.623156786,1,0.447329938,1,-0.254419059,1,0.068722859,1
1.72799468,-8.459117889,1,-0.553696394,1,-5.936825752,1,1.088124752,1,1.478603601,1,-1.613672137,1,0.452570617,1,-0.246006712,1,0.065495573,1
1.731994152,-8.87258625,1,-0.213637322,1,-5.928658962,1,1.052940845,1,1.325031281,1,-1.59769392,1,0.457661152,1,-0.238148168,1,0.062088851,1
1.73599565,-9.479634285,1,0.05846807,1,-5.876465797,1,1.026938319,1,1.185410738,1,-1.569137335,1,0.462644935,1,-0.230845168,1,0.058536939,1
1.739993334,-10.1287384,1,0.294870824,1,-5.840349197,1,1.010202646,1,1.05814755,1,-1.536309481,1,0.467535496,1,-0.224056602,1,0.054897625,1
1.743992805,-10.85009861,1,0.591271579,1,-5.876965523,1,1.004837275,1,0.955980599,1,-1.498198152,1,0.472372711,1,-0.217722014,1,0.051213358,1
1.748000264,-11.60976028,1,0.788181663,1,-5.896742821,1,1.003351927,1,0.867988586,1,-1.447349668,1,0.477163136,1,-0.211779386,1,0.047549535,1
1.752004147,-12.32237434,1,0.933011353,1,-5.964860916,1,0.992184758,1,0.812845647,1,-1.39564991,1,0.481901973,1,-0.206171498,1,0.043978993,1
1.756003857,-12.83625889,1,1.048083305,1,-5.981659889,1,0.974897087,1,0.763940036,1,-1.340534091,1,0.486542344,1,-0.200832829,1,0.040536303,1
1.760005355,-13.20595741,1,1.11117363,1,-5.89329052,1,0.942800403,1,0.726873398,1,-1.285850644,1,0.49102959,1,-0.195727795,1,0.037235811,1
1.764003038,-13.46535206,1,1.159207106,1,-5.686937332,1,0.894317329,1,0.700817466,1,-1.224558353,1,0.495308697,1,-0.190835357,1,0.034105182,1
1.768002868,-13.68126678,1,0.985850632,1,-5.355380058,1,0.823586762,1,0.674493492,1,-1.150817037,1,0.499300659,1,-0.186136201,1,0.031189181,1
1.772004604,-13.72768593,1,0.820866883,1,-5.015585899,1,0.727228403,1,0.642390966,1,-1.070047498,1,0.502887368,1,-0.181677088,1,0.028513845,1
1.776002288,-13.55418873,1,0.797942817,1,-4.693688869,1,0.609425664,1,0.586442113,1,-0.966353357,1,0.505991459,1,-0.1775482,1,0.026097659,1
1.78000176,-13.3836937,1,0.991697252,1,-4.416535854,1,0.493999749,1,0.507063627,1,-0.856900632,1,0.508573472,1,-0.173855931,1,0.023934219,1
1.784003377,-13.3629694,1,1.345806122,1,-4.211043835,1,0.405860573,1,0.401654601,1,-0.741086602,1,0.510708213,1,-0.170711949,1,0.021996882,1
1.78800106,-13.49568748,1,1.759688497,1,-3.973150015,1,0.341961682,1,0.288105488,1,-0.615441561,1,0.512486637,1,-0.168180019,1,0.020277644,1
1.792000532,-13.67521763,1,2.194259167,1,-3.716882467,1,0.303929925,1,0.168404818,1,-0.502166569,1,0.514091015,1,-0.166284338,1,0.01949201,1
1.79600203,-13.9182148,1,2.322752476,1,-3.408220053,1,0.281810403,1,0.053270422,1,-0.379197955,1,0.515480101,1,-0.165031686,1,0.018161397,1
1.799999714,-13.98654556,1,2.270344496,1,-3.145205021,1,0.264721483,1,-0.060566973,1,-0.251100063,1,0.516754389,1,-0.164436594,1,0.017044412,1
1.803999543,-14.00453663,1,2.033489943,1,-2.895972252,1,0.237669185,1,-0.175100908,1,-0.119007193,1,0.517908633,1,-0.164478511,1,0.016146168,1
1.808001041,-14.03574657,1,1.760030746,1,-2.656178474,1,0.199066013,1,-0.289458483,1,0.014088204,1,0.518887103,1,-0.165184915,1,0.015497459,1
1.811998725,-14.11478329,1,1.566175938,1,-2.449020863,1,0.137902677,1,-0.403639555,1,0.147236228,1,0.519634068,1,-0.166540086,1,0.015083378,1
1.815998435,-14.17331409,1,1.417639017,1,-2.226041555,1,0.082478657,1,-0.512859821,1,0.28170529,1,0.520103276,1,-0.168556079,1,0.01491923,1
1.820000052,-14.08806705,1,1.327176571,1,-2.022268534,1,0.004767581,1,-0.618466794,1,0.407625556,1,0.520261526,1,-0.171196878,1,0.014996527,1
1.823997498,-14.06037807,1,1.240560651,1,-1.86557281,1,-0.068983503,1,-0.72993803,1,0.527307689,1,0.520078599,1,-0.174460083,1,0.015289223,1
1.827996969,-13.96403599,1,1.236262321,1,-1.71170032,1,-0.140215188,1,-0.84379214,1,0.637309492,1,0.519574642,1,-0.178355843,1,0.015758213,1
1.831998706,-13.96282673,1,1.234811902,1,-1.486479759,1,-0.207538277,1,-0.965636313,1,0.742920816,1,0.518761754,1,-0.182869643,1,0.016362118,1
1.835996628,-13.98243904,1,1.196765184,1,-1.224915028,1,-0.272303849,1,-1.093265533,1,0.831398666,1,0.517666757,1,-0.187997848,1,0.017064836,1
1.839996219,-14.00073338,1,1.102841854,1,-0.86401242,1,-0.325810194,1,-1.222476244,1,0.91070056,1,0.516332567,1,-0.193745911,1,0.017827965,1
1.843997717,-13.65168858,1,0.161881745,1,-1.049579501,1,-0.405095011,1,-1.355119586,1,0.99072367,1,0.514737248,1,-0.200109452,1,0.018603433,1
1.8479954,6.848765373,1,-16.96603394,1,-9.975903511,1,-1.682189584,1,-1.874802232,1,1.32386899,1,0.510723829,1,-0.207717329,1,0.01959067,1
1.851994872,-8.052008629,1,-0.577227354,1,-3.427544355,1,-1.527614713,1,-2.574941635,1,1.805693746,1,0.503934324,1,-0.218813151,1,0.020652821,1
1.85599637,5.123680592,1,-6.031882286,1,-6.911753654,1,-1.927413106,1,-2.707086086,1,1.776602268,1,0.496637672,1,-0.231514826,1,0.022016754,1
1.859994054,8.328655243,1,-7.439505577,1,-10.66024971,1,-1.685641527,1,-2.931036234,1,1.798010111,1,0.489168584,1,-0.24482508,1,0.022952801,1
1.863993645,3.163659573,1,-6.751200199,1,-12.33304405,1,-1.77798152,1,-3.202696085,1,1.812715292,1,0.48212415,1,-0.259082228,1,0.02365841,1
1.867995381,4.136847973,1,-10.04027271,1,-16.72795677,1,-1.752578497,1,-3.232246399,1,1.804731607,1,0.474851012,1,-0.273908198,1,0.024121394,1
1.871999025,1.365094066,1,-10.41081333,1,-18.36753654,1,-1.643044353,1,-3.370390177,1,1.784141541,1,0.468213797,1,-0.288970351,1,0.024568563,1
1.875998497,-5.543518066,1,-11.2121563,1,-15.07861042,1,-1.883979082,1,-3.396849394,1,1.685538769,1,0.461047739,1,-0.304185987,1,0.024665676,1
1.880000234,-4.157012463,1,-8.652474403,1,-11.98505974,1,-1.894125223,1,-3.461634636,1,1.713337898,1,0.453479111,1,-0.319438517,1,0.024716476,1
1.883997917,-6.203418732,1,-5.695550919,1,-10.33534813,1,-2.004642248,1,-3.701872349,1,1.789043307,1,0.445665359,1,-0.335373461,1,0.02480877,1
1.887997389,-9.712880135,1,-2.233583689,1,-10.33079815,1,-1.975224733,1,-3.879142284,1,1.904951572,1,0.437532842,1,-0.352275819,1,0.024982542,1
1.891999245,-11.41239357,1,0.964734912,1,-11.37282181,1,-1.760900855,1,-3.958052874,1,1.940055847,1,0.42989102,1,-0.369765013,1,0.025447007,1
1.895996928,-14.48629475,1,2.533336401,1,-11.91070271,1,-1.633165598,1,-3.933005333,1,1.857144237,1,0.42294085,1,-0.387330532,1,0.02582692,1
1.8999964,-14.94501972,1,2.19816637,1,-13.0533123,1,-1.535430908,1,-3.798908472,1,1.806556582,1,0.416476816,1,-0.404419541,1,0.026234426,1
1.903997898,-17.83698654,1,2.957686901,1,-14.10100651,1,-1.378965735,1,-3.57545495,1,1.804683566,1,0.410332084,1,-0.420876503,1,0.026984924,1
1.907995343,-21.02716446,1,3.253756285,1,-14.46040154,1,-1.196870685,1,-3.187225342,1,1.735046268,1,0.40464282,1,-0.436160982,1,0.028223841,1
1.911995173,-20.90140343,1,3.055283785,1,-14.52743244,1,-0.995374739,1,-2.715749979,1,1.675406575,1,0.399508506,1,-0.449652106,1,0.030037759,1
1.915996671,-20.16566086,1,2.717227697,1,-12.94822979,1,-0.859453082,1,-2.281748056,1,1.647613883,1,0.39467603,1,-0.461441249,1,0.032570697,1
1.919994116,-16.99199486,1,2.176953077,1,-11.65642262,1,-0.678536832,1,-1.923752427,1,1.582035661,1,0.390203029,1,-0.471642852,1,0.035663899,1
1.923993587,-13.98877144,1,0.896731019,1,-10.44492722,1,-0.569354653,1,-1.701869249,1,1.524107099,1,0.386189938,1,-0.480675578,1,0.039048314,1
1.927995086,-11.42630005,1,-0.682782173,1,-9.300215721,1,-0.497140497,1,-1.575158596,1,1.481938481,1,0.382425547,1,-0.488998353,1,0.042582318,1
1.931992888,-8.712714195,1,-2.322218657,1,-8.329656601,1,-0.468037933,1,-1.490344882,1,1.368820071,1,0.378861666,1,-0.496782064,1,0.046027161,1
1.93599236,-7.030841351,1,-3.93287158,1,-7.743829727,1,-0.463617563,1,-1.46856904,1,1.259050846,1,0.375535607,1,-0.504203081,1,0.049111333,1
1.939993858,-7.819911957,1,-5.058805466,1,-7.163276672,1,-0.556707859,1,-1.463431239,1,1.244087577,1,0.372104049,1,-0.511509478,1,0.051975701,1
1.94399178,-7.341779709,1,-5.452854633,1,-6.911795616,1,-0.651711702,1,-1.3997401,1,1.164388537,1,0.368293703,1,-0.518599808,1,0.054763295,1
1.947991252,-8.191303253,1,-5.287000179,1,-6.763391018,1,-0.748269618,1,-1.326717496,1,1.168500066,1,0.364130318,1,-0.525369227,1,0.057504967,1
1.951992869,-8.248085976,1,-4.378743172,1,-6.893255234,1,-0.841163158,1,-1.213265896,1,1.160524487,1,0.359447837,1,-0.531773567,1,0.060465816,1
1.955990553,-8.057901382,1,-3.056467056,1,-7.571317196,1,-0.882226646,1,-1.091291666,1,1.165198207,1,0.354367316,1,-0.53771162,1,0.063658178,1
1.959990025,-9.529738426,1,-2.588832617,1,-7.944132805,1,-0.948987067,1,-0.953397095,1,1.242753386,1,0.348840892,1,-0.543242276,1,0.06728927,1
1.963991761,-9.12891674,1,-1.88178885,1,-8.708926201,1,-0.965379834,1,-0.783283293,1,1.258296847,1,0.342843711,1,-0.548167467,1,0.071429938,1
1.967989445,-8.901018143,1,-1.289376855,1,-8.908797264,1,-0.955172002,1,-0.67128253,1,1.225333095,1,0.336705774,1,-0.552581429,1,0.075809397,1
1.971989036,-8.065580368,1,-1.111745238,1,-9.044725418,1,-0.900072873,1,-0.581000984,1,1.174984455,1,0.330707878,1,-0.556530774,1,0.080159508,1
1.975990534,-10.52065945,1,-1.17832613,1,-9.664805412,1,-0.924460113,1,-0.444880754,1,1.078325987,1,0.324803293,1,-0.559961975,1,0.084454194,1
1.979988217,-12.52652264,1,-0.622417271,1,-10.78982735,1,-0.844567478,1,-0.209531784,1,0.901111841,1,0.319124341,1,-0.56247884,1,0.088382177,1
1.983987689,-8.131772995,1,-0.061891343,1,-9.398760796,1,-0.701859117,1,-0.036656838,1,0.788921595,1,0.314102113,1,-0.56390959,1,0.091990143,1
1.987989783,-5.08548975,1,-2.094635725,1,-8.153156281,1,-0.661511123,1,-0.062055897,1,0.764129281,1,0.30956471,1,-0.565053582,1,0.09540616,1
1.991999269,-4.526242256,1,-3.673330545,1,-7.790485859,1,-0.687253058,1,-0.056887183,1,0.735817373,1,0.30513531,1,-0.566181004,1,0.098707564,1
1.99600482,-4.309734821,1,-4.175320148,1,-7.885416508,1,-0.698633313,1,-0.067610696,1,0.745456517,1,0.300611377,1,-0.567300618,1,0.10195519,1
2.000006676,-5.991613865,1,-4.240911961,1,-8.388212204,1,-0.752640963,1,-0.026224164,1,0.745253146,1,0.295940697,1,-0.568382204,1,0.105261259,1
2.00400424,-7.417754173,1,-4.083199501,1,-8.168729782,1,-0.763726532,1,0.079544343,1,0.721348405,1,0.291101396,1,-0.569132328,1,0.108625449,1
2.00800395,-6.267494202,1,-3.63638711,1,-7.228702545,1,-0.772311628,1,0.118337728,1,0.687224925,1,0.286217034,1,-0.569535851,1,0.111965932,1
2.012005329,-5.984489918,1,-2.68508935,1,-7.577443123,1,-0.788615942,1,0.126607373,1,0.660501003,1,0.28134802,1,-0.569822311,1,0.115208097,1
2.016002893,-5.028818607,1,-1.545665383,1,-8.543698311,1,-0.791004002,1,0.132426515,1,0.630881011,1,0.276500404,1,-0.570036948,1,0.118318558,1
2.020002365,-4.994138718,1,-0.293647766,1,-9.157487869,1,-0.768660605,1,0.14006643,1,0.624829829,1,0.271744817,1,-0.570197105,1,0.12135639,1
2.024003744,-5.558416843,1,-0.04270925,1,-9.15130043,1,-0.729447484,1,0.156304821,1,0.634761214,1,0.267069936,1,-0.570301592,1,0.124435551,1
2.028001547,-6.679515839,1,-0.659100831,1,-8.576521873,1,-0.70573324,1,0.190185174,1,0.600318849,1,0.262552679,1,-0.57027775,1,0.127499491,1
2.032001019,-5.582775593,1,-2.390501261,1,-7.652305126,1,-0.691841245,1,0.164422587,1,0.543977618,1,0.258246005,1,-0.570178807,1,0.130334839,1
2.036002636,-5.481991768,1,-3.08824563,1,-7.955794811,1,-0.713266015,1,0.133478746,1,0.506432891,1,0.254039735,1,-0.570138514,1,0.132915661,1
2.040000439,-5.36502552,1,-2.842050552,1,-8.270841599,1,-0.710637152,1,0.155359536,1,0.532687128,1,0.249282911,1,-0.576572418,1,0.123699449,1
2.04399991,-5.087692738,1,-2.516290665,1,-8.188921928,1,-0.721398532,1,0.163798407,1,0.565181255,1,0.244935468,1,-0.576479435,1,0.126421407,1
2.048001528,-5.48787117,1,-2.199612141,1,-8.378129005,1,-0.731928349,1,0.160058707,1,0.566157877,1,0.240491882,1,-0.57639873,1,0.129233122,1
2.051999331,-5.848282337,1,-1.428618312,1,-8.638794899,1,-0.694840431,1,0.148546174,1,0.551812947,1,0.236105546,1,-0.576322198,1,0.132011622,1
2.055998802,-5.39664793,1,-1.522694945,1,-8.373375893,1,-0.681840777,1,0.113154493,1,0.529709578,1,0.231905222,1,-0.576310754,1,0.134672225,1
2.06000042,-5.489588737,1,-1.231591821,1,-8.422403336,1,-0.643248796,1,0.091519162,1,0.509551287,1,0.227872372,1,-0.576391935,1,0.137206554,1
2.063998222,-5.583534241,1,-1.116045713,1,-8.383227348,1,-0.611425638,1,0.076237656,1,0.485666245,1,0.224058658,1,-0.576526523,1,0.139595434,1
2.067997694,-5.586802006,1,-1.129598022,1,-8.35054493,1,-0.564039111,1,0.060547452,1,0.465140641,1,0.220467627,1,-0.576673448,1,0.141881973,1
2.071999311,-5.222709179,1,-1.526476026,1,-8.141132355,1,-0.56349957,1,0.058904443,1,0.4513129,1,0.217021495,1,-0.57682842,1,0.144067466,1
2.075996876,-5.750031471,1,-1.405039787,1,-8.078791618,1,-0.532233715,1,0.055091456,1,0.427111387,1,0.213694319,1,-0.576990366,1,0.146151766,1
2.079996347,-5.498961449,1,-1.619153619,1,-7.857482433,1,-0.532787681,1,0.056791503,1,0.423417658,1,0.210461244,1,-0.577116609,1,0.148196265,1
2.083997965,-5.608926296,1,-1.815041184,1,-7.76830864,1,-0.505337477,1,0.048677348,1,0.413587838,1,0.207282335,1,-0.577266037,1,0.150199726,1
2.087995529,-5.395508289,1,-1.930750132,1,-7.770392895,1,-0.511036694,1,0.066364296,1,0.408107489,1,0.204164892,1,-0.57736814,1,0.152176499,1
2.091995478,-5.37635994,1,-1.92666924,1,-7.839742661,1,-0.50628835,1,0.09336751,1,0.432654172,1,0.201025128,1,-0.577391803,1,0.1542117,1
2.095996857,-5.447240353,1,-1.669025898,1,-7.935334682,1,-0.49514088,1,0.098289683,1,0.425544411,1,0.197864339,1,-0.577366829,1,0.156304643,1
2.099994421,-5.699560165,1,-1.134200931,1,-8.183686256,1,-0.478129357,1,0.083448462,1,0.410614967,1,0.194808632,1,-0.577331185,1,0.158357888,1
2.103994131,-5.730038643,1,-0.936531246,1,-8.230331421,1,-0.445485741,1,0.090243027,1,0.406945705,1,0.191868708,1,-0.577299654,1,0.160360843,1
2.107995749,-5.592729568,1,-0.925240457,1,-8.250094414,1,-0.417734116,1,0.092188969,1,0.400983423,1,0.189053491,1,-0.577236056,1,0.162343234,1
2.111999035,-5.31111145,1,-0.994622409,1,-7.995577335,1,-0.395439208,1,0.09090399,1,0.407021075,1,0.18634595,1,-0.577184439,1,0.164313778,1
2.115998745,-6.043085098,1,-0.865386605,1,-8.228066444,1,-0.363630444,1,0.106175371,1,0.403743565,1,0.183740452,1,-0.577097297,1,0.166311339,1
2.120000362,-5.450839043,1,-0.994498909,1,-7.923056126,1,-0.341490328,1,0.122723967,1,0.395029366,1,0.181240276,1,-0.576945245,1,0.168280467,1
2.123997927,-5.552144051,1,-1.096729994,1,-8.047794342,1,-0.325478226,1,0.125006393,1,0.407724828,1,0.17881386,1,-0.576750278,1,0.17028144,1
2.127997398,-5.537173748,1,-0.982113361,1,-8.180393219,1,-0.30937928,1,0.135576874,1,0.414603561,1,0.17642647,1,-0.576524317,1,0.172332451,1
2.131999016,-5.620254993,1,-0.986575782,1,-7.984140396,1,-0.293042988,1,0.130565286,1,0.420480698,1,0.174083024,1,-0.576292574,1,0.174407259,1
2.13599658,-5.45535183,1,-1.134059072,1,-8.223147392,1,-0.258673012,1,0.112158976,1,0.403636068,1,0.171873122,1,-0.576088488,1,0.176445365,1
2.139996052,-5.320627689,1,-1.120811343,1,-8.371142387,1,-0.249577343,1,0.099211365,1,0.409628808,1,0.169765159,1,-0.575950623,1,0.178445831,1
2.143997669,-5.671619892,1,-1.126610875,1,-9.001173973,1,-0.246108115,1,0.064215526,1,0.419210017,1,0.167675391,1,-0.575892091,1,0.180463061,1
2.147995472,-4.70529747,1,-1.056725979,1,-8.9889431,1,-0.200859681,1,0.046309032,1,0.393558592,1,0.165724233,1,-0.575927734,1,0.182418227,1
2.151994944,-5.038956642,1,-0.866976082,1,-9.003027916,1,-0.180470943,1,0.00463807,1,0.395100445,1,0.163938686,1,-0.576104701,1,0.184299529,1
2.155996561,-5.171163082,1,-0.922227502,1,-8.982625008,1,-0.151053369,1,-0.039352715,1,0.391756892,1,0.162266985,1,-0.576420903,1,0.186141744,1
2.159994364,-5.294539928,1,-1.062797666,1,-8.901987076,1,-0.135172725,1,-0.086913504,1,0.387849182,1,0.160732105,1,-0.576923966,1,0.187925369,1
2.163993835,-5.192130089,1,-1.276533961,1,-8.901119232,1,-0.124047048,1,-0.122386932,1,0.392198026,1,0.159258425,1,-0.577583432,1,0.189671993,1
2.167995691,-5.201508999,1,-1.630051851,1,-8.874192238,1,-0.143635839,1,-0.163867429,1,0.394084156,1,0.1577757,1,-0.578404367,1,0.191413179,1
2.171993256,-5.47971487,1,-1.589693785,1,-8.691882133,1,-0.128690183,1,-0.204676703,1,0.396389723,1,0.156271189,1,-0.579378307,1,0.193144754,1
2.175992727,-5.397836685,1,-1.405383348,1,-8.696987152,1,-0.137837589,1,-0.230711848,1,0.396031976,1,0.15481323,1,-0.580486715,1,0.194849104,1
2.179994583,-5.531637192,1,-1.303116441,1,-8.535474777,1,-0.136955798,1,-0.25378108,1,0.410903096,1,0.153315559,1,-0.58168298,1,0.196572199,1
2.183992386,-5.599487782,1,-1.057836056,1,-8.483966827,1,-0.132498264,1,-0.286574244,1,0.401118785,1,0.151839301,1,-0.58299911,1,0.198291019,1
2.187992096,-5.701726913,1,-1.018923402,1,-8.520197868,1,-0.141425133,1,-0.309858501,1,0.398986042,1,0.150371283,1,-0.584421277,1,0.199975073,1
2.191993713,-5.617883205,1,-1.043744206,1,-8.661654472,1,-0.14672555,1,-0.350028783,1,0.398782313,1,0.1489003,1,-0.585965872,1,0.20162873,1
2.195991278,-5.614277363,1,-0.857021213,1,-8.682525635,1,-0.140549973,1,-0.379034728,1,0.386636913,1,0.14742434,1,-0.587633491,1,0.20324634,1
2.199990988,-5.55735445,1,-1.035514593,1,-8.87068367,1,-0.130876467,1,-0.40655604,1,0.383830577,1,0.146019608,1,-0.5894171,1,0.204812884,1
2.203992844,-5.451208115,1,-1.443241358,1,-8.934412956,1,-0.142205507,1,-0.456111163,1,0.392341167,1,0.144628614,1,-0.591348171,1,0.206365496,1
2.207990646,-5.17353344,1,-1.638596535,1,-9.107708931,1,-0.161624029,1,-0.509639204,1,0.389659882,1,0.143157974,1,-0.593480647,1,0.207901329,1
2.211990118,-5.059185982,1,-1.649217725,1,-9.446907997,1,-0.180228949,1,-0.564575255,1,0.391074568,1,0.14163205,1,-0.59582305,1,0.209395811,1
2.215991497,-5.077219963,1,-2.176376104,1,-9.701203346,1,-0.215593264,1,-0.636019111,1,0.397939593,1,0.140012369,1,-0.598415077,1,0.210882127,1
2.2199893,-4.696568012,1,-1.164996386,1,-10.37690163,1,-0.232312262,1,-0.724998713,1,0.396561444,1,0.138264507,1,-0.601327717,1,0.212324739,1
2.22398901,-4.813365459,1,-2.195103407,1,-10.24726486,1,-0.245535269,1,-0.806018949,1,0.42304185,1,0.136511847,1,-0.604574144,1,0.213786721,1
2.227990627,-5.036084175,1,-2.720183849,1,-10.27133942,1,-0.314871728,1,-0.893940449,1,0.430262744,1,0.134531721,1,-0.608173251,1,0.215292811,1
2.231994152,-5.102235794,1,-2.75097847,1,-10.29900455,1,-0.4090648,1,-0.996044517,1,0.435159802,1,0.132229194,1,-0.612144828,1,0.216768429,1
2.235993624,-5.487312794,1,-2.515333176,1,-10.57015896,1,-0.481932282,1,-1.111860394,1,0.464119822,1,0.129584432,1,-0.616554856,1,0.218274578,1
2.239995241,-4.672028065,1,-1.374488831,1,-11.18574619,1,-0.505076587,1,-1.236279249,1,0.467607051,1,0.126663491,1,-0.621435642,1,0.219807625,1
2.243992805,-4.882174492,1,-1.439031482,1,-11.40034866,1,-0.405877113,1,-1.378189564,1,0.503051639,1,0.123976432,1,-0.626875699,1,0.221370012,1
2.247992277,-4.854716301,1,-2.742264986,1,-11.5910244,1,-0.450030774,1,-1.53283608,1,0.552721918,1,0.12126597,1,-0.632909656,1,0.223090574,1
2.25199461,-4.737475395,1,-2.20831418,1,-11.66472626,1,-0.463535815,1,-1.695961833,1,0.567687988,1,0.118384525,1,-0.639605224,1,0.224878982,1
2.255992889,-5.174241543,1,-2.137827396,1,-12.16877937,1,-0.506884515,1,-1.872713804,1,0.615848601,1,0.115305454,1,-0.646977305,1,0.226766348,1
2.259992361,-5.171234131,1,-1.805952191,1,-12.46157551,1,-0.537281394,1,-2.055018902,1,0.678076923,1,0.111928888,1,-0.655069411,1,0.228873119,1
2.263994217,-4.90967226,1,-2.825236559,1,-12.17397976,1,-0.593609035,1,-2.229951143,1,0.741459966,1,0.10822396,1,-0.663900971,1,0.231257319,1
2.267991781,-3.845187426,1,-2.875430584,1,-12.0605154,1,-0.619756997,1,-2.398719788,1,0.775150836,1,0.104174025,1,-0.673425913,1,0.233845174,1
2.271991253,-4.533389568,1,-2.927253723,1,-12.17163563,1,-0.609866023,1,-2.557339191,1,0.832907975,1,0.099956013,1,-0.683621824,1,0.236641467,1
2.275993109,-4.06532526,1,-3.425750494,1,-11.46816826,1,-0.616588414,1,-2.701905251,1,0.915901899,1,0.095491387,1,-0.694428742,1,0.239832819,1
2.279990673,-4.707332611,1,-3.717638254,1,-11.47317791,1,-0.654252052,1,-2.859869003,1,0.989104509,1,0.090647027,1,-0.70586133,1,0.243431851,1
2.283990622,-5.145749092,1,-3.681278706,1,-11.24896622,1,-0.705847502,1,-2.98831296,1,1.065801144,1,0.085287839,1,-0.717883825,1,0.247484937,1
2.287992001,-4.819290638,1,-3.269141436,1,-10.89101028,1,-0.755130947,1,-3.132267714,1,1.194005966,1,0.079276994,1,-0.730458975,1,0.252136171,1
2.291989565,-5.368871689,1,-3.111563921,1,-10.94390869,1,-0.766182065,1,-3.24471879,1,1.293350101,1,0.072568655,1,-0.743485928,1,0.258663833,1
2.295989037,-5.142559528,1,-3.028363705,1,-10.79998779,1,-0.751253128,1,-3.36311388,1,1.371405959,1,0.065405801,1,-0.757047296,1,0.264697284,1
2.299990416,-4.959074497,1,-2.892508984,1,-10.23529339,1,-0.738081515,1,-3.443320274,1,1.451375961,1,0.057835288,1,-0.770977616,1,0.271330535,1
2.303988218,-3.890291214,1,-3.179070473,1,-9.744434357,1,-0.728469133,1,-3.567686081,1,1.561772466,1,0.049712945,1,-0.785297275,1,0.278717935,1
2.30798769,-4.223714352,1,-2.832749844,1,-9.503708839,1,-0.712788641,1,-3.679565907,1,1.653915405,1,0.04098611,1,-0.800075769,1,0.286941051,1
2.311989307,-4.657511711,1,-2.478548527,1,-9.363347054,1,-0.707490325,1,-3.774475098,1,1.75526166,1,0.031590894,1,-0.815226674,1,0.29602313,1
2.315986872,-5.037386894,1,-2.00976944,1,-8.801115036,1,-0.719945312,1,-3.847064018,1,1.845285535,1,0.02141556,1,-0.830667317,1,0.306015283,1
2.319986343,-5.19699955,1,-1.512675881,1,-8.81597805,1,-0.744028211,1,-3.933398247,1,1.920350432,1,0.010381922,1,-0.846341372,1,0.316917479,1
2.323987961,-5.481732845,1,-1.14851594,1,-8.614216805,1,-0.784456253,1,-4.019658566,1,1.981693864,1,-0.001549126,1,-0.862288892,1,0.328692168,1
2.327985764,-5.491802216,1,-0.067644738,1,-8.323952675,1,-0.776882708,1,-4.08523035,1,2.004980564,1,-0.01433856,1,-0.878447115,1,0.341285408,1
2.331985235,-5.692481995,1,0.052370731,1,-8.313810349,1,-0.739138663,1,-4.146687984,1,2.016594887,1,-0.027625583,1,-0.894726992,1,0.354545951,1
2.335986853,-6.928818703,1,-1.811712384,1,-6.717904568,1,-0.866449416,1,-4.01782608,1,1.885807872,1,-0.041549865,1,-0.91087234,1,0.368248463,1
2.339984655,-2.504270792,1,4.676742554,1,-9.105291367,1,-0.566386938,1,-4.39471674,1,1.952250123,1,-0.055480678,1,-0.927268565,1,0.382184893,1
2.343984127,-8.113555908,1,1.660799623,1,-8.124388695,1,-0.618623555,1,-4.422766685,1,1.996400356,1,-0.069957964,1,-0.944405138,1,0.397292316,1
2.347985983,-8.851452827,1,-1.225024819,1,-6.986610889,1,-0.744464695,1,-4.386242867,1,2.02884078,1,-0.08599215,1,-0.9613446,1,0.413601071,1
2.351989508,-6.630533695,1,0.137967154,1,-7.072033405,1,-0.816543579,1,-4.400225163,1,1.950701594,1,-0.103078038,1,-0.978070319,1,0.430506647,1
2.355988979,-5.773825645,1,1.582634091,1,-7.20732069,1,-0.838376224,1,-4.449878693,1,1.939105034,1,-0.121061578,1,-0.994762719,1,0.448091954,1
2.359990835,-6.905908585,1,1.571493864,1,-7.377637386,1,-0.840343952,1,-4.4998312,1,1.94606936,1,-0.14015992,1,-1.011517406,1,0.466769814,1
2.3639884,-7.735290527,1,1.081010938,1,-6.847754478,1,-0.8716681,1,-4.486948013,1,1.932873845,1,-0.160465032,1,-1.02814877,1,0.486589253,1
2.367987871,-8.310902596,1,0.877137125,1,-6.601316452,1,-0.917397976,1,-4.473101139,1,1.886209369,1,-0.181913882,1,-1.044507742,1,0.507360458,1
2.371989727,-8.91204834,1,1.357129574,1,-6.59980917,1,-0.950270832,1,-4.418890953,1,1.834391832,1,-0.204462871,1,-1.06055367,1,0.528995156,1
2.37598753,-8.950612068,1,1.316552758,1,-6.269462109,1,-0.979615808,1,-4.363868237,1,1.79241395,1,-0.228045553,1,-1.076155543,1,0.551501274,1
2.37998724,-9.739634514,1,1.13060081,1,-6.7223382,1,-1.011321306,1,-4.31255579,1,1.756811857,1,-0.252852291,1,-1.091317058,1,0.575069785,1
2.383988619,-9.92400074,1,0.792440355,1,-6.285398483,1,-1.053050637,1,-4.210336685,1,1.747917771,1,-0.27898398,1,-1.105913281,1,0.599773109,1
2.387986422,-9.3978405,1,0.13932915,1,-5.987216949,1,-1.126585126,1,-4.157104969,1,1.763809562,1,-0.306764841,1,-1.119897485,1,0.62589711,1
2.391985893,-10.03992844,1,-0.556443393,1,-6.313617706,1,-1.21800983,1,-4.129035473,1,1.755010366,1,-0.336490631,1,-1.133423328,1,0.653630435,1
2.395987749,-10.46179676,1,-0.084050022,1,-6.605460167,1,-1.304801226,1,-4.058877468,1,1.747318268,1,-0.368156374,1,-1.146378398,1,0.682910204,1
2.399985313,-10.61856651,1,0.70204699,1,-7.259917736,1,-1.342245698,1,-4.031601429,1,1.720173001,1,-0.401584029,1,-1.158765078,1,0.713693619,1
2.403984785,-11.25150108,1,1.131438732,1,-7.488407612,1,-1.382749557,1,-4.048881054,1,1.686009407,1,-0.436805755,1,-1.170732617,1,0.746104658,1
2.407986403,-12.35538387,1,1.251634002,1,-6.838366508,1,-1.371251345,1,-4.080161572,1,1.62565589,1,-0.473863423,1,-1.182427764,1,0.780244946,1
2.411984205,-14.75652599,1,1.440579295,1,-6.58646822,1,-1.261190414,1,-4.054626465,1,1.549261928,1,-0.512222052,1,-1.193775654,1,0.815902352,1
2.415983677,-16.01885605,1,2.234461069,1,-6.339608669,1,-1.168425322,1,-3.932255983,1,1.493111968,1,-0.551281035,1,-1.204458594,1,0.852622509,1
2.419985294,-15.66221142,1,1.414574504,1,-6.15692997,1,-1.150841951,1,-3.879746437,1,1.488500834,1,-0.591463327,1,-1.214379311,1,0.890633464,1
2.423983335,-16.28277588,1,1.298084021,1,-6.38505888,1,-1.182216287,1,-3.856886148,1,1.499532223,1,-0.633699894,1,-1.223599315,1,0.930651128,1
2.427982807,-17.3850956,1,1.831982493,1,-6.594698429,1,-1.19802773,1,-3.83655262,1,1.477424264,1,-0.677901506,1,-1.232173324,1,0.972524524,1
2.431984663,-17.30347633,1,0.588129938,1,-6.078368664,1,-1.176460385,1,-3.809701681,1,1.572939277,1,-0.72434473,1,-1.239937544,1,1.016679168,1
2.435982227,-18.10845757,1,-1.981435537,1,-5.947259426,1,-1.250149846,1,-3.798388243,1,1.718973398,1,-0.773850679,1,-1.246629357,1,1.063879251,1
2.439981937,-17.97805786,1,-4.186681747,1,-5.526454926,1,-1.531781197,1,-3.720897675,1,1.893456459,1,-0.826884687,1,-1.25190556,1,1.113976836,1
2.443983555,-18.98563194,1,-5.351459503,1,-6.793046951,1,-1.909320116,1,-3.626880646,1,1.938136816,1,-0.883021116,1,-1.255763054,1,1.165797472,1
2.447981358,-18.93779373,1,-7.138477802,1,-6.791834831,1,-2.236465216,1,-3.52662468,1,1.989609838,1,-0.94092536,1,-1.258328319,1,1.217976332,1
2.451980829,-18.70134735,1,-6.95735836,1,-8.293408394,1,-2.62998271,1,-3.382988453,1,2.054352045,1,-1.00032568,1,-1.259442449,1,1.270159721,1
2.455982685,-19.42722321,1,-5.73901844,1,-10.39833164,1,-2.922714949,1,-3.146942616,1,2.024357796,1,-1.059362054,1,-1.25917697,1,1.320471048,1
2.459980249,-22.06519508,1,-4.143791676,1,-13.2756834,1,-3.082008362,1,-2.85772872,1,1.93435204,1,-1.115758181,1,-1.25773406,1,1.367103457,1
2.463979959,-24.56827354,1,-4.069345474,1,-15.48779583,1,-3.18573761,1,-2.537171841,1,1.80583179,1,-1.168083668,1,-1.255394936,1,1.408913732,1
2.467981815,-25.29856873,1,-7.363256454,1,-16.54089355,1,-3.315957069,1,-2.258740902,1,1.638418555,1,-1.215899587,1,-1.252522349,1,1.445596695,1
2.471985579,-23.6860714,1,-6.830907822,1,-17.06453896,1,-3.621257782,1,-2.099058628,1,1.529651165,1,-1.260917425,1,-1.249399424,1,1.478389025,1
2.475986004,-27.04965401,1,-3.417182446,1,-17.45881653,1,-3.356748104,1,-2.068926334,1,1.255413413,1,-1.303506136,1,-1.246391058,1,1.508361578,1
2.479987383,-29.50462914,1,-4.214127541,1,-17.88800049,1,-2.916664362,1,-1.808257461,1,1.185529709,1,-1.342021823,1,-1.243647218,1,1.535912991,1
2.483985186,-24.67192459,1,-7.350124359,1,-18.58966255,1,-2.903880358,1,-1.281557679,1,1.197525859,1,-1.374245405,1,-1.240295768,1,1.557731509,1
2.487984896,-19.54659081,1,-7.798804283,1,-18.29434395,1,-2.970681429,1,-0.8993119,1,1.210420012,1,-1.400803566,1,-1.236360312,1,1.573374748,1
2.491986513,-16.23017883,1,-7.842478752,1,-17.25790405,1,-2.916796923,1,-0.771922469,1,1.292812467,1,-1.424170256,1,-1.231953621,1,1.585612893,1
2.495983839,-14.64562893,1,-6.934007645,1,-16.98215485,1,-2.769224644,1,-0.78071636,1,1.472896457,1,-1.446294188,1,-1.226923585,1,1.597033381,1
2.499983311,-12.76337624,1,-5.835148335,1,-16.93347168,1,-2.618509054,1,-0.789403796,1,1.717486382,1,-1.467694759,1,-1.220950246,1,1.608332992,1
2.503984928,-10.69615364,1,-4.885501862,1,-16.44987679,1,-2.432858706,1,-0.792076468,1,1.954908371,1,-1.488131404,1,-1.213928699,1,1.619329095,1
2.507982492,-9.472895622,1,-4.259956837,1,-15.99931431,1,-2.177927971,1,-0.825628161,1,2.184324265,1,-1.507519484,1,-1.205903888,1,1.630181074,1
2.511981964,-8.587394714,1,-4.442673206,1,-15.63916874,1,-1.899927616,1,-0.874587238,1,2.414352417,1,-1.525723457,1,-1.196906805,1,1.64096117,1
2.515983582,-7.718913555,1,-5.082231998,1,-15.12900257,1,-1.652069211,1,-0.939639151,1,2.652714252,1,-1.542821646,1,-1.186915159,1,1.651738286,1
2.519981384,-7.346446991,1,-5.889477253,1,-14.68826199,1,-1.464694858,1,-1.011425495,1,2.88812232,1,-1.559072137,1,-1.175899029,1,1.662590742,1
2.523981094,-7.320830345,1,-6.656902313,1,-14.41919518,1,-1.348283887,1,-1.050983191,1,3.107805729,1,-1.574540973,1,-1.163916111,1,1.67330575,1
2.52798295,-7.095320225,1,-6.95994091,1,-14.20337772,1,-1.272518873,1,-1.065721989,1,3.279174566,1,-1.589116335,1,-1.151078939,1,1.683508635,1
2.531980515,-7.021561146,1,-7.088209152,1,-13.9152565,1,-1.225570083,1,-1.052085519,1,3.411078691,1,-1.602694988,1,-1.137590051,1,1.69293952,1
2.535979986,-7.052057266,1,-7.042449951,1,-13.67734718,1,-1.181963444,1,-1.013038397,1,3.503191948,1,-1.615162015,1,-1.123603106,1,1.70138669,1
2.539981604,-7.270772457,1,-6.932038784,1,-13.6039381,1,-1.148608565,1,-0.946846068,1,3.542390585,1,-1.626046538,1,-1.109200358,1,1.709727645,1
2.543979168,-7.697847843,1,-6.760222435,1,-13.48638725,1,-1.108357191,1,-0.857345581,1,3.534455538,1,-1.635987759,1,-1.094838738,1,1.715817332,1
2.54797864,-7.92372942,1,-6.690522671,1,-13.40039635,1,-1.06661272,1,-0.733245492,1,3.473371029,1,-1.644556165,1,-1.080626607,1,1.720571518,1
2.551980495,-8.045941353,1,-6.631954193,1,-13.33858109,1,-1.01691699,1,-0.594424903,1,3.365070343,1,-1.65167141,1,-1.066769242,1,1.723918676,1
2.555978298,-7.921153069,1,-6.495087624,1,-13.31718063,1,-0.956551373,1,-0.432293236,1,3.199822903,1,-1.657298088,1,-1.053503513,1,1.725844145,1
2.559978008,-7.694922924,1,-6.35435915,1,-13.14300537,1,-0.887959838,1,-0.251458228,1,2.984528303,1,-1.661465406,1,-1.041049242,1,1.726394653,1
2.563979626,-7.10375452,1,-6.078695774,1,-12.98715019,1,-0.802269578,1,-0.064109445,1,2.720615387,1,-1.664152145,1,-1.029623508,1,1.725584388,1
2.567976952,-6.224630833,1,-5.812719822,1,-12.72590733,1,-0.696879923,1,0.120535433,1,2.42616868,1,-1.665367126,1,-1.019389391,1,1.723493099,1
2.571976662,-5.036628723,1,-5.425181389,1,-12.49451733,1,-0.564076126,1,0.303022861,1,2.111245155,1,-1.665157557,1,-1.010421038,1,1.720262408,1
2.575978279,-4.109208107,1,-4.86890173,1,-12.13562012,1,-0.38591978,1,0.469624132,1,1.775519252,1,-1.663511038,1,-1.002819657,1,1.716045856,1
2.579975843,-2.666291714,1,-4.334412575,1,-12.24926758,1,-0.15644592,1,0.61638999,1,1.43087399,1,-1.660322547,1,-0.996638954,1,1.710948825,1
2.583975792,-1.403178573,1,-3.906508684,1,-11.6796999,1,0.087681226,1,0.75822407,1,1.08739841,1,-1.655585051,1,-0.991864681,1,1.705124736,1
2.587977171,0.007559856,1,-3.475572586,1,-10.92511654,1,0.371825606,1,0.888915181,1,0.760398746,1,-1.649190426,1,-0.988453686,1,1.698579311,1
2.591981173,1.532546997,1,-3.160656452,1,-10.27905941,1,0.676540136,1,0.998409927,1,0.433716714,1,-1.641121149,1,-0.98635602,1,1.691423178,1
2.595980883,2.778626204,1,-3.158590078,1,-9.65308094,1,0.966287315,1,1.075399399,1,0.123443432,1,-1.631474733,1,-0.985526145,1,1.683795571,1
2.599982262,3.782445669,1,-3.381931782,1,-9.142393112,1,1.226783633,1,1.135933518,1,-0.154674396,1,-1.620405674,1,-0.985837102,1,1.675787449,1
2.603980064,4.510126114,1,-3.452507019,1,-8.786672592,1,1.457367778,1,1.194191098,1,-0.419897556,1,-1.608047605,1,-0.987192988,1,1.667417526,1
2.607979536,5.19033289,1,-3.630718708,1,-8.30118084,1,1.643054247,1,1.23728776,1,-0.667162776,1,-1.594564319,1,-0.989513934,1,1.658713937,1
2.611981153,5.56573534,1,-3.456112146,1,-8.197568893,1,1.815824389,1,1.286709785,1,-0.908462346,1,-1.580002427,1,-0.992748201,1,1.649588943,1
2.615978718,5.771479607,1,-3.23342371,1,-8.241577148,1,1.959508538,1,1.339172602,1,-1.14163816,1,-1.564369917,1,-0.996860981,1,1.639950514,1
2.619978428,5.385477066,1,-2.855425835,1,-8.397043228,1,2.104831934,1,1.429563642,1,-1.384686232,1,-1.547522306,1,-1.00182879,1,1.62958622,1
2.623980284,5.133057117,1,-2.329548836,1,-8.573598862,1,2.238515615,1,1.529833198,1,-1.623802781,1,-1.529236913,1,-1.007657528,1,1.61820662,1
2.627978325,4.553668499,1,-1.827707529,1,-8.84257412,1,2.367481232,1,1.64579463,1,-1.873465776,1,-1.509339333,1,-1.014311552,1,1.60560298,1
2.631977797,4.149025917,1,-1.358293533,1,-9.246976852,1,2.499629974,1,1.780224562,1,-2.10951972,1,-1.487585902,1,-1.021765828,1,1.591487169,1
2.635979414,3.599009275,1,-0.949656188,1,-9.547460556,1,2.633580208,1,1.939910889,1,-2.337241173,1,-1.463717818,1,-1.029912829,1,1.57557106,1
2.639977217,2.951382637,1,-0.324502349,1,-9.953379631,1,2.772705317,1,2.119939089,1,-2.563174009,1,-1.43736887,1,-1.038669348,1,1.557498097,1
2.643976688,2.245162249,1,0.154700935,1,-10.31985378,1,2.90864253,1,2.312847137,1,-2.785587072,1,-1.408251047,1,-1.04794538,1,1.53694725,1
2.647978544,1.606599569,1,0.531388283,1,-10.55293941,1,3.024852514,1,2.530840397,1,-3.000700235,1,-1.376050234,1,-1.057616353,1,1.513548613,1
2.651976109,1.24706161,1,0.720982373,1,-10.71551418,1,3.122284889,1,2.73664403,1,-3.191573143,1,-1.340566874,1,-1.067520142,1,1.487022281,1
2.655975819,1.533795476,1,0.763773799,1,-10.84116936,1,3.211120129,1,2.950504303,1,-3.360486984,1,-1.301650524,1,-1.077407956,1,1.457144976,1
2.659977436,1.552795291,1,0.942527473,1,-10.92564487,1,3.268865824,1,3.122377157,1,-3.489319086,1,-1.259413838,1,-1.087062955,1,1.423990607,1
2.663975,1.445777655,1,1.285646796,1,-11.08605766,1,3.322781801,1,3.27469039,1,-3.592404127,1,-1.214007616,1,-1.09625864,1,1.387677908,1
2.66797471,1.211353183,1,1.746923089,1,-11.26814651,1,3.37519908,1,3.409294844,1,-3.666437149,1,-1.165557027,1,-1.104779482,1,1.348355532,1
2.671976566,0.843316615,1,2.230569363,1,-11.47430801,1,3.440789461,1,3.542177677,1,-3.718922138,1,-1.114177704,1,-1.112394571,1,1.306176186,1
2.675974131,0.429073572,1,2.585376263,1,-11.63512993,1,3.506959438,1,3.65773344,1,-3.7462008,1,-1.060038924,1,-1.118921041,1,1.26137805,1
2.679973602,-0.142942578,1,2.811577082,1,-11.80046844,1,3.57972765,1,3.779719114,1,-3.762074471,1,-1.003412604,1,-1.124177098,1,1.214251876,1
2.68397522,-0.711394787,1,2.848704576,1,-11.93619633,1,3.638697386,1,3.895137072,1,-3.757018089,1,-0.944596887,1,-1.127985239,1,1.165101528,1
2.687972784,-1.23224926,1,2.799215078,1,-12.17357254,1,3.685810566,1,4.011514664,1,-3.741664171,1,-0.884071827,1,-1.130220056,1,1.114373565,1
2.691972494,-1.577867985,1,2.753755569,1,-12.61697769,1,3.708074093,1,4.122067451,1,-3.719766617,1,-0.82242769,1,-1.130770087,1,1.062580824,1
2.69597435,-2.289595842,1,2.939102411,1,-12.76649761,1,3.719805717,1,4.235560417,1,-3.686885357,1,-0.760276377,1,-1.129556775,1,1.010288715,1
2.699972391,-3.213430166,1,3.21262908,1,-12.95439053,1,3.746140242,1,4.366550922,1,-3.676334143,1,-0.698032796,1,-1.1265378,1,0.957922101,1
2.703972101,-4.055352211,1,3.165255547,1,-13.13266373,1,3.758170605,1,4.500198364,1,-3.665014982,1,-0.6360147,1,-1.121693015,1,0.905809999,1
2.707973719,-4.652193069,1,2.947326899,1,-13.13373566,1,3.756982327,1,4.634953022,1,-3.65395689,1,-0.57483083,1,-1.115004063,1,0.854498744,1
2.711977482,-4.882091522,1,2.866629601,1,-13.20038509,1,3.739993334,1,4.759379864,1,-3.640908241,1,-0.514996827,1,-1.106488943,1,0.804451048,1
2.715977192,-5.111131668,1,2.816551924,1,-13.35316849,1,3.731178761,1,4.871068478,1,-3.631001949,1,-0.456972063,1,-1.096254349,1,0.756143749,1
2.719979048,-5.310928345,1,2.982687473,1,-13.56597233,1,3.736160278,1,4.971608162,1,-3.624417305,1,-0.401000381,1,-1.084380865,1,0.709864616,1
2.723976612,-5.293361187,1,3.222195148,1,-13.68919659,1,3.750414371,1,5.059299469,1,-3.624099731,1,-0.347273052,1,-1.070988178,1,0.665874183,1
2.727976084,-5.31509161,1,3.4439466,1,-13.82515144,1,3.792763233,1,5.124648571,1,-3.618190765,1,-0.295857012,1,-1.056237102,1,0.62431699,1
2.73197794,-5.366157532,1,3.522032499,1,-13.86269283,1,3.842958689,1,5.179587841,1,-3.61856246,1,-0.24677527,1,-1.040248275,1,0.585304439,1
2.735975742,-5.410260677,1,3.461246967,1,-13.9095602,1,3.909399271,1,5.222872257,1,-3.614547491,1,-0.199980006,1,-1.023153901,1,0.548846781,1
2.739975214,-5.596405506,1,3.2310884,1,-13.86345577,1,3.975818396,1,5.253470898,1,-3.590348244,1,-0.155470625,1,-1.005080342,1,0.515004635,1
2.74397707,-5.935736179,1,2.87889123,1,-13.8032999,1,4.034444332,1,5.295935154,1,-3.568772078,1,-0.113187477,1,-0.986098707,1,0.483717352,1
2.747974873,-6.298677921,1,2.527252913,1,-13.76417542,1,4.074875832,1,5.345331669,1,-3.538142681,1,-0.073108733,1,-0.96623987,1,0.454913139,1
2.751974344,-6.629435539,1,2.174817801,1,-13.73707199,1,4.105219364,1,5.411671162,1,-3.507400274,1,-0.035170455,1,-0.945508182,1,0.428507417,1
2.7559762,-7.067119598,1,1.967346191,1,-13.7887373,1,4.128910542,1,5.484369278,1,-3.477435827,1,0.000723436,1,-0.923954606,1,0.404369295,1
2.759974241,-7.604340553,1,1.760931373,1,-13.67679405,1,4.131546497,1,5.570614815,1,-3.442720413,1,0.034635518,1,-0.901617408,1,0.3823888,1
2.763973713,-8.108048439,1,1.53126049,1,-13.47858334,1,4.127464294,1,5.674821854,1,-3.403131247,1,0.06663578,1,-0.878463626,1,0.362467587,1
2.76797533,-8.564399719,1,1.352731347,1,-13.22288418,1,4.137845993,1,5.800369263,1,-3.351978302,1,0.096806146,1,-0.85449338,1,0.344563395,1
2.771973133,-9.290164948,1,1.309430003,1,-12.48848724,1,4.148665905,1,5.952290058,1,-3.30546689,1,0.125273034,1,-0.829657376,1,0.328602374,1
2.775972605,-10.40413475,1,0.853535533,1,-11.28168106,1,4.160069942,1,6.139918804,1,-3.25735116,1,0.152188435,1,-0.803900361,1,0.314501464,1
2.779974222,-10.48489094,1,0.280198485,1,-10.85935974,1,4.149450302,1,6.298848152,1,-3.192216396,1,0.177537411,1,-0.777227461,1,0.302219301,1
2.783971786,-10.17328644,1,0.035451666,1,-10.7037468,1,4.13161087,1,6.395884991,1,-3.109261751,1,0.201380253,1,-0.749908149,1,0.291706026,1
2.787971258,-10.12980461,1,-0.102920644,1,-10.28282261,1,4.109455585,1,6.465583801,1,-3.037240982,1,0.223817244,1,-0.722159684,1,0.282827377,1
2.791972876,-10.00378704,1,-0.339928687,1,-9.784449577,1,4.070291996,1,6.495837212,1,-2.985480547,1,0.245189741,1,-0.694163978,1,0.275597304,1
2.795970678,-10.24005795,1,-0.826037467,1,-9.344521523,1,4.013904095,1,6.479455948,1,-2.959457397,1,0.265360922,1,-0.666044712,1,0.269234717,1
2.79997015,-10.7718935,1,-1.304786325,1,-9.046372414,1,3.930305243,1,6.423519611,1,-2.952118397,1,0.284582853,1,-0.637999356,1,0.263746619,1
2.803971529,-11.56511211,1,-1.621877909,1,-9.013391495,1,3.816264868,1,6.318843842,1,-2.984151363,1,0.302948058,1,-0.610169768,1,0.258844107,1
2.807969332,-12.61758709,1,-1.90375793,1,-9.098994255,1,3.686916351,1,6.186075211,1,-3.047963381,1,0.320548952,1,-0.582663178,1,0.254245222,1
2.811968803,-13.87545586,1,-2.08689332,1,-9.23781395,1,3.553627729,1,6.020836353,1,-3.138337851,1,0.337471396,1,-0.555556357,1,0.249721661,1
2.815970659,-15.37232208,1,-2.084368944,1,-9.402506828,1,3.42679739,1,5.833801746,1,-3.263425589,1,0.353850543,1,-0.528907776,1,0.245040417,1
2.819968462,-16.94827652,1,-1.851541519,1,-9.462629318,1,3.30345583,1,5.625433445,1,-3.424831629,1,0.369795501,1,-0.502741277,1,0.239996329,1
2.823967934,-18.67989731,1,-1.632860422,1,-9.478865623,1,3.185587168,1,5.401311874,1,-3.61197257,1,0.385401756,1,-0.477050662,1,0.234395325,1
2.82796979,-20.31111145,1,-1.600169897,1,-9.151454926,1,3.058521748,1,5.163354874,1,-3.820473194,1,0.400709271,1,-0.451835871,1,0.22809355,1
2.831973314,-22.06007767,1,-1.538377523,1,-8.821447372,1,2.914445877,1,4.908722401,1,-4.029867172,1,0.415665329,1,-0.427109003,1,0.221009165,1
2.835972786,-23.84340477,1,-1.23320055,1,-8.227503777,1,2.747964859,1,4.644297123,1,-4.237661362,1,0.430176586,1,-0.402884394,1,0.213109836,1
2.839974642,-25.71683311,1,-0.207948625,1,-7.673621178,1,2.588472128,1,4.363992214,1,-4.444261074,1,0.444187611,1,-0.379207164,1,0.204344422,1
2.843972445,-27.39188766,1,0.630868912,1,-6.607599735,1,2.439796209,1,4.082204342,1,-4.65234375,1,0.457701921,1,-0.356069148,1,0.194676802,1
2.847972155,-28.40509224,1,1.515356898,1,-5.576226711,1,2.269683123,1,3.769130707,1,-4.835181713,1,0.470681578,1,-0.333517969,1,0.184120491,1
2.851973772,-29.14328194,1,2.763812542,1,-4.725099087,1,2.099920034,1,3.404033899,1,-4.968476295,1,0.483037829,1,-0.311758131,1,0.172700018,1
2.855971575,-29.82864571,1,4.744038582,1,-4.016197205,1,1.984374762,1,2.981359243,1,-5.076271534,1,0.494846404,1,-0.291033685,1,0.160393625,1
2.859971285,-30.73433876,1,6.80229044,1,-3.157229424,1,1.952669263,1,2.532110453,1,-5.120438099,1,0.506334484,1,-0.271564096,1,0.147270292,1
2.863973141,-31.82050514,1,8.668328285,1,-2.161345005,1,1.998760939,1,2.05820632,1,-5.099048138,1,0.517813385,1,-0.253537148,1,0.133456513,1
2.867970705,-33.54979706,1,9.528689384,1,-1.061545491,1,2.059691906,1,1.590404272,1,-5.025367737,1,0.529412389,1,-0.237078041,1,0.119119391,1
2.871970654,-35.3068924,1,9.697010994,1,0.340562105,1,2.09068346,1,1.149471283,1,-4.863477707,1,0.541054666,1,-0.222265616,1,0.104484752,1
2.875972271,-36.95754623,1,9.161053658,1,1.851660967,1,2.042385101,1,0.73118645,1,-4.617269516,1,0.552470982,1,-0.209188178,1,0.089879788,1
2.879970312,-37.96619797,1,7.641499996,1,3.529336691,1,1.890693784,1,0.356330514,1,-4.287478447,1,0.563255608,1,-0.197909668,1,0.075601235,1
2.883969784,-38.4527626,1,6.273909569,1,4.911474705,1,1.590432286,1,0.008159893,1,-3.875034332,1,0.572879851,1,-0.188506052,1,0.06195404,1
2.88797164,-38.80934143,1,5.777987957,1,6.174601078,1,1.196627617,1,-0.321726859,1,-3.411583662,1,0.580823898,1,-0.181083232,1,0.049164962,1
2.891969442,-38.82843018,1,5.77569294,1,7.44566679,1,0.76651907,1,-0.609927118,1,-2.89186573,1,0.586826086,1,-0.17569685,1,0.037411857,1
2.895969391,-38.37871552,1,6.240348339,1,8.41765976,1,0.36548382,1,-0.846826077,1,-2.323668718,1,0.590884387,1,-0.172331482,1,0.026942901,1
2.89997077,-37.78910065,1,7.052714825,1,8.839419365,1,0.049032167,1,-1.041644216,1,-1.743654847,1,0.593223214,1,-0.170933932,1,0.017948553,1
2.903968811,-36.7677269,1,7.644569397,1,9.05082798,1,-0.156920671,1,-1.186701775,1,-1.170881391,1,0.59424752,1,-0.171378329,1,0.010514289,1
2.907968283,-35.55647278,1,7.989030838,1,9.039134026,1,-0.280777365,1,-1.274455428,1,-0.626312137,1,0.594345629,1,-0.17346479,1,0.004702406,1
2.911970139,-34.26780701,1,7.751383781,1,8.725502968,1,-0.35343504,1,-1.335116625,1,-0.135432899,1,0.593811989,1,-0.17695871,1,0.000465586,1
2.915967703,-32.71950531,1,7.157669067,1,8.55022049,1,-0.397420049,1,-1.375047803,1,0.290161878,1,0.592806697,1,-0.181638107,1,-0.002353692,1
2.919967413,-30.80383682,1,6.502548695,1,8.289569855,1,-0.430474758,1,-1.402361155,1,0.654871821,1,0.591432691,1,-0.187319234,1,-0.003903699,1
2.923969269,-28.49848747,1,5.593492508,1,7.929339409,1,-0.451865911,1,-1.448561668,1,0.962640107,1,0.589759231,1,-0.193860263,1,-0.004379611,1
2.927967072,-25.91753197,1,4.690372467,1,7.574371815,1,-0.490659952,1,-1.495651841,1,1.189537644,1,0.587798119,1,-0.201153398,1,-0.004057554,1
2.931966543,-13.60672665,1,-10.18815231,1,-2.075592041,1,-0.999939442,1,-1.636823058,1,1.464475036,1,0.58509016,1,-0.209206164,1,-0.003145728,1
2.935968161,-13.16220856,1,-27.66443443,1,9.927016258,1,-4.858879089,1,-2.833166838,1,1.948436618,1,0.573534906,1,-0.220348701,1,-0.002121008,1
2.939965963,-24.76395035,1,4.056492805,1,11.48238659,1,-5.980388641,1,-3.240134716,1,2.439760447,1,0.550125301,1,-0.23554714,1,-0.001191075,1
2.943965673,22.38676262,1,4.743026257,1,-3.25900507,1,-4.897527695,1,-3.932247639,1,2.038643599,1,0.528582096,1,-0.252395779,1,-0.000759576,1
2.947967291,-7.247924328,1,6.874148846,1,-15.07975674,1,-4.989127159,1,-4.366586208,1,1.885984063,1,0.50897783,1,-0.270769507,1,-0.00231145,1
2.951964855,-8.678609848,1,6.067474365,1,-22.83841133,1,-4.250704765,1,-4.531658173,1,1.381785393,1,0.491448551,1,-0.289587677,1,-0.005111001,1
2.955970764,-6.482717037,1,-2.371793509,1,-35.27274323,1,-3.990270615,1,-4.692021847,1,1.216653109,1,0.476157993,1,-0.308309078,1,-0.00947444,1
2.95997262,-7.406596661,1,3.050775528,1,-30.68218994,1,-3.375025749,1,-5.040669441,1,1.472355604,1,0.463206202,1,-0.328010112,1,-0.013563213,1
2.963970423,-19.99171448,1,8.142460823,1,-34.44009399,1,-3.33238554,1,-5.445212841,1,2.042925835,1,0.450489551,1,-0.349983931,1,-0.016910126,1
2.967970133,-22.80648232,1,15.18246937,1,-32.62804794,1,-2.799704075,1,-5.354629993,1,2.735614777,1,0.438692123,1,-0.373589516,1,-0.01755424,1
2.971971512,-28.63471222,1,15.0992384,1,-29.81103706,1,-2.240530968,1,-5.02200222,1,3.419587851,1,0.427570313,1,-0.397758126,1,-0.014929597,1
2.975969315,-24.75931358,1,8.743099213,1,-27.39122772,1,-1.933460832,1,-4.462763786,1,3.895102978,1,0.416854411,1,-0.421025783,1,-0.008809147,1
2.979968786,-22.30212402,1,6.064363003,1,-20.93748474,1,-1.611194372,1,-3.986027718,1,4.134592056,1,0.406037211,1,-0.442987621,1,7.26E-05,1
2.983970404,-20.27249908,1,-0.549214602,1,-15.26904964,1,-1.453884125,1,-3.65621233,1,4.049036026,1,0.395499647,1,-0.463365316,1,0.010247277,1
2.987967968,-14.31308937,1,-5.221824646,1,-7.643759251,1,-1.515877724,1,-3.498848677,1,3.795440912,1,0.384969234,1,-0.482573986,1,0.020522023,1
2.991967678,-9.68044281,1,-6.524489403,1,-1.964299798,1,-1.663583875,1,-3.584817171,1,3.434283972,1,0.374201298,1,-0.501082599,1,0.029822171,1
2.995969296,-11.10482502,1,-7.32842207,1,-0.04107089,1,-1.906677842,1,-3.663825512,1,3.156744242,1,0.363178909,1,-0.519313514,1,0.03785618,1
2.99996686,-15.85247898,1,-6.353749275,1,-0.482072502,1,-2.176786423,1,-3.418121815,1,2.974839449,1,0.351222932,1,-0.536984324,1,0.045368895,1
3.00396657,-19.72470284,1,-3.223145008,1,-3.34819746,1,-2.433126688,1,-2.890087366,1,2.827959299,1,0.337955475,1,-0.552802086,1,0.053123768,1
3.007968426,-36.079319,1,2.597300291,1,-14.22054768,1,-2.601825476,1,-1.857481241,1,2.690177917,1,0.323212564,1,-0.565644145,1,0.061737362,1
3.011966467,-30.26000977,1,12.6616745,1,-16.37213326,1,-2.043871403,1,-0.535809517,1,2.391293526,1,0.308491588,1,-0.573062897,1,0.071469523,1
3.015965939,-6.287725925,1,9.806985855,1,-11.2016449,1,-1.493115902,1,-0.393417001,1,2.333700895,1,0.296005309,1,-0.577560306,1,0.081624471,1
3.019967794,-9.553063393,1,4.263144016,1,-12.13251877,1,-1.242514253,1,-0.209429711,1,1.933175564,1,0.285430014,1,-0.5812186,1,0.091074735,1
3.023965359,-5.517814636,1,-3.397925377,1,-9.8974123,1,-1.293700576,1,-0.258333534,1,1.434642673,1,0.276292861,1,-0.58388561,1,0.098459087,1
3.02796483,-9.63380909,1,-3.220643044,1,-10.71112537,1,-1.217134237,1,-0.280682296,1,1.262213707,1,0.268042833,1,-0.58646822,1,0.104272746,1
3.031966686,-16.7473793,1,-1.264478445,1,-10.79953766,1,-1.062618256,1,-0.07047502,1,1.14521575,1,0.260475188,1,-0.588349462,1,0.109669603,1
3.035964489,-2.148184538,1,-2.289190531,1,-8.672978401,1,-0.979503214,1,-0.286126822,1,0.960092187,1,0.253851175,1,-0.590067267,1,0.114367731,1
3.039964199,-5.854140282,1,-0.641864777,1,-11.75181866,1,-0.957262754,1,-0.36533922,1,0.846805215,1,0.247613311,1,-0.592030466,1,0.119705759,1
3.043965578,-8.332779884,1,1.995227933,1,-11.55071259,1,-0.793891788,1,-0.312538236,1,0.808149934,1,0.24219282,1,-0.594132483,1,0.123162188,1
3.047963381,-4.31901741,1,-1.947659731,1,-9.199710846,1,-0.731254756,1,-0.44048816,1,0.741832018,1,0.237355053,1,-0.596308351,1,0.126385391,1
3.051962852,-8.790564537,1,-4.22706461,1,-9.383506775,1,-0.746105373,1,-0.482749373,1,0.677231491,1,0.232833534,1,-0.598842144,1,0.129185438,1
3.055964708,-6.878586292,1,-4.284892559,1,-7.370947838,1,-0.757088006,1,-0.465713054,1,0.642672956,1,0.228391454,1,-0.60128969,1,0.131759256,1
3.059962511,-8.701925278,1,-1.612866998,1,-8.53110981,1,-0.747775793,1,-0.47178638,1,0.622791588,1,0.223925039,1,-0.603673458,1,0.13427788,1
3.06396246,-7.052157402,1,-1.202780366,1,-8.189191818,1,-0.67384994,1,-0.4156982,1,0.563807309,1,0.21975632,1,-0.605925202,1,0.136622235,1
3.067963839,-7.817467213,1,-0.746859431,1,-8.170054436,1,-0.60740006,1,-0.402034998,1,0.506014943,1,0.215986833,1,-0.608024538,1,0.138728172,1
3.071961641,-6.903058529,1,-0.051850885,1,-8.204854012,1,-0.548743367,1,-0.381645083,1,0.460955501,1,0.212573141,1,-0.609923661,1,0.140623882,1
3.075973034,-7.760064602,1,1.041740298,1,-8.423974037,1,-0.445411116,1,-0.390083313,1,0.372882009,1,0.209673181,1,-0.611799955,1,0.142226666,1
3.07998085,-7.070849419,1,1.594852686,1,-8.352378845,1,-0.351632416,1,-0.42498824,1,0.314922184,1,0.207371935,1,-0.613644123,1,0.143457308,1
3.083984613,-6.420742989,1,-0.360803485,1,-8.330001831,1,-0.285098583,1,-0.431224078,1,0.305312514,1,0.205494493,1,-0.615599751,1,0.14451012,1
3.087984324,-5.939545155,1,-2.635524035,1,-7.741953373,1,-0.253568023,1,-0.425719619,1,0.297460437,1,0.203830302,1,-0.617527068,1,0.145536914,1
3.091985941,-5.70468235,1,-3.2611866,1,-8.35091114,1,-0.268608242,1,-0.427590996,1,0.320613563,1,0.202182382,1,-0.619440079,1,0.146598116,1
3.095983505,-5.426583767,1,-2.710405588,1,-8.790433884,1,-0.284613997,1,-0.456989825,1,0.349927455,1,0.200379819,1,-0.621431291,1,0.147783101,1
3.099983215,-5.477572441,1,-2.000255346,1,-9.253811836,1,-0.269289702,1,-0.508559287,1,0.375333309,1,0.198479101,1,-0.623612642,1,0.149085343,1
3.103984833,-5.754332066,1,-2.426670313,1,-9.338475227,1,-0.239836887,1,-0.561686873,1,0.405435443,1,0.196677357,1,-0.626020551,1,0.150442824,1
3.107982635,-6.275837898,1,-2.790427923,1,-8.968746185,1,-0.211315319,1,-0.62013036,1,0.447383702,1,0.194887206,1,-0.628671527,1,0.151941106,1
3.111982107,-6.164506435,1,-3.070769072,1,-8.945973396,1,-0.201684564,1,-0.669689894,1,0.500440001,1,0.19307743,1,-0.631572843,1,0.153634295,1
3.115983963,-5.724829674,1,-2.84063983,1,-9.035597801,1,-0.214358613,1,-0.721749723,1,0.529221177,1,0.191166237,1,-0.63469696,1,0.155487761,1
3.119981527,-5.321808815,1,-2.445813417,1,-9.552121162,1,-0.221126661,1,-0.789201438,1,0.537129998,1,0.189169094,1,-0.638055265,1,0.157374591,1
3.123980999,-5.612251759,1,-1.135319233,1,-10.02744579,1,-0.187618136,1,-0.867882252,1,0.550447881,1,0.187195584,1,-0.641721308,1,0.159264892,1
3.127982855,-5.654155254,1,-1.787875414,1,-10.69069576,1,-0.178446919,1,-0.980906725,1,0.579636157,1,0.185322732,1,-0.645755887,1,0.161195457,1
3.131980658,-5.782114506,1,-2.817793369,1,-10.71397877,1,-0.304345042,1,-1.12399888,1,0.576950669,1,0.183214262,1,-0.650328517,1,0.163104624,1
3.135980606,-5.367473125,1,-2.735643148,1,-10.80576038,1,-0.346862793,1,-1.268085361,1,0.59204191,1,0.18081747,1,-0.655458093,1,0.164892554,1
3.139982224,-5.743832588,1,-0.86821872,1,-12.33671951,1,-0.25364092,1,-1.445884109,1,0.608536243,1,0.178453699,1,-0.661197543,1,0.16666764,1
3.143980026,-4.815781593,1,-3.859832048,1,-11.89562607,1,-0.335713059,1,-1.624748111,1,0.643530846,1,0.176272616,1,-0.667678475,1,0.168430239,1
3.147979498,-4.660261154,1,-1.864779472,1,-13.52233505,1,-0.371018678,1,-1.841513872,1,0.606244802,1,0.173791766,1,-0.674899757,1,0.170031741,1
3.151981115,-4.386822701,1,-2.659429789,1,-13.06263638,1,-0.344351351,1,-2.076882124,1,0.633304656,1,0.171577245,1,-0.683061838,1,0.17142871,1
3.155978441,-5.427525043,1,-2.430163622,1,-14.85171604,1,-0.385644317,1,-2.353480339,1,0.638268888,1,0.169244975,1,-0.692222059,1,0.172725827,1
3.159978151,-5.282561779,1,-3.739732265,1,-14.2224226,1,-0.490534961,1,-2.62882638,1,0.697385192,1,0.166682005,1,-0.702503264,1,0.173998788,1
3.163979769,-5.9900527,1,-4.283480644,1,-14.89833069,1,-0.633009255,1,-2.906430006,1,0.769864976,1,0.163518667,1,-0.713892579,1,0.175390691,1
3.167977571,-4.552986145,1,-3.726128101,1,-14.5059948,1,-0.704956591,1,-3.162977219,1,0.869634151,1,0.159722328,1,-0.726401091,1,0.177097812,1
3.171977043,-3.304245949,1,-4.47705555,1,-15.45733261,1,-0.740192235,1,-3.488533497,1,0.968283355,1,0.155380145,1,-0.740098417,1,0.179206818,1
3.175978422,-3.819144726,1,-4.567486763,1,-15.17881775,1,-0.755846143,1,-3.790399551,1,1.086637855,1,0.150731295,1,-0.755113959,1,0.181681558,1
3.179976225,-4.190587997,1,-5.101073265,1,-14.91474056,1,-0.813922763,1,-4.069421768,1,1.248489022,1,0.14531821,1,-0.771347642,1,0.18491818,1
3.183976173,-2.45293498,1,-4.797163963,1,-14.43419838,1,-0.823716879,1,-4.35175848,1,1.391744137,1,0.139219895,1,-0.788771987,1,0.188904941,1
3.187977791,-3.488356113,1,-4.708186626,1,-14.92740822,1,-0.799885035,1,-4.658641338,1,1.542239666,1,0.132515863,1,-0.807428718,1,0.193725482,1
3.191975355,-2.569851398,1,-5.318452835,1,-13.61798096,1,-0.821451068,1,-4.928465366,1,1.74366653,1,0.124993458,1,-0.827284932,1,0.199632972,1
3.195981026,-2.217405558,1,-5.707547188,1,-13.41497421,1,-0.851638377,1,-5.202835083,1,1.916542411,1,0.116268978,1,-0.848268151,1,0.206855059,1
3.199982882,-1.503567934,1,-5.146859646,1,-12.57756042,1,-0.85916537,1,-5.473582268,1,2.113546371,1,0.106301799,1,-0.870411754,1,0.215483263,1
3.203980446,-2.722193003,1,-5.118255615,1,-13.22824478,1,-0.872030139,1,-5.773086071,1,2.297534704,1,0.094956346,1,-0.8936885,1,0.225726351,1
3.207979918,-2.890907288,1,-4.727518082,1,-12.0621376,1,-0.940682888,1,-6.028066635,1,2.44426918,1,0.081967019,1,-0.918049097,1,0.237665519,1
3.211981773,-1.550356984,1,-3.90282011,1,-12.18857384,1,-0.991742551,1,-6.261193275,1,2.497816563,1,0.067236684,1,-0.943290532,1,0.251164168,1
3.215979576,-2.742357492,1,-1.613787651,1,-12.8113575,1,-0.949754536,1,-6.568108082,1,2.615884066,1,0.051104698,1,-0.96950084,1,0.266180754,1
3.219979048,-3.369416952,1,-1.499895096,1,-12.27788162,1,-0.933898091,1,-6.809100628,1,2.702084541,1,0.033054601,1,-0.996673703,1,0.283370197,1
3.223980904,-5.247635365,1,-1.351368189,1,-11.72331333,1,-0.962723553,1,-6.996131897,1,2.706697464,1,0.013021593,1,-1.024542212,1,0.302556336,1
3.227978468,-6.432438374,1,-0.859269798,1,-11.09274006,1,-1.000198483,1,-7.139708996,1,2.736451149,1,-0.009282256,1,-1.0528543,1,0.32387954,1
3.231978178,-4.153220177,1,-0.382440776,1,-10.77697372,1,-1.006838322,1,-7.278689861,1,2.793345213,1,-0.034547668,1,-1.081427693,1,0.348135173,1
3.235979795,-3.316370487,1,-0.324215174,1,-11.08917427,1,-0.962016523,1,-7.482852459,1,2.813666105,1,-0.06312754,1,-1.110342979,1,0.375817597,1
3.23997736,-6.804319382,1,1.88649416,1,-11.80883694,1,-0.845955193,1,-7.62042141,1,2.787307978,1,-0.095156759,1,-1.139598846,1,0.407293677,1
3.243977308,-11.08309174,1,2.39257884,1,-11.04324913,1,-0.706493676,1,-7.612318516,1,2.688332558,1,-0.130612716,1,-1.168703675,1,0.442664981,1
3.247978687,-11.48138905,1,2.817461252,1,-10.27492332,1,-0.55594033,1,-7.538232803,1,2.592871189,1,-0.169743374,1,-1.197096944,1,0.482226849,1
3.25197649,-9.257885933,1,1.843094945,1,-9.311148643,1,-0.427970141,1,-7.543712139,1,2.543019772,1,-0.213738561,1,-1.224725485,1,0.527105033,1
3.2559762,-8.001747131,1,2.918801069,1,-10.49893379,1,-0.278082371,1,-7.657433033,1,2.449733257,1,-0.264191717,1,-1.251888156,1,0.578959227,1
3.259977818,-9.994818687,1,3.233778715,1,-9.884840012,1,-0.05969562,1,-7.719819546,1,2.323211193,1,-0.322059155,1,-1.278597593,1,0.638891816,1
3.263975382,-11.99117851,1,2.788225174,1,-9.953367233,1,0.208730981,1,-7.679027557,1,2.215869665,1,-0.388878882,1,-1.304357886,1,0.708701611,1
3.267975092,-12.63800049,1,2.043770075,1,-9.892560005,1,0.403513908,1,-7.585867405,1,2.134362221,1,-0.466816902,1,-1.328536034,1,0.790492892,1
3.271976709,-13.63805008,1,0.756383955,1,-9.700306892,1,0.527611554,1,-7.472002506,1,2.06892252,1,-0.55891186,1,-1.350679994,1,0.887010038,1
3.275974512,-18.46282005,1,0.839186132,1,-8.52425766,1,0.6467067,1,-7.207794666,1,1.982621551,1,-0.66684705,1,-1.370130897,1,0.999788225,1
3.279974222,-21.50403404,1,2.380008459,1,-6.6710639,1,0.794293642,1,-6.81699276,1,1.887426257,1,-0.789354205,1,-1.385926723,1,1.127528429,1
3.283975601,-21.15331268,1,2.578175306,1,-3.687540293,1,0.939736664,1,-6.445278168,1,1.871274114,1,-0.923894882,1,-1.397681475,1,1.267778993,1
3.287973404,-24.80986214,1,0.589496732,1,-2.88314867,1,1.023359537,1,-5.945103645,1,1.802849889,1,-1.065457702,1,-1.405036807,1,1.415401936,1
3.291972876,-32.06199646,1,0.529286087,1,-2.83256793,1,0.983353555,1,-5.056221962,1,1.529150486,1,-1.19855392,1,-1.408285618,1,1.555699825,1
3.295974731,-25.43572617,1,-1.615789652,1,-0.665441394,1,0.881414413,1,-4.154325485,1,1.375435352,1,-1.312270641,1,-1.408520699,1,1.674746752,1
3.299972296,-17.39405441,1,-2.511888742,1,-0.014587413,1,0.543402731,1,-3.577040434,1,1.358533621,1,-1.407559037,1,-1.406376958,1,1.77424407,1
3.303971767,-12.40291977,1,-0.914522827,1,1.428231478,1,0.208467126,1,-3.233770132,1,1.302624583,1,-1.490482807,1,-1.40278554,1,1.859822154,1
3.307973623,-9.262619019,1,0.143107802,1,1.247004867,1,-0.046277184,1,-3.02736187,1,1.344009638,1,-1.564067125,1,-1.398012638,1,1.934815407,1
3.311971426,-10.32286072,1,0.901414812,1,1.441244006,1,-0.152191579,1,-2.82660675,1,1.34460187,1,-1.629778743,1,-1.392362833,1,2.001122952,1
3.315976858,-11.62679386,1,-2.91762495,1,-0.312171757,1,-0.220415711,1,-2.59785676,1,1.338959694,1,-1.686786771,1,-1.38602376,1,2.058331251,1
3.319978714,-21.05429459,1,-2.14571619,1,-5.965063572,1,-0.434100628,1,-2.060066938,1,1.187866449,1,-1.733626723,1,-1.379673839,1,2.104708672,1
3.323976517,-21.14092064,1,-0.41919592,1,-6.198317528,1,-0.643520653,1,-1.40299654,1,1.082374096,1,-1.765771031,1,-1.37408042,1,2.13525939,1
3.327976227,-23.76937103,1,3.854729652,1,-6.170044899,1,-0.713167429,1,-1.211799502,1,1.038910389,1,-1.78932929,1,-1.368822336,1,2.156480551,1
3.331978083,-26.64799881,1,2.236881256,1,-8.593919754,1,-0.588592291,1,-0.72044456,1,0.852223754,1,-1.806722403,1,-1.364221573,1,2.17155695,1
3.335975647,-16.70268631,1,-3.028098822,1,-7.48321867,1,-0.642490268,1,-0.26519835,1,0.709168017,1,-1.814071178,1,-1.360763192,1,2.17661953,1
3.339975357,-7.966435909,1,-3.669914007,1,-6.757817268,1,-0.826089025,1,-0.300385028,1,0.661806762,1,-1.818538189,1,-1.357889175,1,2.178183079,1
3.343976974,-6.400104046,1,-2.226718426,1,-5.994154453,1,-0.912727892,1,-0.63871491,1,0.743027866,1,-1.827061653,1,-1.354730129,1,2.183310747,1
3.3479743,-7.792574406,1,-2.411159039,1,-6.619147301,1,-0.919939041,1,-0.937713087,1,0.884171069,1,-1.840772152,1,-1.350769043,1,2.193606138,1
