Time,inertial-6253.76535:estCompensatedAccelX,inertial-6253.76535:estCompensatedAccelX:valid,inertial-6253.76535:estCompensatedAccelY,inertial-6253.76535:estCompensatedAccelY:valid,inertial-6253.76535:estCompensatedAccelZ,inertial-6253.76535:estCompensatedAccelZ:valid,inertial-6253.76535:estAngularRateX,inertial-6253.76535:estAngularRateX:valid,inertial-6253.76535:estAngularRateY,inertial-6253.76535:estAngularRateY:valid,inertial-6253.76535:estAngularRateZ,inertial-6253.76535:estAngularRateZ:valid,inertial-6253.76535:estRoll,inertial-6253.76535:estRoll:valid,inertial-6253.76535:estPitch,inertial-6253.76535:estPitch:valid,inertial-6253.76535:estYaw,inertial-6253.76535:estYaw:valid
0,-6.115308285,1,-2.995548248,1,-7.07244873,1,0.017183103,1,-0.011015339,1,-0.004551407,1,0.39199391,1,-0.716549635,1,-1.436277628,1
0.004001792,-6.122768879,1,-2.996643543,1,-7.077795982,1,0.016135426,1,-0.012889335,1,-0.00319498,1,0.392099738,1,-0.716584861,1,-1.436332107,1
0.007999744,-6.094804287,1,-3.035167456,1,-7.038336754,1,0.017919909,1,-0.010680492,1,-0.002196721,1,0.392205089,1,-0.716630399,1,-1.436381102,1
0.011999488,-6.099262238,1,-3.030323505,1,-7.089134216,1,0.01516975,1,-0.014181377,1,-0.006022441,1,0.392303824,1,-0.716668427,1,-1.436435699,1
0.01600128,-6.081724644,1,-3.004949808,1,-7.089154243,1,0.017947052,1,-0.011235186,1,-0.006013075,1,0.392410994,1,-0.716699541,1,-1.436488748,1
0.019999487,-6.09909296,1,-3.010869741,1,-7.078951836,1,0.017844694,1,-0.009903304,1,-0.002390766,1,0.392506301,1,-0.716735542,1,-1.436527491,1
0.023999233,-6.095449924,1,-3.017825842,1,-7.066651821,1,0.01590072,1,-0.008792867,1,-0.001636417,1,0.392582238,1,-0.716772437,1,-1.436558962,1
0.028001023,-6.115228653,1,-2.998386383,1,-7.079310417,1,0.014901341,1,-0.01466443,1,-0.000442176,1,0.39266625,1,-0.716814399,1,-1.43659389,1
0.031998977,-6.089515209,1,-2.99235177,1,-7.078919888,1,0.01113893,1,-0.013031462,1,-0.000466145,1,0.392746627,1,-0.716854811,1,-1.436632872,1
0.035998721,-6.099063873,1,-3.015693426,1,-7.110002995,1,0.01265479,1,-0.009389168,1,-0.006129325,1,0.392823517,1,-0.716892898,1,-1.436667681,1
0.040006913,-6.083508015,1,-3.039115667,1,-7.101049423,1,0.012722289,1,-0.014358587,1,0.00035008,1,0.392897189,1,-0.716936588,1,-1.436700821,1
0.044011265,-6.103916168,1,-3.01911974,1,-7.069395542,1,0.00897788,1,-0.013539433,1,-0.001076133,1,0.392959893,1,-0.716978073,1,-1.43672955,1
0.048011519,-6.139739513,1,-2.998300791,1,-7.079855919,1,0.012472365,1,-0.009289152,1,0.002647143,1,0.393029153,1,-0.717023849,1,-1.436755896,1
0.052013312,-6.101085663,1,-2.984931946,1,-7.063127041,1,0.014989344,1,-0.014775747,1,-0.000154893,1,0.393102258,1,-0.717065156,1,-1.436783075,1
0.056011263,-6.108108997,1,-3.028693199,1,-7.063866615,1,0.013884102,1,-0.012525651,1,0.002584324,1,0.39317131,1,-0.717115104,1,-1.436802626,1
0.060011007,-6.119574547,1,-3.022761583,1,-7.056337833,1,0.012707233,1,-0.013137453,1,0.000425485,1,0.39323616,1,-0.717150211,1,-1.436821461,1
0.064012803,-6.136851311,1,-2.995830059,1,-7.078390598,1,0.009109705,1,-0.014123694,1,0.004350299,1,0.393288702,1,-0.71719861,1,-1.436839223,1
0.068010755,-6.14721489,1,-2.989673615,1,-7.079911232,1,0.012306258,1,-0.010854831,1,1.95E-05,1,0.393348247,1,-0.717239976,1,-1.436858773,1
0.072010495,-6.129619122,1,-2.965169907,1,-7.057375908,1,0.00957549,1,-0.007973241,1,0.002912541,1,0.393401384,1,-0.717276096,1,-1.436870337,1
0.076012544,-6.104406357,1,-3.025898457,1,-7.051510811,1,0.014674136,1,-0.006082857,1,-0.001997562,1,0.393451214,1,-0.717309117,1,-1.436882615,1
0.080010496,-6.135978222,1,-2.965465307,1,-7.071767807,1,0.012654084,1,-0.006940829,1,0.000736793,1,0.393515974,1,-0.717329264,1,-1.436903715,1
0.084010497,-6.099542141,1,-2.98137641,1,-7.047977448,1,0.012770783,1,-0.008910893,1,-0.000141133,1,0.39357695,1,-0.717355967,1,-1.436924577,1
0.088012546,-6.144481182,1,-2.974025726,1,-7.115644932,1,0.012692024,1,-0.007620647,1,-0.000619716,1,0.393635094,1,-0.717384219,1,-1.436941385,1
0.092010498,-6.116664886,1,-2.960880995,1,-7.083959103,1,0.013675841,1,-0.011256597,1,0.001440187,1,0.393705547,1,-0.717406511,1,-1.436964154,1
0.096010499,-6.106032848,1,-2.946987391,1,-7.078498363,1,0.017502017,1,-0.014172005,1,-0.00317712,1,0.39378649,1,-0.717446446,1,-1.436998129,1
0.100012287,-6.119597912,1,-2.969536066,1,-7.071359634,1,0.014921233,1,-0.008592297,1,-0.005206711,1,0.393881023,1,-0.717474103,1,-1.437045813,1
0.104009986,-6.106659889,1,-2.956353664,1,-7.078963757,1,0.019192973,1,-0.008841231,1,-0.008206488,1,0.393981874,1,-0.717502475,1,-1.437093496,1
0.108009726,-6.089128494,1,-2.984596968,1,-7.10224247,1,0.018474683,1,-0.012779339,1,-0.009944996,1,0.394105196,1,-0.71753931,1,-1.437162757,1
0.112011775,-6.097537518,1,-2.979768991,1,-7.106359959,1,0.020855596,1,-0.015731543,1,-0.009581457,1,0.394236743,1,-0.717572629,1,-1.437235951,1
0.11600998,-6.096945763,1,-2.956553698,1,-7.123753548,1,0.017387055,1,-0.01525551,1,-0.012183176,1,0.394368738,1,-0.717614889,1,-1.437319994,1
0.120010242,-6.091504574,1,-2.973793983,1,-7.120546341,1,0.02573153,1,-0.018032931,1,-0.009137592,1,0.394521534,1,-0.71765995,1,-1.437405467,1
0.124012031,-6.112772465,1,-2.97024107,1,-7.089800358,1,0.027641248,1,-0.017041963,1,-0.012203823,1,0.394681871,1,-0.717709661,1,-1.437491179,1
0.12800999,-6.106352329,1,-2.991801262,1,-7.102922916,1,0.023610758,1,-0.017844854,1,-0.014617524,1,0.39485237,1,-0.717750907,1,-1.437590003,1
0.13200973,-6.140046597,1,-3.005015135,1,-7.115550518,1,0.025799202,1,-0.0232026,1,-0.010172193,1,0.395024031,1,-0.717808485,1,-1.437690735,1
0.136011526,-6.108485222,1,-3.012531281,1,-7.084532738,1,0.023328606,1,-0.019150114,1,-0.012766887,1,0.395198017,1,-0.717858195,1,-1.437790155,1
0.140009478,-6.142127991,1,-3.042581081,1,-7.054141998,1,0.022604031,1,-0.022690769,1,-0.010268839,1,0.395368874,1,-0.717910111,1,-1.437891483,1
0.144009218,-6.129521847,1,-3.031154871,1,-7.053097725,1,0.025384573,1,-0.018908519,1,-0.012668836,1,0.395541817,1,-0.717960596,1,-1.437991738,1
0.148011267,-6.127182961,1,-3.039491177,1,-7.031153679,1,0.026291979,1,-0.015719473,1,-0.011400579,1,0.395707905,1,-0.718009055,1,-1.438089848,1
0.152009219,-6.13796854,1,-3.039764881,1,-7.046615124,1,0.023034483,1,-0.016036484,1,-0.01044019,1,0.395863116,1,-0.718055487,1,-1.438178778,1
0.156009212,-6.120049477,1,-3.005554914,1,-7.055849075,1,0.02344723,1,-0.016059924,1,-0.00888774,1,0.396008223,1,-0.718101084,1,-1.43826282,1
0.160017148,-6.136318207,1,-3.031276226,1,-7.063670635,1,0.0225251,1,-0.014720768,1,-0.009324344,1,0.396154702,1,-0.718147635,1,-1.438343644,1
0.164021254,-6.106293201,1,-3.057039976,1,-7.054930687,1,0.024332015,1,-0.01509769,1,-0.006771542,1,0.39629221,1,-0.718188941,1,-1.438421249,1
0.168021247,-6.137061119,1,-3.031010151,1,-7.03869915,1,0.023350542,1,-0.013910944,1,-0.008073882,1,0.396604002,1,-0.716928065,1,-1.43872726,1
0.172023296,-6.118173599,1,-3.073824167,1,-7.055190086,1,0.018586116,1,-0.015451065,1,-0.008256829,1,0.396674335,1,-0.716968536,1,-1.438329339,1
0.176021501,-6.128242016,1,-3.035004616,1,-7.049675465,1,0.024433874,1,-0.01667596,1,-0.009685142,1,0.396804482,1,-0.717008829,1,-1.438393354,1
0.18002151,-6.090887547,1,-3.049473763,1,-7.048630238,1,0.019345071,1,-0.013698083,1,-0.005093751,1,0.396929443,1,-0.717054904,1,-1.438459396,1
0.184023291,-6.103752613,1,-3.047304869,1,-7.052827358,1,0.016064072,1,-0.013072551,1,-0.005877132,1,0.397041976,1,-0.717093408,1,-1.438512921,1
0.188021243,-6.118700027,1,-3.034566402,1,-7.0684762,1,0.018671393,1,-0.01426185,1,-0.002197552,1,0.397134185,1,-0.717140794,1,-1.438556671,1
0.192021251,-6.130300999,1,-3.072435379,1,-7.057362556,1,0.015640568,1,-0.013332092,1,-0.004861375,1,0.397237837,1,-0.717180133,1,-1.438609838,1
0.196023047,-6.113363743,1,-3.04496932,1,-7.054761887,1,0.017417302,1,-0.01151425,1,-0.001605303,1,0.397339374,1,-0.717217922,1,-1.43865633,1
0.20002073,-6.116747379,1,-3.02171731,1,-7.03735733,1,0.017000664,1,-0.008145132,1,-0.001626729,1,0.397416234,1,-0.717257023,1,-1.438687086,1
0.204020739,-6.137611866,1,-3.034114838,1,-7.02845192,1,0.013884092,1,-0.008136106,1,-0.002834803,1,0.39749676,1,-0.717290878,1,-1.438719273,1
0.208022535,-6.09291172,1,-3.038812399,1,-7.037520885,1,0.010156148,1,-0.009886016,1,-0.001752628,1,0.397556722,1,-0.717322111,1,-1.438736558,1
0.21202074,-6.096182823,1,-3.044074297,1,-7.053916454,1,0.010022326,1,-0.007507432,1,0.001344805,1,0.397616208,1,-0.71736449,1,-1.438759208,1
0.21602048,-6.1032691,1,-3.051218987,1,-7.034310341,1,0.008245143,1,-0.010249043,1,0.000276168,1,0.397668898,1,-0.717395246,1,-1.43877244,1
0.220022276,-6.084283352,1,-3.047890663,1,-7.06424284,1,0.01299034,1,-0.00908632,1,0.000612025,1,0.397729129,1,-0.717429399,1,-1.438794613,1
0.224020228,-6.108516216,1,-3.049814701,1,-7.044849396,1,0.00823902,1,-0.009242844,1,-0.000802145,1,0.39778465,1,-0.717470706,1,-1.438814759,1
0.228019968,-6.125596046,1,-3.040245295,1,-7.034360409,1,0.007498323,1,-0.009337268,1,0.005134322,1,0.397825748,1,-0.717513144,1,-1.438827038,1
0.232021764,-6.077890873,1,-3.04370451,1,-7.063929558,1,0.007794191,1,-0.011279656,1,0.00390167,1,0.397866011,1,-0.717555344,1,-1.438835859,1
0.236019716,-6.115620613,1,-3.077253342,1,-7.019313812,1,0.008552137,1,-0.010314077,1,0.004909151,1,0.397902071,1,-0.717600703,1,-1.438849092,1
0.240019456,-6.121208191,1,-3.0459373,1,-7.046817303,1,0.008482339,1,-0.013196126,1,-0.000276043,1,0.397945166,1,-0.717642963,1,-1.438856244,1
0.244021505,-6.114030838,1,-3.027764082,1,-7.054474831,1,0.008928325,1,-0.010126466,1,0.004535278,1,0.397978097,1,-0.717685819,1,-1.438857794,1
0.248019457,-6.116670609,1,-3.031357765,1,-7.06037569,1,0.007022657,1,-0.010865551,1,0.006317965,1,0.39801529,1,-0.717733502,1,-1.438865662,1
0.252019197,-6.106712341,1,-3.031800508,1,-7.054998875,1,0.009842124,1,-0.010842966,1,0.001075493,1,0.398044229,1,-0.717773914,1,-1.438867569,1
0.256021261,-6.143545628,1,-2.985675097,1,-7.078426838,1,0.008527,1,-0.012115519,1,0.001327863,1,0.398095667,1,-0.717817605,1,-1.438883781,1
0.260019213,-6.151814938,1,-3.016741514,1,-7.053733349,1,0.010309055,1,-0.00496031,1,1.24E-05,1,0.39814043,1,-0.717856586,1,-1.438889027,1
0.264018953,-6.16832304,1,-3.002599478,1,-7.040793896,1,0.011077839,1,-0.00738057,1,0.002368754,1,0.398184776,1,-0.717887521,1,-1.438900948,1
0.268020749,-6.156242847,1,-3.032301903,1,-7.075232983,1,0.00884184,1,-0.009045922,1,0.001861155,1,0.398230135,1,-0.717920661,1,-1.438905954,1
0.272018701,-6.099928856,1,-3.01718688,1,-7.036696434,1,0.009518879,1,-0.007533906,1,0.000345409,1,0.398267865,1,-0.717953503,1,-1.438912988,1
0.276018679,-6.129998684,1,-3.013822079,1,-7.038909912,1,0.009872256,1,-0.003435242,1,0.003612042,1,0.398320913,1,-0.717972338,1,-1.438928246,1
0.280026615,-6.105930328,1,-3.043120146,1,-7.047194004,1,0.011893685,1,-0.008761657,1,0.00211793,1,0.398365527,1,-0.718005121,1,-1.438929081,1
0.284030467,-6.155211926,1,-3.066182375,1,-7.027259827,1,0.009033022,1,-0.006149677,1,0.005052138,1,0.398417711,1,-0.718035698,1,-1.438946843,1
0.288030475,-6.12609148,1,-3.024000645,1,-7.033067226,1,0.010471998,1,-0.008300937,1,0.001828384,1,0.398456097,1,-0.718061686,1,-1.438960552,1
0.29203251,-6.10640955,1,-3.000344515,1,-7.035283566,1,0.01162347,1,-0.004362733,1,0.00126306,1,0.398509622,1,-0.718085349,1,-1.438967228,1
0.296030462,-6.082413197,1,-3.014462471,1,-7.058597565,1,0.010080979,1,-0.011493625,1,-0.000723181,1,0.398566395,1,-0.718118072,1,-1.438990831,1
0.30003047,-6.092103004,1,-3.016286135,1,-7.070624828,1,0.012254243,1,-0.010996819,1,0.001748015,1,0.398623973,1,-0.718151212,1,-1.439004183,1
0.304032266,-6.110226154,1,-3.006807089,1,-7.081703663,1,0.016030492,1,-0.010747836,1,-0.000784977,1,0.398683071,1,-0.718191624,1,-1.439020157,1
0.30802995,-6.118374348,1,-3.023769617,1,-7.046055317,1,0.015198409,1,-0.010215753,1,0.000302124,1,0.398771018,1,-0.718231738,1,-1.439053535,1
0.31202969,-6.112577915,1,-3.026271582,1,-7.087886333,1,0.016835993,1,-0.014321147,1,-0.002492947,1,0.398853779,1,-0.71827364,1,-1.439085484,1
0.316031486,-6.155400276,1,-3.010848284,1,-7.043478489,1,0.014843576,1,-0.011437678,1,-0.000949147,1,0.398948938,1,-0.718325436,1,-1.43913126,1
0.320029438,-6.111718178,1,-2.981658936,1,-7.060839653,1,0.017223129,1,-0.016281893,1,-0.000178742,1,0.399036348,1,-0.718371689,1,-1.439166903,1
0.324029446,-6.119281769,1,-3.018788338,1,-7.047852993,1,0.015326249,1,-0.013118172,1,-0.004527965,1,0.399134099,1,-0.718421698,1,-1.439214945,1
0.328031242,-6.143835068,1,-3.026221514,1,-7.035344601,1,0.017486205,1,-0.013602206,1,-0.001465069,1,0.399239242,1,-0.718470514,1,-1.439268947,1
0.332029194,-6.140598774,1,-3.053915739,1,-7.044514179,1,0.0155038,1,-0.009988134,1,-0.003329805,1,0.399330318,1,-0.718515694,1,-1.439307928,1
0.336028934,-6.15191555,1,-3.043169975,1,-7.045013905,1,0.018373502,1,-0.013760293,1,-0.005474862,1,0.399424613,1,-0.718561292,1,-1.439354062,1
0.34003073,-6.134042263,1,-3.074802399,1,-7.039700985,1,0.017017027,1,-0.011006302,1,-0.002423258,1,0.399520993,1,-0.718604028,1,-1.439396739,1
0.344028682,-6.143503189,1,-3.05632472,1,-7.017977238,1,0.01375484,1,-0.009238067,1,-0.001003937,1,0.399600208,1,-0.718644142,1,-1.439424872,1
0.348028421,-6.108797073,1,-3.034197569,1,-7.031674862,1,0.012538771,1,-0.012094617,1,-0.003223562,1,0.399671465,1,-0.718680739,1,-1.439448476,1
0.352030218,-6.133542538,1,-3.037369728,1,-7.031028748,1,0.015865065,1,-0.008354533,1,-0.004047906,1,0.399742782,1,-0.718713164,1,-1.439472079,1
0.356028169,-6.133793831,1,-3.030706644,1,-7.024146557,1,0.014141786,1,-0.009286065,1,-0.002819986,1,0.399818122,1,-0.718741417,1,-1.439508438,1
0.360027909,-6.101893902,1,-3.044473171,1,-7.046540737,1,0.010606279,1,-0.007867399,1,-0.003420799,1,0.39989537,1,-0.718767285,1,-1.439539909,1
0.364029706,-6.134610176,1,-3.042170525,1,-7.026032448,1,0.014952573,1,-0.008760526,1,-0.002436574,1,0.399961919,1,-0.718797147,1,-1.439563155,1
0.368027657,-6.109004498,1,-3.019318104,1,-7.024143219,1,0.016297979,1,-0.008738591,1,-0.001412345,1,0.400040865,1,-0.718823135,1,-1.439597368,1
0.372027397,-6.096193314,1,-3.066785097,1,-7.023013115,1,0.015997719,1,-0.010061816,1,-0.000381107,1,0.400115967,1,-0.718851388,1,-1.43962419,1
0.376029193,-6.11201334,1,-3.045865297,1,-7.028156281,1,0.012907906,1,-0.007237197,1,-0.000416219,1,0.400189519,1,-0.718882799,1,-1.439655542,1
0.380026877,-6.125626087,1,-3.066905975,1,-7.057670116,1,0.012783169,1,-0.011280033,1,-0.001110773,1,0.400254637,1,-0.718918741,1,-1.439674854,1
0.384026617,-6.119616508,1,-3.051142693,1,-7.079457283,1,0.011310114,1,-0.008870677,1,-0.000367519,1,0.400323898,1,-0.718950033,1,-1.439699411,1
0.388028413,-6.132437706,1,-2.998656988,1,-7.050546169,1,0.010889142,1,-0.009418376,1,-0.003142862,1,0.400386781,1,-0.718980908,1,-1.439723969,1
0.392026126,-6.148273945,1,-3.067229033,1,-7.053759575,1,0.013080405,1,-0.008047421,1,-0.001884365,1,0.400464863,1,-0.719015479,1,-1.439754844,1
0.396025866,-6.147783279,1,-3.062940836,1,-7.031973362,1,0.011936657,1,-0.007569696,1,-0.000266855,1,0.400521934,1,-0.719055653,1,-1.439766884,1
0.400033802,-6.124773979,1,-3.060649157,1,-7.046947956,1,0.013550642,1,-0.011450609,1,-0.003414121,1,0.400589675,1,-0.719081879,1,-1.439792633,1
0.404037625,-6.13749361,1,-3.035984516,1,-7.037723064,1,0.010590457,1,-0.010741239,1,0.001655039,1,0.400653303,1,-0.719111621,1,-1.439815879,1
0.408037901,-6.128709316,1,-3.055189371,1,-7.025821686,1,0.010632057,1,-0.006380769,1,0.000823356,1,0.400711834,1,-0.71914804,1,-1.439835548,1
0.412039936,-6.145558357,1,-3.063167572,1,-7.025897026,1,0.014321227,1,-0.005838437,1,-0.002749848,1,0.400762558,1,-0.719172835,1,-1.439847827,1
0.416038156,-6.130831718,1,-3.081516027,1,-6.997186661,1,0.010041486,1,-0.007733254,1,-0.001737224,1,0.400816858,1,-0.719198704,1,-1.439860106,1
0.420037895,-6.151766777,1,-3.051262617,1,-7.031962872,1,0.009142624,1,-0.006144967,1,0.001330763,1,0.401024759,1,-0.71795094,1,-1.439620137,1
0.424039692,-6.101534367,1,-3.07475996,1,-7.03098917,1,0.010634269,1,-0.006240604,1,9.39E-05,1,0.401074439,1,-0.717974067,1,-1.439628005,1
0.428037643,-6.103818417,1,-3.089115858,1,-7.066752911,1,0.008996808,1,-0.00937846,1,0.002702541,1,0.401110798,1,-0.718005836,1,-1.439628839,1
0.432037383,-6.105113983,1,-3.089663506,1,-7.03051424,1,0.00653159,1,-0.005613682,1,0.00371787,1,0.401143849,1,-0.718030035,1,-1.439629316,1
0.43603918,-6.135117054,1,-3.088192463,1,-7.037975788,1,0.006787742,1,-0.005055771,1,0.004255092,1,0.40116021,1,-0.718065441,1,-1.439615607,1
0.440037131,-6.107224941,1,-3.023951054,1,-7.015682697,1,0.005768331,1,-0.006990267,1,0.004570161,1,0.401191711,1,-0.718094945,1,-1.439617753,1
0.444036871,-6.114648819,1,-3.059063196,1,-7.025242805,1,0.006577302,1,-0.008220571,1,0.005051312,1,0.401213348,1,-0.718129933,1,-1.439608097,1
0.448038667,-6.113142014,1,-3.04693532,1,-7.044092655,1,0.008180593,1,-0.005928449,1,0.002569875,1,0.401240706,1,-0.718165517,1,-1.43960619,1
0.452036619,-6.101791859,1,-3.028541565,1,-7.019460678,1,0.007192942,1,-0.004096736,1,0.005039691,1,0.401267946,1,-0.718198299,1,-1.439603686,1
0.456036359,-6.117645264,1,-3.04153204,1,-7.050974846,1,0.005942664,1,-0.011621685,1,0.003073684,1,0.40129903,1,-0.718232751,1,-1.439606309,1
0.460038155,-6.111925125,1,-3.045964718,1,-7.047896385,1,0.009281152,1,-0.007687776,1,-0.000387043,1,0.401333869,1,-0.718265116,1,-1.439612031,1
0.464036107,-6.127080917,1,-3.003968954,1,-7.022499084,1,0.005391427,1,-0.005647916,1,0.001696919,1,0.401377231,1,-0.718292713,1,-1.439625025,1
0.468035579,-6.110281944,1,-3.008730173,1,-7.038203716,1,0.006202545,1,-0.009013002,1,0.002428876,1,0.401406586,1,-0.718324423,1,-1.439628124,1
0.472037375,-6.145245075,1,-3.040163517,1,-7.037654877,1,0.007317104,1,-0.011501131,1,0.002569952,1,0.401448309,1,-0.718367577,1,-1.439637661,1
0.476035058,-6.168485641,1,-3.047426939,1,-7.062995434,1,0.012623984,1,-0.009914174,1,0.000760887,1,0.401491791,1,-0.718401074,1,-1.43964529,1
0.480035067,-6.124930859,1,-3.069858789,1,-7.040151119,1,0.009465983,1,-0.010598099,1,-0.003577024,1,0.401550978,1,-0.718433261,1,-1.439662337,1
0.484036863,-6.126748562,1,-3.085145235,1,-7.0410676,1,0.010776315,1,-0.003799436,1,0.001131586,1,0.401597559,1,-0.718468726,1,-1.439681053,1
0.488034546,-6.151552677,1,-3.084005833,1,-7.021060467,1,0.013231419,1,-0.0068552,1,0.000408951,1,0.40165484,1,-0.718491077,1,-1.439694524,1
0.492034316,-6.136347294,1,-3.028739691,1,-7.033640862,1,0.00503879,1,-0.007228565,1,0.004787061,1,0.401694059,1,-0.718526065,1,-1.439703941,1
0.496036083,-6.110220432,1,-3.071805716,1,-7.043381214,1,0.008017595,1,-0.009852313,1,0.000456871,1,0.401733816,1,-0.718562484,1,-1.439710736,1
0.500034034,-6.111200333,1,-3.041786432,1,-7.00213623,1,0.004997674,1,-0.008147533,1,0.002187242,1,0.401767492,1,-0.718588591,1,-1.439715862,1
0.504033804,-6.155601501,1,-3.053782463,1,-7.021555901,1,0.007483404,1,-0.003005195,1,-0.001910276,1,0.401804864,1,-0.718615234,1,-1.439728498,1
0.5080356,-6.100576401,1,-3.029226065,1,-7.037174702,1,0.006893712,1,-0.006789388,1,0.000851917,1,0.401843011,1,-0.718638062,1,-1.439734697,1
0.512033522,-6.103551388,1,-3.063205957,1,-7.046867847,1,0.008487004,1,-0.00605951,1,-0.000466782,1,0.401883215,1,-0.718661547,1,-1.439744711,1
0.516033292,-6.15284729,1,-3.049068213,1,-7.050095081,1,0.009205066,1,-0.005540184,1,0.000647655,1,0.401918232,1,-0.7186746,1,-1.439747453,1
0.520041227,-6.134395599,1,-3.033197403,1,-7.023564816,1,0.007754815,1,-0.005558712,1,-0.001330148,1,0.401948988,1,-0.718697727,1,-1.439748764,1
0.524045289,-6.121114731,1,-3.052137613,1,-7.029123783,1,0.003673144,1,-0.007450464,1,-0.000139649,1,0.401992917,1,-0.718720078,1,-1.43976295,1
0.528045297,-6.137598991,1,-3.059807539,1,-7.013884068,1,0.008405669,1,-0.001556115,1,0.00054105,1,0.402017623,1,-0.718738258,1,-1.439766169,1
0.532047093,-6.167887211,1,-3.076298714,1,-7.023057461,1,0.007819044,1,-0.000702298,1,0.000568055,1,0.40204668,1,-0.718749285,1,-1.439769149,1
0.536045074,-6.134837151,1,-3.030727625,1,-7.018522263,1,0.003553655,1,-0.002291535,1,0.006369864,1,0.40207231,1,-0.718761802,1,-1.439770937,1
0.540044785,-6.136023521,1,-3.034613371,1,-7.045352459,1,0.00513965,1,-0.000465448,1,-1.65E-05,1,0.402090967,1,-0.718771815,1,-1.439766169,1
0.544046819,-6.125616074,1,-3.048457146,1,-6.996329308,1,0.006341392,1,-0.00349365,1,0.001494894,1,0.402107626,1,-0.718780279,1,-1.439761758,1
0.548044801,-6.156014919,1,-3.075798273,1,-7.0158391,1,0.00578458,1,0.001463225,1,-0.000709603,1,0.402125418,1,-0.718782008,1,-1.439759851,1
0.55204457,-6.124013901,1,-3.061799288,1,-7.046739101,1,0.004600686,1,-0.003857887,1,0.000599181,1,0.402139336,1,-0.718779683,1,-1.439752698,1
0.556046605,-6.125988483,1,-3.061808348,1,-7.003056049,1,0.004295798,1,-0.003879664,1,-0.004321953,1,0.40215987,1,-0.718792915,1,-1.439751148,1
0.560044825,-6.149700642,1,-3.041615486,1,-7.05081749,1,0.002111623,1,0.001209371,1,0.003110189,1,0.402174741,1,-0.718789876,1,-1.439746618,1
0.564044297,-6.151836872,1,-3.066167355,1,-7.033658028,1,0.005833844,1,0.00088555,1,-0.004392014,1,0.402188838,1,-0.718793094,1,-1.439736605,1
0.568046093,-6.131222248,1,-3.072099447,1,-7.046698093,1,0.001382455,1,0.000880463,1,0.003503822,1,0.402205616,1,-0.718796253,1,-1.439737558,1
0.572044015,-6.126818657,1,-3.060299873,1,-7.038716793,1,0.00328792,1,0.001103682,1,-0.005086888,1,0.402223229,1,-0.718798041,1,-1.4397434,1
0.576043785,-6.103761673,1,-3.03700614,1,-7.047533989,1,0.002985622,1,-0.001325749,1,-0.001182821,1,0.402240217,1,-0.718795419,1,-1.439745784,1
0.580045581,-6.141359329,1,-3.056326389,1,-7.019556046,1,0.00380288,1,-0.000231838,1,0.000888901,1,0.402248621,1,-0.718799829,1,-1.439741969,1
0.584043264,-6.137576103,1,-3.037539005,1,-7.03249836,1,0.005009721,1,0.002842302,1,0.000162636,1,0.402270854,1,-0.718800843,1,-1.439737201,1
0.588043034,-6.152852535,1,-3.071012735,1,-7.018990517,1,0.00298187,1,0.001660263,1,0.005066213,1,0.402276307,1,-0.718797445,1,-1.439725399,1
0.592044771,-6.153703213,1,-3.057678938,1,-7.007450581,1,0.000171217,1,0.001942612,1,-1.68E-05,1,0.402285755,1,-0.718794882,1,-1.439715505,1
0.596042514,-6.106609344,1,-3.063757896,1,-7.008841038,1,0.003464167,1,0.003152652,1,-0.001392332,1,0.402293563,1,-0.71878171,1,-1.439709425,1
0.600042522,-6.139752865,1,-3.050395727,1,-7.021115303,1,0.001124492,1,0.004841171,1,0.005526482,1,0.402283579,1,-0.718771875,1,-1.439687729,1
0.604044259,-6.138502598,1,-3.076191187,1,-7.025468826,1,0.001870689,1,0.006290032,1,0.003655984,1,0.402271867,1,-0.718763947,1,-1.439660668,1
0.60804224,-6.128799438,1,-3.028315306,1,-7.048236847,1,0.002296314,1,0.004751879,1,0.002161067,1,0.402262002,1,-0.718743265,1,-1.439630985,1
0.61204201,-6.094674587,1,-3.054712534,1,-7.029373169,1,0.001668031,1,0.003584323,1,0.002039567,1,0.402254581,1,-0.71872735,1,-1.43961668,1
0.616043746,-6.090691566,1,-3.015511274,1,-7.033738136,1,0.003518423,1,0.005413942,1,-0.004101163,1,0.402260631,1,-0.718715489,1,-1.439599156,1
0.620041728,-6.098352432,1,-3.061510563,1,-7.045174122,1,0.000454455,1,0.001516819,1,-0.00225731,1,0.402267516,1,-0.718699157,1,-1.439593911,1
0.624041498,-6.074774265,1,-3.069911718,1,-7.023537636,1,0.004393956,1,0.001437558,1,0.002432619,1,0.402274489,1,-0.718684435,1,-1.439586282,1
0.628043234,-6.065912247,1,-3.106205225,1,-7.038114071,1,0.003266801,1,0.001012955,1,-0.001053973,1,0.402276933,1,-0.718674779,1,-1.439572573,1
0.632041216,-6.084748268,1,-3.070750475,1,-7.041811466,1,0.007157462,1,0.000636684,1,0.001084574,1,0.402292758,1,-0.718678713,1,-1.439570427,1
0.636040986,-6.072064877,1,-3.057898521,1,-7.018401146,1,0.00046121,1,-0.00137843,1,0.00281897,1,0.402303785,1,-0.718678892,1,-1.439566016,1
0.64004916,-6.154201031,1,-3.060382843,1,-7.04151392,1,-0.000911927,1,-0.002509377,1,0.001231701,1,0.40230757,1,-0.718680978,1,-1.439555168,1
0.644053221,-6.134796619,1,-3.040953636,1,-7.08001709,1,0.003478653,1,0.001118938,1,0.000498702,1,0.40231517,1,-0.718690038,1,-1.4395504,1
0.648053527,-6.106066704,1,-3.029045582,1,-7.031405926,1,0.006014597,1,-0.003854978,1,0.001291581,1,0.402337849,1,-0.71869266,1,-1.439553618,1
0.652055323,-6.125799179,1,-3.05748415,1,-7.068499088,1,0.006094696,1,-0.003006086,1,0.000876821,1,0.402362287,1,-0.718697965,1,-1.439558625,1
0.656053245,-6.122135162,1,-3.055907249,1,-7.040437222,1,0.002890027,1,-0.002279983,1,0.002133889,1,0.402375609,1,-0.718697667,1,-1.439553499,1
0.660052717,-6.125788689,1,-3.06282258,1,-7.030860424,1,0.00458423,1,0.000532284,1,0.002138355,1,0.402396381,1,-0.71870774,1,-1.439555764,1
0.664054513,-6.125796318,1,-3.06658268,1,-7.045582771,1,0.008452951,1,-0.001797782,1,-0.003560186,1,0.402415663,1,-0.718712509,1,-1.439553976,1
0.668052197,-6.122025967,1,-3.082080603,1,-7.00552845,1,0.004583295,1,0.000532066,1,-0.001651162,1,0.402643025,1,-0.717443883,1,-1.439668655,1
0.672051966,-6.107824326,1,-3.054167032,1,-7.014045715,1,0.004427115,1,-0.000392755,1,0.004503616,1,0.4026016,1,-0.717447519,1,-1.439222097,1
0.676054001,-6.096382141,1,-3.056030989,1,-7.032022953,1,0.005560874,1,-0.001871692,1,0.002967545,1,0.402614415,1,-0.717450023,1,-1.439214587,1
0.680051982,-6.09368372,1,-3.083011389,1,-7.030117512,1,0.002906303,1,0.001720517,1,0.002496802,1,0.402619779,1,-0.717452526,1,-1.439203382,1
0.684051692,-6.128891468,1,-3.080882788,1,-7.010856628,1,0.005143055,1,0.002172224,1,0.001643833,1,0.402624726,1,-0.717462301,1,-1.439190507,1
0.688053489,-6.106260777,1,-3.067588329,1,-7.048340321,1,0.007918551,1,0.003203734,1,0.002237555,1,0.402635038,1,-0.717465341,1,-1.439178824,1
0.692051172,-6.088808537,1,-3.084792376,1,-7.061283112,1,1.98E-05,1,-0.004262505,1,0.000780092,1,0.402640313,1,-0.717474282,1,-1.439162612,1
0.69605118,-6.115143299,1,-3.090262651,1,-7.058457375,1,0.004369061,1,-0.00052216,1,0.007361859,1,0.402637362,1,-0.717486262,1,-1.439145327,1
0.700052977,-6.107018948,1,-3.087489128,1,-7.044830322,1,0.004671512,1,-0.004187111,1,0.000575685,1,0.402635157,1,-0.717495382,1,-1.439123511,1
0.704050958,-6.152854919,1,-3.090791464,1,-7.041058064,1,0.001068975,1,0.001523762,1,0.006810666,1,0.402635515,1,-0.717512608,1,-1.439103007,1
0.708050668,-6.138201237,1,-3.082136631,1,-7.022271156,1,0.004978605,1,-0.003488712,1,0.007630575,1,0.402621448,1,-0.717527688,1,-1.439073801,1
0.712052464,-6.119887829,1,-3.071902514,1,-7.056007862,1,0.00263053,1,-0.001130876,1,0.006509033,1,0.402621418,1,-0.717549503,1,-1.439052463,1
0.716050446,-6.13109684,1,-3.056921005,1,-7.021835804,1,0.002847094,1,-0.003829705,1,0.005204047,1,0.402623177,1,-0.717560053,1,-1.439028025,1
0.720050156,-6.111846447,1,-3.066990614,1,-7.049218655,1,0.003443727,1,-0.002109949,1,0.00581727,1,0.402630419,1,-0.717574954,1,-1.439014554,1
0.724051952,-6.115321159,1,-3.077921391,1,-7.040463924,1,0.003297099,1,-0.00372365,1,0.003809872,1,0.402625471,1,-0.717595577,1,-1.438995957,1
0.728049934,-6.110310078,1,-3.056885242,1,-7.00361681,1,0.008644117,1,-0.004816987,1,0.004552876,1,0.402645379,1,-0.717612505,1,-1.438990951,1
0.732049644,-6.131059647,1,-3.052902222,1,-7.022618771,1,0.002804904,1,-0.006775178,1,0.003297886,1,0.402666926,1,-0.717630506,1,-1.438986421,1
0.736051738,-6.099974155,1,-3.068272352,1,-7.02932024,1,0.002749677,1,-0.004110654,1,0.003473104,1,0.40266946,1,-0.717653215,1,-1.438966751,1
0.740049899,-6.119801998,1,-3.042747259,1,-7.035502434,1,0.003827725,1,-0.002835104,1,0.001957073,1,0.402680099,1,-0.717674673,1,-1.438958287,1
0.744049668,-6.112430573,1,-3.043075562,1,-7.051716328,1,0.004509514,1,-0.007820865,1,0.005757352,1,0.402695894,1,-0.717697978,1,-1.438948274,1
0.748051703,-6.119241238,1,-3.04402709,1,-7.048391342,1,0.005415432,1,-0.003777727,1,0.005435547,1,0.402703196,1,-0.717725396,1,-1.438938379,1
0.752049685,-6.117319107,1,-3.084802389,1,-7.038918495,1,0.00536311,1,-0.007722086,1,0.003300977,1,0.402729124,1,-0.71775341,1,-1.438930035,1
0.756049156,-6.130112648,1,-3.092728853,1,-7.052433968,1,0.00740595,1,-0.007449853,1,0.005859142,1,0.402741939,1,-0.717788279,1,-1.438914061,1
0.760057092,-6.111275673,1,-3.082517385,1,-7.041843414,1,0.006364541,1,-0.005245238,1,0.005118083,1,0.40275389,1,-0.717821479,1,-1.438899755,1
0.764060915,-6.144554615,1,-3.091205835,1,-7.040945053,1,0.003486431,1,-0.008071739,1,0.007081121,1,0.402757823,1,-0.717860579,1,-1.438880801,1
0.768060923,-6.07024765,1,-3.107934952,1,-7.032747269,1,0.004330837,1,-0.012863481,1,0.004920974,1,0.402765781,1,-0.717906535,1,-1.438870788,1
0.772062719,-6.116309166,1,-3.109723568,1,-7.066636086,1,0.004653405,1,-0.008998297,1,0.00632479,1,0.402770489,1,-0.717953801,1,-1.438850641,1
0.776060402,-6.127656937,1,-3.02870822,1,-7.006725788,1,0.00580588,1,-0.009063713,1,0.006373421,1,0.402778506,1,-0.717995405,1,-1.438834548,1
0.780060172,-6.154073238,1,-3.083368778,1,-7.033580303,1,0.005348778,1,-0.006455102,1,0.003287637,1,0.402796298,1,-0.71803385,1,-1.438822508,1
0.784062207,-6.127034187,1,-3.033400774,1,-7.065768719,1,0.003252609,1,-0.008470869,1,0.00610256,1,0.402808905,1,-0.718072414,1,-1.438811302,1
0.788060188,-6.144878864,1,-3.023413897,1,-7.069605827,1,0.003953903,1,-0.012560716,1,0.004221859,1,0.40281567,1,-0.71811676,1,-1.438798189,1
0.792059898,-6.145968914,1,-3.051089525,1,-7.046225548,1,0.005476175,1,-0.007299254,1,0.005937167,1,0.402833164,1,-0.71816361,1,-1.438786745,1
0.796061695,-6.10775423,1,-3.025585651,1,-7.047566891,1,0.005935546,1,-0.008757392,1,0.006105514,1,0.402852178,1,-0.718201876,1,-1.438779235,1
0.800059676,-6.122683048,1,-3.038722754,1,-7.008565903,1,0.005121627,1,-0.009037299,1,0.005568831,1,0.402881086,1,-0.718241811,1,-1.43877399,1
0.804059386,-6.13333416,1,-3.072790146,1,-7.03488493,1,0.006826328,1,-0.009834372,1,0.00346375,1,0.402906567,1,-0.718290865,1,-1.438772202,1
0.808061182,-6.099436283,1,-3.037119389,1,-7.040260792,1,0.007331982,1,-0.008388742,1,0.005027332,1,0.40293622,1,-0.718321681,1,-1.43876791,1
0.812059164,-6.134880066,1,-3.04696393,1,-7.036979675,1,0.014156004,1,-0.011593471,1,0.003521274,1,0.40296489,1,-0.718363643,1,-1.438761115,1
0.816058874,-6.154920101,1,-3.056804657,1,-7.04416275,1,0.005896897,1,-0.011270291,1,0.00247401,1,0.402996361,1,-0.718407214,1,-1.438762307,1
0.820060432,-6.113027096,1,-3.081048965,1,-7.041091442,1,0.008077367,1,-0.008921783,1,0.007619042,1,0.403025925,1,-0.718438983,1,-1.438761473,1
0.824058354,-6.076224327,1,-3.084060192,1,-6.996479034,1,0.004522956,1,-0.010489209,1,0.000923639,1,0.403054297,1,-0.71847868,1,-1.438756227,1
0.828057885,-6.114857197,1,-3.091440439,1,-7.025664806,1,0.006845069,1,-0.007004334,1,0.005966629,1,0.403082967,1,-0.718517542,1,-1.438759685,1
0.832059622,-6.110259056,1,-3.082498074,1,-7.019105434,1,0.005358446,1,-0.01056996,1,0.00620075,1,0.403110802,1,-0.718559027,1,-1.438752294,1
0.836057365,-6.123802185,1,-3.082212448,1,-7.030571938,1,0.004001778,1,-0.006623338,1,0.006690799,1,0.403112292,1,-0.718600333,1,-1.43872726,1
0.840057075,-6.145077705,1,-3.095890045,1,-7.034165382,1,0.004419611,1,-0.008236495,1,0.006679941,1,0.403117299,1,-0.71863991,1,-1.438707709,1
0.844058871,-6.128117561,1,-3.101681948,1,-6.993875027,1,0.004382778,1,-0.006634384,1,0.009927867,1,0.403122723,1,-0.718687892,1,-1.43868947,1
0.848056853,-6.099371433,1,-3.100065231,1,-7.03234148,1,0.002459463,1,-0.010224191,1,0.00900779,1,0.403113663,1,-0.718723297,1,-1.438664436,1
0.852056563,-6.105751038,1,-3.111364603,1,-7.023228645,1,0.0002775,1,-0.009337317,1,0.009205353,1,0.403108358,1,-0.718766868,1,-1.438631535,1
0.856058359,-6.108699322,1,-3.104059458,1,-7.029876232,1,0.000121736,1,-0.006483898,1,0.007098535,1,0.403092206,1,-0.718801081,1,-1.438605547,1
0.860056341,-6.108658314,1,-3.110852003,1,-7.049250603,1,0.001510838,1,-0.008194007,1,0.011877901,1,0.403078169,1,-0.718842983,1,-1.438569427,1
0.864056349,-6.149713993,1,-3.106686354,1,-7.011927605,1,0.000599658,1,-0.004324547,1,0.008091175,1,0.40305829,1,-0.718880117,1,-1.438540459,1
0.868058085,-6.106170177,1,-3.072324514,1,-7.030675411,1,-0.002765586,1,-0.009929335,1,0.015994495,1,0.403028578,1,-0.718931675,1,-1.438499689,1
0.872055829,-6.123240471,1,-3.059571505,1,-7.046555996,1,-4.09E-05,1,-0.006922635,1,0.009310773,1,0.403009593,1,-0.718971729,1,-1.438465834,1
0.876055539,-6.101503372,1,-3.048096657,1,-7.022217751,1,-0.000634168,1,-0.009945236,1,0.011059361,1,0.402984321,1,-0.7190184,1,-1.43843317,1
0.880063236,-6.123793125,1,-3.022483826,1,-7.045156479,1,0.001500677,1,-0.005056176,1,0.010992371,1,0.402963281,1,-0.719070852,1,-1.438396692,1
0.884067059,-6.141541481,1,-3.066562891,1,-7.011798859,1,-0.001252788,1,-0.009639546,1,0.006116887,1,0.402943701,1,-0.719117343,1,-1.438365579,1
0.888067067,-6.116544247,1,-3.049506903,1,-7.037546158,1,0.0034829,1,-0.008805269,1,0.01323273,1,0.402926564,1,-0.719172359,1,-1.43833065,1
0.892068863,-6.151366234,1,-3.055704594,1,-7.035847187,1,0.000523367,1,-0.012567957,1,0.007742543,1,0.40292877,1,-0.719217479,1,-1.438309669,1
0.896066546,-6.112504005,1,-3.064217806,1,-7.043007374,1,0.004046926,1,-0.011389349,1,0.004860145,1,0.402920127,1,-0.719272375,1,-1.438293338,1
0.900066316,-6.145578384,1,-3.05681181,1,-7.049269676,1,0.003358232,1,-0.011203831,1,0.008804371,1,0.402920723,1,-0.719325185,1,-1.438274741,1
0.904068112,-6.109792233,1,-3.033058167,1,-7.043402672,1,0.001394846,1,-0.015285467,1,0.008124686,1,0.402915686,1,-0.719379306,1,-1.438250422,1
0.908066332,-6.124396801,1,-3.066758156,1,-7.022640228,1,0.00331216,1,-0.008417398,1,0.007051214,1,0.402916759,1,-0.719433308,1,-1.438231349,1
0.912066281,-6.105967045,1,-3.051017523,1,-7.008197784,1,0.002434388,1,-0.012387518,1,0.010210474,1,0.40291512,1,-0.719486117,1,-1.438203096,1
0.916067839,-6.128775597,1,-3.034285784,1,-7.012653828,1,0.001825587,1,-0.0137141,1,0.006896524,1,0.402913362,1,-0.719538093,1,-1.43818748,1
0.92006582,-6.121848583,1,-3.036350489,1,-7.02546072,1,0.001746954,1,-0.01102688,1,0.007360364,1,0.403087169,1,-0.718320608,1,-1.43784523,1
0.92406553,-6.11886692,1,-3.080534935,1,-7.024045944,1,0.00469651,1,-0.01271689,1,0.010505569,1,0.403093547,1,-0.718372881,1,-1.437826872,1
0.928067327,-6.148803711,1,-3.008188486,1,-7.018229485,1,0.006082118,1,-0.012449537,1,0.00765392,1,0.403104842,1,-0.718429267,1,-1.43780911,1
0.932065308,-6.112738609,1,-3.077013493,1,-7.045900345,1,0.007180469,1,-0.013963868,1,0.00456529,1,0.403121948,1,-0.718485773,1,-1.437799931,1
0.936065018,-6.133678913,1,-3.075636387,1,-7.039134502,1,0.006082123,1,-0.013595621,1,0.006093592,1,0.403144062,1,-0.718546391,1,-1.437798858,1
0.940066814,-6.133852482,1,-3.0882864,1,-7.032558918,1,0.003337663,1,-0.013293262,1,0.009122419,1,0.403155029,1,-0.718608558,1,-1.437783718,1
0.944064796,-6.105335712,1,-3.107417583,1,-7.050395489,1,0.006645579,1,-0.012584615,1,0.006214488,1,0.4031654,1,-0.718673408,1,-1.43777442,1
0.948064268,-6.173741341,1,-3.08577466,1,-7.010135651,1,0.003697712,1,-0.014787012,1,0.011284647,1,0.403169721,1,-0.718738675,1,-1.437755704,1
0.952066064,-6.149435043,1,-3.072505236,1,-7.002673626,1,0.004801991,1,-0.012608312,1,0.011194007,1,0.403173447,1,-0.718803108,1,-1.437740803,1
0.956063986,-6.131916523,1,-3.069084167,1,-7.010872841,1,0.002471569,1,-0.015630143,1,0.010564934,1,0.403175205,1,-0.718875647,1,-1.4377141,1
0.960063756,-6.141798019,1,-3.035671234,1,-7.034196854,1,0.002516021,1,-0.012301045,1,0.011365124,1,0.403177679,1,-0.718938947,1,-1.437697768,1
0.96406579,-6.17563343,1,-3.051473379,1,-7.02448082,1,0.004178891,1,-0.011566874,1,0.009470609,1,0.403176606,1,-0.718996525,1,-1.43766737,1
0.96806401,-6.176026344,1,-3.060820818,1,-7.028363228,1,0.003429115,1,-0.014504239,1,0.015230589,1,0.403179199,1,-0.719060659,1,-1.437646627,1
0.97206372,-6.116037846,1,-3.063206911,1,-7.011624813,1,0.002136661,1,-0.013277085,1,0.005926314,1,0.403168082,1,-0.71912545,1,-1.43761158,1
0.976065516,-6.139419556,1,-3.041319132,1,-7.014049053,1,0.004222313,1,-0.00956382,1,0.009197183,1,0.403172195,1,-0.719184279,1,-1.437594533,1
0.98006326,-6.139481068,1,-3.029065847,1,-7.017809868,1,0.002505345,1,-0.01348156,1,0.011821335,1,0.403158963,1,-0.719240367,1,-1.437558413,1
0.98406297,-6.131370068,1,-3.068327904,1,-7.008443832,1,0.001175614,1,-0.0117562,1,0.012206324,1,0.403166533,1,-0.719292164,1,-1.437538743,1
0.988064766,-6.13639307,1,-3.074170351,1,-7.024057388,1,0.004743693,1,-0.010079511,1,0.004208649,1,0.403168887,1,-0.719355762,1,-1.437520027,1
0.992062449,-6.117693901,1,-3.094209671,1,-7.044453621,1,0.003087264,1,-0.010583762,1,0.012399526,1,0.403174639,1,-0.719407916,1,-1.43750453,1
0.996062219,-6.133727074,1,-3.084935188,1,-7.012998104,1,0.001488145,1,-0.010217464,1,0.012484731,1,0.403168231,1,-0.719456315,1,-1.437470675,1
1.000069857,-6.124662399,1,-3.084844828,1,-6.998569965,1,0.002280325,1,-0.007777279,1,0.012173071,1,0.403153688,1,-0.719512701,1,-1.43743217,1
1.004073977,-6.144682884,1,-3.053844929,1,-7.029700756,1,-0.000561751,1,-0.012162172,1,0.010889547,1,0.403147846,1,-0.719564199,1,-1.437406063,1
1.008073926,-6.143078804,1,-3.07507515,1,-7.029793262,1,0.001230828,1,-0.009201865,1,0.012646583,1,0.403129369,1,-0.719619393,1,-1.437369823,1
1.012075782,-6.15301609,1,-3.037925243,1,-7.033961773,1,0.002265149,1,-0.008939204,1,0.009349999,1,0.403130114,1,-0.71967268,1,-1.437348604,1
1.016073704,-6.161746502,1,-3.027482033,1,-7.012876034,1,0.004097116,1,-0.010345817,1,0.009501103,1,0.403135836,1,-0.719719291,1,-1.437325239,1
1.020073414,-6.148589134,1,-3.044054747,1,-7.035746098,1,0.006218158,1,-0.009407201,1,0.008474153,1,0.40312475,1,-0.719762087,1,-1.43729651,1
1.024075031,-6.146596909,1,-3.039142847,1,-7.024209976,1,0.005744406,1,-0.009897772,1,0.007050683,1,0.403138727,1,-0.719813287,1,-1.437281013,1
1.028072953,-6.127980232,1,-3.064301252,1,-7.014015198,1,0.003287642,1,-0.009024448,1,0.004764617,1,0.403154612,1,-0.719856322,1,-1.437272549,1
1.032072663,-6.179195881,1,-3.053972483,1,-7.019507885,1,0.007982491,1,-0.006476305,1,0.007504703,1,0.403166324,1,-0.719904065,1,-1.437264204,1
1.036074519,-6.167781353,1,-3.021631241,1,-7.033875465,1,0.006040827,1,-0.010556518,1,0.002924419,1,0.403179497,1,-0.719943821,1,-1.437249899,1
1.040072203,-6.173979759,1,-3.026382923,1,-7.034594059,1,0.00364168,1,-0.00924151,1,0.001373736,1,0.403201342,1,-0.719984114,1,-1.437255979,1
1.044071913,-6.145644188,1,-3.012377739,1,-7.025056362,1,0.007488609,1,-0.010877011,1,0.002128888,1,0.403219163,1,-0.720024407,1,-1.437258601,1
1.048074007,-6.158438683,1,-3.010885715,1,-7.007498264,1,0.007370312,1,-0.010032102,1,0.001691556,1,0.403246701,1,-0.720058143,1,-1.437257409,1
1.052072167,-6.159810066,1,-3.039383173,1,-7.005055428,1,0.007969773,1,-0.006510263,1,0.001874928,1,0.403275102,1,-0.720085263,1,-1.437262893,1
1.056071877,-6.149992466,1,-3.011566639,1,-6.990666389,1,0.005573726,1,-0.006518622,1,-0.001457891,1,0.403304577,1,-0.720104933,1,-1.43726933,1
1.060073733,-6.176615715,1,-3.082003832,1,-6.996457577,1,0.009109221,1,-0.003326709,1,0.001082206,1,0.403343797,1,-0.720123649,1,-1.437278032,1
1.064071655,-6.155992508,1,-3.072036266,1,-7.016461372,1,0.00595281,1,-0.004057271,1,0.000799437,1,0.403377712,1,-0.720147073,1,-1.437282681,1
1.068071365,-6.176088333,1,-3.050731659,1,-7.019445419,1,0.009301595,1,-0.005219644,1,0.00251,1,0.403410912,1,-0.720171094,1,-1.437283874,1
1.072073221,-6.131691933,1,-3.068437576,1,-7.026376724,1,0.006982765,1,-0.003304021,1,0.001141162,1,0.403440833,1,-0.720186472,1,-1.437284946,1
1.076070905,-6.159556866,1,-3.041651249,1,-7.010302067,1,0.005332079,1,-0.00051712,1,0.001266824,1,0.403466582,1,-0.720192373,1,-1.437283039,1
1.080070615,-6.159442425,1,-3.054906607,1,-6.997078419,1,0.006843117,1,-7.50E-05,1,-0.000608564,1,0.403497934,1,-0.720201373,1,-1.437282443,1
1.084072471,-6.15862608,1,-3.063036203,1,-7.017455101,1,0.004570095,1,-0.000541174,1,-0.00115164,1,0.403521478,1,-0.720201492,1,-1.437278271,1
1.088070154,-6.12749815,1,-3.059945822,1,-7.045812607,1,0.006193843,1,-0.002120553,1,0.001080508,1,0.403546244,1,-0.720214963,1,-1.437285185,1
1.092070103,-6.141317844,1,-3.096192598,1,-7.013568401,1,0.008010857,1,0.00232791,1,-0.000785634,1,0.403561532,1,-0.720220447,1,-1.43727684,1
1.096071959,-6.125341892,1,-3.082457542,1,-7.017701149,1,0.00722679,1,-0.003411196,1,0.00127476,1,0.40359208,1,-0.720223069,1,-1.437275767,1
1.10006988,-6.130326748,1,-3.085099936,1,-7.021211624,1,0.00501325,1,-0.000263042,1,0.002330888,1,0.403616011,1,-0.720234394,1,-1.437276125,1
1.104069591,-6.132863998,1,-3.119569302,1,-7.007736683,1,0.004742826,1,0.001458007,1,0.003384347,1,0.403635323,1,-0.720235825,1,-1.437269211,1
1.108071208,-6.146644592,1,-3.119169474,1,-7.002486229,1,0.004599046,1,-0.003234289,1,0.003460515,1,0.403642297,1,-0.720248222,1,-1.437254429,1
1.11206913,-6.155714989,1,-3.107816458,1,-7.011213303,1,0.003052982,1,0.001393551,1,0.004619281,1,0.403649956,1,-0.720258176,1,-1.437242508,1
1.11606884,-6.132841587,1,-3.119309425,1,-7.022641659,1,0.002997959,1,-0.002149454,1,0.002243235,1,0.403657198,1,-0.720263124,1,-1.43722856,1
1.120070457,-6.166166782,1,-3.078092575,1,-7.023082733,1,0.004393755,1,0.001996809,1,0.00125956,1,0.403652072,1,-0.72027266,1,-1.437201142,1
1.124074221,-6.154672623,1,-3.042159081,1,-7.028163433,1,0.003232228,1,-0.001233098,1,0.005974883,1,0.403651744,1,-0.720276237,1,-1.437179089,1
1.128073931,-6.160103321,1,-3.04450345,1,-7.013749599,1,0.002079396,1,-0.002718247,1,0.001304841,1,0.403652281,1,-0.720287681,1,-1.437156081,1
1.132075787,-6.130185127,1,-3.016936064,1,-7.041386127,1,0.003496923,1,-0.001970725,1,0.003820604,1,0.403663784,1,-0.720297694,1,-1.437146068,1
1.13607347,-6.176082611,1,-3.048187017,1,-7.032123566,1,0.004301553,1,0.001249445,1,-0.000497392,1,0.403670877,1,-0.72030884,1,-1.437134743,1
1.14007318,-6.149660587,1,-3.068509102,1,-6.998626709,1,0.0040179,1,-0.000620387,1,0.002856592,1,0.403685451,1,-0.720311105,1,-1.437132359,1
1.144075274,-6.110906124,1,-3.07075572,1,-7.036170959,1,0.004851363,1,-0.001645784,1,0.002497799,1,0.403694153,1,-0.720319271,1,-1.437113047,1
1.148073196,-6.133228779,1,-3.03217721,1,-7.010890961,1,0.001601657,1,-0.0029658,1,0.000170929,1,0.403702945,1,-0.720326006,1,-1.437103868,1
1.152072668,-6.102151394,1,-3.061856985,1,-7.023311615,1,0.003844929,1,-0.001001831,1,0.002809008,1,0.403710216,1,-0.720331907,1,-1.437092304,1
1.156074524,-6.164016247,1,-3.059006214,1,-7.016703129,1,0.006955619,1,0.001143577,1,0.000442849,1,0.403727412,1,-0.720331728,1,-1.437075257,1
1.160072446,-6.161325455,1,-3.083697319,1,-7.013374329,1,0.006977073,1,-0.001827066,1,0.003013766,1,0.403744251,1,-0.720335841,1,-1.437064528,1
1.164072156,-6.154122353,1,-3.106918097,1,-7.000510216,1,0.004339315,1,0.000612921,1,0.002091513,1,0.403754413,1,-0.720343471,1,-1.437054038,1
1.168074012,-6.121725082,1,-3.127770662,1,-7.020518303,1,0.007143238,1,-0.000103579,1,0.005288017,1,0.403971314,1,-0.719147801,1,-1.437167883,1
1.172071695,-6.133051395,1,-3.125421524,1,-7.02428627,1,0.00101857,1,-0.001791716,1,0.002949574,1,0.403906226,1,-0.71914506,1,-1.436721802,1
1.176071405,-6.106440067,1,-3.110446453,1,-7.015173435,1,0.003245178,1,-0.002230098,1,0.005924477,1,0.403909147,1,-0.719156504,1,-1.436708689,1
1.180073738,-6.128907681,1,-3.068867207,1,-7.018684864,1,0.001121512,1,-0.000335356,1,0.001165107,1,0.40389502,1,-0.719172835,1,-1.436686635,1
1.184071898,-6.145031929,1,-3.071136236,1,-7.012878895,1,0.001374455,1,0.000418076,1,0.010014983,1,0.403875232,1,-0.719186306,1,-1.436652064,1
1.188071728,-6.168584347,1,-3.066921949,1,-6.997673512,1,-0.000136696,1,0.001283485,1,0.004962742,1,0.403855205,1,-0.719197452,1,-1.436615229,1
1.192073464,-6.125795364,1,-3.078279257,1,-7.01103878,1,-0.00181163,1,0.001076012,1,0.007902871,1,0.403838754,1,-0.719202459,1,-1.436585665,1
1.196071386,-6.173887253,1,-3.068013191,1,-7.005608082,1,0.004077857,1,-0.001951745,1,0.006971073,1,0.403820544,1,-0.719213068,1,-1.436546206,1
1.200071216,-6.149011612,1,-3.061745644,1,-7.014091492,1,-0.002532458,1,3.67E-05,1,0.004368813,1,0.403801471,1,-0.719222307,1,-1.436516047,1
1.204072952,-6.120905876,1,-3.062628031,1,-7.048958302,1,-0.002188304,1,0.000594797,1,0.009005478,1,0.403775811,1,-0.719230652,1,-1.436481833,1
1.208070874,-6.147598743,1,-3.039663315,1,-6.99481678,1,0.000832057,1,0.001724794,1,0.005124814,1,0.403750181,1,-0.719241023,1,-1.436447144,1
1.212070704,-6.140098095,1,-3.058711052,1,-7.014956951,1,-0.003077161,1,-0.002260297,1,0.007696117,1,0.403723627,1,-0.71924758,1,-1.436414719,1
1.21607244,-6.129487514,1,-3.055696487,1,-7.012979507,1,-0.001124638,1,-0.003004002,1,0.008739777,1,0.403698862,1,-0.719263375,1,-1.43637836,1
1.220070362,-6.09422636,1,-3.020858526,1,-7.046343327,1,0.003581157,1,-0.001499158,1,0.007615182,1,0.403680861,1,-0.719279289,1,-1.436347961,1
1.224070191,-6.143173218,1,-3.083437443,1,-7.040315628,1,0.003376774,1,-0.00146432,1,0.008500909,1,0.403671443,1,-0.719299436,1,-1.436312079,1
1.228071928,-6.135741234,1,-3.062122822,1,-7.023982048,1,0.002013877,1,-0.001258323,1,0.010203937,1,0.403670549,1,-0.719312429,1,-1.436288834,1
1.23206985,-6.119325161,1,-3.092008114,1,-7.064405918,1,-0.001202626,1,-0.0013747,1,0.007287865,1,0.403647184,1,-0.719328225,1,-1.436253905,1
1.236069679,-6.124872208,1,-3.107867241,1,-7.021259785,1,0.00052079,1,-0.003479108,1,0.008542769,1,0.403644323,1,-0.719349265,1,-1.436229706,1
1.240071416,-6.113427639,1,-3.102932453,1,-7.022684574,1,0.000936599,1,-0.000979024,1,0.008053049,1,0.403622091,1,-0.719376326,1,-1.436198235,1
1.24407506,-6.13701725,1,-3.057388306,1,-7.054190636,1,-0.000522056,1,-0.001366558,1,0.008310365,1,0.403599024,1,-0.719393909,1,-1.436164379,1
1.24807477,-6.140396595,1,-3.046726942,1,-7.042497158,1,-0.000450271,1,-0.00327089,1,0.007432758,1,0.403572768,1,-0.719429076,1,-1.436126709,1
1.252076507,-6.112774372,1,-3.076710939,1,-7.029582977,1,0.000288854,1,-0.003293262,1,0.010049755,1,0.403539091,1,-0.719453692,1,-1.436080813,1
1.256074548,-6.178756714,1,-3.045177698,1,-7.019452095,1,0.000698833,1,-0.007028176,1,0.008117868,1,0.40351212,1,-0.719484806,1,-1.436045527,1
1.260074258,-6.127375126,1,-3.055900335,1,-7.01214695,1,-0.000127887,1,-0.002194839,1,0.006976129,1,0.403487086,1,-0.719509423,1,-1.436009049,1
1.264075994,-6.130601406,1,-3.061531067,1,-7.032165051,1,-0.001289351,1,-0.002589836,1,0.009561944,1,0.403458685,1,-0.719533265,1,-1.435971618,1
1.268073678,-6.127096176,1,-3.07075572,1,-7.02471447,1,0.000514105,1,-0.00323874,1,0.009186575,1,0.403438836,1,-0.719559789,1,-1.43593514,1
1.272073507,-6.110723019,1,-3.052759886,1,-7.041106224,1,0.002105008,1,-0.003141929,1,0.009680831,1,0.403402507,1,-0.719583035,1,-1.435894251,1
1.276075244,-6.144283772,1,-3.053714752,1,-7.017003536,1,0.002659613,1,-0.003107648,1,0.00952829,1,0.403386712,1,-0.719606757,1,-1.43585968,1
1.280072927,-6.12622261,1,-3.073264837,1,-7.019478321,1,-0.000131954,1,-0.003998249,1,0.007539212,1,0.403373539,1,-0.71962887,1,-1.435829759,1
1.284072757,-6.101947308,1,-3.035268545,1,-7.025782585,1,-0.001239886,1,-0.00035649,1,0.007783771,1,0.403347164,1,-0.719649851,1,-1.435795307,1
1.288074493,-6.129053116,1,-3.053204775,1,-7.015176296,1,0.00158602,1,-0.003477714,1,0.008169508,1,0.403320491,1,-0.719667852,1,-1.435758591,1
1.292072415,-6.13444376,1,-3.050634146,1,-7.028536797,1,-0.000581555,1,-0.001112625,1,0.006494916,1,0.403310746,1,-0.719686508,1,-1.435732245,1
1.296072245,-6.121321201,1,-3.028230906,1,-7.004658699,1,0.000331726,1,-0.002932054,1,0.005531633,1,0.403284788,1,-0.719694853,1,-1.435698867,1
1.300073981,-6.13616848,1,-3.059850216,1,-7.020145416,1,0.001552835,1,-0.002633316,1,0.004296982,1,0.40326336,1,-0.719708264,1,-1.435667872,1
1.304071903,-6.135429382,1,-3.023800611,1,-7.00161171,1,0.003167466,1,-0.000352504,1,0.003787654,1,0.403267533,1,-0.719722033,1,-1.435654521,1
1.308071733,-6.118810654,1,-3.009536982,1,-7.03695631,1,-0.001027213,1,0.001304609,1,0.005801988,1,0.403263271,1,-0.719721913,1,-1.435641766,1
1.312073708,-6.155681133,1,-3.019970179,1,-7.028465271,1,0.001425601,1,0.001081752,1,0.003193715,1,0.403267711,1,-0.719733894,1,-1.435629725,1
1.316071987,-6.152153015,1,-3.043819904,1,-7.002353668,1,0.007177804,1,-0.001884725,1,-0.001129217,1,0.403274417,1,-0.719735384,1,-1.435628057,1
1.320071697,-6.143453598,1,-3.062413454,1,-7.038392067,1,0.004885836,1,-0.001695338,1,-0.003618668,1,0.403309166,1,-0.719735086,1,-1.435638905,1
1.324073672,-6.153631687,1,-3.056636572,1,-6.999222279,1,0.004358488,1,-0.002040834,1,0.000322244,1,0.403336883,1,-0.719739556,1,-1.43565619,1
1.328071952,-6.143614292,1,-3.100182295,1,-7.016845703,1,0.005818021,1,0.000799746,1,-0.001380387,1,0.403358757,1,-0.719736338,1,-1.435657859,1
1.332071662,-6.127849579,1,-3.071511745,1,-6.986048222,1,0.006552817,1,-0.001094399,1,0.002043597,1,0.403372407,1,-0.719733477,1,-1.43565321,1
1.336073518,-6.14667511,1,-3.024925232,1,-6.998951912,1,0.005462351,1,0.002027388,1,0.000200812,1,0.403381974,1,-0.719728947,1,-1.4356457,1
1.34007144,-6.159728527,1,-3.067274332,1,-7.009638309,1,0.001041668,1,0.000639007,1,0.001570928,1,0.403390884,1,-0.719725609,1,-1.43563509,1
1.344070911,-6.148265362,1,-3.047511578,1,-6.992249489,1,0.002134101,1,0.001141368,1,0.003085813,1,0.403395087,1,-0.719726205,1,-1.435624361,1
1.348072648,-6.146309376,1,-3.071994781,1,-6.991547585,1,0.004135256,1,0.002945825,1,0.00186505,1,0.403404236,1,-0.719713926,1,-1.435616493,1
1.352070689,-6.173723698,1,-3.059692621,1,-6.986223698,1,0.003635373,1,0.006545536,1,-0.003717449,1,0.403412789,1,-0.719699085,1,-1.435610056,1
1.356070399,-6.12252903,1,-3.078553915,1,-6.996490479,1,0.002609729,1,0.006718091,1,0.001156349,1,0.403414309,1,-0.719676018,1,-1.43560338,1
1.360072494,-6.113761425,1,-3.058457613,1,-7.006533623,1,0.000568998,1,0.006919511,1,0.001238227,1,0.403410137,1,-0.719650328,1,-1.435584426,1
1.364076018,-6.148918152,1,-2.994232893,1,-7.017551422,1,-0.001055794,1,0.008902881,1,-0.001589381,1,0.403403401,1,-0.719622254,1,-1.435569048,1
1.368075728,-6.109924316,1,-3.028267622,1,-7.004905701,1,0.000265706,1,0.011013579,1,-0.000771183,1,0.403396696,1,-0.719588876,1,-1.435552716,1
1.372077584,-6.152842522,1,-3.021527052,1,-7.025208473,1,0.003370632,1,0.012929014,1,-0.005643925,1,0.403409779,1,-0.719541311,1,-1.435556531,1
1.376075268,-6.154569149,1,-2.985711575,1,-6.996433735,1,0.002381708,1,0.012287036,1,-0.005807544,1,0.403425395,1,-0.719494402,1,-1.435554981,1
1.380074978,-6.157073975,1,-2.962039232,1,-7.026958942,1,0.003721772,1,0.01167343,1,-0.00629446,1,0.403449953,1,-0.719444156,1,-1.435570478,1
1.384076595,-6.142096519,1,-3.025848627,1,-7.008965492,1,0.012613249,1,0.016100248,1,-0.009753286,1,0.403486371,1,-0.719375253,1,-1.435591936,1
1.388074279,-6.143073082,1,-3.041810751,1,-6.988317966,1,0.004819652,1,0.016591933,1,-0.011329548,1,0.403524488,1,-0.719301939,1,-1.43560493,1
1.392073989,-6.159066677,1,-3.07628417,1,-7.005849361,1,0.007180479,1,0.017443014,1,-0.015503219,1,0.403566241,1,-0.719214976,1,-1.435632586,1
1.396075487,-6.182012081,1,-2.998033047,1,-7.000305653,1,0.007463412,1,0.016208157,1,-0.016021384,1,0.403616279,1,-0.71912843,1,-1.435656905,1
1.400073171,-6.168628216,1,-2.992519855,1,-7.002304554,1,0.009187382,1,0.019657904,1,-0.014748783,1,0.403672785,1,-0.719029248,1,-1.435686231,1
1.404072762,-6.150758743,1,-3.034842491,1,-7.001280308,1,0.009676808,1,0.023316044,1,-0.019108076,1,0.403735161,1,-0.718926489,1,-1.435720444,1
1.40807426,-6.176434517,1,-3.045885086,1,-6.993233204,1,0.012835901,1,0.021259533,1,-0.017205823,1,0.403799981,1,-0.718809187,1,-1.435751915,1
1.412071943,-6.192587376,1,-3.036839008,1,-6.993814468,1,0.010548894,1,0.024938565,1,-0.016123198,1,0.403867126,1,-0.718690932,1,-1.435788631,1
1.416071415,-6.191541672,1,-2.96736598,1,-7.008934021,1,0.014313465,1,0.032373007,1,-0.020110425,1,0.403933525,1,-0.718548715,1,-1.43582058,1
1.420073271,-6.190656662,1,-2.964595318,1,-6.98856163,1,0.01201892,1,0.035486374,1,-0.024505621,1,0.404127657,1,-0.717212439,1,-1.435554743,1
1.424070954,-6.206715107,1,-2.9905653,1,-6.984492779,1,0.01788874,1,0.034576613,1,-0.026573589,1,0.404221296,1,-0.717038035,1,-1.435603499,1
1.428070426,-6.188498974,1,-3.01630187,1,-6.973301411,1,0.017891396,1,0.041575219,1,-0.03022337,1,0.404322892,1,-0.716855586,1,-1.435660481,1
1.432072163,-6.129022121,1,-3.047342539,1,-6.960556507,1,0.017880471,1,0.045028511,1,-0.031794358,1,0.404430628,1,-0.716654718,1,-1.435723543,1
1.436069846,-6.107000828,1,-3.150509357,1,-6.993645191,1,0.015087647,1,0.045439836,1,-0.032244034,1,0.404539764,1,-0.716443539,1,-1.435792685,1
1.440069318,-6.120801926,1,-3.14502573,1,-7.052224159,1,0.015736056,1,0.046583589,1,-0.03181253,1,0.404630184,1,-0.716223717,1,-1.43584156,1
1.444071174,-6.104960442,1,-3.143610001,1,-7.038702488,1,0.011503049,1,0.04883042,1,-0.028220776,1,0.404716313,1,-0.716003835,1,-1.435889244,1
1.448068857,-6.053279877,1,-3.147046328,1,-6.995093346,1,0.009282989,1,0.044165947,1,-0.025094338,1,0.404781193,1,-0.71578896,1,-1.435923696,1
1.452068567,-6.025714874,1,-3.15764904,1,-7.037070274,1,0.011719415,1,0.045792352,1,-0.024696954,1,0.404844642,1,-0.715582728,1,-1.435957193,1
1.456070423,-5.992186546,1,-3.153456211,1,-7.057528973,1,0.005610434,1,0.038558021,1,-0.017657604,1,0.404889166,1,-0.715384364,1,-1.435980439,1
1.460068107,-6.048154831,1,-3.199757814,1,-7.052721024,1,0.005770012,1,0.041670561,1,-0.021269385,1,0.404922307,1,-0.715210557,1,-1.435986161,1
1.464067817,-6.055435181,1,-3.211920977,1,-7.062354565,1,0.000700903,1,0.033602398,1,-0.012326462,1,0.404940605,1,-0.715043604,1,-1.435987473,1
1.468069673,-6.059022427,1,-3.216592789,1,-7.042891026,1,-0.003251274,1,0.033150226,1,-0.013607448,1,0.404931068,1,-0.714901924,1,-1.435975909,1
1.472067356,-6.109587193,1,-3.183346033,1,-7.002724171,1,-0.004527975,1,0.03717925,1,-0.011698363,1,0.404898971,1,-0.714758635,1,-1.435949445,1
1.476067066,-6.132017612,1,-3.098753691,1,-7.044072628,1,-0.004188084,1,0.031794779,1,-0.005509324,1,0.404861748,1,-0.714613438,1,-1.435928106,1
1.480068922,-6.085857868,1,-3.052029371,1,-7.091722488,1,-0.004538659,1,0.031680975,1,-0.013911213,1,0.404831827,1,-0.714481115,1,-1.43590343,1
1.484072685,-6.100474834,1,-3.032055378,1,-7.059787273,1,0.000826133,1,0.032585744,1,-0.012777113,1,0.404822469,1,-0.714343607,1,-1.435892582,1
1.488072395,-6.108707905,1,-3.024626255,1,-7.088267326,1,0.000600294,1,0.033858985,1,-0.014696318,1,0.404821575,1,-0.714208364,1,-1.435887575,1
1.492074251,-6.114031792,1,-3.0418818,1,-7.074737549,1,0.002422391,1,0.027110023,1,-0.013143501,1,0.404829115,1,-0.71408236,1,-1.435891628,1
1.496072173,-6.103459835,1,-3.06438303,1,-7.054366589,1,0.002598015,1,0.028980602,1,-0.017007988,1,0.404852837,1,-0.713952899,1,-1.435909867,1
1.500071883,-6.108263493,1,-3.025054216,1,-7.038705826,1,0.005292337,1,0.02808293,1,-0.013547252,1,0.404871255,1,-0.713822782,1,-1.435915112,1
1.504073739,-6.108156204,1,-3.053829432,1,-7.099495888,1,0.006351373,1,0.02430157,1,-0.016629821,1,0.404907614,1,-0.713699937,1,-1.435931087,1
1.508071661,-6.098574638,1,-3.050070286,1,-7.052203178,1,0.007354659,1,0.028378209,1,-0.018679304,1,0.404943913,1,-0.713570833,1,-1.43595314,1
1.512071371,-6.068492889,1,-3.085355043,1,-7.05157423,1,0.007006898,1,0.025654368,1,-0.01389134,1,0.404983163,1,-0.713447452,1,-1.435974717,1
1.516073227,-6.07758522,1,-3.073373556,1,-7.031492233,1,0.002764268,1,0.027262645,1,-0.015224731,1,0.405012757,1,-0.713322282,1,-1.435994387,1
1.520071149,-6.090676308,1,-3.055761337,1,-7.067031384,1,0.008250174,1,0.025976092,1,-0.015147816,1,0.405052781,1,-0.713193834,1,-1.436013818,1
1.524070859,-6.104658604,1,-3.034626961,1,-7.079195976,1,0.005218376,1,0.02524168,1,-0.018067511,1,0.405086756,1,-0.713063717,1,-1.436035156,1
1.528072715,-6.107743263,1,-3.043585062,1,-7.04282856,1,0.0096434,1,0.028074251,1,-0.01931583,1,0.405128956,1,-0.712931275,1,-1.43605864,1
1.532070637,-6.085094452,1,-2.989579439,1,-7.07686758,1,0.013241392,1,0.029194683,1,-0.019561052,1,0.405183554,1,-0.712787747,1,-1.436082125,1
1.536070347,-6.148966789,1,-3.048821211,1,-7.038394928,1,0.011067765,1,0.027460646,1,-0.023327028,1,0.405259639,1,-0.712644815,1,-1.436124921,1
1.540072203,-6.10145092,1,-3.048335552,1,-7.052840233,1,0.013962287,1,0.029651493,1,-0.02287863,1,0.40535146,1,-0.712505102,1,-1.436175823,1
1.544069886,-6.11228466,1,-3.044876099,1,-7.049747467,1,0.018028228,1,0.02736569,1,-0.024232881,1,0.405443639,1,-0.712367713,1,-1.436225653,1
1.548070192,-6.099696636,1,-3.086306095,1,-7.070949078,1,0.01472992,1,0.029906478,1,-0.021987775,1,0.405539185,1,-0.712220132,1,-1.436278701,1
1.552071929,-6.014191628,1,-3.129531622,1,-7.087722301,1,0.018678963,1,0.030445447,1,-0.020329539,1,0.405644625,1,-0.712078214,1,-1.436325431,1
1.556069613,-6.067385197,1,-3.135044098,1,-7.09715414,1,0.017101247,1,0.021973368,1,-0.021106578,1,0.405750185,1,-0.711945772,1,-1.43638134,1
1.560069323,-6.041503429,1,-3.1426332,1,-7.087569237,1,0.016467771,1,0.027050244,1,-0.017614512,1,0.405846566,1,-0.711821318,1,-1.436430812,1
1.564071178,-6.078110695,1,-3.184399128,1,-7.084679604,1,0.01569107,1,0.023433724,1,-0.017555067,1,0.405932844,1,-0.711704135,1,-1.436462402,1
1.568068862,-6.064271927,1,-3.220658302,1,-7.06917429,1,0.011457219,1,0.024488416,1,-0.019136127,1,0.406018913,1,-0.711592317,1,-1.436504126,1
1.572068572,-6.089831352,1,-3.167742968,1,-7.081326008,1,0.011536976,1,0.024703508,1,-0.010047725,1,0.406070471,1,-0.711479604,1,-1.436516166,1
1.576070428,-6.09923172,1,-3.133219481,1,-7.056694508,1,0.009261332,1,0.021783693,1,-0.012692939,1,0.406119943,1,-0.711372077,1,-1.436525464,1
1.58006835,-6.092821598,1,-3.169290304,1,-7.034845829,1,0.006050883,1,0.025471486,1,-0.008820937,1,0.40615052,1,-0.711276352,1,-1.436521173,1
1.58406806,-6.038619041,1,-3.160521269,1,-7.026992798,1,0.002614811,1,0.024317672,1,-0.009861055,1,0.406171441,1,-0.71117425,1,-1.436509132,1
1.588069916,-6.070994854,1,-3.199061394,1,-7.02161026,1,0.00204752,1,0.028249316,1,-0.007928818,1,0.406179607,1,-0.711073279,1,-1.436497688,1
1.592067838,-6.002408028,1,-3.143054247,1,-7.0672822,1,0.002334772,1,0.021169605,1,-0.004522224,1,0.406171501,1,-0.710971713,1,-1.436470032,1
1.596067548,-6.017510414,1,-3.184481144,1,-7.069131374,1,-0.003919575,1,0.023794163,1,-0.000558412,1,0.406152546,1,-0.710883439,1,-1.436445832,1
1.600069165,-6.065165043,1,-3.161482096,1,-7.047914505,1,-0.001231007,1,0.025928998,1,-0.002749562,1,0.406110913,1,-0.710789561,1,-1.436398387,1
1.604072928,-6.078717709,1,-3.212076902,1,-7.054222584,1,-0.007171504,1,0.029216195,1,0.003015527,1,0.406052381,1,-0.710697114,1,-1.436343074,1
1.608072758,-6.097416401,1,-3.162074804,1,-7.020968914,1,-0.007607312,1,0.027235454,1,0.002002015,1,0.405982375,1,-0.7105968,1,-1.436286092,1
1.612074494,-6.08306551,1,-3.061295986,1,-7.075013161,1,-0.006975776,1,0.024246043,1,0.002425447,1,0.405911148,1,-0.710506916,1,-1.436224222,1
1.616072416,-6.085393429,1,-3.085523605,1,-7.085047245,1,-0.007015555,1,0.027445054,1,-0.001274223,1,0.405840009,1,-0.710410237,1,-1.436167479,1
1.620071888,-6.081221104,1,-3.098026752,1,-7.031274796,1,-0.008500075,1,0.024826089,1,0.000429437,1,0.405767798,1,-0.710313559,1,-1.436106801,1
1.624073744,-6.027188778,1,-3.167797089,1,-7.073604584,1,-0.006891673,1,0.026335359,1,0.002685254,1,0.405681878,1,-0.710220635,1,-1.436040044,1
1.628071666,-6.025937557,1,-3.213244915,1,-7.046238422,1,-0.016546184,1,0.022918379,1,0.001760264,1,0.405592471,1,-0.710134327,1,-1.435978293,1
1.632071376,-6.039417744,1,-3.193407297,1,-7.067065239,1,-0.013862065,1,0.022572447,1,0.005779042,1,0.405484527,1,-0.710055649,1,-1.435901761,1
1.636073232,-6.037425041,1,-3.13234067,1,-7.125123978,1,-0.013527361,1,0.020514138,1,0.001798204,1,0.405377001,1,-0.709980488,1,-1.435828447,1
1.640070915,-6.057078838,1,-3.058099747,1,-7.121973991,1,-0.016543144,1,0.022671591,1,0.009759825,1,0.405263692,1,-0.709909678,1,-1.43575418,1
1.644070625,-6.066225052,1,-3.09510684,1,-7.133583069,1,-0.013148923,1,0.022996124,1,0.008090392,1,0.405157,1,-0.709839165,1,-1.435678124,1
1.648072481,-6.068511486,1,-3.063798904,1,-7.12156105,1,-0.013587526,1,0.021216806,1,0.003088313,1,0.405057907,1,-0.709775805,1,-1.435607314,1
1.652070165,-6.056081772,1,-3.173912048,1,-7.09458971,1,-0.013149085,1,0.019823998,1,0.010969869,1,0.404951334,1,-0.70971489,1,-1.435518384,1
1.656069875,-6.001746178,1,-3.157021046,1,-7.106028557,1,-0.016595652,1,0.017488506,1,0.010497114,1,0.404838145,1,-0.709665656,1,-1.435437799,1
1.660071731,-6.028618813,1,-3.19230175,1,-7.105991364,1,-0.017173199,1,0.013381612,1,0.011661708,1,0.404730737,1,-0.709621072,1,-1.43536222,1
1.664069414,-6.02854538,1,-3.110296726,1,-7.101715565,1,-0.015271984,1,0.013597739,1,0.011825501,1,0.404617131,1,-0.709586501,1,-1.435276747,1
1.668069363,-6.008651733,1,-3.153675318,1,-7.161904335,1,-0.017896028,1,0.010134575,1,0.013297535,1,0.404753,1,-0.708327591,1,-1.435242057,1
1.672071218,-6.034309387,1,-3.088520527,1,-7.134511948,1,-0.012324454,1,0.009838564,1,0.015710331,1,0.404571205,1,-0.708302259,1,-1.434749007,1
1.67606914,-6.056334496,1,-3.078779459,1,-7.156322002,1,-0.017291831,1,0.006129971,1,0.012805942,1,0.404457957,1,-0.708295941,1,-1.434657335,1
1.680068851,-6.088164806,1,-3.14627409,1,-7.134367466,1,-0.015993128,1,0.004642256,1,0.013531128,1,0.404345632,1,-0.708294272,1,-1.434583068,1
1.684070706,-6.054129124,1,-3.149424791,1,-7.09885931,1,-0.013434967,1,0.002299871,1,0.016581291,1,0.404233545,1,-0.708302081,1,-1.434504747,1
1.688068628,-6.001664639,1,-3.157245398,1,-7.139064312,1,-0.014637565,1,-4.08E-06,1,0.014765245,1,0.404134482,1,-0.708318472,1,-1.434428453,1
1.692068338,-6.041603088,1,-3.09325099,1,-7.139676094,1,-0.010844238,1,-0.00077223,1,0.015304758,1,0.404031008,1,-0.708349705,1,-1.434365273,1
1.696070194,-6.061243534,1,-3.074975491,1,-7.148914814,1,-0.013847594,1,-0.00946433,1,0.016626345,1,0.403935224,1,-0.70839119,1,-1.434299111,1
1.700068116,-6.0417099,1,-3.083869219,1,-7.141640186,1,-0.009232803,1,-0.007379514,1,0.014597648,1,0.403853714,1,-0.708444417,1,-1.434238553,1
1.704067826,-6.089806557,1,-3.138223648,1,-7.137369156,1,-0.010432884,1,-0.007948754,1,0.01656154,1,0.403775483,1,-0.708504736,1,-1.434185624,1
1.708069921,-6.056021214,1,-3.155256748,1,-7.117651939,1,-0.00924533,1,-0.012948181,1,0.016927544,1,0.403699607,1,-0.708572328,1,-1.434129715,1
1.712067842,-6.095033646,1,-3.209633589,1,-7.154750347,1,-0.00920019,1,-0.01917634,1,0.018234119,1,0.403638661,1,-0.708656073,1,-1.434083343,1
1.716067553,-6.110210896,1,-3.158231497,1,-7.137357712,1,-0.008345582,1,-0.01968505,1,0.017058959,1,0.403576791,1,-0.70874542,1,-1.434042335,1
1.720069408,-6.098531246,1,-3.160593748,1,-7.171857357,1,-0.007439153,1,-0.021962252,1,0.018241847,1,0.403518885,1,-0.70884788,1,-1.434001684,1
1.724073172,-6.067325592,1,-3.133944273,1,-7.12796545,1,-0.007369065,1,-0.027827814,1,0.018376661,1,0.403467268,1,-0.708968401,1,-1.433967829,1
1.728073001,-6.081048012,1,-3.125192165,1,-7.150066853,1,-0.00423951,1,-0.025371535,1,0.019780563,1,0.403412104,1,-0.709089398,1,-1.433928847,1
1.732074976,-6.131943226,1,-3.089633942,1,-7.153203011,1,-0.005810834,1,-0.0317894,1,0.017422313,1,0.403373897,1,-0.709226072,1,-1.433904886,1
1.736073017,-6.139290333,1,-3.055334091,1,-7.164396286,1,0.000134378,1,-0.032801393,1,0.013957028,1,0.403342545,1,-0.709367454,1,-1.433891773,1
1.740072727,-6.146714211,1,-3.07282567,1,-7.139214993,1,-0.002555892,1,-0.03842283,1,0.011978221,1,0.403342009,1,-0.709516466,1,-1.43389535,1
1.744074464,-6.188384056,1,-3.090484142,1,-7.136063576,1,0.001914828,1,-0.039188225,1,0.014270821,1,0.403347194,1,-0.709675431,1,-1.433911324,1
1.748072147,-6.07725668,1,-3.120903015,1,-7.170136452,1,0.002468825,1,-0.046416327,1,0.009721124,1,0.403377891,1,-0.709850311,1,-1.43394351,1
1.752071977,-6.058571815,1,-3.144131184,1,-7.244936943,1,0.003672547,1,-0.050385911,1,0.008964909,1,0.403416872,1,-0.71004349,1,-1.43399775,1
1.756073713,-6.001168251,1,-3.142328262,1,-7.261655331,1,0.007094888,1,-0.056984834,1,0.013250271,1,0.403480619,1,-0.710259378,1,-1.434060335,1
1.760071397,-6.022110939,1,-3.12797904,1,-7.289466858,1,0.007289024,1,-0.066184565,1,0.014048307,1,0.403553456,1,-0.710518122,1,-1.434137821,1
1.764071226,-5.994911671,1,-3.243510485,1,-7.298579216,1,0.005358894,1,-0.079162426,1,0.018776968,1,0.403633684,1,-0.710810483,1,-1.434201479,1
1.768072724,-5.990120888,1,-3.258293629,1,-7.248635292,1,0.006746049,1,-0.086588658,1,0.024423409,1,0.403717995,1,-0.711142838,1,-1.434280038,1
1.772070646,-6.011065006,1,-3.398309946,1,-7.304278851,1,0.011753585,1,-0.100156233,1,0.025405254,1,0.403805554,1,-0.71153295,1,-1.434356093,1
1.776070356,-5.93048811,1,-3.514690399,1,-7.292909622,1,0.010099233,1,-0.112380385,1,0.042751603,1,0.403879136,1,-0.711974859,1,-1.434404016,1
1.780071974,-5.839717388,1,-3.539788485,1,-7.305479527,1,0.005252105,1,-0.125009269,1,0.053500224,1,0.40391475,1,-0.712477267,1,-1.434420586,1
1.784069896,-5.786605358,1,-3.465228796,1,-7.340795994,1,0.005622384,1,-0.146402761,1,0.069035411,1,0.403921515,1,-0.713074625,1,-1.434395909,1
1.788069606,-5.838696957,1,-3.51191783,1,-7.418726921,1,0.004927903,1,-0.163370356,1,0.083188482,1,0.403916538,1,-0.713756859,1,-1.434341311,1
1.792071462,-5.825632572,1,-3.543920994,1,-7.455183506,1,0.012816211,1,-0.183679074,1,0.102689952,1,0.403892189,1,-0.714545548,1,-1.434250712,1
1.796069384,-5.791497707,1,-3.723655939,1,-7.599714279,1,0.017786723,1,-0.211550266,1,0.121451341,1,0.403862894,1,-0.715441883,1,-1.434118152,1
1.800069094,-5.639642715,1,-3.862906694,1,-7.735535145,1,0.047556043,1,-0.256141365,1,0.153765932,1,0.403871536,1,-0.716517508,1,-1.433928967,1
1.80407095,-5.537184238,1,-3.842914581,1,-7.870378494,1,0.061737198,1,-0.302134722,1,0.188274413,1,0.403919935,1,-0.717805147,1,-1.433673024,1
1.808068633,-5.473368645,1,-3.903957129,1,-8.066431046,1,0.066366985,1,-0.35787183,1,0.220991418,1,0.403975725,1,-0.719333529,1,-1.433358431,1
1.812068343,-5.847050667,1,-4.083684921,1,-8.087723732,1,0.052292459,1,-0.399907917,1,0.246051908,1,0.403981566,1,-0.721102238,1,-1.433020234,1
1.816070199,-6.145576954,1,-4.374131203,1,-7.756452084,1,0.065633081,1,-0.426791817,1,0.25490132,1,0.403978676,1,-0.723029792,1,-1.432674646,1
1.820068121,-6.333817482,1,-4.393157959,1,-7.563167572,1,0.114820361,1,-0.431829274,1,0.238442913,1,0.404136717,1,-0.724993229,1,-1.432368636,1
1.824067593,-6.217783451,1,-4.554961205,1,-7.59405756,1,0.133043215,1,-0.457715929,1,0.219392002,1,0.404508263,1,-0.726987302,1,-1.432171822,1
1.828069329,-6.088989735,1,-4.679347992,1,-7.865484238,1,0.171637669,1,-0.494940877,1,0.201572716,1,0.405101359,1,-0.729070604,1,-1.432139993,1
1.83206737,-5.21675396,1,-5.170032024,1,-8.425674438,1,0.209313929,1,-0.555301368,1,0.203791589,1,0.405945897,1,-0.731316209,1,-1.432248592,1
1.83606708,-5.718151569,1,-5.185538292,1,-8.396104813,1,0.231881931,1,-0.606693804,1,0.207241952,1,0.40695852,1,-0.733781517,1,-1.432459354,1
1.840068817,-5.420178413,1,-4.866585255,1,-9.175411224,1,0.291873187,1,-0.6767627,1,0.2123961,1,0.408220291,1,-0.736460447,1,-1.43277359,1
1.8440727,-5.122256756,1,-5.022426128,1,-10.2693615,1,0.344131887,1,-0.763664961,1,0.222473577,1,0.409831196,1,-0.739439249,1,-1.433256269,1
1.848072648,-4.512446404,1,-5.177396774,1,-11.12570572,1,0.368642509,1,-0.883269668,1,0.246970564,1,0.411675632,1,-0.742822945,1,-1.433869481,1
1.852074504,-4.569422722,1,-5.579036236,1,-12.23481083,1,0.424850523,1,-1.051941633,1,0.300986081,1,0.413764894,1,-0.746788085,1,-1.434612751,1
1.856072187,-5.258957863,1,-5.040284157,1,-12.63149834,1,0.460294217,1,-1.252157807,1,0.389689147,1,0.416073292,1,-0.751574636,1,-1.435417533,1
1.860071898,-9.436920166,1,-2.125819921,1,-12.71517181,1,0.697063863,1,-1.453861356,1,0.50916779,1,0.418907702,1,-0.75725168,1,-1.43622005,1
1.864073753,-10.67418003,1,-2.920580149,1,-11.491992,1,0.831189275,1,-1.472653747,1,0.695168376,1,0.422160983,1,-0.763633788,1,-1.436489701,1
1.868071675,-9.070727348,1,-3.206575155,1,-9.827179909,1,0.95024991,1,-1.417822123,1,0.890806139,1,0.425249934,1,-0.770196199,1,-1.43576622,1
1.872071385,-7.637001991,1,-6.024168968,1,-8.892184258,1,0.868348122,1,-1.473803282,1,1.11306572,1,0.427703947,1,-0.777086496,1,-1.434016109,1
1.876073241,-9.482145309,1,-9.046030045,1,-8.919120789,1,0.650187969,1,-1.560059667,1,1.313447595,1,0.428893059,1,-0.784653604,1,-1.431336641,1
1.880071163,-12.33748817,1,-11.3627634,1,-10.12474632,1,0.34289068,1,-1.497738957,1,1.405587792,1,0.428424895,1,-0.792543769,1,-1.427901268,1
1.884070873,-13.67004013,1,-12.27306843,1,-10.15104389,1,0.066249214,1,-1.398558617,1,1.48540771,1,0.426364034,1,-0.800191879,1,-1.423827171,1
1.888072491,-14.64040089,1,-11.55461597,1,-11.14491463,1,-0.24160707,1,-1.238886118,1,1.571166635,1,0.422484636,1,-0.807551086,1,-1.418931246,1
1.892070174,-14.76633549,1,-10.96376133,1,-12.28219414,1,-0.499145836,1,-0.982383132,1,1.560085893,1,0.416846395,1,-0.814173162,1,-1.413227797,1
1.896069884,-13.59858036,1,-10.1133213,1,-13.21248436,1,-0.671111047,1,-0.695411146,1,1.479793787,1,0.410000265,1,-0.819690347,1,-1.407059073,1
1.900071621,-11.23335838,1,-8.477900505,1,-13.26728821,1,-0.775611222,1,-0.464778572,1,1.401549578,1,0.402360559,1,-0.824081659,1,-1.400614142,1
1.904069424,-8.322922707,1,-6.780799389,1,-12.72173119,1,-0.795262277,1,-0.334509641,1,1.364761472,1,0.394342721,1,-0.827673554,1,-1.394008994,1
1.908068895,-5.851922989,1,-5.698312283,1,-12.05712223,1,-0.727622807,1,-0.290557265,1,1.366151571,1,0.386295676,1,-0.830890536,1,-1.387239218,1
1.912070632,-4.210272312,1,-5.256160259,1,-11.53891182,1,-0.622700393,1,-0.303401589,1,1.393077016,1,0.378455073,1,-0.834038317,1,-1.380296111,1
1.916068316,-3.047991991,1,-4.996507168,1,-11.10613918,1,-0.516496539,1,-0.334176064,1,1.43935585,1,0.370867074,1,-0.83728826,1,-1.373132586,1
1.920067787,-2.587129354,1,-4.941783428,1,-10.75455761,1,-0.416473687,1,-0.381549865,1,1.505769014,1,0.363378972,1,-0.840733528,1,-1.365285873,1
1.924069643,-2.422056675,1,-5.150962353,1,-10.58901978,1,-0.342508644,1,-0.422735512,1,1.561028957,1,0.356062263,1,-0.844397664,1,-1.357517362,1
1.928067327,-2.519043207,1,-5.480313778,1,-10.5412035,1,-0.290759981,1,-0.440702558,1,1.606029034,1,0.34874928,1,-0.848217785,1,-1.349438667,1
1.932067275,-2.639573336,1,-5.748832226,1,-10.60336971,1,-0.262578636,1,-0.42767179,1,1.632201076,1,0.341381222,1,-0.852049887,1,-1.341101408,1
1.936069131,-2.748454332,1,-5.875026703,1,-10.76814079,1,-0.251728505,1,-0.384171546,1,1.630188107,1,0.333914757,1,-0.85575366,1,-1.332549572,1
1.940066814,-2.742345095,1,-5.877731323,1,-10.88611603,1,-0.236135215,1,-0.323062956,1,1.605628371,1,0.326393425,1,-0.859199166,1,-1.323886633,1
1.944066525,-2.59181428,1,-5.812554359,1,-10.98660183,1,-0.223384887,1,-0.242694184,1,1.560477376,1,0.318894476,1,-0.86229378,1,-1.315214276,1
1.94806838,-2.22188282,1,-5.750248432,1,-11.03811932,1,-0.204478994,1,-0.154321358,1,1.498453617,1,0.311518788,1,-0.864949703,1,-1.306630373,1
1.952066064,-1.619134784,1,-5.703938007,1,-11.02664757,1,-0.183628976,1,-0.072700582,1,1.41989851,1,0.30436486,1,-0.867137432,1,-1.298258066,1
1.956065774,-1.103317261,1,-5.620778561,1,-10.98134041,1,-0.159998819,1,0.014350981,1,1.33104372,1,0.297505319,1,-0.868881285,1,-1.290171385,1
1.96006763,-0.613584936,1,-5.640064716,1,-10.84630585,1,-0.141939804,1,0.086718172,1,1.24055469,1,0.290991366,1,-0.870184779,1,-1.282441258,1
1.964071393,-0.19817169,1,-5.644785881,1,-10.66549492,1,-0.131133556,1,0.150243267,1,1.142881393,1,0.28485465,1,-0.871083379,1,-1.275125146,1
1.968071222,0.253401488,1,-5.613873482,1,-10.44550419,1,-0.112062588,1,0.216398075,1,1.046875,1,0.279139906,1,-0.871594787,1,-1.268282056,1
1.972072721,0.666685402,1,-5.519437313,1,-10.24665546,1,-0.099039137,1,0.268211752,1,0.945977271,1,0.273839682,1,-0.871760368,1,-1.261908293,1
1.976070642,1.011465311,1,-5.373247147,1,-10.02853584,1,-0.081884325,1,0.312835395,1,0.846769929,1,0.26899299,1,-0.87160182,1,-1.256051302,1
1.980070353,1.334378719,1,-5.15964222,1,-9.858094215,1,-0.052689958,1,0.354825228,1,0.746766508,1,0.264648288,1,-0.87114799,1,-1.250734091,1
1.984072208,1.606388211,1,-5.02643013,1,-9.673894882,1,-0.023147242,1,0.390970558,1,0.640317023,1,0.260860205,1,-0.870429277,1,-1.245984793,1
1.98807013,1.760855079,1,-4.885495186,1,-9.503174782,1,0.012049064,1,0.422223836,1,0.535624981,1,0.257652402,1,-0.869455874,1,-1.241814494,1
1.99206984,1.883744359,1,-4.850325584,1,-9.263771057,1,0.049879096,1,0.452676922,1,0.428941846,1,0.255042225,1,-0.868250489,1,-1.238232017,1
1.996071935,1.938926339,1,-4.786603928,1,-9.111169815,1,0.084173657,1,0.482432991,1,0.326274484,1,0.25303629,1,-0.866818428,1,-1.235250592,1
2.000069857,2.041697979,1,-4.714679718,1,-8.907301903,1,0.116992638,1,0.504227161,1,0.22334367,1,0.251598656,1,-0.865177274,1,-1.232839584,1
2.004069328,2.080630779,1,-4.590491772,1,-8.712094307,1,0.146527588,1,0.530828774,1,0.115028284,1,0.250755131,1,-0.863341689,1,-1.231037974,1
2.008071184,2.138352871,1,-4.484220028,1,-8.502218246,1,0.176060885,1,0.549283564,1,0.016759932,1,0.250468075,1,-0.861312389,1,-1.229814053,1
2.012069225,2.185138226,1,-4.388378143,1,-8.382801056,1,0.198228002,1,0.561903715,1,-0.086520962,1,0.250738472,1,-0.859122276,1,-1.229178309,1
2.016068697,2.226388931,1,-4.293137074,1,-8.214109421,1,0.216313601,1,0.574520409,1,-0.184763193,1,0.251520932,1,-0.85678786,1,-1.229115844,1
2.020070553,2.189407587,1,-4.26506424,1,-8.100253105,1,0.233774766,1,0.579425156,1,-0.2773467,1,0.25279215,1,-0.854325533,1,-1.229608417,1
2.024068832,2.155290365,1,-4.20431757,1,-8.023245811,1,0.248877585,1,0.590165079,1,-0.376854837,1,0.254543871,1,-0.851736665,1,-1.230646133,1
2.028068542,2.048687935,1,-4.107868195,1,-7.965585709,1,0.258364052,1,0.599691272,1,-0.467261344,1,0.256723613,1,-0.849018931,1,-1.23219955,1
2.032070637,1.890707612,1,-3.993953943,1,-7.925869465,1,0.271472186,1,0.606401861,1,-0.553575099,1,0.259327203,1,-0.846171677,1,-1.234251261,1
2.036068678,1.707773209,1,-3.859869957,1,-7.887803555,1,0.283141971,1,0.621070445,1,-0.645420849,1,0.262359947,1,-0.843178928,1,-1.236806154,1
2.040068388,1.536016345,1,-3.765144825,1,-7.865507603,1,0.297512263,1,0.640155911,1,-0.734542131,1,0.265763104,1,-0.840028763,1,-1.239819646,1
2.044070244,1.34777379,1,-3.709691286,1,-7.814644337,1,0.311080039,1,0.661060154,1,-0.814544976,1,0.269527256,1,-0.836705089,1,-1.243251324,1
2.048067808,1.156023741,1,-3.685652733,1,-7.830080032,1,0.323635459,1,0.689845085,1,-0.892897546,1,0.273624897,1,-0.833192706,1,-1.247067928,1
2.052067518,0.856925905,1,-3.685103178,1,-7.856603146,1,0.338839263,1,0.716222942,1,-0.968266249,1,0.278039455,1,-0.82948792,1,-1.251250863,1
2.056069374,0.562882483,1,-3.626300097,1,-7.873067379,1,0.358719975,1,0.748705506,1,-1.037478805,1,0.282750189,1,-0.825558603,1,-1.255749583,1
2.060067415,0.182096153,1,-3.618301392,1,-7.922039986,1,0.377017409,1,0.789017081,1,-1.109653592,1,0.287729293,1,-0.821393728,1,-1.260533094,1
2.064067125,-0.306928903,1,-3.618879318,1,-7.980422497,1,0.397072971,1,0.837606609,1,-1.185262442,1,0.292997897,1,-0.816959381,1,-1.265614986,1
2.068068981,-0.730380237,1,-3.562659979,1,-8.008176804,1,0.415906906,1,0.896085858,1,-1.257766962,1,0.298518658,1,-0.812223494,1,-1.270954728,1
2.072067022,-1.160419703,1,-3.626559258,1,-8.061652184,1,0.42488876,1,0.954880476,1,-1.335668802,1,0.304232359,1,-0.807143927,1,-1.276537299,1
2.076066732,-1.554241538,1,-3.627063274,1,-8.080436707,1,0.426783144,1,1.028861761,1,-1.406125546,1,0.310135543,1,-0.801697671,1,-1.282356024,1
2.08006835,-1.885341048,1,-3.660872936,1,-8.138819695,1,0.430455118,1,1.098818302,1,-1.481238127,1,0.316153675,1,-0.795876384,1,-1.288353562,1
2.084066391,-2.187557936,1,-3.564921618,1,-8.161035538,1,0.428863496,1,1.171390772,1,-1.551276088,1,0.322277486,1,-0.789655626,1,-1.294531584,1
2.088071823,-2.4096241,1,-3.429934502,1,-8.16742897,1,0.428244621,1,1.2481637,1,-1.614186764,1,0.3284567,1,-0.783042431,1,-1.300841928,1
2.092073917,-2.599787712,1,-3.258523941,1,-8.174180984,1,0.423367292,1,1.312832832,1,-1.68564558,1,0.33467862,1,-0.776050806,1,-1.307275534,1
2.096071959,-2.725490093,1,-3.07640481,1,-8.146944046,1,0.420670837,1,1.377303839,1,-1.73852694,1,0.340923905,1,-0.768701851,1,-1.313812137,1
2.10007143,-2.855298281,1,-2.899298191,1,-8.14577198,1,0.415535718,1,1.432680368,1,-1.79119432,1,0.347161055,1,-0.761030197,1,-1.320405722,1
2.104073286,-3.017764568,1,-2.740097761,1,-8.096199989,1,0.415769905,1,1.476842284,1,-1.833531976,1,0.3533687,1,-0.75306952,1,-1.327016234,1
2.10807085,-3.158404589,1,-2.590516567,1,-8.051821709,1,0.415907323,1,1.533176064,1,-1.864300489,1,0.359506786,1,-0.744847476,1,-1.333599567,1
2.11207056,-3.290793657,1,-2.42519474,1,-8.064249039,1,0.417538315,1,1.571333408,1,-1.88958919,1,0.365596533,1,-0.736392379,1,-1.340140343,1
2.116072416,-3.460512161,1,-2.278921127,1,-8.067224503,1,0.432123184,1,1.608948112,1,-1.905328751,1,0.371594906,1,-0.727714419,1,-1.346575499,1
2.120070219,-3.66974926,1,-2.090445995,1,-8.069516182,1,0.43796277,1,1.650428653,1,-1.917767763,1,0.377505898,1,-0.718838334,1,-1.352882385,1
2.124069929,-3.835777283,1,-1.988690257,1,-8.040456772,1,0.44773376,1,1.690559506,1,-1.917260289,1,0.383296192,1,-0.709774494,1,-1.359019876,1
2.128071785,-4.025175571,1,-1.899013877,1,-7.988217831,1,0.458963871,1,1.732517123,1,-1.916157484,1,0.388960332,1,-0.700536489,1,-1.364964008,1
2.132069349,-4.163320065,1,-1.836064339,1,-7.94044733,1,0.463125288,1,1.769752741,1,-1.90017736,1,0.394466907,1,-0.691148639,1,-1.37067008,1
2.136069059,-4.305767536,1,-1.790859938,1,-7.937551975,1,0.464153111,1,1.805267692,1,-1.878614783,1,0.399773926,1,-0.68162781,1,-1.376110435,1
2.140070915,-4.375311852,1,-1.752353787,1,-7.904671669,1,0.466298848,1,1.836337805,1,-1.849146962,1,0.404857159,1,-0.672003388,1,-1.381260753,1
2.144068718,-4.520564079,1,-1.746353745,1,-7.817420959,1,0.461742967,1,1.863745213,1,-1.817579865,1,0.409698367,1,-0.662305593,1,-1.386097908,1
2.148068428,-4.591531754,1,-1.670149684,1,-7.830489159,1,0.456146777,1,1.880938292,1,-1.775742054,1,0.414299607,1,-0.652561128,1,-1.390633821,1
2.152070284,-4.733564854,1,-1.753790855,1,-7.873409748,1,0.454907447,1,1.898982048,1,-1.730780005,1,0.418666244,1,-0.642806053,1,-1.394846797,1
2.156068802,-5.019150257,1,-1.725179076,1,-7.940477371,1,0.463958681,1,1.912623644,1,-1.694722176,1,0.42283529,1,-0.633055866,1,-1.398764491,1
2.160068512,-5.382695675,1,-1.705959678,1,-7.988541126,1,0.472323418,1,1.936329842,1,-1.660698652,1,0.426834136,1,-0.623284698,1,-1.402396202,1
2.164070368,-5.706507206,1,-1.715885043,1,-8.006408691,1,0.481202871,1,1.958972931,1,-1.62902832,1,0.430702388,1,-0.613460541,1,-1.405773759,1
2.168068409,-5.977379799,1,-1.77311492,1,-8.006463051,1,0.482907653,1,1.986666918,1,-1.609027863,1,0.427433968,1,-0.586897433,1,-1.442906618,1
2.172068119,-6.172851563,1,-1.912989855,1,-8.009954453,1,0.485400587,1,2.022060871,1,-1.58398068,1,0.430843115,1,-0.576925576,1,-1.44616282,1
2.176069736,-6.260307789,1,-2.093513727,1,-7.982545853,1,0.471397102,1,2.044377804,1,-1.558934093,1,0.434240937,1,-0.566917479,1,-1.448899746,1
2.180067539,-6.390832901,1,-2.214300156,1,-7.983006001,1,0.462193102,1,2.063391685,1,-1.529618502,1,0.437458873,1,-0.556861043,1,-1.451422215,1
2.184067249,-6.514375687,1,-2.349090576,1,-7.977396965,1,0.449263275,1,2.075823545,1,-1.501249909,1,0.440505177,1,-0.546794176,1,-1.453737497,1
2.188069105,-6.735303879,1,-2.474176168,1,-8.016601563,1,0.448171675,1,2.09388566,1,-1.463025331,1,0.443376392,1,-0.536722243,1,-1.455829501,1
2.192067146,-7.064914703,1,-2.498012304,1,-8.039853096,1,0.444422215,1,2.108702898,1,-1.437708855,1,0.446111053,1,-0.526645243,1,-1.457719564,1
2.196066856,-7.366100311,1,-2.552148581,1,-7.984716892,1,0.434147418,1,2.127712011,1,-1.411210537,1,0.448709756,1,-0.51653856,1,-1.45941186,1
2.200068951,-7.624248981,1,-2.662717104,1,-7.912975311,1,0.428804457,1,2.14973712,1,-1.381592035,1,0.451180965,1,-0.506409287,1,-1.460913062,1
2.204066753,-7.787256241,1,-2.747043371,1,-7.879655361,1,0.427764535,1,2.177843571,1,-1.354484797,1,0.453512073,1,-0.496241361,1,-1.462215781,1
2.208072424,-7.867221355,1,-2.846576214,1,-7.800533772,1,0.411179036,1,2.199037552,1,-1.328901768,1,0.455716342,1,-0.486026824,1,-1.463327527,1
2.21207428,-7.854950428,1,-2.864070892,1,-7.748477936,1,0.400839448,1,2.204435349,1,-1.293174624,1,0.457764745,1,-0.475798309,1,-1.464249849,1
2.216071844,-7.84221983,1,-2.846053362,1,-7.726246357,1,0.390141487,1,2.214184761,1,-1.261982322,1,0.459686518,1,-0.46560508,1,-1.465000749,1
2.220072031,-7.900172234,1,-2.812794924,1,-7.682551384,1,0.383461148,1,2.204934359,1,-1.231312752,1,0.461504757,1,-0.455465496,1,-1.465598822,1
2.224073648,-7.945704937,1,-2.787637472,1,-7.592802048,1,0.384112269,1,2.199364662,1,-1.19252336,1,0.463236868,1,-0.445417613,1,-1.466051579,1
2.228071451,-7.951614857,1,-2.794338942,1,-7.46621418,1,0.385095656,1,2.178939819,1,-1.157985687,1,0.464901507,1,-0.435476989,1,-1.466360688,1
2.232071161,-7.955749989,1,-2.751928568,1,-7.293004513,1,0.382166445,1,2.156251431,1,-1.111311793,1,0.466516048,1,-0.425690025,1,-1.46654439,1
2.236073017,-7.935106277,1,-2.81942153,1,-7.187530518,1,0.387718946,1,2.122025728,1,-1.067906141,1,0.468073636,1,-0.416078746,1,-1.466585517,1
2.240070581,-7.908028126,1,-2.705464363,1,-6.963738918,1,0.387778431,1,2.081203222,1,-1.017919779,1,0.469590068,1,-0.406694055,1,-1.466503024,1
2.244070292,-7.868765354,1,-2.616337299,1,-6.834778309,1,0.401759148,1,2.030115604,1,-0.968092024,1,0.471087039,1,-0.397553205,1,-1.466298103,1
2.248072147,-7.818470478,1,-2.51993227,1,-6.595448017,1,0.411660105,1,1.971335769,1,-0.920750678,1,0.472593933,1,-0.388707221,1,-1.466000438,1
2.252070189,-7.708541393,1,-2.412285566,1,-6.390079021,1,0.42494601,1,1.910082459,1,-0.87139827,1,0.474123865,1,-0.380159944,1,-1.465617061,1
2.256069899,-7.553706169,1,-2.37693429,1,-6.211477757,1,0.435527295,1,1.831181407,1,-0.823315144,1,0.475688756,1,-0.371956289,1,-1.465183496,1
2.260071754,-7.335165977,1,-2.475425959,1,-5.955747128,1,0.441290617,1,1.741592407,1,-0.765887141,1,0.477265805,1,-0.364147455,1,-1.464699864,1
2.264069557,-7.160090923,1,-2.546814919,1,-5.821751595,1,0.445515692,1,1.644270062,1,-0.710029304,1,0.478852808,1,-0.356780797,1,-1.464176059,1
2.268069267,-7.069970608,1,-2.578480959,1,-5.77856493,1,0.449558258,1,1.538659215,1,-0.651063085,1,0.480452687,1,-0.349875271,1,-1.463632822,1
2.272070885,-7.20143795,1,-2.575810194,1,-5.643799305,1,0.453665078,1,1.437305212,1,-0.609129965,1,0.482076287,1,-0.343434632,1,-1.463088632,1
2.276068926,-7.244863033,1,-2.620755196,1,-5.651901245,1,0.455961585,1,1.330027461,1,-0.567536056,1,0.483718276,1,-0.337439477,1,-1.462574482,1
2.280068398,-7.448243618,1,-2.708250999,1,-5.68642807,1,0.455421746,1,1.231304884,1,-0.536150336,1,0.485387355,1,-0.33187741,1,-1.462109804,1
2.284070253,-7.782954693,1,-2.759579897,1,-5.715948582,1,0.458829194,1,1.145271063,1,-0.51733321,1,0.48709619,1,-0.326697826,1,-1.461726785,1
2.288068056,-8.089630127,1,-2.752659798,1,-5.790284634,1,0.459041297,1,1.072524786,1,-0.506054044,1,0.488848627,1,-0.321826369,1,-1.461438417,1
2.292067766,-8.364423752,1,-2.851614237,1,-5.737244606,1,0.447863013,1,1.007003784,1,-0.505245566,1,0.490612447,1,-0.317212492,1,-1.461262107,1
2.29606986,-8.601726532,1,-2.920417309,1,-5.61885643,1,0.439658463,1,0.955252767,1,-0.515584707,1,0.492374629,1,-0.312793851,1,-1.461208701,1
2.300067902,-8.731095314,1,-3.037522554,1,-5.46820116,1,0.414686739,1,0.901571453,1,-0.521388292,1,0.494096696,1,-0.308548033,1,-1.461283326,1
2.304067373,-8.68812561,1,-3.074328899,1,-5.316515446,1,0.383005619,1,0.850136459,1,-0.528507888,1,0.495747715,1,-0.304461807,1,-1.461466908,1
2.308069229,-8.718590736,1,-3.158293247,1,-5.167923927,1,0.352919459,1,0.795290887,1,-0.528155029,1,0.497311234,1,-0.300560772,1,-1.461771369,1
2.312066793,-8.9227314,1,-3.122458696,1,-5.081130028,1,0.331803083,1,0.735255837,1,-0.524417818,1,0.498792559,1,-0.29687053,1,-1.462177515,1
2.316066504,-9.336104393,1,-2.972129345,1,-5.002067089,1,0.313767493,1,0.681189477,1,-0.542277813,1,0.500243008,1,-0.293362617,1,-1.462715149,1
2.320068359,-9.876642227,1,-2.691662788,1,-4.817107201,1,0.301429927,1,0.639460444,1,-0.559760511,1,0.501674891,1,-0.289994657,1,-1.463405967,1
2.324066401,-10.36648369,1,-2.517799854,1,-4.646723747,1,0.294764251,1,0.60453856,1,-0.592553437,1,0.503110051,1,-0.286705196,1,-1.464265466,1
2.328072309,-10.71448612,1,-2.469029903,1,-4.404745102,1,0.275850087,1,0.580786467,1,-0.633330941,1,0.504544258,1,-0.283443511,1,-1.465315342,1
2.332073927,-10.79539394,1,-2.474807501,1,-4.015312195,1,0.247430101,1,0.554669082,1,-0.668287158,1,0.505935848,1,-0.280195892,1,-1.466547251,1
2.336071968,-10.67490864,1,-2.509943485,1,-3.625844002,1,0.210938394,1,0.514312506,1,-0.694579363,1,0.507235944,1,-0.277000666,1,-1.467944264,1
2.340071678,-10.58164692,1,-2.509670496,1,-3.180356264,1,0.149289325,1,0.463775694,1,-0.7033301,1,0.508376956,1,-0.273916572,1,-1.469494343,1
2.344073534,-10.31632805,1,-2.488161087,1,-2.699529409,1,0.085646309,1,0.391532362,1,-0.700766683,1,0.509303987,1,-0.271052599,1,-1.471178651,1
2.348071337,-10.08095169,1,-2.314104557,1,-2.311753988,1,0.011081324,1,0.299597591,1,-0.68316257,1,0.509980798,1,-0.268490374,1,-1.472983718,1
2.352071285,-9.879730225,1,-2.067545652,1,-1.866447568,1,-0.058119152,1,0.185912877,1,-0.651049316,1,0.510394037,1,-0.26634264,1,-1.474910617,1
2.356072903,-9.758358955,1,-1.731331825,1,-1.522485852,1,-0.120793529,1,0.052022807,1,-0.609908283,1,0.510567307,1,-0.264694303,1,-1.476949096,1
2.360070944,-9.762658119,1,-1.379871726,1,-1.241431713,1,-0.164155975,1,-0.089786991,1,-0.563303053,1,0.510553181,1,-0.263609946,1,-1.479107022,1
2.364070415,-9.878252983,1,-1.013119578,1,-1.001929879,1,-0.195292398,1,-0.248432547,1,-0.516267061,1,0.510424733,1,-0.26313436,1,-1.481405497,1
2.368072033,-10.08637619,1,-0.713305056,1,-0.775977552,1,-0.217131853,1,-0.397060782,1,-0.465978026,1,0.510227323,1,-0.263298869,1,-1.483833671,1
2.372069597,-10.3784008,1,-0.60837245,1,-0.643097639,1,-0.223013416,1,-0.545928836,1,-0.409116209,1,0.510008991,1,-0.264090121,1,-1.486372948,1
2.376069307,-10.87037945,1,-0.690879166,1,-0.437074721,1,-0.234294593,1,-0.681323111,1,-0.346235961,1,0.509775281,1,-0.265495598,1,-1.488977909,1
2.380071402,-9.713541985,1,-1.232319593,1,-1.635464072,1,-0.248749882,1,-0.824129641,1,-0.258134931,1,0.509513795,1,-0.267513067,1,-1.491605997,1
2.384069443,-4.421393871,1,-0.035797454,1,-2.326991081,1,-0.034379773,1,-1.694015741,1,0.245452791,1,0.509367049,1,-0.271587878,1,-1.494155884,1
2.388069153,-13.26084518,1,2.576170683,1,4.084840298,1,0.1515816,1,-2.296005011,1,0.68754518,1,0.510617673,1,-0.279854774,1,-1.49655211,1
2.392071009,12.58083248,1,-1.976247787,1,-1.519126415,1,-0.250203371,1,-2.21386075,1,0.930557907,1,0.510710239,1,-0.289181978,1,-1.498171329,1
2.396068811,6.134060383,1,-7.746821404,1,-6.904879093,1,-0.142024279,1,-2.785255194,1,1.221079707,1,0.510242879,1,-0.299925387,1,-1.499322295,1
2.400068283,-2.494219542,1,-7.921280861,1,-9.01609993,1,-0.213266268,1,-3.0385952,1,1.479503274,1,0.509924948,1,-0.312894523,1,-1.500395417,1
2.404070139,1.09548223,1,-7.452584743,1,-13.78652954,1,-0.382810026,1,-2.925784826,1,1.683768034,1,0.508809566,1,-0.326415539,1,-1.500714779,1
2.40806818,-1.068806887,1,-7.852360249,1,-15.11030006,1,-0.47088477,1,-2.826301098,1,1.77735281,1,0.506932557,1,-0.339865983,1,-1.500206709,1
2.41206789,-1.422665,1,-7.38978672,1,-13.47374153,1,-0.420528233,1,-2.719901562,1,1.796902895,1,0.504752517,1,-0.353011549,1,-1.499280453,1
2.416069984,-1.568814158,1,-7.864826202,1,-11.27924156,1,-0.417841583,1,-2.719996452,1,1.821146011,1,0.502715945,1,-0.366017222,1,-1.498099208,1
2.420067787,-2.367886305,1,-7.835812569,1,-8.642848015,1,-0.510175169,1,-2.845369577,1,1.824991345,1,0.500348091,1,-0.379239857,1,-1.497107029,1
2.424067736,-2.522311211,1,-5.584350586,1,-6.809751511,1,-0.538382888,1,-3.106076479,1,1.856241226,1,0.497948915,1,-0.393202424,1,-1.496279716,1
2.428069592,-4.025434494,1,-4.751893044,1,-5.798274517,1,-0.557327926,1,-3.387568712,1,1.887660861,1,0.495566308,1,-0.408193946,1,-1.495850682,1
2.432067633,-7.095499039,1,-5.46768856,1,-6.217929363,1,-0.560077012,1,-3.612655878,1,1.891271234,1,0.493335336,1,-0.424134016,1,-1.495847583,1
2.436067343,-10.5778532,1,-5.458685398,1,-7.450277328,1,-0.563241124,1,-3.658207893,1,1.792521715,1,0.49127683,1,-0.440478057,1,-1.496287107,1
2.440069199,-14.20260525,1,-4.229982376,1,-9.401384354,1,-0.517736018,1,-3.509530306,1,1.643299937,1,0.489433616,1,-0.456407189,1,-1.497052312,1
2.444067001,-16.97302246,1,-3.959465981,1,-10.46882343,1,-0.471763372,1,-3.229629755,1,1.433250666,1,0.487903684,1,-0.471227109,1,-1.498053074,1
2.44807291,-16.90833282,1,-2.612843275,1,-11.34560776,1,-0.336144239,1,-2.881747961,1,1.217647791,1,0.486828685,1,-0.484510601,1,-1.499216557,1
2.452075005,-17.01730537,1,-2.488652468,1,-11.1893158,1,-0.304762781,1,-2.576847792,1,1.10360229,1,0.486101925,1,-0.496301055,1,-1.500401616,1
2.456073284,-14.86982536,1,-1.401603937,1,-10.55326653,1,-0.275467306,1,-2.279865026,1,1.097334862,1,0.485300243,1,-0.506927311,1,-1.501143575,1
2.460073233,-12.79813671,1,-0.503162205,1,-9.983859062,1,-0.218325317,1,-2.061798096,1,1.153644323,1,0.484330088,1,-0.51668489,1,-1.501214981,1
2.464075089,-11.35940075,1,-1.146049738,1,-9.972574234,1,-0.193395153,1,-1.908035636,1,1.246612787,1,0.483219028,1,-0.52592504,1,-1.500571966,1
2.46807313,-9.99848938,1,-1.414448142,1,-9.648870468,1,-0.170281053,1,-1.78598237,1,1.34089756,1,0.481800437,1,-0.534887433,1,-1.499206781,1
2.472073317,-8.913302422,1,-1.664364934,1,-9.614800453,1,-0.097981177,1,-1.705916643,1,1.338780046,1,0.480333,1,-0.543555975,1,-1.497406721,1
2.476075172,-8.762784004,1,-2.964031935,1,-9.343989372,1,-0.05752885,1,-1.657156467,1,1.279488802,1,0.479091018,1,-0.551949918,1,-1.495590806,1
2.480073214,-9.550299644,1,-4.86649847,1,-8.592007637,1,-0.077007338,1,-1.617847323,1,1.251824856,1,0.47792688,1,-0.560097039,1,-1.493859172,1
2.484072924,-8.87792778,1,-5.96997261,1,-7.479061127,1,-0.114365958,1,-1.543994784,1,1.162941217,1,0.476647764,1,-0.567927122,1,-1.492212415,1
2.48807478,-9.013352394,1,-7.567616463,1,-7.156515121,1,-0.176935047,1,-1.514047384,1,1.097442746,1,0.475337565,1,-0.575403452,1,-1.490800381,1
2.492072821,-9.145819664,1,-7.774602413,1,-6.02067852,1,-0.302039772,1,-1.463334918,1,1.077924609,1,0.473619699,1,-0.582730114,1,-1.489402413,1
2.496072531,-8.79441452,1,-8.38203907,1,-5.99434948,1,-0.42385003,1,-1.412032366,1,1.041670561,1,0.471400142,1,-0.589751601,1,-1.488030195,1
2.500074148,-8.5415411,1,-7.297924519,1,-5.601368427,1,-0.517289579,1,-1.343046784,1,1.015642881,1,0.468715727,1,-0.596539378,1,-1.486599326,1
2.504072189,-7.936322689,1,-6.648138046,1,-6.004971504,1,-0.58863616,1,-1.270663619,1,1.000159144,1,0.465650469,1,-0.603014827,1,-1.485100269,1
2.508071899,-8.584507942,1,-5.628337383,1,-6.258493423,1,-0.66287601,1,-1.184564114,1,1.045511842,1,0.462144732,1,-0.609251499,1,-1.483340263,1
2.512073755,-8.30845356,1,-4.755702019,1,-6.647708416,1,-0.73166579,1,-1.067912102,1,1.06469214,1,0.4581092,1,-0.61515826,1,-1.481178284,1
2.516072035,-8.012327194,1,-3.821703911,1,-7.052468777,1,-0.748851657,1,-0.955936432,1,1.090341926,1,0.453666776,1,-0.620690048,1,-1.478617311,1
2.520071745,-8.182608604,1,-3.142952204,1,-7.291875839,1,-0.770061016,1,-0.859021842,1,1.127145171,1,0.448913544,1,-0.62590301,1,-1.475646973,1
2.524073362,-7.191179276,1,-2.66638422,1,-7.602395058,1,-0.793480873,1,-0.755752802,1,1.137571812,1,0.44380489,1,-0.630765021,1,-1.472298026,1
2.528071165,-6.716255665,1,-2.367163897,1,-7.775236607,1,-0.773246467,1,-0.704301417,1,1.127963185,1,0.438567638,1,-0.635323167,1,-1.46874404,1
2.532070875,-6.352628708,1,-2.63434124,1,-7.694068432,1,-0.760909677,1,-0.694345415,1,1.11835146,1,0.433365881,1,-0.639755964,1,-1.465150595,1
2.536072731,-8.158432961,1,-3.293574333,1,-7.859433651,1,-0.799033761,1,-0.664411783,1,1.126652837,1,0.428074628,1,-0.64412272,1,-1.461476445,1
2.540070772,-8.313188553,1,-3.838917494,1,-7.529524326,1,-0.817566037,1,-0.57514149,1,1.052068949,1,0.422572225,1,-0.648186505,1,-1.457779646,1
2.544070482,-8.849738121,1,-3.507514954,1,-7.45221138,1,-0.795284927,1,-0.484886348,1,0.980320096,1,0.417163223,1,-0.651768148,1,-1.45418942,1
2.5480721,-9.419369698,1,-2.884307384,1,-8.239572525,1,-0.793619335,1,-0.380977213,1,0.901902556,1,0.411892056,1,-0.654893816,1,-1.450731635,1
2.552070141,-8.652230263,1,-2.06088686,1,-8.510455132,1,-0.748206913,1,-0.253811449,1,0.828625321,1,0.406750739,1,-0.657429218,1,-1.447373629,1
2.556070089,-7.525604248,1,-1.685566545,1,-8.449589729,1,-0.705228329,1,-0.184661075,1,0.768720448,1,0.401843816,1,-0.659476161,1,-1.444106102,1
2.560071707,-7.187035561,1,-1.683445215,1,-8.616081238,1,-0.646229506,1,-0.154505685,1,0.7118662,1,0.397238433,1,-0.66125983,1,-1.440974474,1
2.564069748,-7.277060032,1,-2.13759017,1,-8.422592163,1,-0.598112762,1,-0.106541499,1,0.641517878,1,0.392945915,1,-0.662783742,1,-1.438054681,1
2.56807518,-7.627995968,1,-2.687193871,1,-8.12025547,1,-0.56494385,1,-0.063326888,1,0.589275837,1,0.388951242,1,-0.664032638,1,-1.435334563,1
2.572077274,-7.974808693,1,-2.457842827,1,-8.097046852,1,-0.504063666,1,0.002006939,1,0.512341559,1,0.385245085,1,-0.664982319,1,-1.432803035,1
2.576075315,-6.902173042,1,-2.626343727,1,-7.621913433,1,-0.4831554,1,0.033516489,1,0.483905047,1,0.381818026,1,-0.665645123,1,-1.430427432,1
2.580075026,-6.391620159,1,-2.850656748,1,-7.656306744,1,-0.473544538,1,0.029423764,1,0.476973444,1,0.378454685,1,-0.666249514,1,-1.428089261,1
2.584077358,-6.730486393,1,-2.993835211,1,-7.908779621,1,-0.458224714,1,0.037889015,1,0.451780736,1,0.375201255,1,-0.666819572,1,-1.425832987,1
2.588075876,-6.435385704,1,-2.888503551,1,-7.705071449,1,-0.454124063,1,0.042233448,1,0.437754899,1,0.372038007,1,-0.667304993,1,-1.423651338,1
2.592075586,-6.094361782,1,-2.93510747,1,-7.593002319,1,-0.462578326,1,0.046852052,1,0.442612082,1,0.368856132,1,-0.667770505,1,-1.421475291,1
2.596077681,-6.080294609,1,-2.921940565,1,-7.63926363,1,-0.454020083,1,0.036224939,1,0.435938865,1,0.365677357,1,-0.668234825,1,-1.419303894,1
2.600075483,-5.998019218,1,-2.912344694,1,-7.704342842,1,-0.445679843,1,0.026204789,1,0.427340865,1,0.362567723,1,-0.66872561,1,-1.417192698,1
2.604075432,-6.011232376,1,-2.640244007,1,-7.739309311,1,-0.428049356,1,0.011178854,1,0.399569005,1,0.359589636,1,-0.669247866,1,-1.415195227,1
2.608077288,-6.014217854,1,-2.33287549,1,-7.758829594,1,-0.397088856,1,-0.002177693,1,0.376844376,1,0.356799662,1,-0.669771671,1,-1.413332939,1
2.612075329,-5.972623825,1,-2.218891382,1,-7.83518362,1,-0.355880558,1,-0.019081159,1,0.350983709,1,0.35423398,1,-0.670322001,1,-1.411615133,1
2.616075277,-5.936393738,1,-2.165546417,1,-7.779593945,1,-0.319651008,1,-0.033856608,1,0.32365799,1,0.351899624,1,-0.670883417,1,-1.41003859,1
2.620077133,-6.060094357,1,-2.36088419,1,-7.871013641,1,-0.281580925,1,-0.053046029,1,0.301448613,1,0.349812388,1,-0.67148155,1,-1.408623695,1
2.624074936,-6.485049248,1,-2.148615837,1,-7.697508812,1,-0.24381122,1,-0.050886448,1,0.275316477,1,0.347962141,1,-0.672079086,1,-1.407330155,1
2.628075123,-5.838092327,1,-2.178649664,1,-7.503325462,1,-0.211121678,1,-0.064048976,1,0.256013095,1,0.346318364,1,-0.672647715,1,-1.406149626,1
2.63207674,-6.023587227,1,-2.144752264,1,-7.748871326,1,-0.177303001,1,-0.072328508,1,0.234023184,1,0.344879985,1,-0.673247337,1,-1.405092239,1
2.636074781,-5.804617882,1,-2.192855835,1,-7.838540554,1,-0.155721352,1,-0.084654845,1,0.210784882,1,0.343621284,1,-0.673844993,1,-1.404153705,1
2.64007473,-5.839648724,1,-2.386560678,1,-7.689403534,1,-0.125616044,1,-0.108369663,1,0.19697921,1,0.342548609,1,-0.674485445,1,-1.403319955,1
2.644076586,-6.060232639,1,-2.466122866,1,-7.57043457,1,-0.109454714,1,-0.11754746,1,0.186088458,1,0.341612935,1,-0.675176322,1,-1.402581334,1
2.648074389,-6.136435986,1,-2.55494976,1,-7.452523708,1,-0.089768082,1,-0.131281257,1,0.180252224,1,0.340796709,1,-0.675890028,1,-1.401911736,1
2.652074337,-6.267105579,1,-2.612251043,1,-7.413764954,1,-0.080966808,1,-0.134526759,1,0.173766851,1,0.340067774,1,-0.676626563,1,-1.401295543,1
2.656075954,-6.215597153,1,-2.737660646,1,-7.331338882,1,-0.074606903,1,-0.136365607,1,0.165044531,1,0.339417368,1,-0.677364469,1,-1.400725245,1
2.660073996,-6.149708271,1,-2.789573669,1,-7.317206383,1,-0.066789098,1,-0.138811111,1,0.166384235,1,0.33878392,1,-0.678104043,1,-1.40016222,1
2.664073706,-6.035652161,1,-2.907063246,1,-7.338215351,1,-0.061464183,1,-0.144223526,1,0.168425038,1,0.338173568,1,-0.678865135,1,-1.399594903,1
2.668075562,-6.081952572,1,-3.092930794,1,-7.342490673,1,-0.063599423,1,-0.1503288,1,0.171253398,1,0.336458206,1,-0.684610724,1,-1.400595546,1
2.672073364,-6.089159012,1,-3.090950727,1,-7.270058155,1,-0.071045704,1,-0.15329811,1,0.174331054,1,0.335725456,1,-0.685393393,1,-1.400103807,1
2.676073313,-6.100873947,1,-3.018773079,1,-7.282523632,1,-0.065967046,1,-0.15156655,1,0.17744261,1,0.335072637,1,-0.686210394,1,-1.399494767,1
2.68007493,-6.056959629,1,-2.908541441,1,-7.29379797,1,-0.065693475,1,-0.159630507,1,0.185584784,1,0.334411055,1,-0.687033355,1,-1.398871064,1
2.684072733,-5.95142889,1,-2.728545427,1,-7.423697472,1,-0.061252911,1,-0.1626288,1,0.185999602,1,0.33375597,1,-0.687883675,1,-1.398235798,1
2.688078403,-6.039142132,1,-2.65462184,1,-7.508720398,1,-0.055897921,1,-0.169156253,1,0.185017809,1,0.333127558,1,-0.688759506,1,-1.397612453,1
2.692080498,-6.060308456,1,-2.549652815,1,-7.494341373,1,-0.044484872,1,-0.180176392,1,0.179725915,1,0.332542539,1,-0.689652979,1,-1.397013426,1
2.6960783,-6.065669537,1,-2.501085997,1,-7.530008793,1,-0.036645867,1,-0.187364101,1,0.171412751,1,0.332029879,1,-0.690561712,1,-1.39646101,1
2.700078011,-6.07208252,1,-2.472840786,1,-7.47394371,1,-0.030730717,1,-0.197560191,1,0.165198401,1,0.331577361,1,-0.691503346,1,-1.395970821,1
2.704079866,-6.09183836,1,-2.571443319,1,-7.472743988,1,-0.023332134,1,-0.205968693,1,0.155057609,1,0.331192911,1,-0.692476511,1,-1.395530462,1
2.708077908,-6.099114895,1,-2.765700579,1,-7.387883663,1,-0.018680453,1,-0.207354844,1,0.153977588,1,0.330849469,1,-0.69345957,1,-1.395121694,1
2.712077618,-6.067587852,1,-2.907616615,1,-7.360215664,1,-0.014921741,1,-0.214862376,1,0.155399337,1,0.330531478,1,-0.694458604,1,-1.394720078,1
2.716079473,-6.099049091,1,-2.939373732,1,-7.253660202,1,-0.018175039,1,-0.211556047,1,0.159866303,1,0.330194414,1,-0.695462942,1,-1.394296408,1
2.720077038,-6.204258442,1,-2.903846264,1,-7.212229729,1,-0.022315109,1,-0.205638051,1,0.166764736,1,0.329827756,1,-0.696468592,1,-1.3938483,1
2.724076748,-6.089102745,1,-2.942685843,1,-7.167322636,1,-0.02038963,1,-0.204025313,1,0.167603865,1,0.3294231,1,-0.69745928,1,-1.393360138,1
2.728078604,-6.050921917,1,-2.896205187,1,-7.156668663,1,-0.03000352,1,-0.195731029,1,0.178001672,1,0.328992546,1,-0.698441505,1,-1.392847896,1
2.732076645,-6.103063107,1,-2.847698927,1,-7.188557148,1,-0.029168157,1,-0.196774751,1,0.17329891,1,0.328532219,1,-0.699411511,1,-1.392306566,1
2.736076355,-6.022373199,1,-2.745895386,1,-7.182645321,1,-0.023411769,1,-0.190788463,1,0.1807881,1,0.328057259,1,-0.700370431,1,-1.391749263,1
2.740077972,-6.084583759,1,-2.723753452,1,-7.21078968,1,-0.030200282,1,-0.192136094,1,0.185739949,1,0.327577293,1,-0.701329529,1,-1.39117229,1
2.744076014,-6.073881149,1,-2.722999811,1,-7.215877056,1,-0.03465724,1,-0.182047457,1,0.188789979,1,0.327059269,1,-0.702278733,1,-1.390556335,1
2.748075724,-6.126804829,1,-2.760288239,1,-7.177532673,1,-0.030707661,1,-0.179258645,1,0.189511567,1,0.32652849,1,-0.70319891,1,-1.389925241,1
2.752077579,-6.101760387,1,-2.729293108,1,-7.159690857,1,-0.033334929,1,-0.175416872,1,0.195758224,1,0.325963646,1,-0.704116702,1,-1.389258027,1
2.756075859,-6.122675896,1,-2.667358398,1,-7.141315937,1,-0.041551277,1,-0.170483708,1,0.196983874,1,0.325376838,1,-0.705017447,1,-1.388574481,1
2.760075569,-6.175067902,1,-2.663903713,1,-7.148473263,1,-0.035426509,1,-0.161052987,1,0.19445987,1,0.324770093,1,-0.705898821,1,-1.387872577,1
2.764077425,-6.217381477,1,-2.608438253,1,-7.162459373,1,-0.037027746,1,-0.153401241,1,0.194997534,1,0.324159622,1,-0.706750691,1,-1.38716054,1
2.768075228,-6.192709923,1,-2.579402447,1,-7.214130402,1,-0.038116381,1,-0.150570586,1,0.193463221,1,0.323539674,1,-0.707576752,1,-1.386440754,1
2.772074699,-6.124996662,1,-2.609413147,1,-7.223220825,1,-0.037545092,1,-0.145166069,1,0.194657758,1,0.322909653,1,-0.708384871,1,-1.385725737,1
2.776076555,-6.230077744,1,-2.565572262,1,-7.200877666,1,-0.042181674,1,-0.142706916,1,0.194614291,1,0.322272152,1,-0.709178984,1,-1.384999275,1
2.780074596,-6.176615238,1,-2.489949703,1,-7.1791749,1,-0.041615374,1,-0.138001397,1,0.186185166,1,0.32163918,1,-0.709959567,1,-1.384281993,1
2.784074306,-6.272994518,1,-2.481367588,1,-7.186916351,1,-0.039568283,1,-0.131673753,1,0.186704546,1,0.321021795,1,-0.710714459,1,-1.383585334,1
2.788075924,-6.255191803,1,-2.403137922,1,-7.087543488,1,-0.042896219,1,-0.12574707,1,0.182822034,1,0.32039237,1,-0.711432517,1,-1.382866859,1
2.792073965,-6.267610073,1,-2.502920628,1,-7.087062359,1,-0.042924903,1,-0.113860436,1,0.182209238,1,0.319758892,1,-0.712119341,1,-1.382152438,1
2.796073914,-6.170742512,1,-2.502498627,1,-7.042197227,1,-0.040538549,1,-0.111229092,1,0.181506351,1,0.319120586,1,-0.712769985,1,-1.381430268,1
2.800076008,-6.192062855,1,-2.555183411,1,-7.046405792,1,-0.040060733,1,-0.103873424,1,0.179323226,1,0.318470418,1,-0.71339792,1,-1.380693316,1
2.804074049,-6.159894466,1,-2.637484312,1,-7.050635815,1,-0.047078118,1,-0.089040436,1,0.186565608,1,0.317785501,1,-0.713986576,1,-1.37993145,1
2.808079958,-6.178966045,1,-2.671243429,1,-7.055115223,1,-0.054518886,1,-0.079008169,1,0.188673601,1,0.317056417,1,-0.714540601,1,-1.379138112,1
2.812081575,-6.267596722,1,-2.678839207,1,-7.044706821,1,-0.058298454,1,-0.077461027,1,0.191862389,1,0.316280425,1,-0.71507597,1,-1.378300786,1
2.816079378,-6.171269894,1,-2.703391552,1,-7.13515377,1,-0.070790738,1,-0.071091399,1,0.198312625,1,0.315473914,1,-0.715596259,1,-1.377458334,1
2.820079088,-6.211886406,1,-2.603172779,1,-7.072326183,1,-0.069717355,1,-0.066468544,1,0.194406137,1,0.314636827,1,-0.716104925,1,-1.376598954,1
2.824080944,-6.268684387,1,-2.548682213,1,-7.073020458,1,-0.075836457,1,-0.068310879,1,0.187499955,1,0.313786745,1,-0.716591954,1,-1.375751734,1
2.828078747,-6.229509354,1,-2.535972118,1,-7.038764477,1,-0.075678796,1,-0.057149708,1,0.186895773,1,0.312923372,1,-0.717055619,1,-1.37489748,1
2.832078695,-6.271991253,1,-2.550648689,1,-7.099065781,1,-0.080445401,1,-0.050440416,1,0.189232156,1,0.312050879,1,-0.717497766,1,-1.374035835,1
2.836080313,-6.220881939,1,-2.511918068,1,-7.118285656,1,-0.07582175,1,-0.046927191,1,0.182493582,1,0.311169386,1,-0.717908204,1,-1.373174191,1
2.840078354,-6.20207119,1,-2.570591211,1,-7.095983028,1,-0.081814617,1,-0.040522825,1,0.18701753,1,0.310279667,1,-0.718304157,1,-1.372304082,1
2.844078064,-6.106142044,1,-2.516096354,1,-7.163847923,1,-0.086335167,1,-0.037785716,1,0.185469598,1,0.309368372,1,-0.718676448,1,-1.371428013,1
2.84807992,-6.140955448,1,-2.46988821,1,-7.206787586,1,-0.078470558,1,-0.035820439,1,0.188881293,1,0.308456481,1,-0.719043493,1,-1.370546222,1
2.852077723,-6.232132912,1,-2.401358843,1,-7.200634003,1,-0.08175303,1,-0.035555027,1,0.185104162,1,0.307543576,1,-0.719402909,1,-1.369653463,1
2.856077671,-6.27184248,1,-2.333020449,1,-7.188326836,1,-0.076859869,1,-0.037163485,1,0.184954733,1,0.306651652,1,-0.719769239,1,-1.36878705,1
2.860079288,-6.278121948,1,-2.356883764,1,-7.191967487,1,-0.078315131,1,-0.032596946,1,0.177780554,1,0.305774987,1,-0.720115185,1,-1.367928743,1
2.864077091,-6.259553432,1,-2.407690048,1,-7.135781765,1,-0.077517822,1,-0.03278102,1,0.174147382,1,0.304905713,1,-0.720449209,1,-1.367078424,1
2.868076801,-6.223446369,1,-2.43096137,1,-7.173075199,1,-0.072076052,1,-0.030378945,1,0.174162403,1,0.304061413,1,-0.720780611,1,-1.366243839,1
2.872078657,-6.223029137,1,-2.49677825,1,-7.204450607,1,-0.073011659,1,-0.027615402,1,0.173160106,1,0.303222954,1,-0.721104562,1,-1.365410328,1
2.87607646,-6.2604146,1,-2.544966698,1,-7.217321873,1,-0.074737705,1,-0.025379343,1,0.176095411,1,0.30236733,1,-0.721422255,1,-1.364561677,1
2.880075932,-6.286069393,1,-2.457230091,1,-7.193834305,1,-0.077137023,1,-0.025977703,1,0.178697854,1,0.30149895,1,-0.721734643,1,-1.363707781,1
2.884077787,-6.267405033,1,-2.409741402,1,-7.222121716,1,-0.076985769,1,-0.027146276,1,0.173858225,1,0.300635576,1,-0.722046256,1,-1.362853765,1
2.88807559,-6.301741123,1,-2.365984678,1,-7.23222971,1,-0.074428111,1,-0.028095149,1,0.178026706,1,0.299765497,1,-0.722360492,1,-1.362003684,1
2.8920753,-6.309294701,1,-2.344596624,1,-7.221138954,1,-0.074559137,1,-0.027035531,1,0.167374462,1,0.298917174,1,-0.72266072,1,-1.361167669,1
2.896077156,-6.371554852,1,-2.359748125,1,-7.167501926,1,-0.073283881,1,-0.019123947,1,0.167902634,1,0.298083484,1,-0.72295332,1,-1.360352039,1
2.900074959,-6.327617168,1,-2.392802715,1,-7.162837029,1,-0.073748551,1,-0.022169326,1,0.166437596,1,0.297244489,1,-0.723234892,1,-1.359536409,1
2.904074907,-6.349338055,1,-2.431306124,1,-7.173219681,1,-0.074571148,1,-0.01645248,1,0.162531748,1,0.296406448,1,-0.723507226,1,-1.358721018,1
2.908076763,-6.355464458,1,-2.451808691,1,-7.199403763,1,-0.077344529,1,-0.011860319,1,0.161513895,1,0.295567214,1,-0.723762035,1,-1.357910633,1
2.912074804,-6.377583027,1,-2.459468842,1,-7.141335964,1,-0.084034905,1,-0.01069941,1,0.16723834,1,0.294703424,1,-0.724003434,1,-1.357086658,1
2.916074514,-6.383810043,1,-2.428423643,1,-7.191814899,1,-0.086828358,1,-0.003879403,1,0.169073105,1,0.293808639,1,-0.724228263,1,-1.356253028,1
2.92007637,-6.385466576,1,-2.434751272,1,-7.146346569,1,-0.092471123,1,-0.003855175,1,0.171913326,1,0.293644369,1,-0.723552465,1,-1.354781151,1
2.924074173,-6.370673656,1,-2.438517332,1,-7.129237652,1,-0.091953143,1,0.004193685,1,0.172994077,1,0.29268986,1,-0.723743677,1,-1.35390389,1
2.928080082,-6.291035175,1,-2.446320057,1,-7.11185503,1,-0.098225772,1,0.006621046,1,0.172590241,1,0.291722655,1,-0.723918796,1,-1.353019714,1
2.932082176,-6.293920994,1,-2.443065166,1,-7.070581913,1,-0.09828569,1,0.007345598,1,0.173880503,1,0.290735722,1,-0.724092066,1,-1.352121711,1
2.936080456,-6.171216965,1,-2.495851278,1,-7.114080429,1,-0.10324531,1,0.008723443,1,0.186682805,1,0.289705515,1,-0.724270284,1,-1.351184845,1
2.940080166,-6.193047047,1,-2.565358639,1,-7.117181778,1,-0.106109098,1,0.011622899,1,0.193607882,1,0.288637608,1,-0.724447787,1,-1.350199103,1
2.944082022,-6.193669319,1,-2.531022072,1,-7.180054665,1,-0.112166308,1,0.009188268,1,0.200882226,1,0.287530661,1,-0.724631488,1,-1.349179864,1
2.948079824,-6.162164688,1,-2.410531282,1,-7.169290066,1,-0.112042576,1,0.010889323,1,0.206856593,1,0.286376923,1,-0.724819362,1,-1.34812808,1
2.952080011,-6.077758789,1,-2.338171244,1,-7.206398964,1,-0.115521215,1,0.005124075,1,0.207599536,1,0.285202324,1,-0.725029528,1,-1.347057223,1
2.956081867,-6.108958721,1,-2.322585344,1,-7.245625973,1,-0.112990178,1,5.31E-05,1,0.213511109,1,0.284027904,1,-0.725261331,1,-1.345969081,1
2.960079908,-6.087918282,1,-2.359990358,1,-7.275350094,1,-0.102717116,1,-0.006304872,1,0.220017299,1,0.282868445,1,-0.725514531,1,-1.344869494,1
2.964079618,-6.16801405,1,-2.346483946,1,-7.285456657,1,-0.109282851,1,-0.017294209,1,0.221552774,1,0.281702101,1,-0.725801706,1,-1.343752027,1
2.968081474,-6.07716465,1,-2.343759537,1,-7.318219662,1,-0.110007457,1,-0.021396568,1,0.221320525,1,0.280532002,1,-0.7261163,1,-1.342637539,1
2.972079277,-6.181272507,1,-2.241415501,1,-7.297155857,1,-0.104881264,1,-0.024519667,1,0.226369023,1,0.279346406,1,-0.726451278,1,-1.341503501,1
2.976078987,-6.157247066,1,-2.189310551,1,-7.334004402,1,-0.101194888,1,-0.035114091,1,0.22342357,1,0.278200448,1,-0.726811051,1,-1.340395808,1
2.980081081,-6.193029881,1,-2.143489122,1,-7.29557991,1,-0.095796511,1,-0.037365768,1,0.217309281,1,0.277079582,1,-0.727199554,1,-1.339302421,1
2.984079123,-6.19108963,1,-2.035559177,1,-7.315914631,1,-0.089989007,1,-0.044120695,1,0.215064615,1,0.275999457,1,-0.727599263,1,-1.338238597,1
2.988079309,-6.186889648,1,-2.064463854,1,-7.311784267,1,-0.082227819,1,-0.054203,1,0.211251467,1,0.274968147,1,-0.728023767,1,-1.337208033,1
2.992081642,-6.209947109,1,-2.120890379,1,-7.331546307,1,-0.079783075,1,-0.058482487,1,0.20688507,1,0.273978412,1,-0.728460968,1,-1.336213589,1
2.996079922,-6.269215584,1,-2.044687748,1,-7.311813831,1,-0.074172422,1,-0.069782756,1,0.206157461,1,0.273017734,1,-0.728928685,1,-1.335233927,1
3.000080109,-6.220816135,1,-2.148281813,1,-7.272221565,1,-0.071418315,1,-0.077205256,1,0.200794011,1,0.272101939,1,-0.729427993,1,-1.334294558,1
3.004081964,-6.159409046,1,-2.071084499,1,-7.346285343,1,-0.064714767,1,-0.082041472,1,0.200494468,1,0.27120319,1,-0.729944348,1,-1.333362103,1
3.008079767,-6.213382244,1,-2.148466825,1,-7.359947681,1,-0.061675593,1,-0.094993629,1,0.19566752,1,0.27035439,1,-0.730498254,1,-1.332464695,1
3.012079716,-6.216312408,1,-2.143315792,1,-7.314836502,1,-0.055750206,1,-0.104552135,1,0.198278487,1,0.269544095,1,-0.731090248,1,-1.331599951,1
3.016081333,-6.210709572,1,-2.172271252,1,-7.34130621,1,-0.053030368,1,-0.112346746,1,0.191848278,1,0.268757105,1,-0.731720746,1,-1.330742478,1
3.020079374,-6.140929699,1,-2.269661665,1,-7.376516819,1,-0.052605174,1,-0.124478385,1,0.193289518,1,0.267985612,1,-0.732380748,1,-1.329901576,1
3.024079084,-6.152961731,1,-2.342211246,1,-7.39097929,1,-0.05612649,1,-0.135530904,1,0.201218799,1,0.267199099,1,-0.733094513,1,-1.329062462,1
3.02808094,-6.124521732,1,-2.342605829,1,-7.44900465,1,-0.057721529,1,-0.151176184,1,0.207236633,1,0.266397744,1,-0.73386848,1,-1.328201056,1
3.032078743,-6.193932056,1,-2.392332792,1,-7.397062778,1,-0.063290864,1,-0.164056808,1,0.208961785,1,0.26557824,1,-0.734706342,1,-1.327349067,1
3.036078691,-6.011660576,1,-2.471030712,1,-7.540390015,1,-0.074550793,1,-0.18202804,1,0.213575259,1,0.264739454,1,-0.735589206,1,-1.326488495,1
3.04008007,-6.219823837,1,-2.302257061,1,-7.464009762,1,-0.070950851,1,-0.198855028,1,0.219803408,1,0.263862848,1,-0.736558378,1,-1.325627089,1
3.044078112,-6.123426437,1,-2.252374411,1,-7.566744328,1,-0.065417141,1,-0.214262858,1,0.225760415,1,0.263011456,1,-0.737592757,1,-1.32476306,1
3.048084021,-6.166427612,1,-2.194018364,1,-7.625846386,1,-0.068461999,1,-0.240428731,1,0.228349835,1,0.262164026,1,-0.738706946,1,-1.323899746,1
3.052086115,-6.063981056,1,-2.350393057,1,-7.703427792,1,-0.077189006,1,-0.266098827,1,0.236129895,1,0.261308759,1,-0.739919305,1,-1.323042393,1
3.056084156,-6.071088314,1,-2.345846891,1,-7.730697632,1,-0.076798141,1,-0.292821884,1,0.247437194,1,0.260413706,1,-0.741250992,1,-1.322177529,1
3.060083866,-6.040647984,1,-2.348066092,1,-7.848529816,1,-0.080225319,1,-0.327931285,1,0.254369736,1,0.259507686,1,-0.74270618,1,-1.321296692,1
3.064085722,-5.964919567,1,-2.404974222,1,-7.917282581,1,-0.082459487,1,-0.364526898,1,0.261229306,1,0.258590937,1,-0.74430424,1,-1.320422053,1
3.068083763,-6.060890675,1,-2.43607378,1,-7.984251499,1,-0.08417964,1,-0.401512355,1,0.272010297,1,0.257666856,1,-0.746054649,1,-1.319555283,1
3.072083235,-6.128276825,1,-2.01628232,1,-8.000644684,1,-0.077761702,1,-0.446681052,1,0.274693519,1,0.256751776,1,-0.747989714,1,-1.318706632,1
3.076085329,-5.880279541,1,-2.260856152,1,-8.168326378,1,-0.069104336,1,-0.488990664,1,0.282857776,1,0.255907714,1,-0.750078261,1,-1.317880392,1
3.08008337,-6.105720997,1,-2.493053198,1,-7.993850708,1,-0.0901483,1,-0.52911371,1,0.290309966,1,0.255022317,1,-0.752346814,1,-1.317063093,1
3.084083319,-6.099474907,1,-2.346958876,1,-8.001233101,1,-0.104543731,1,-0.57557106,1,0.298803478,1,0.254083514,1,-0.754782319,1,-1.316261172,1
3.088084936,-6.115868568,1,-1.937999964,1,-8.307641029,1,-0.120494805,1,-0.624425769,1,0.30140081,1,0.253102005,1,-0.757404566,1,-1.315489292,1
3.092082739,-5.93527317,1,-1.076865435,1,-8.347574234,1,-0.070029035,1,-0.671456575,1,0.2888951,1,0.252229542,1,-0.760215342,1,-1.314814091,1
3.096082449,-6.020588398,1,-1.968562722,1,-8.339920998,1,-0.037638761,1,-0.720744252,1,0.293856442,1,0.251641899,1,-0.763204455,1,-1.314222574,1
3.100084305,-6.203876972,1,-2.484603882,1,-8.053188324,1,-0.075357564,1,-0.775427103,1,0.292409718,1,0.251023114,1,-0.766396344,1,-1.313660502,1
3.104081869,-6.33779335,1,-1.77015245,1,-8.349509239,1,-0.077706948,1,-0.824305534,1,0.290469259,1,0.250372648,1,-0.769788384,1,-1.313191175,1
3.108081818,-5.968123436,1,-1.545814037,1,-8.337883949,1,-0.025017999,1,-0.880983353,1,0.301414222,1,0.249873519,1,-0.773384094,1,-1.312767625,1
3.112083673,-6.056188107,1,-2.245778799,1,-8.282705307,1,-0.010421049,1,-0.931552529,1,0.306701988,1,0.249528617,1,-0.777195096,1,-1.312366247,1
3.116081715,-6.406770706,1,-2.94361639,1,-8.246463776,1,-0.051263858,1,-0.992139697,1,0.34232074,1,0.249112234,1,-0.781246603,1,-1.311924219,1
3.120081425,-6.146256924,1,-2.863053799,1,-8.03831768,1,-0.102872886,1,-1.047375441,1,0.370870948,1,0.248433575,1,-0.785545945,1,-1.311393261,1
3.124083281,-6.429323196,1,-2.838206053,1,-8.283470154,1,-0.141186789,1,-1.121358275,1,0.418746829,1,0.247478724,1,-0.790135443,1,-1.310730457,1
3.128081083,-6.441046238,1,-2.849272728,1,-8.319939613,1,-0.186395362,1,-1.176433206,1,0.434955239,1,0.246274173,1,-0.795018435,1,-1.309960008,1
3.132080793,-6.292749405,1,-2.165249348,1,-8.609288216,1,-0.182038099,1,-1.249702334,1,0.466769129,1,0.244945079,1,-0.800157607,1,-1.309146047,1
3.136082649,-6.619244099,1,-2.0353477,1,-8.676136971,1,-0.144685239,1,-1.311527729,1,0.482807308,1,0.243646324,1,-0.805583298,1,-1.308274627,1
3.14008069,-5.806958199,1,-2.649331331,1,-8.432293892,1,-0.14163436,1,-1.395731449,1,0.510210693,1,0.242425144,1,-0.811296821,1,-1.307356,1
3.1440804,-6.693863392,1,-2.909145355,1,-8.705339432,1,-0.17188184,1,-1.476619244,1,0.540179312,1,0.241096392,1,-0.817380011,1,-1.30638659,1
3.148082256,-6.461029053,1,-2.828511477,1,-8.69479084,1,-0.199869409,1,-1.562571287,1,0.589156628,1,0.239553958,1,-0.823816776,1,-1.305286646,1
3.152080059,-6.299577713,1,-2.947712421,1,-8.750385284,1,-0.202386662,1,-1.651671171,1,0.624862254,1,0.23783578,1,-0.830627739,1,-1.304046154,1
3.156079769,-6.503221035,1,-2.942825317,1,-8.955048561,1,-0.196305111,1,-1.749204278,1,0.673967004,1,0.236001864,1,-0.83785218,1,-1.302656889,1
3.160081625,-6.533252716,1,-3.074223995,1,-8.884679794,1,-0.184755757,1,-1.847281218,1,0.732793689,1,0.234065518,1,-0.845493078,1,-1.301073313,1
3.164079666,-6.744368076,1,-3.679794312,1,-8.932423592,1,-0.19133161,1,-1.944802046,1,0.791713893,1,0.231946021,1,-0.853583753,1,-1.299237609,1
3.168079376,-6.614804268,1,-3.410468102,1,-8.841067314,1,-0.182631463,1,-2.049225569,1,0.842883408,1,0.22962074,1,-0.862104058,1,-1.297158957,1
3.172087193,-6.298750877,1,-3.151738167,1,-8.872569084,1,-0.157972112,1,-2.172737122,1,0.916953802,1,0.227047205,1,-0.871102393,1,-1.29474771,1
3.176091194,-6.733310699,1,-3.007322311,1,-9.392554283,1,-0.111861013,1,-2.292676687,1,0.965241492,1,0.224497736,1,-0.880650043,1,-1.292135835,1
3.180091143,-6.312838078,1,-2.912507296,1,-9.14553833,1,-0.067347653,1,-2.402445555,1,1.023901582,1,0.221948519,1,-0.890661001,1,-1.28930068,1
3.184092999,-5.603464603,1,-2.784270763,1,-9.275021553,1,-0.036110271,1,-2.557778597,1,1.079365611,1,0.219300747,1,-0.901271343,1,-1.286179543,1
3.188090801,-6.464992523,1,-2.363690615,1,-9.670351028,1,0.001182889,1,-2.725230217,1,1.131016135,1,0.216641247,1,-0.91254425,1,-1.282886505,1
3.192090511,-6.609671116,1,-1.889336467,1,-9.806560516,1,0.07333295,1,-2.851662159,1,1.162087798,1,0.214065358,1,-0.924431562,1,-1.279465199,1
3.196092367,-6.146809101,1,-1.659442902,1,-9.694013596,1,0.15682213,1,-3.008198023,1,1.183247328,1,0.211696327,1,-0.936858296,1,-1.275936127,1
3.20009017,-6.166429996,1,-1.949429512,1,-9.906497002,1,0.230401278,1,-3.197569609,1,1.228618622,1,0.209549248,1,-0.95001471,1,-1.272325158,1
3.20408988,-6.412695885,1,-2.313023806,1,-9.903336525,1,0.281370103,1,-3.346616983,1,1.278615117,1,0.207417831,1,-0.963859081,1,-1.268480897,1
3.208091736,-5.347729206,1,-2.656602621,1,-9.924786568,1,0.361145198,1,-3.516484499,1,1.350860238,1,0.205280125,1,-0.978366196,1,-1.264338732,1
3.212089539,-4.871308327,1,-3.292350531,1,-10.02525139,1,0.42641753,1,-3.684343338,1,1.438266039,1,0.203016922,1,-0.993594408,1,-1.25973177,1
3.216089487,-6.203052998,1,-3.880224943,1,-10.28157425,1,0.462866485,1,-3.857429981,1,1.538250804,1,0.200429276,1,-1.009581566,1,-1.254536867,1
3.220091343,-7.831917763,1,-4.344346046,1,-10.00941467,1,0.479176402,1,-3.975215435,1,1.640388846,1,0.197214872,1,-1.026210546,1,-1.248545647,1
3.224089384,-8.159752846,1,-4.940832138,1,-9.747027397,1,0.497717053,1,-4.061369419,1,1.699195504,1,0.193379581,1,-1.043276429,1,-1.241805196,1
3.228089094,-9.537416458,1,-5.314013004,1,-9.559470177,1,0.488577336,1,-4.110694408,1,1.76002872,1,0.188957095,1,-1.060628295,1,-1.23440814,1
3.232090712,-9.402052879,1,-6.063736916,1,-9.389505386,1,0.380687982,1,-4.191615105,1,1.891900659,1,0.183250144,1,-1.078300595,1,-1.225908875,1
3.236088514,-10.51180553,1,-6.905700207,1,-9.131308556,1,0.228348166,1,-4.208462238,1,2.054139376,1,0.175355628,1,-1.096250653,1,-1.215625763,1
3.240088463,-10.34738922,1,-7.418045044,1,-8.593139648,1,0.077082202,1,-4.214894295,1,2.175790071,1,0.165078357,1,-1.114287257,1,-1.203431487,1
3.244090557,-10.22812653,1,-7.916155815,1,-8.535143852,1,-0.042074252,1,-4.248030663,1,2.304637432,1,0.152241752,1,-1.132412553,1,-1.189136505,1
3.248088598,-12.79778004,1,-7.015013218,1,-9.504942894,1,-0.107581459,1,-4.264452457,1,2.384224892,1,0.136962786,1,-1.150614619,1,-1.172688246,1
3.252088308,-15.81788349,1,-5.445209503,1,-10.16325092,1,-0.067560665,1,-4.189481258,1,2.421187878,1,0.119720288,1,-1.168651104,1,-1.154290557,1
3.256090403,-14.75975609,1,-5.376635551,1,-9.992892265,1,-0.024273902,1,-4.096227169,1,2.537222147,1,0.100248218,1,-1.186185002,1,-1.133375406,1
3.260088682,-13.052248,1,-6.416292191,1,-9.832899094,1,-0.092131011,1,-4.065748215,1,2.69177556,1,0.077305846,1,-1.203368783,1,-1.108942151,1
3.264088392,-12.48961163,1,-8.207221031,1,-9.724068642,1,-0.174464792,1,-4.076224804,1,2.765978336,1,0.050456766,1,-1.220315576,1,-1.080851316,1
3.26809001,-14.03800583,1,-9.554776192,1,-9.911356926,1,-0.197327092,1,-4.05796957,1,2.831725359,1,0.019855207,1,-1.236973882,1,-1.049179077,1
3.272087812,-15.93277931,1,-10.27454281,1,-9.721731186,1,-0.265830696,1,-3.984276772,1,2.938874006,1,-0.015025877,1,-1.253100038,1,-1.013296843,1
3.276087523,-16.69355965,1,-11.50548267,1,-9.943015099,1,-0.423936337,1,-3.870784283,1,3.055394888,1,-0.05551273,1,-1.268405676,1,-0.972221971,1
3.280089378,-16.53969955,1,-11.36178017,1,-10.02850914,1,-0.613018751,1,-3.69779706,1,3.158721685,1,-0.102290727,1,-1.282525063,1,-0.925475717,1
3.284087181,-16.61591721,1,-10.52741051,1,-10.1357975,1,-0.75451076,1,-3.543904543,1,3.168413639,1,-0.154806703,1,-1.295260191,1,-0.873677313,1
3.288087368,-15.25943279,1,-10.7985487,1,-9.356963158,1,-0.848633051,1,-3.441296101,1,3.261245251,1,-0.212869912,1,-1.306629181,1,-0.816762507,1
3.292095184,-12.92849541,1,-10.38136101,1,-8.144987106,1,-1.024190903,1,-3.392407179,1,3.403198957,1,-0.277839571,1,-1.316608548,1,-0.753392041,1
3.296099186,-11.34315681,1,-11.47871113,1,-6.912080765,1,-1.24377501,1,-3.499967337,1,3.499352455,1,-0.35058257,1,-1.325449467,1,-0.683026314,1
3.300099134,-12.82641888,1,-8.66784668,1,-7.471300125,1,-1.502615213,1,-3.45375371,1,3.628590584,1,-0.431237936,1,-1.332927465,1,-0.605592847,1
3.304101229,-12.36094189,1,-6.380078316,1,-7.445860386,1,-1.655520201,1,-3.281986237,1,3.581643581,1,-0.516951442,1,-1.338301182,1,-0.524016678,1
3.30809927,-12.35518742,1,-5.633011341,1,-7.075741768,1,-1.677235365,1,-3.17545414,1,3.523641825,1,-0.604049087,1,-1.341707349,1,-0.441402435,1
3.312099218,-11.94715977,1,-4.601303577,1,-7.873641968,1,-1.689420342,1,-2.933439732,1,3.517681122,1,-0.690957069,1,-1.343000531,1,-0.359110028,1
3.316101074,-10.43445396,1,-3.062014341,1,-9.369878769,1,-1.599110603,1,-2.560467958,1,3.373244762,1,-0.773480117,1,-1.341918707,1,-0.281193495,1
3.320099115,-11.12173557,1,-3.475061893,1,-9.771347046,1,-1.336320996,1,-2.311852455,1,3.075090408,1,-0.847411513,1,-1.33927536,1,-0.211302042,1
3.324098825,-14.53933811,1,-3.007473469,1,-9.375141144,1,-1.007004976,1,-2.111180782,1,2.669423819,1,-0.911908031,1,-1.335993528,1,-0.149870485,1
