Time,inertial-6253.76535:estCompensatedAccelX,inertial-6253.76535:estCompensatedAccelX:valid,inertial-6253.76535:estCompensatedAccelY,inertial-6253.76535:estCompensatedAccelY:valid,inertial-6253.76535:estCompensatedAccelZ,inertial-6253.76535:estCompensatedAccelZ:valid,inertial-6253.76535:estAngularRateX,inertial-6253.76535:estAngularRateX:valid,inertial-6253.76535:estAngularRateY,inertial-6253.76535:estAngularRateY:valid,inertial-6253.76535:estAngularRateZ,inertial-6253.76535:estAngularRateZ:valid,inertial-6253.76535:estRoll,inertial-6253.76535:estRoll:valid,inertial-6253.76535:estPitch,inertial-6253.76535:estPitch:valid,inertial-6253.76535:estYaw,inertial-6253.76535:estYaw:valid,inertial-6253.76535:estLinearAccelX,inertial-6253.76535:estLinearAccelX:valid,inertial-6253.76535:estLinearAccelY,inertial-6253.76535:estLinearAccelY:valid,inertial-6253.76535:estLinearAccelZ,inertial-6253.76535:estLinearAccelZ:valid
0,-4.376407146,1,-1.122346282,1,-8.741633415,1,-0.003993304,1,-0.007730678,1,0.003986382,1,0.136524618,1,-0.455922335,1,0.438840717,1,-0.070292473,1,0.072779417,1,-0.042167664,1
0.003997184,-4.356726646,1,-1.099291921,1,-8.705022812,1,0.002485731,1,-0.004478403,1,0.003590192,1,0.136507899,1,-0.455950469,1,0.438851863,1,-0.050364971,1,0.095672011,1,-0.005656242,1
0.007996416,-4.345892429,1,-1.135205984,1,-8.710097313,1,-0.002994009,1,-0.004959026,1,0.0016584,1,0.136493295,1,-0.455976844,1,0.438863754,1,-0.039299011,1,0.059615016,1,-0.010829926,1
0.011997696,-4.355328083,1,-1.107153177,1,-8.698608398,1,0.00196261,1,-0.006686687,1,-0.00122027,1,0.136492893,1,-0.456004024,1,0.438867748,1,-0.04849577,1,0.087648988,1,0.000548363,1
0.015995136,-4.357135296,1,-1.146304488,1,-8.737875938,1,0.002241319,1,-0.003447832,1,0.001489308,1,0.136491388,1,-0.456027567,1,0.438872516,1,-0.050096512,1,0.048470736,1,-0.038818359,1
0.019994624,-4.331652164,1,-1.103560805,1,-8.748149872,1,0.000603028,1,-0.006970542,1,0.000747167,1,0.136484712,1,-0.4560467,1,0.438875824,1,-0.024445057,1,0.091144681,1,-0.04916954,1
0.023995904,-4.331494331,1,-1.16722858,1,-8.733405113,1,0.004741522,1,-0.008129151,1,0.000399005,1,0.136486679,1,-0.45607689,1,0.438881129,1,-0.024022579,1,0.027476788,1,-0.034552574,1
0.027999232,-4.345061302,1,-1.17139554,1,-8.730599403,1,-0.002280697,1,-0.008589872,1,0.004829197,1,0.136482567,1,-0.456100106,1,0.438890666,1,-0.037385941,1,0.023260236,1,-0.031841278,1
0.031998463,-4.357065678,1,-1.180330038,1,-8.690380096,1,-0.001917222,1,-0.005643035,1,0.00070359,1,0.136471689,1,-0.45612517,1,0.438895524,1,-0.049170017,1,0.014216542,1,0.008284569,1
0.035999745,-4.336719513,1,-1.168676853,1,-8.705724716,1,-0.002236879,1,-0.003138136,1,0.005002533,1,0.136459038,1,-0.456149638,1,0.43890965,1,-0.028608799,1,0.025745392,1,-0.007149696,1
0.039997183,-4.323186398,1,-1.163184762,1,-8.705508232,1,-0.000382824,1,-0.006305571,1,0.00527458,1,0.136441454,1,-0.456184447,1,0.438927501,1,-0.014770508,1,0.031063914,1,-0.007061958,1
0.043996416,-4.341125011,1,-1.159822106,1,-8.717406273,1,-0.005070058,1,-0.005357331,1,0.005219846,1,0.136419192,1,-0.456207901,1,0.438948631,1,-0.032503128,1,0.034219384,1,-0.019032478,1
0.047997952,-4.340542316,1,-1.146989346,1,-8.725376129,1,-0.004944775,1,-0.005924828,1,0.003796523,1,0.136400461,1,-0.456236601,1,0.438964069,1,-0.031668186,1,0.046872377,1,-0.02710247,1
0.051995393,-4.338244915,1,-1.111746311,1,-8.708853722,1,4.76E-05,1,-0.008133351,1,0.003532142,1,0.136378989,1,-0.456257373,1,0.438979536,1,-0.029188633,1,0.081916332,1,-0.010643959,1
0.055994622,-4.351390839,1,-1.094685555,1,-8.752802849,1,-0.00362391,1,-0.010162511,1,0.002572087,1,0.136373118,1,-0.45628795,1,0.43898508,1,-0.04206562,1,0.098908186,1,-0.054717064,1
0.059995905,-4.365441799,1,-1.113818049,1,-8.695365906,1,-0.001690172,1,-0.003403395,1,0.002894997,1,0.136365101,1,-0.456319273,1,0.438990057,1,-0.055841923,1,0.079687715,1,0.002596855,1
0.063993342,-4.285367012,1,-1.175687909,1,-8.713093758,1,0.003164073,1,-0.011904699,1,0.00118611,1,0.136371166,1,-0.456348479,1,0.438990265,1,0.024489403,1,0.017853498,1,-0.015262604,1
0.067992575,-4.319512367,1,-1.161731958,1,-8.732607841,1,-0.000447865,1,-0.006800121,1,0.002031617,1,0.136376292,1,-0.456395298,1,0.438993007,1,-0.009244919,1,0.031826496,1,-0.034981728,1
0.071993858,-4.354557037,1,-1.157152057,1,-8.666881561,1,0.003449972,1,-0.008276001,1,0.001835213,1,0.136380553,1,-0.456425548,1,0.438997328,1,-0.044024467,1,0.03642571,1,0.030609131,1
0.075991295,-4.348849773,1,-1.105486274,1,-8.732709885,1,0.004794898,1,-0.007668781,1,0.001777989,1,0.136388794,1,-0.456470013,1,0.438996553,1,-0.037926674,1,0.08813715,1,-0.03541851,1
0.079990782,-4.349351883,1,-1.102472782,1,-8.682808876,1,0.000447311,1,-0.015692241,1,0.003722449,1,0.136400223,1,-0.456527263,1,0.439011872,1,-0.037926197,1,0.091216445,1,0.014223099,1
0.083992317,-4.366406918,1,-1.109872818,1,-8.720705986,1,0.00790581,1,-0.014937034,1,-1.71E-05,1,0.136428908,1,-0.456584811,1,0.439004779,1,-0.054475784,1,0.084032178,1,-0.023952484,1
0.087989762,-4.370505333,1,-1.108417392,1,-8.703051567,1,0.002401492,1,-0.015849333,1,-0.000553843,1,0.136458471,1,-0.456646174,1,0.43900618,1,-0.058035374,1,0.085708618,1,-0.006596565,1
0.091989249,-4.334908485,1,-1.128823996,1,-8.733848572,1,0.006389174,1,-0.016037298,1,8.06E-05,1,0.136491239,1,-0.456710815,1,0.438995302,1,-0.021871567,1,0.065549135,1,-0.037709236,1
0.095990531,-4.366888523,1,-1.112255931,1,-8.742050171,1,0.011434101,1,-0.01814645,1,-0.001824488,1,0.136532351,1,-0.456776261,1,0.438990772,1,-0.053276539,1,0.082436562,1,-0.046236992,1
0.099987715,-4.367584229,1,-1.15524137,1,-8.739275932,1,0.01200187,1,-0.018592764,1,-0.003401299,1,0.136576235,1,-0.456848711,1,0.438965678,1,-0.05333662,1,0.039789915,1,-0.043827057,1
0.103986941,-4.368296623,1,-1.135392904,1,-8.73455143,1,0.006399403,1,-0.014674915,1,-0.000686212,1,0.136627346,1,-0.456917137,1,0.438939929,1,-0.0534482,1,0.0600425,1,-0.039457321,1
0.10799437,-4.359500885,1,-1.135383844,1,-8.743078232,1,0.008681551,1,-0.016767783,1,-2.77E-05,1,0.136664867,1,-0.456978798,1,0.438925922,1,-0.044111729,1,0.060341358,1,-0.048293114,1
0.111998208,-4.375419617,1,-1.161666155,1,-8.706628799,1,0.006405883,1,-0.015975388,1,0.000968262,1,0.136706904,1,-0.457047224,1,0.438918859,1,-0.059429646,1,0.034384847,1,-0.012184143,1
0.115997955,-4.391094208,1,-1.156237245,1,-8.714057922,1,0.01122665,1,-0.017617844,1,-0.001621663,1,0.136740372,1,-0.457111835,1,0.4389081,1,-0.074537277,1,0.0400666,1,-0.019929886,1
0.11999923,-4.383309841,1,-1.127143264,1,-8.732905388,1,0.005839493,1,-0.014240804,1,-0.00456738,1,0.136773467,1,-0.457173347,1,0.438891262,1,-0.066213131,1,0.069411993,1,-0.039079666,1
0.123996675,-4.389848709,1,-1.14109087,1,-8.726836205,1,0.007511881,1,-0.015188258,1,-0.000286067,1,0.136808574,1,-0.45723626,1,0.438879251,1,-0.072199821,1,0.055732489,1,-0.033322334,1
0.127995908,-4.389989853,1,-1.109691501,1,-8.743565559,1,0.008752522,1,-0.016311595,1,0.002128184,1,0.136836246,1,-0.457295239,1,0.438876927,1,-0.071823597,1,0.087337971,1,-0.050335884,1
0.131997183,-4.357448578,1,-1.115914941,1,-8.742943764,1,0.009871315,1,-0.014698919,1,-0.003246774,1,0.136877194,1,-0.457349837,1,0.43886584,1,-0.038803101,1,0.081438184,1,-0.049996376,1
0.135994628,-4.405716419,1,-1.126001596,1,-8.716310501,1,0.012185528,1,-0.012298655,1,-0.002155792,1,0.136921152,1,-0.457398891,1,0.438848853,1,-0.086640835,1,0.071704268,1,-0.023630142,1
0.139993861,-4.385206223,1,-1.141356349,1,-8.714500427,1,0.012222718,1,-0.012439279,1,-0.004641779,1,0.136978105,1,-0.457448006,1,0.438827813,1,-0.065699577,1,0.056815386,1,-0.022099495,1
0.143995136,-4.391438961,1,-1.126738429,1,-8.730802536,1,0.008861045,1,-0.012887329,1,-0.000885683,1,0.137032464,1,-0.457491547,1,0.438798994,1,-0.071549892,1,0.071880698,1,-0.038649559,1
0.147992581,-4.388440132,1,-1.177920341,1,-8.733857155,1,0.011161271,1,-0.006085451,1,-0.002779455,1,0.137081444,1,-0.457527816,1,0.438777566,1,-0.068232536,1,0.021103024,1,-0.041917801,1
0.151991814,-4.381313324,1,-1.139067769,1,-8.716042519,1,0.008537335,1,-0.008063302,1,-0.004955783,1,0.137139738,1,-0.457559794,1,0.43875438,1,-0.060825348,1,0.060443521,1,-0.024310112,1
0.155993089,-4.394511223,1,-1.08759594,1,-8.727615356,1,0.009137611,1,-0.005459438,1,-0.002848747,1,0.13718991,1,-0.457593501,1,0.438732654,1,-0.073727608,1,0.112331033,1,-0.036089897,1
0.159990534,-4.380183697,1,-1.111764789,1,-8.715475082,1,0.01042736,1,-0.007455302,1,-0.003302821,1,0.137235627,1,-0.457623214,1,0.438713551,1,-0.059139729,1,0.088542342,1,-0.02412796,1
0.163989499,-4.388237953,1,-1.10804069,1,-8.730255127,1,0.013288453,1,-0.002999769,1,-0.005344923,1,0.137287989,1,-0.457646012,1,0.438690007,1,-0.066993713,1,0.092708111,1,-0.039070129,1
0.167990789,-4.364853382,1,-1.105241656,1,-8.73292923,1,0.009150316,1,-0.007022222,1,-0.005810676,1,0.137339652,1,-0.457659394,1,0.438665569,1,-0.04349184,1,0.095948219,1,-0.041864395,1
0.171987966,-4.373429775,1,-1.116550684,1,-8.7180233,1,0.012875767,1,-0.0031347,1,-0.006612062,1,0.137397021,1,-0.457676083,1,0.438644052,1,-0.051921844,1,0.085127831,1,-0.027098656,1
0.175987452,-4.367964268,1,-1.132110953,1,-8.702541351,1,0.011778351,1,-0.003215318,1,-0.004397777,1,0.137455627,1,-0.45768556,1,0.438617975,1,-0.04637289,1,0.07007134,1,-0.011726379,1
0.179988995,-4.363295555,1,-1.131603479,1,-8.732047081,1,0.011487791,1,-0.004078951,1,-0.006069701,1,0.137522593,1,-0.457697451,1,0.438584745,1,-0.041599751,1,0.071153998,1,-0.041361809,1
0.183986694,-4.382842064,1,-1.14185214,1,-8.731770515,1,0.0113738,1,-0.008162495,1,-0.004591075,1,0.13758947,1,-0.457717746,1,0.438553929,1,-0.060968399,1,0.061474562,1,-0.04125309,1
0.187992319,-4.365005493,1,-1.118884087,1,-8.714900017,1,0.012714597,1,-0.003257457,1,-0.005282343,1,0.137649074,1,-0.457728028,1,0.438524574,1,-0.043041706,1,0.084954381,1,-0.02449894,1
0.191993862,-4.363478184,1,-1.162477255,1,-8.706064224,1,0.013780494,1,-0.004674357,1,-0.006531172,1,0.137708291,1,-0.457745254,1,0.438495159,1,-0.041362762,1,0.041865587,1,-0.015808105,1
0.195991293,-4.417634487,1,-1.171306014,1,-8.698418617,1,0.008595726,1,-0.002936152,1,-0.002477006,1,0.137764782,1,-0.457760662,1,0.438468456,1,-0.095384598,1,0.033518553,1,-0.008296967,1
0.199990526,-4.378518105,1,-1.184786439,1,-8.702571869,1,0.01111333,1,-0.00397251,1,-0.00669116,1,0.137813777,1,-0.457770705,1,0.438440382,1,-0.05618,1,0.020457864,1,-0.012552261,1
0.203991815,-4.356851101,1,-1.141252637,1,-8.715310097,1,0.008663776,1,-0.004577671,1,-0.003243351,1,0.137870088,1,-0.457777381,1,0.438411653,1,-0.034453869,1,0.064476967,1,-0.025387764,1
0.207989246,-4.42579174,1,-1.123270869,1,-8.713759422,1,0.009229328,1,-0.004778115,1,-0.004951499,1,0.137916178,1,-0.457789451,1,0.438388914,1,-0.103288651,1,0.082852125,1,-0.023944855,1
0.211988479,-4.378473282,1,-1.123277783,1,-8.705255508,1,0.010160775,1,0.000152238,1,-0.00371381,1,0.137969986,1,-0.45780164,1,0.438359022,1,-0.055863857,1,0.083305597,1,-0.015557289,1
0.215989754,-4.387619972,1,-1.160818696,1,-8.67561245,1,0.01069568,1,-0.002152598,1,-0.007255982,1,0.138031363,1,-0.457808793,1,0.438328058,1,-0.064947605,1,0.046293855,1,0.013981819,1
0.219987199,-4.391359329,1,-1.128053665,1,-8.696207047,1,0.012403434,1,0.000362811,1,-0.008917158,1,0.138090447,1,-0.457809687,1,0.438297421,1,-0.068678856,1,0.079571843,1,-0.006686211,1
0.223992571,-4.390267849,1,-1.126743197,1,-8.731592178,1,0.014713897,1,-0.002331351,1,-0.008129861,1,0.138162166,1,-0.457813203,1,0.43825531,1,-0.067556858,1,0.081503391,1,-0.042173386,1
0.227993861,-4.381408215,1,-1.113117933,1,-8.711476326,1,0.014744967,1,-0.002004254,1,-0.010744191,1,0.138141811,1,-0.457856417,1,0.438328475,1,-0.058318138,1,0.094925642,1,-0.022221565,1
0.231991559,-4.426911831,1,-1.063033819,1,-8.729943275,1,0.015086137,1,0.001075467,1,-0.010899717,1,0.138252899,1,-0.457822293,1,0.437867105,1,-0.104121208,1,0.145995498,1,-0.040675163,1
0.235997185,-4.386308193,1,-1.121957779,1,-8.736740112,1,0.01809594,1,-0.004046027,1,-0.011081403,1,0.13834691,1,-0.457823068,1,0.437816173,1,-0.063510418,1,0.087888122,1,-0.047588348,1
0.239999488,-4.436473846,1,-1.117354512,1,-8.74606514,1,0.020029482,1,-0.001295699,1,-0.014071241,1,0.138451517,1,-0.457826018,1,0.437758893,1,-0.113650322,1,0.09339869,1,-0.057052612,1
0.243997693,-4.407901764,1,-1.136369467,1,-8.743556023,1,0.022650197,1,-0.004344055,1,-0.012442507,1,0.138564378,1,-0.457825214,1,0.437703311,1,-0.085085392,1,0.075365067,1,-0.054675102,1
0.24799718,-4.37480545,1,-1.144440293,1,-8.715175629,1,0.021273943,1,-0.003340785,1,-0.010155231,1,0.138685659,1,-0.457832545,1,0.437648743,1,-0.051924706,1,0.068342805,1,-0.026477814,1
0.251998723,-4.398600578,1,-1.158112884,1,-8.715783119,1,0.027201578,1,-0.002393339,1,-0.014119882,1,0.138805524,1,-0.457838982,1,0.437577963,1,-0.075663567,1,0.055708051,1,-0.027256012,1
0.255996168,-4.365829945,1,-1.150534153,1,-8.684706688,1,0.024469873,1,-0.005676875,1,-0.013976589,1,0.138938904,1,-0.457839608,1,0.437513202,1,-0.042887211,1,0.064445615,1,0.003656387,1
0.259995401,-4.321566105,1,-1.129113436,1,-8.723002434,1,0.02390448,1,-0.002253766,1,-0.015350731,1,0.139064863,1,-0.457848102,1,0.437448174,1,0.001451015,1,0.086955547,1,-0.03482914,1
0.26400283,-4.42449379,1,-1.162107706,1,-8.700472832,1,0.02433054,1,-0.005482421,1,-0.017303683,1,0.13919872,1,-0.457857996,1,0.437378764,1,-0.101389408,1,0.055118442,1,-0.012504578,1
0.268006146,-4.362144947,1,-1.203776956,1,-8.696211815,1,0.021744141,1,-0.003278978,1,-0.015211123,1,0.13933143,1,-0.457875371,1,0.437300354,1,-0.038888454,1,0.014591694,1,-0.008479118,1
0.272005886,-4.381344795,1,-1.187739968,1,-8.721941948,1,0.027365696,1,-0.001727658,1,-0.013204914,1,0.139464319,1,-0.457877904,1,0.437229306,1,-0.058066368,1,0.031781435,1,-0.03438282,1
0.276007414,-4.404453278,1,-1.164528012,1,-8.686930656,1,0.020854216,1,-0.006703799,1,-0.011135141,1,0.139584243,1,-0.457879424,1,0.437174648,1,-0.081161022,1,0.056034207,1,0.000473976,1
0.280004859,-4.389406204,1,-1.193989158,1,-8.686881065,1,0.018702867,1,-0.005037118,1,-0.014525259,1,0.13970539,1,-0.457893431,1,0.437103152,1,-0.065991402,1,0.027617216,1,0.00031662,1
0.28400436,-4.34509325,1,-1.161435604,1,-8.696948051,1,0.019892486,1,-0.004703927,1,-0.013941307,1,0.139808089,1,-0.457892954,1,0.437048763,1,-0.021682739,1,0.06106329,1,-0.00987339,1
0.28800562,-4.366927147,1,-1.22661972,1,-8.709275246,1,0.020049656,1,-0.001207257,1,-0.013870843,1,0.139915988,1,-0.457892329,1,0.436986268,1,-0.043521881,1,-0.003183365,1,-0.022330284,1
0.292002827,-4.369717121,1,-1.22797215,1,-8.662853241,1,0.014093054,1,-8.91E-08,1,-0.009335606,1,0.140011907,1,-0.457901388,1,0.436937153,1,-0.0462327,1,-0.003708005,1,0.023935318,1
0.29600206,-4.369665146,1,-1.282334805,1,-8.677229881,1,0.013655838,1,-0.004080459,1,-0.009633935,1,0.140092149,1,-0.457905561,1,0.436895937,1,-0.046144009,1,-0.057376146,1,0.009442329,1
0.30000332,-4.372931004,1,-1.288544178,1,-8.653970718,1,0.013407536,1,-0.003753945,1,-0.005439141,1,0.140157804,1,-0.457914293,1,0.436861455,1,-0.049333096,1,-0.063020229,1,0.032585144,1
0.304001033,-4.366692066,1,-1.302327633,1,-8.651343346,1,0.005647302,1,0.002971281,1,-0.00337631,1,0.140202865,1,-0.457910538,1,0.436839134,1,-0.04312706,1,-0.076409936,1,0.035173416,1
0.308000505,-4.34366703,1,-1.261471391,1,-8.665886879,1,0.003582179,1,-0.00331736,1,0.002958748,1,0.140213519,1,-0.457909018,1,0.436839998,1,-0.020115376,1,-0.035460472,1,0.020622253,1
0.312001795,-4.395529747,1,-1.291850448,1,-8.706809998,1,-0.00100959,1,-6.07E-05,1,0.000681153,1,0.140212893,1,-0.457906425,1,0.436842263,1,-0.07200098,1,-0.065843105,1,-0.02028656,1
0.315999478,-4.366088867,1,-1.275132418,1,-8.668085098,1,-0.003623766,1,-0.000139691,1,0.008636234,1,0.140197799,1,-0.457906425,1,0.436866283,1,-0.042560101,1,-0.049256206,1,0.018455505,1
0.319998711,-4.385936737,1,-1.305810571,1,-8.669133186,1,-0.01122267,1,0.002631982,1,0.006232643,1,0.1401501,1,-0.457903981,1,0.436897993,1,-0.062428951,1,-0.08034718,1,0.017477036,1
0.324000001,-4.371166706,1,-1.273297668,1,-8.649035454,1,-0.010877406,1,0.003169455,1,0.006792163,1,0.140094951,1,-0.457907677,1,0.436930239,1,-0.047626972,1,-0.048315644,1,0.037626266,1
0.327997446,-4.408728123,1,-1.208169341,1,-8.704124451,1,-0.015696323,1,0.001998815,1,0.011114886,1,0.140017644,1,-0.45789811,1,0.436985523,1,-0.085271835,1,0.016146898,1,-0.017327309,1
0.331996679,-4.390062332,1,-1.133470416,1,-8.722168922,1,-0.019412536,1,0.004472322,1,0.012428444,1,0.13993068,1,-0.457883984,1,0.437035978,1,-0.066730022,1,0.090099216,1,-0.035203934,1
0.335998207,-4.345066071,1,-1.139826298,1,-8.702665329,1,-0.01811322,1,0.005800321,1,0.006963127,1,0.13983503,1,-0.457863629,1,0.437087774,1,-0.021912575,1,0.08292377,1,-0.015500069,1
0.339995652,-4.353364944,1,-1.158607244,1,-8.723807335,1,-0.012596117,1,0.001408342,1,0.01276394,1,0.139750749,1,-0.457865417,1,0.437133312,1,-0.030195713,1,0.063409925,1,-0.036546707,1
0.344001025,-4.357619286,1,-1.193853855,1,-8.698306084,1,-0.017247222,1,0.002867735,1,0.009185664,1,0.139662266,1,-0.457850963,1,0.437182635,1,-0.034576893,1,0.027403235,1,-0.010874748,1
0.348002553,-4.333937168,1,-1.133656621,1,-8.682360649,1,-0.017799012,1,0.002723547,1,0.00904948,1,0.139572531,1,-0.457851589,1,0.437228233,1,-0.010889053,1,0.086821079,1,0.005180359,1
0.352000266,-4.368239403,1,-1.091226697,1,-8.705540657,1,-0.016139094,1,0.002913928,1,0.008967973,1,0.139484242,1,-0.457853287,1,0.437265277,1,-0.045176506,1,0.128482461,1,-0.017901421,1
0.3559995,-4.388632298,1,-1.138914108,1,-8.70306778,1,-0.016432144,1,-0.000452948,1,0.009141336,1,0.13940604,1,-0.457853377,1,0.437299013,1,-0.065568447,1,0.080115914,1,-0.015331268,1
0.360000759,-4.350507736,1,-1.100818515,1,-8.709168434,1,-0.01120206,1,0.001842596,1,0.004207748,1,0.139330938,1,-0.457855225,1,0.437341839,1,-0.02742815,1,0.117557883,1,-0.021348,1
0.363998204,-4.349840164,1,-1.125567317,1,-8.726394653,1,-0.010971272,1,-0.000194078,1,0.007011252,1,0.139269873,1,-0.457863122,1,0.437376857,1,-0.02669096,1,0.092273831,1,-0.038534164,1
0.367997944,-4.363519669,1,-1.127042294,1,-8.727999687,1,-0.008900193,1,-0.000905946,1,0.006769905,1,0.139211431,1,-0.457866549,1,0.437405884,1,-0.040340424,1,0.090288758,1,-0.040086746,1
0.371999234,-4.365762234,1,-1.077329397,1,-8.737821579,1,-0.008140475,1,-0.001356602,1,0.006569662,1,0.139168918,1,-0.457877815,1,0.437430501,1,-0.042484283,1,0.139625669,1,-0.049902916,1
0.375996679,-4.371339798,1,-1.087155104,1,-8.716225624,1,-0.00381069,1,-0.004476522,1,0.003722175,1,0.139135391,1,-0.45789066,1,0.437441826,1,-0.047949314,1,0.129501104,1,-0.028320313,1
0.379995912,-4.381711483,1,-1.152862072,1,-8.748310089,1,-0.003382679,1,-0.004505738,1,0.002658548,1,0.139100328,1,-0.457910687,1,0.437462687,1,-0.058145523,1,0.063477755,1,-0.060446739,1
0.383997172,-4.360987186,1,-1.147367001,1,-8.711780548,1,-0.005225391,1,0.000881188,1,0.003512533,1,0.139089718,1,-0.457919329,1,0.437470734,1,-0.037344933,1,0.068875432,1,-0.02394104,1
0.387994379,-4.376446247,1,-1.155651093,1,-8.726726532,1,-0.002141545,1,-0.005199284,1,8.50E-05,1,0.139065444,1,-0.457935959,1,0.437483042,1,-0.052658081,1,0.060370445,1,-0.038928986,1
0.391993612,-4.377521992,1,-1.130717635,1,-8.707697868,1,-0.006273801,1,0.001730304,1,0.002915931,1,0.139043897,1,-0.457945555,1,0.437491119,1,-0.053649902,1,0.085111141,1,-0.019913673,1
0.395994872,-4.395003319,1,-1.118820906,1,-8.707269669,1,-0.003390559,1,-0.000503395,1,-0.000661409,1,0.139026701,1,-0.457943469,1,0.437494785,1,-0.071149349,1,0.096858859,1,-0.019460678,1
0.399992585,-4.402815342,1,-1.125690341,1,-8.703392982,1,-0.00111966,1,-0.002473109,1,0.001772195,1,0.139015585,1,-0.457949877,1,0.437499911,1,-0.078905106,1,0.089889407,1,-0.01559639,1
0.403991818,-4.364957809,1,-1.108196974,1,-8.713433266,1,-0.001389956,1,0.00143799,1,-0.001993463,1,0.139006302,1,-0.457951427,1,0.43750295,1,-0.041034222,1,0.107301116,1,-0.025632858,1
0.407993078,-4.385514259,1,-1.130908847,1,-8.701773643,1,-0.005151408,1,0.000869182,1,-0.001878668,1,0.138998419,1,-0.457949042,1,0.437505603,1,-0.061611652,1,0.084522367,1,-0.013951302,1
0.411990523,-4.37515831,1,-1.114129305,1,-8.703751564,1,0.000306286,1,2.09E-05,1,-0.001021686,1,0.138997301,1,-0.457952112,1,0.437507272,1,-0.051228523,1,0.101290584,1,-0.015940666,1
0.415989757,-4.376260281,1,-1.124332786,1,-8.725749969,1,0.001991019,1,-0.000755265,1,0.000598,1,0.139006943,1,-0.457949281,1,0.43749547,1,-0.052355289,1,0.091172218,1,-0.037940025,1
0.419991285,-4.374276161,1,-1.107487321,1,-8.735689163,1,0.001455906,1,-0.000296579,1,0.00017823,1,0.139012814,1,-0.45794785,1,0.437493861,1,-0.050384045,1,0.10806942,1,-0.047881126,1
0.423994869,-4.388511658,1,-1.068868876,1,-8.73446846,1,0.004249689,1,-0.000437555,1,-0.003783941,1,0.139031023,1,-0.457943797,1,0.437479913,1,-0.064654827,1,0.14684844,1,-0.046665192,1
0.42799437,-4.375455856,1,-1.10653913,1,-8.733488083,1,0.007346678,1,0.002550655,1,-0.005237449,1,0.13905789,1,-0.457943827,1,0.437466383,1,-0.051598549,1,0.109411955,1,-0.045716286,1
0.431995898,-4.397917271,1,-1.111957431,1,-8.702646255,1,0.005660704,1,0.001250181,1,-0.001969302,1,0.139088124,1,-0.457932919,1,0.437450826,1,-0.074156284,1,0.104262829,1,-0.014863968,1
0.435993344,-4.406588554,1,-1.131940246,1,-8.711930275,1,0.008901197,1,-0.001219752,1,-0.00963014,1,0.139132559,1,-0.457932055,1,0.43742305,1,-0.082834721,1,0.084666491,1,-0.024199486,1
0.439992577,-4.398937225,1,-1.135477185,1,-8.73618412,1,0.007678803,1,0.001047874,1,-0.005868173,1,0.139181584,1,-0.45792526,1,0.43739292,1,-0.075242996,1,0.081559777,1,-0.048481941,1
0.443993866,-4.400514603,1,-1.145459652,1,-8.72479248,1,0.010209406,1,0.001646656,1,-0.007984538,1,0.139222637,1,-0.457909554,1,0.437366664,1,-0.076958179,1,0.071943045,1,-0.037074089,1
0.447991282,-4.344285488,1,-1.14313066,1,-8.731642723,1,0.009710377,1,0.000881209,1,-0.008235848,1,0.139275089,1,-0.457899541,1,0.437330633,1,-0.020816803,1,0.074733973,1,-0.043943405,1
0.451990515,-4.351851463,1,-1.115932584,1,-8.743268013,1,0.015266646,1,0.001759149,1,-0.013001085,1,0.139336079,1,-0.457890064,1,0.437293231,1,-0.028466225,1,0.10246706,1,-0.055606842,1
0.455991805,-4.37766695,1,-1.090488911,1,-8.693395615,1,0.015754031,1,-0.001295508,1,-0.010337519,1,0.139413193,1,-0.457875073,1,0.437248856,1,-0.054413319,1,0.128590107,1,-0.005763054,1
0.45998925,-4.370972633,1,-1.073252082,1,-8.749337196,1,0.017748868,1,-0.004855717,1,-0.014682867,1,0.139502719,1,-0.457873344,1,0.437199652,1,-0.047734261,1,0.146605849,1,-0.061805725,1
0.463988721,-4.367892742,1,-1.11372757,1,-8.712900162,1,0.02004176,1,-0.001261637,1,-0.012318022,1,0.139610499,1,-0.457869887,1,0.437139928,1,-0.04468441,1,0.107068658,1,-0.025485039,1
0.467990011,-4.389501572,1,-1.079614043,1,-8.723879814,1,0.022555484,1,-0.002976925,1,-0.018311938,1,0.139717802,1,-0.457871914,1,0.437069237,1,-0.06627512,1,0.14211309,1,-0.036604881,1
0.471987456,-4.365934372,1,-1.138117552,1,-8.725881577,1,0.023729207,1,-0.001647078,1,-0.017010916,1,0.13985616,1,-0.457875609,1,0.436989963,1,-0.042675972,1,0.084809303,1,-0.038791656,1
0.475986958,-4.344523907,1,-1.154325366,1,-8.746995926,1,0.026106011,1,-0.005352509,1,-0.018050294,1,0.139994875,1,-0.457876176,1,0.436905265,1,-0.021260262,1,0.069806099,1,-0.060078621,1
0.479988217,-4.395141602,1,-1.145294785,1,-8.722705841,1,0.027997658,1,-0.003748855,1,-0.01916334,1,0.140086606,1,-0.457886398,1,0.436500669,1,-0.071788311,1,0.079627514,1,-0.035943031,1
0.483985931,-4.397262096,1,-1.153351545,1,-8.712922096,1,0.028457347,1,0.001006795,1,-0.016397767,1,0.140243411,1,-0.45788306,1,0.436415613,1,-0.07393837,1,0.072934866,1,-0.026337624,1
0.487985402,-4.360848427,1,-1.170892835,1,-8.704866409,1,0.031936523,1,-0.0012852,1,-0.019397207,1,0.140394598,1,-0.457880795,1,0.436327815,1,-0.037544727,1,0.056708097,1,-0.018457413,1
0.49198693,-4.408956051,1,-1.159073114,1,-8.706679344,1,0.027200308,1,-0.002908639,1,-0.021090303,1,0.140551791,1,-0.457878023,1,0.436241567,1,-0.085676193,1,0.069894552,1,-0.020454407,1
0.495984644,-4.383397102,1,-1.155186176,1,-8.698859215,1,0.027976405,1,-0.001383137,1,-0.020454362,1,0.140703574,1,-0.457878262,1,0.43615514,1,-0.060115337,1,0.075100064,1,-0.01281929,1
0.499990016,-4.376217842,1,-1.122225881,1,-8.687112808,1,0.029619254,1,-0.002224345,1,-0.019057333,1,0.140858337,1,-0.457879484,1,0.436069041,1,-0.05292511,1,0.109404087,1,-0.001269341,1
0.503991306,-4.347724438,1,-1.17505753,1,-8.721201897,1,0.026418682,1,-0.004464806,1,-0.016600836,1,0.141018197,1,-0.457881153,1,0.435977697,1,-0.0244174,1,0.057959795,1,-0.035562515,1
0.507988989,-4.372835636,1,-1.185725808,1,-8.709339142,1,0.021711323,1,-0.001913257,1,-0.020547513,1,0.141159877,1,-0.457879245,1,0.435892791,1,-0.049545288,1,0.048523307,1,-0.0238657,1
0.511988223,-4.380357265,1,-1.227059126,1,-8.68713665,1,0.026717033,1,-0.000753746,1,-0.018391451,1,0.141291842,1,-0.457877874,1,0.435817599,1,-0.057078838,1,0.008337379,1,-0.001819611,1
0.515989482,-4.40443325,1,-1.226843715,1,-8.716034889,1,0.022939786,1,-0.004221566,1,-0.017210171,1,0.141419142,1,-0.457877904,1,0.435738981,1,-0.081154823,1,0.009658337,1,-0.030875206,1
0.519986928,-4.389979362,1,-1.250590682,1,-8.712544441,1,0.022470243,1,-0.002682372,1,-0.015758598,1,0.141544551,1,-0.457882077,1,0.435664475,1,-0.066664219,1,-0.013002157,1,-0.027558327,1
0.523986161,-4.379769325,1,-1.206793666,1,-8.692247391,1,0.01569451,1,-0.000386542,1,-0.013791823,1,0.141652212,1,-0.45788449,1,0.43559742,1,-0.056432724,1,0.031728148,1,-0.007406235,1
0.527987719,-4.401380062,1,-1.217206001,1,-8.696025848,1,0.018652271,1,-0.004640113,1,-0.010374112,1,0.141750216,1,-0.457882464,1,0.435539544,1,-0.078061581,1,0.022168398,1,-0.011297226,1
0.531985164,-4.382894516,1,-1.178528547,1,-8.690526962,1,0.018041633,1,-0.00063,1,-0.016979486,1,0.141844198,1,-0.457885116,1,0.435474783,1,-0.05955267,1,0.061660528,1,-0.005925179,1
0.535984397,-4.386898041,1,-1.184533596,1,-8.709728241,1,0.017718542,1,0.001239224,1,-0.010578172,1,0.141941488,1,-0.457882762,1,0.435410857,1,-0.063576698,1,0.056501985,1,-0.02523613,1
0.539985657,-4.411563873,1,-1.206424475,1,-8.707174301,1,0.017294552,1,-0.000371801,1,-0.010636267,1,0.14203918,1,-0.457874805,1,0.435357183,1,-0.088312626,1,0.035464406,1,-0.022768974,1
0.543983102,-4.367749214,1,-1.246389747,1,-8.687666893,1,0.018470258,1,-0.00230613,1,-0.010512589,1,0.142132029,1,-0.457864344,1,0.435311198,1,-0.04458952,1,-0.003688216,1,-0.003333092,1
0.547982335,-4.391138077,1,-1.170671225,1,-8.690198898,1,0.016471054,1,0.004156877,1,-0.011692779,1,0.142220929,1,-0.457860768,1,0.435256392,1,-0.068009853,1,0.072804451,1,-0.005959511,1
0.551983893,-4.334385395,1,-1.243579149,1,-8.700062752,1,0.016184844,1,0.003456037,1,-0.014604743,1,0.142303258,1,-0.457835168,1,0.435209751,1,-0.011481285,1,0.000627279,1,-0.015817642,1
0.555981576,-4.396107197,1,-1.199224114,1,-8.706114769,1,0.011292622,1,0.002862428,1,-0.010300926,1,0.142383263,1,-0.457821488,1,0.435169458,1,-0.07332325,1,0.045685291,1,-0.021910667,1
0.559981287,-4.360116959,1,-1.207503915,1,-8.718532562,1,0.015905403,1,-0.000393336,1,-0.011794826,1,0.142450288,1,-0.457805097,1,0.435120702,1,-0.037477016,1,0.037997484,1,-0.034342766,1
0.563982606,-4.40276289,1,-1.236461401,1,-8.702384949,1,0.01269353,1,-0.000594521,1,-0.0116301,1,0.142541021,1,-0.457787633,1,0.435068369,1,-0.080276012,1,0.0098387,1,-0.018232346,1
0.567980051,-4.386369705,1,-1.175407052,1,-8.742665291,1,0.014594608,1,0.003899232,1,-0.008461859,1,0.142604023,1,-0.457775891,1,0.435034424,1,-0.063985825,1,0.071447372,1,-0.058541298,1
0.571979523,-4.409674644,1,-1.164388776,1,-8.753190041,1,0.016405467,1,0.002466393,1,-0.008177744,1,0.142686963,1,-0.457764626,1,0.434997588,1,-0.087389946,1,0.083192825,1,-0.069120407,1
0.575980783,-4.415699005,1,-1.192782879,1,-8.722244263,1,0.025384501,1,-0.001081155,1,-0.005109515,1,0.142780989,1,-0.457755506,1,0.43495512,1,-0.093493938,1,0.055621028,1,-0.038253784,1
0.579984128,-4.377024174,1,-1.251506805,1,-8.76950264,1,0.033636373,1,-0.00132873,1,-0.001975998,1,0.142913833,1,-0.457748324,1,0.43494311,1,-0.054882526,1,-0.0019449,1,-0.085647583,1
0.5839836,-4.397383213,1,-1.22670722,1,-8.790777206,1,0.044720694,1,-0.003731062,1,0.00663228,1,0.143059984,1,-0.457771599,1,0.4349612,1,-0.075037003,1,0.024109721,1,-0.10720253,1
0.58798492,-4.385819912,1,-1.187741995,1,-8.759622574,1,0.055412747,1,-0.004420892,1,0.010393571,1,0.1432385,1,-0.457797617,1,0.434996873,1,-0.063245773,1,0.064608932,1,-0.076383591,1
0.591982603,-4.409519196,1,-1.224183321,1,-8.70985508,1,0.06318751,1,-0.006447469,1,0.015464635,1,0.143451259,1,-0.457824409,1,0.435045809,1,-0.086709976,1,0.029998422,1,-0.026996613,1
0.595981836,-4.401328564,1,-1.203469872,1,-8.733772278,1,0.075585224,1,-0.002057627,1,0.020378891,1,0.143707275,1,-0.45785737,1,0.435113132,1,-0.078229904,1,0.0529145,1,-0.051375389,1
0.599983096,-4.393270016,1,-1.232796073,1,-8.757757187,1,0.091206096,1,-0.005158949,1,0.027755596,1,0.143994972,1,-0.457880646,1,0.435210407,1,-0.06996727,1,0.026071191,1,-0.075826645,1
0.60398078,-4.409741879,1,-1.205960989,1,-8.80753231,1,0.111858718,1,-0.006937604,1,0.036069781,1,0.144340277,1,-0.457923114,1,0.435346305,1,-0.086066246,1,0.055877924,1,-0.126215935,1
0.607980013,-4.373227119,1,-1.314688206,1,-8.820289612,1,0.126602262,1,-0.005093251,1,0.047007378,1,0.144738361,1,-0.457965493,1,0.435518801,1,-0.049180508,1,-0.049419641,1,-0.139656067,1
0.611981571,-4.389099598,1,-1.310403228,1,-8.746454239,1,0.152943909,1,-0.000251341,1,0.062246583,1,0.145203114,1,-0.458012909,1,0.435752273,1,-0.064636707,1,-0.041130781,1,-0.066616058,1
0.615979254,-4.452236176,1,-1.268481493,1,-8.843870163,1,0.165369138,1,0.007070773,1,0.075789429,1,0.145685226,1,-0.458031386,1,0.436067641,1,-0.127610683,1,0.004964113,1,-0.164723396,1
0.619978726,-4.343108177,1,-1.394250631,1,-8.736613274,1,0.180361465,1,0.00903917,1,0.081648499,1,0.146224901,1,-0.458044946,1,0.436406076,1,-0.018364429,1,-0.116129756,1,-0.05821228,1
0.623980522,-4.588655472,1,-1.095777392,1,-8.557957649,1,0.188982785,1,0.013207674,1,0.080512971,1,0.146810874,1,-0.458074063,1,0.4367432,1,-0.263655663,1,0.187410235,1,0.119569778,1
0.627978265,-4.463274002,1,-1.067713618,1,-8.683802605,1,0.177827969,1,0.025807517,1,0.070537224,1,0.147382006,1,-0.458037496,1,0.437089354,1,-0.138595581,1,0.220452547,1,-0.006855965,1
0.631983638,-4.403201103,1,-1.33945787,1,-8.730715752,1,0.188043714,1,0.026020586,1,0.074214257,1,0.147960231,1,-0.457983375,1,0.437443465,1,-0.078997135,1,-0.046239614,1,-0.054280281,1
0.635985136,-4.37609005,1,-1.359773755,1,-8.693836212,1,0.179091096,1,0.026036713,1,0.070077546,1,0.14854674,1,-0.457923979,1,0.437775254,1,-0.052406788,1,-0.061428547,1,-0.017905235,1
0.63998282,-4.38289547,1,-1.200250149,1,-8.700100899,1,0.173574865,1,0.018356059,1,0.066251896,1,0.149122059,1,-0.457882345,1,0.438084602,1,-0.059577942,1,0.103112459,1,-0.024744034,1
0.643982351,-4.393456936,1,-1.362382412,1,-8.694291115,1,0.154528275,1,0.020245243,1,0.059984863,1,0.149652287,1,-0.457840204,1,0.438370496,1,-0.070509434,1,-0.054392695,1,-0.019444466,1
0.647983849,-4.344183922,1,-1.326370239,1,-8.631445885,1,0.133743644,1,0.022315536,1,0.050762322,1,0.150107279,1,-0.457785606,1,0.438635468,1,-0.021714687,1,-0.014398932,1,0.0430336,1
0.651981592,-4.40354681,1,-1.44184339,1,-8.644368172,1,0.113576181,1,0.011710682,1,0.049790256,1,0.150501221,1,-0.457751542,1,0.438863099,1,-0.081377029,1,-0.126432538,1,0.029743195,1
0.655981064,-4.328851223,1,-1.498419166,1,-8.647255898,1,0.08741419,1,0.007525098,1,0.044739805,1,0.150802016,1,-0.457737297,1,0.439086139,1,-0.006806374,1,-0.180389762,1,0.026520729,1
0.659988463,-4.346313,1,-1.537084579,1,-8.575889587,1,0.062249698,1,0.004438543,1,0.049440686,1,0.15100418,1,-0.457744986,1,0.439296037,1,-0.024199963,1,-0.217306852,1,0.097585678,1
0.663992047,-4.392947197,1,-1.531771779,1,-8.575906754,1,0.035280753,1,0.003940948,1,0.050181724,1,0.151101947,1,-0.457758933,1,0.439519435,1,-0.07071209,1,-0.211155295,1,0.097379684,1
0.667991817,-4.301092148,1,-1.493365049,1,-8.603792191,1,0.012210903,1,0.00478647,1,0.048174132,1,0.15110983,1,-0.45777595,1,0.439733893,1,0.021291733,1,-0.172691345,1,0.069410324,1
0.671993077,-4.357743263,1,-1.479127049,1,-8.587000847,1,-0.004258706,1,0.001733721,1,0.051265083,1,0.151024461,1,-0.457795084,1,0.43996191,1,-0.035191059,1,-0.159206271,1,0.086232185,1
0.675990522,-4.351773262,1,-1.471908569,1,-8.623693466,1,-0.026953895,1,-0.001109497,1,0.049719486,1,0.15085569,1,-0.45782873,1,0.440182805,1,-0.028926373,1,-0.153473377,1,0.049618721,1
0.679989994,-4.350066662,1,-1.445683837,1,-8.596570015,1,-0.046834983,1,-0.000381707,1,0.052536745,1,0.150606692,1,-0.457867146,1,0.440410167,1,-0.026882648,1,-0.129433274,1,0.076905251,1
0.683991313,-4.373459816,1,-1.457187891,1,-8.611039162,1,-0.061158676,1,-0.004992953,1,0.055712443,1,0.150283799,1,-0.457905591,1,0.440641105,1,-0.049938202,1,-0.143762708,1,0.062697411,1
0.687988758,-4.353797436,1,-1.527642012,1,-8.628250122,1,-0.084577627,1,0.00177367,1,0.056010112,1,0.149888769,1,-0.45794034,1,0.440885842,1,-0.029971123,1,-0.217665911,1,0.045855522,1
0.691987991,-4.342756271,1,-1.511148453,1,-8.610906601,1,-0.096886858,1,0.000581096,1,0.060326852,1,0.149409384,1,-0.457970291,1,0.441140145,1,-0.018667221,1,-0.205350041,1,0.063698769,1
0.695989251,-4.387036324,1,-1.499928713,1,-8.610658646,1,-0.11071457,1,0.003242059,1,0.058344178,1,0.148875281,1,-0.458012789,1,0.441404551,1,-0.062574387,1,-0.198790789,1,0.064461708,1
0.699986696,-4.449086189,1,-1.516159177,1,-8.607585907,1,-0.121032022,1,-0.003520938,1,0.063249178,1,0.148285553,1,-0.458053648,1,0.441669375,1,-0.124265671,1,-0.220163107,1,0.068128586,1
0.703985929,-4.283259869,1,-1.44276309,1,-8.614935875,1,-0.140044317,1,0.000720188,1,0.069600761,1,0.147638649,1,-0.45809108,1,0.441958427,1,0.041888714,1,-0.152403593,1,0.061453819,1
0.707987428,-4.331005096,1,-1.3283602,1,-8.664063454,1,-0.147594646,1,0.000163415,1,0.069591187,1,0.14693208,1,-0.458121896,1,0.442258358,1,-0.005586147,1,-0.044150829,1,0.013104439,1
0.711984873,-4.280397415,1,-1.289179087,1,-8.625526428,1,-0.155299857,1,-0.000892677,1,0.070576251,1,0.146181911,1,-0.458164185,1,0.442567766,1,0.045392513,1,-0.011506677,1,0.052417755,1
0.715984106,-4.288721561,1,-1.308282137,1,-8.699176788,1,-0.16618821,1,-0.00592602,1,0.070677131,1,0.145402312,1,-0.45821923,1,0.442878187,1,0.037551403,1,-0.037409663,1,-0.020472527,1
0.719985425,-4.318821907,1,-1.272804379,1,-8.668622017,1,-0.174339801,1,-0.006004812,1,0.07419657,1,0.144577369,1,-0.458285868,1,0.443195313,1,0.008035183,1,-0.00913322,1,0.010842323,1
0.723982871,-4.378512383,1,-1.265713811,1,-8.671628952,1,-0.181550488,1,-0.010984024,1,0.070429385,1,0.143735364,1,-0.458361179,1,0.443504214,1,-0.050994396,1,-0.009397984,1,0.008574486,1
0.727982104,-4.343275547,1,-1.196988225,1,-8.691483498,1,-0.180495262,1,-0.008110655,1,0.069744267,1,0.142899901,1,-0.458479166,1,0.443761498,1,-0.014722824,1,0.052002668,1,-0.010738373,1
0.7319839,-4.353722095,1,-1.176635504,1,-8.707010269,1,-0.18484576,1,-0.011700044,1,0.070786841,1,0.142063767,1,-0.458527684,1,0.443648845,1,-0.024744034,1,0.065066934,1,-0.025431633,1
0.735987186,-4.318956375,1,-1.138104558,1,-8.680364609,1,-0.188146755,1,-0.013367089,1,0.070141762,1,0.141191661,1,-0.45861274,1,0.443941057,1,0.010767937,1,0.095974207,1,0.001928329,1
0.739986956,-4.268025875,1,-1.065339327,1,-8.676445007,1,-0.187384367,1,-0.016968604,1,0.068387955,1,0.140313625,1,-0.458708823,1,0.44423008,1,0.062540531,1,0.161056995,1,0.006513596,1
0.743988216,-4.384474754,1,-1.005552053,1,-8.759417534,1,-0.185821384,1,-0.020074023,1,0.060916115,1,0.139444157,1,-0.458811462,1,0.444499552,1,-0.05300808,1,0.213232875,1,-0.075834274,1
0.747985661,-4.383505344,1,-0.953395486,1,-8.763546944,1,-0.180453897,1,-0.018897476,1,0.057616696,1,0.138605222,1,-0.458914101,1,0.444752157,1,-0.051138401,1,0.258042812,1,-0.079382896,1
0.751985133,-4.369887352,1,-0.961471617,1,-8.802428246,1,-0.17307812,1,-0.022507124,1,0.054156266,1,0.137794763,1,-0.459033519,1,0.44498387,1,-0.036473751,1,0.242856324,1,-0.117801666,1
0.755986452,-4.304779053,1,-0.96755302,1,-8.854264259,1,-0.159731805,1,-0.031276248,1,0.056203034,1,0.137038708,1,-0.459172428,1,0.445199937,1,0.02985239,1,0.230126858,1,-0.169322968,1
0.759983599,-4.311944008,1,-1.051395297,1,-8.80854702,1,-0.149042413,1,-0.040637314,1,0.051026016,1,0.136330664,1,-0.459339261,1,0.445418119,1,0.024150372,1,0.140036225,1,-0.123479843,1
0.763982832,-4.335485458,1,-1.02711761,1,-8.796673775,1,-0.132945582,1,-0.043738645,1,0.052525859,1,0.135679767,1,-0.459539115,1,0.445625901,1,0.002360344,1,0.158543706,1,-0.111689568,1
0.767984152,-4.412322044,1,-0.946404874,1,-8.767933846,1,-0.124430075,1,-0.043735318,1,0.055529572,1,0.135070577,1,-0.459742129,1,0.445828468,1,-0.072696209,1,0.233846605,1,-0.083102226,1
0.771981597,-4.388901711,1,-0.947278798,1,-8.720736504,1,-0.122157082,1,-0.046307094,1,0.046822444,1,0.134487852,1,-0.459945112,1,0.446013868,1,-0.047497272,1,0.227793515,1,-0.036090851,1
0.775981069,-4.269229889,1,-0.833673775,1,-8.799527168,1,-0.116904587,1,-0.046329539,1,0.03881035,1,0.133935869,1,-0.460158169,1,0.446182579,1,0.074041367,1,0.336480916,1,-0.115151405,1
0.779982328,-4.425066948,1,-0.831765056,1,-8.769900322,1,-0.114026189,1,-0.057239242,1,0.03481359,1,0.133417293,1,-0.460382521,1,0.446317166,1,-0.079829693,1,0.333756447,1,-0.085885048,1
0.783979774,-4.380215168,1,-0.932689667,1,-8.741660118,1,-0.100519374,1,-0.048271284,1,0.029559856,1,0.13295956,1,-0.46060437,1,0.446422577,1,-0.033034325,1,0.228729129,1,-0.058067322,1
0.787979007,-4.321466446,1,-0.963910341,1,-8.683677673,1,-0.092623055,1,-0.05111615,1,0.02650582,1,0.132530496,1,-0.460813105,1,0.446516842,1,0.027543068,1,0.193662763,1,-0.00048542,1
0.791980267,-4.421350479,1,-0.995659709,1,-8.603363991,1,-0.092066348,1,-0.045132667,1,0.025110321,1,0.132119492,1,-0.461018592,1,0.446610153,1,-0.070540905,1,0.158226371,1,0.079415321,1
0.795977712,-4.505530357,1,-1.033405542,1,-8.599308968,1,-0.097625971,1,-0.038195688,1,0.025451604,1,0.131692722,1,-0.461195886,1,0.446702421,1,-0.153167248,1,0.116673589,1,0.08319664,1
0.799977243,-4.446351528,1,-1.047965646,1,-8.63115406,1,-0.092760794,1,-0.0338916,1,0.022039697,1,0.131274238,1,-0.461358219,1,0.446790397,1,-0.092566967,1,0.09838748,1,0.051133156,1
0.803978741,-4.350370407,1,-0.897553265,1,-8.60163784,1,-0.090212248,1,-0.029985989,1,0.02154519,1,0.130862206,1,-0.461490065,1,0.44688338,1,0.0045681,1,0.245147645,1,0.080553055,1
0.807976186,-4.381647587,1,-0.861439347,1,-8.744714737,1,-0.078779697,1,-0.028440928,1,0.018691652,1,0.13049455,1,-0.461611122,1,0.446957052,1,-0.025648594,1,0.278000236,1,-0.062631607,1
0.81197542,-4.397695065,1,-0.85657537,1,-8.753157616,1,-0.063030571,1,-0.030191334,1,0.020022873,1,0.130170032,1,-0.461740285,1,0.447027564,1,-0.040565014,1,0.279974103,1,-0.071259499,1
0.815982819,-4.478192806,1,-0.864023626,1,-8.736618042,1,-0.050448552,1,-0.027612558,1,0.019465964,1,0.129903242,1,-0.461877227,1,0.447108984,1,-0.11986351,1,0.270132124,1,-0.055010796,1
0.819986403,-4.41820097,1,-0.896232247,1,-8.671779633,1,-0.032816809,1,-0.033646472,1,0.014161227,1,0.129704744,1,-0.462007314,1,0.447162926,1,-0.058732986,1,0.2361269,1,0.00949192,1
0.823985934,-4.4126544,1,-0.796781063,1,-8.664726257,1,-0.025379246,1,-0.024083456,1,0.011086401,1,0.129564807,1,-0.462129056,1,0.447211146,1,-0.052120686,1,0.334294796,1,0.016178131,1
0.827987432,-4.442568779,1,-0.780681014,1,-8.655800819,1,-0.019294711,1,-0.022251863,1,0.004908917,1,0.129463613,1,-0.462230504,1,0.447227776,1,-0.081146717,1,0.349459052,1,0.024777412,1
0.831985414,-4.426785946,1,-0.816004276,1,-8.58837986,1,-0.009565498,1,-0.018665692,1,-0.003038042,1,0.129400134,1,-0.462317079,1,0.447236419,1,-0.06460619,1,0.313536048,1,0.091896057,1
0.835984886,-4.41010046,1,-0.854583442,1,-8.639656067,1,-0.002318104,1,-0.005811629,1,0.001164671,1,0.12937583,1,-0.462368608,1,0.447224379,1,-0.047470093,1,0.274717033,1,0.040424347,1
0.839986205,-4.484533787,1,-0.891563296,1,-8.683141708,1,0.009693111,1,-0.010715605,1,-0.004152667,1,0.129400119,1,-0.462407768,1,0.447212487,1,-0.121560574,1,0.237926006,1,-0.003257751,1
0.843983591,-4.464346409,1,-0.839430511,1,-8.655819893,1,0.020259162,1,-0.0039891,1,-0.005728456,1,0.129467651,1,-0.462432265,1,0.447185248,1,-0.101158142,1,0.290630639,1,0.023878098,1
0.847983122,-4.461678982,1,-0.759472907,1,-8.685323715,1,0.033427324,1,0.002644924,1,-0.008826375,1,0.129581898,1,-0.462441266,1,0.447143912,1,-0.098412514,1,0.371575177,1,-0.005791664,1
0.851984382,-4.428159714,1,-0.753177106,1,-8.747789383,1,0.046803605,1,0.004181241,1,-0.018528122,1,0.129761815,1,-0.462422073,1,0.447089255,1,-0.065061092,1,0.379443109,1,-0.068378448,1
0.855981827,-4.347017288,1,-0.758482039,1,-8.774449348,1,0.061285224,1,-0.005122161,1,-0.02018619,1,0.130002692,1,-0.462412417,1,0.447008282,1,0.015996933,1,0.376234591,1,-0.09526825,1
0.859981596,-4.384940624,1,-0.828908384,1,-8.715813637,1,0.063910924,1,-0.005843339,1,-0.024530234,1,0.1302948,1,-0.462416947,1,0.446903884,1,-0.021886826,1,0.308340847,1,-0.03698349,1
0.863982856,-4.397616386,1,-0.927889705,1,-8.655370712,1,0.077384882,1,-0.006729377,1,-0.030566229,1,0.13063392,1,-0.462423533,1,0.446791828,1,-0.03450489,1,0.212298989,1,0.02304554,1
0.867980778,-4.403394222,1,-0.936123908,1,-8.686477661,1,0.079941645,1,0.002163861,1,-0.035394724,1,0.131010085,1,-0.462410539,1,0.446651042,1,-0.040396214,1,0.207336724,1,-0.008434296,1
0.871980011,-4.339799404,1,-0.901791573,1,-8.560474396,1,0.078782715,1,0.009563416,1,-0.030086285,1,0.131383538,1,-0.462372065,1,0.446516812,1,0.022861958,1,0.244931936,1,0.117308617,1
0.875981569,-4.345532417,1,-0.776159108,1,-8.670316696,1,0.094665244,1,0.007997504,1,-0.029330468,1,0.131793961,1,-0.462310195,1,0.44638294,1,0.016587257,1,0.374161065,1,0.007260323,1
0.879979253,-4.355976105,1,-0.779183805,1,-8.750746727,1,0.113844156,1,0.010349351,1,-0.036143158,1,0.132274181,1,-0.462235957,1,0.446237892,1,0.005493164,1,0.375346124,1,-0.073402405,1
0.883978486,-4.431248188,1,-0.843761802,1,-8.733839035,1,0.132560208,1,0.009852019,1,-0.040892076,1,0.13284035,1,-0.462182879,1,0.446079463,1,-0.070243359,1,0.315711379,1,-0.056921005,1
0.887979805,-4.411726952,1,-0.974233866,1,-8.741116524,1,0.157198399,1,0.004463057,1,-0.040243927,1,0.133491948,1,-0.462132484,1,0.445914507,1,-0.051163197,1,0.190922379,1,-0.064736366,1
0.891977191,-4.343947887,1,-0.985542834,1,-8.658355713,1,0.16966188,1,0.00711953,1,-0.035475835,1,0.134215713,1,-0.46208775,1,0.445752263,1,0.016224384,1,0.18591851,1,0.017371178,1
0.895982563,-4.402650833,1,-1.075330257,1,-8.65201664,1,0.175594464,1,0.013048676,1,-0.035144538,1,0.134961784,1,-0.462026805,1,0.445613801,1,-0.043012142,1,0.102639437,1,0.023097992,1
0.899984121,-4.490124226,1,-0.979147315,1,-8.695361137,1,0.169810414,1,0.015178185,1,-0.031689256,1,0.135717407,1,-0.461950839,1,0.445476055,1,-0.131150723,1,0.205422044,1,-0.020810127,1
0.903981805,-4.35213995,1,-1.002955079,1,-8.484145164,1,0.176221371,1,0.026628386,1,-0.037615947,1,0.136468694,1,-0.461853206,1,0.445331097,1,0.005978584,1,0.188189149,1,0.189934731,1
0.907981038,-4.363499165,1,-1.004627705,1,-8.76957798,1,0.191506222,1,0.025974311,1,-0.038985088,1,0.137256965,1,-0.461720049,1,0.445180416,1,-0.006546021,1,0.19343257,1,-0.095867157,1
0.911982358,-4.429197311,1,-1.091286659,1,-8.650062561,1,0.181410283,1,0.028295875,1,-0.041822389,1,0.138088733,1,-0.461592734,1,0.445020258,1,-0.073359013,1,0.114064097,1,0.023198128,1
0.915979803,-4.375685692,1,-1.195175171,1,-8.730148315,1,0.192893803,1,0.023155631,1,-0.03531808,1,0.138898194,1,-0.461463094,1,0.444863439,1,-0.020983219,1,0.017274261,1,-0.057305336,1
0.919979513,-4.313245296,1,-1.173923135,1,-8.421163559,1,0.175579622,1,0.029005444,1,-0.043036357,1,0.139713094,1,-0.461339206,1,0.444697797,1,0.040372372,1,0.045668006,1,0.251219749,1
0.923981071,-4.350676537,1,-1.25880444,1,-8.740609169,1,0.185214683,1,0.03559646,1,-0.036275186,1,0.14049989,1,-0.461187959,1,0.44453913,1,0.001616955,1,-0.03229785,1,-0.068534851,1
0.927978516,-4.337137222,1,-1.123774171,1,-8.751151085,1,0.178496704,1,0.033852596,1,-0.035913039,1,0.141284496,1,-0.461025804,1,0.444403529,1,0.013735771,1,0.109635472,1,-0.079342842,1
0.931977987,-4.312423706,1,-1.153007984,1,-8.928203583,1,0.193745509,1,0.013745682,1,-0.032722276,1,0.142082959,1,-0.460913837,1,0.444263369,1,0.037468433,1,0.087394714,1,-0.256899834,1
0.935979247,-4.351900578,1,-1.05883944,1,-8.660477638,1,0.174822122,1,0.012249811,1,-0.042008337,1,0.142899752,1,-0.460850239,1,0.444104344,1,-0.002565384,1,0.188684583,1,0.010081291,1
0.939976692,-4.364502907,1,-0.992563069,1,-8.774759293,1,0.199767202,1,0.011007571,1,-0.041682735,1,0.14372614,1,-0.460778236,1,0.443927467,1,-0.015798569,1,0.262170732,1,-0.104923248,1
0.943976164,-4.405093193,1,-0.850731671,1,-8.610592842,1,0.193812251,1,0.016477535,1,-0.05069394,1,0.144595206,1,-0.460694611,1,0.443740249,1,-0.057121754,1,0.411588967,1,0.05851078,1
0.947977483,-4.515868664,1,-0.461672902,1,-8.782226563,1,0.21848999,1,0.000371184,1,-0.074172415,1,0.145540714,1,-0.460634202,1,0.443473041,1,-0.168426514,1,0.808882236,1,-0.114058495,1
0.951974928,-4.418018341,1,-0.434653074,1,-8.749331474,1,0.235594481,1,0.014286743,1,-0.07942149,1,0.146587342,1,-0.460547566,1,0.443139523,1,-0.071334839,1,0.845028043,1,-0.082129478,1
0.955974162,-4.483409882,1,-0.634741545,1,-8.715324402,1,0.257803738,1,0.008773144,1,-0.100213334,1,0.147765115,1,-0.4604491,1,0.442758054,1,-0.137588978,1,0.655209541,1,-0.049213409,1
0.959975421,-4.376227379,1,-0.855162621,1,-8.945977211,1,0.243229911,1,0.00791482,1,-0.107992984,1,0.148951858,1,-0.460343301,1,0.442297161,1,-0.031333923,1,0.445140719,1,-0.280944824,1
0.963973105,-4.422500134,1,-1.119727135,1,-8.497031212,1,0.252849549,1,0.014990608,1,-0.115603998,1,0.150171742,1,-0.460252166,1,0.441811144,1,-0.078404903,1,0.191204548,1,0.166797638,1
0.967972338,-4.352567673,1,-1.262979627,1,-8.826154709,1,0.257139981,1,0.004642823,1,-0.115575746,1,0.151399776,1,-0.460143328,1,0.441306591,1,-0.009426117,1,0.058662295,1,-0.163472176,1
0.971973658,-4.430913448,1,-1.31298399,1,-8.736390114,1,0.253121436,1,2.66E-06,1,-0.12028303,1,0.152668282,1,-0.460064679,1,0.440790325,1,-0.088461399,1,0.019697189,1,-0.075055122,1
0.975977242,-4.265419006,1,-0.925816715,1,-8.986053467,1,0.269783556,1,-0.008189404,1,-0.113871977,1,0.153921321,1,-0.459996819,1,0.440276533,1,0.076438904,1,0.417761624,1,-0.32610321,1
0.979976714,-4.745874882,1,-1.212594509,1,-8.498225212,1,0.298050255,1,-0.012415022,1,-0.131433785,1,0.155078501,1,-0.459982663,1,0.439744145,1,-0.404141426,1,0.141013265,1,0.160223007,1
0.983977973,-4.262453079,1,-1.176668048,1,-8.927227974,1,0.275798708,1,-0.013474834,1,-0.116902627,1,0.156425387,1,-0.459926873,1,0.439198136,1,0.078791618,1,0.188637733,1,-0.270373344,1
0.987975657,-4.351774216,1,-1.379288912,1,-9.027754784,1,0.289621502,1,-0.020168066,1,-0.129391521,1,0.157807589,1,-0.459919155,1,0.438626975,1,-0.010597229,1,-0.002012968,1,-0.372757912,1
0.991975188,-4.335750103,1,-1.63305974,1,-8.723928452,1,0.271891654,1,-0.039146591,1,-0.128242254,1,0.159193039,1,-0.459951192,1,0.438043356,1,0.005707741,1,-0.243816257,1,-0.070987701,1
0.995976686,-4.273461342,1,-1.860817671,1,-8.703578949,1,0.255282611,1,-0.035207499,1,-0.11493995,1,0.160494119,1,-0.460024655,1,0.437477499,1,0.068640232,1,-0.460367799,1,-0.052764893,1
0.999974132,-4.403660774,1,-1.995332003,1,-8.639332771,1,0.233664244,1,-0.043490548,1,-0.10709244,1,0.16170463,1,-0.460116923,1,0.436967611,1,-0.060750484,1,-0.584476113,1,0.009382248,1
1.003973365,-4.447190285,1,-1.902039409,1,-8.83094883,1,0.232959822,1,-0.05201795,1,-0.097396754,1,0.162853226,1,-0.460236192,1,0.43648386,1,-0.103235245,1,-0.481334686,1,-0.184372902,1
1.007974863,-4.337962627,1,-1.928745747,1,-8.430040359,1,0.203700274,1,-0.043811169,1,-0.094025299,1,0.163925156,1,-0.460382253,1,0.436033547,1,0.00727272,1,-0.498876572,1,0.214385033,1
1.011972308,-4.421496391,1,-1.904204726,1,-8.592409134,1,0.180683509,1,-0.048906703,1,-0.080680348,1,0.164876178,1,-0.460501969,1,0.435615093,1,-0.075212002,1,-0.466200948,1,0.050135612,1
1.015971541,-4.436926365,1,-1.826973319,1,-8.598040581,1,0.162929505,1,-0.042054165,1,-0.075036608,1,0.165730655,1,-0.460634589,1,0.435244918,1,-0.0894804,1,-0.38168025,1,0.042704582,1
1.019973159,-4.375855446,1,-1.705095053,1,-8.688463211,1,0.144362167,1,-0.054696947,1,-0.064348511,1,0.166487753,1,-0.460782677,1,0.434905022,1,-0.027112007,1,-0.253367066,1,-0.049448013,1
1.023970604,-4.465546131,1,-1.897609591,1,-8.50246048,1,0.128895611,1,-0.041937009,1,-0.05237516,1,0.167162254,1,-0.460924298,1,0.434621632,1,-0.115562439,1,-0.440157294,1,0.134965897,1
1.027976155,-4.490578651,1,-2.004746199,1,-8.606595039,1,0.111376666,1,-0.044482764,1,-0.040766153,1,0.167750463,1,-0.461064756,1,0.434387863,1,-0.139364243,1,-0.542315364,1,0.029371262,1
1.031977773,-4.418115616,1,-1.873184085,1,-8.653151512,1,0.102999568,1,-0.042545564,1,-0.028890833,1,0.168267131,1,-0.461208105,1,0.434191644,1,-0.065646172,1,-0.406396031,1,-0.018556595,1
1.035975218,-4.403635025,1,-1.731626391,1,-8.550788879,1,0.088168174,1,-0.042503912,1,-0.024019279,1,0.168720648,1,-0.461366028,1,0.434038877,1,-0.049782276,1,-0.261038661,1,0.082457542,1
1.039974689,-4.404863358,1,-1.568252921,1,-8.689528465,1,0.091057718,1,-0.04696231,1,-0.019937249,1,0.169130266,1,-0.461515039,1,0.433902085,1,-0.049705982,1,-0.094237804,1,-0.05752182,1
1.043976188,-4.364859581,1,-1.525345922,1,-8.541282654,1,0.090780377,1,-0.042993736,1,-0.018489446,1,0.169572309,1,-0.461691141,1,0.433778077,1,-0.008159637,1,-0.047644377,1,0.089316368,1
1.047973633,-4.38853693,1,-1.804139853,1,-8.654579163,1,0.072541744,1,-0.041601606,1,-0.005500524,1,0.169928998,1,-0.461851031,1,0.433703542,1,-0.030436993,1,-0.323477745,1,-0.025194168,1
1.051979303,-4.407776356,1,-1.947444916,1,-8.910311699,1,0.088739581,1,-0.045390129,1,0.007264659,1,0.170250103,1,-0.462016463,1,0.433673859,1,-0.048228264,1,-0.464134455,1,-0.282114983,1
1.05598104,-4.357395649,1,-1.67989099,1,-8.862689018,1,0.103854865,1,-0.062147781,1,0.019398622,1,0.170631707,1,-0.462230325,1,0.433692902,1,0.004024982,1,-0.193446398,1,-0.235976219,1
1.059978962,-4.371092796,1,-1.188658357,1,-8.981114388,1,0.125013694,1,-0.082452416,1,0.016397985,1,0.171080604,1,-0.462527812,1,0.433717161,1,-0.007068634,1,0.301437259,1,-0.356352806,1
1.063978553,-4.314818382,1,-1.152204871,1,-8.854801178,1,0.155380115,1,-0.088769071,1,0.017149044,1,0.171631351,1,-0.46287933,1,0.43372044,1,0.052282333,1,0.342378259,1,-0.232373238,1
1.067979813,-4.168073177,1,-1.133954883,1,-8.90034008,1,0.189089268,1,-0.089503251,1,0.022634897,1,0.172300071,1,-0.463264287,1,0.433731526,1,0.202395916,1,0.366106272,1,-0.280567169,1
1.071977496,-4.264015198,1,-1.225594759,1,-8.920678139,1,0.205739826,1,-0.121285386,1,0.018090986,1,0.173066422,1,-0.463696688,1,0.433732659,1,0.110236645,1,0.28074646,1,-0.303917885,1
1.075976968,-4.342013359,1,-1.520000219,1,-8.882328987,1,0.236111209,1,-0.115526244,1,0.023922397,1,0.173948094,1,-0.464188874,1,0.433738351,1,0.036543369,1,-0.006435752,1,-0.269025803,1
1.079978228,-4.413136482,1,-1.449486494,1,-9.083302498,1,0.272052526,1,-0.132778749,1,0.042339351,1,0.174950615,1,-0.46469295,1,0.433782518,1,-0.030171394,1,0.072327614,1,-0.473696709,1
1.083975911,-4.514044762,1,-1.164895654,1,-9.019795418,1,0.318516076,1,-0.140980914,1,0.045953009,1,0.176089853,1,-0.465265542,1,0.433875322,1,-0.126074791,1,0.366286635,1,-0.414396286,1
1.087975383,-4.715716839,1,-0.943841338,1,-8.977741241,1,0.350948244,1,-0.131976873,1,0.040767502,1,0.177374303,1,-0.465828836,1,0.433982462,1,-0.322824001,1,0.597955823,1,-0.376753807,1
1.091977,-4.370391846,1,-1.178716183,1,-8.661188126,1,0.366576672,1,-0.126416683,1,0.035896029,1,0.178794473,1,-0.466375679,1,0.434038877,1,0.027278423,1,0.374867797,1,-0.064760208,1
1.095974684,-4.247200012,1,-1.43101263,1,-8.663858414,1,0.361823529,1,-0.14069736,1,0.044647381,1,0.180220813,1,-0.466928452,1,0.434100389,1,0.15529871,1,0.134394288,1,-0.072052956,1
1.099974155,-4.228636742,1,-1.572402716,1,-8.500813484,1,0.347962677,1,-0.141089991,1,0.047323242,1,0.181611359,1,-0.467515022,1,0.434193671,1,0.178984165,1,0.004483581,1,0.086266518,1
1.103975892,-4.261996746,1,-1.913874865,1,-8.436746597,1,0.319816232,1,-0.140764073,1,0.062841967,1,0.182886973,1,-0.468105912,1,0.434317857,1,0.150781631,1,-0.326509714,1,0.14575386,1
1.107973576,-4.50894022,1,-1.943139672,1,-8.454829216,1,0.289472848,1,-0.142871439,1,0.068129756,1,0.18403919,1,-0.468710274,1,0.434480488,1,-0.090887547,1,-0.346375108,1,0.123212814,1
1.111973166,-4.560753345,1,-2.008895636,1,-8.325949669,1,0.27009362,1,-0.129012749,1,0.079964168,1,0.185060754,1,-0.469305098,1,0.434674978,1,-0.137511253,1,-0.40385294,1,0.247871399,1
1.115974665,-4.541573048,1,-1.714224458,1,-8.498296738,1,0.23966907,1,-0.121089645,1,0.082152113,1,0.185966447,1,-0.469848216,1,0.434925139,1,-0.113594055,1,-0.101861715,1,0.071703911,1
1.11997211,-4.484510422,1,-1.718234539,1,-8.377425194,1,0.225058675,1,-0.112980515,1,0.085730776,1,0.186770126,1,-0.470383704,1,0.435186863,1,-0.05186224,1,-0.09942472,1,0.188948631,1
1.123971581,-4.610028744,1,-1.796520591,1,-8.41319561,1,0.197269425,1,-0.10131333,1,0.096231252,1,0.187469587,1,-0.470885873,1,0.43550694,1,-0.173003674,1,-0.172134757,1,0.14985466,1
1.127972841,-4.512329102,1,-1.999394417,1,-8.229060173,1,0.180398494,1,-0.080258042,1,0.107816987,1,0.188055545,1,-0.471321106,1,0.435862422,1,-0.071510792,1,-0.370352864,1,0.331137657,1
1.131976247,-4.409940243,1,-1.971016526,1,-8.324444771,1,0.156132147,1,-0.097861379,1,0.105669238,1,0.188562259,1,-0.471740931,1,0.436262995,1,0.034535408,1,-0.337986708,1,0.233096123,1
1.135975718,-4.43303442,1,-1.819544435,1,-8.233011246,1,0.137355998,1,-0.081077583,1,0.110383928,1,0.188960761,1,-0.472177505,1,0.43667531,1,0.015244484,1,-0.183468699,1,0.321973801,1
1.139976978,-4.341385365,1,-1.966955543,1,-8.261909485,1,0.095081449,1,-0.070517279,1,0.121622525,1,0.189220041,1,-0.472561091,1,0.437111884,1,0.110234261,1,-0.328983545,1,0.290970802,1
1.143974423,-4.194983006,1,-2.015964031,1,-8.138223648,1,0.071926288,1,-0.063997068,1,0.126910865,1,0.189338118,1,-0.472922355,1,0.437597036,1,0.259782314,1,-0.377284884,1,0.412883759,1
1.147973657,-4.368514061,1,-1.962462306,1,-8.38558197,1,0.051032744,1,-0.068617679,1,0.119879469,1,0.189367577,1,-0.473273873,1,0.438098013,1,0.0893116,1,-0.323826075,1,0.163939476,1
1.151975632,-4.48455143,1,-1.889894009,1,-8.302713394,1,0.029626625,1,-0.063458368,1,0.124343567,1,0.189310566,1,-0.473625571,1,0.438578367,1,-0.023664474,1,-0.252040029,1,0.245361328,1
1.155974388,-4.320531368,1,-1.797335863,1,-8.363899231,1,0.008501195,1,-0.066363722,1,0.127662629,1,0.189155087,1,-0.473979622,1,0.439075381,1,0.143436909,1,-0.161107779,1,0.182880402,1
1.159973621,-4.144193172,1,-1.70622468,1,-8.289128304,1,-0.008681257,1,-0.063580938,1,0.134853035,1,0.188912839,1,-0.474339604,1,0.439592421,1,0.322907448,1,-0.072369576,1,0.256464958,1
1.163974881,-4.350420952,1,-1.708681703,1,-8.39199543,1,-0.022600705,1,-0.07790257,1,0.122007228,1,0.188616484,1,-0.474708289,1,0.440116435,1,0.119886875,1,-0.077667832,1,0.15246582,1
1.167972565,-4.381036758,1,-1.715680242,1,-8.303742409,1,-0.039183192,1,-0.076524839,1,0.12810269,1,0.188266248,1,-0.475102574,1,0.440606385,1,0.092700481,1,-0.087989569,1,0.239554405,1
1.171972156,-4.334638596,1,-1.655065179,1,-8.392694473,1,-0.057725333,1,-0.063350163,1,0.134321868,1,0.18783085,1,-0.475491881,1,0.441127539,1,0.142484665,1,-0.031419277,1,0.149600029,1
1.175973415,-4.429673672,1,-1.506463408,1,-8.531616211,1,-0.059503663,1,-0.081408933,1,0.126240283,1,0.187374547,1,-0.475870967,1,0.441631168,1,0.050745487,1,0.112968326,1,0.009752274,1
1.179971099,-4.43162775,1,-1.472035289,1,-8.501078606,1,-0.064027809,1,-0.08094395,1,0.125828475,1,0.186899081,1,-0.476266563,1,0.442123264,1,0.052229881,1,0.143005133,1,0.039312363,1
1.183970332,-4.370080948,1,-1.611989617,1,-8.349298477,1,-0.078101978,1,-0.066760629,1,0.131427467,1,0.186373651,1,-0.476656288,1,0.442624599,1,0.117163658,1,-0.001760483,1,0.190224648,1
1.18797183,-4.435471535,1,-1.850314617,1,-8.508016586,1,-0.108536929,1,-0.078626499,1,0.138373852,1,0.185770527,1,-0.47703293,1,0.443148792,1,0.055045605,1,-0.245548368,1,0.030814171,1
1.191969275,-4.41029644,1,-1.824511886,1,-8.368918419,1,-0.124681711,1,-0.074808493,1,0.135991395,1,0.185070053,1,-0.477445543,1,0.443674952,1,0.083805561,1,-0.226068258,1,0.169214249,1
1.195968509,-4.229206085,1,-1.917982578,1,-8.277178764,1,-0.152418911,1,-0.07315582,1,0.146863133,1,0.184256345,1,-0.477846563,1,0.444238931,1,0.268378735,1,-0.326816797,1,0.260479927,1
1.199969769,-4.330869198,1,-1.855783224,1,-8.395138741,1,-0.179262295,1,-0.082646936,1,0.152397007,1,0.183319449,1,-0.478268117,1,0.444835335,1,0.170376301,1,-0.272963643,1,0.142138481,1
1.203967214,-4.231282711,1,-1.895089507,1,-8.270043373,1,-0.203246012,1,-0.082034394,1,0.167977482,1,0.182261184,1,-0.478715658,1,0.445465386,1,0.273848057,1,-0.321670651,1,0.266923904,1
1.207966447,-4.288976669,1,-1.813403487,1,-8.420474052,1,-0.235754192,1,-0.092559092,1,0.174216121,1,0.181063235,1,-0.479157865,1,0.446162641,1,0.219992638,1,-0.250571728,1,0.116409302,1
1.211967945,-4.143139839,1,-1.995491266,1,-8.262120247,1,-0.269504875,1,-0.079896174,1,0.198656857,1,0.179717064,1,-0.479639858,1,0.446909487,1,0.370011806,1,-0.444541931,1,0.274718285,1
1.21596539,-4.373273373,1,-1.89000392,1,-8.398536682,1,-0.310653239,1,-0.094406947,1,0.208939224,1,0.178159148,1,-0.480128556,1,0.447747588,1,0.144118309,1,-0.352746129,1,0.138542175,1
1.219964981,-4.502428055,1,-2.050406456,1,-8.350711823,1,-0.334809005,1,-0.080524594,1,0.21884802,1,0.17648226,1,-0.480622768,1,0.448628068,1,0.019249916,1,-0.527859569,1,0.186729431,1
1.223966241,-4.532773018,1,-1.858739376,1,-8.47683239,1,-0.360686958,1,-0.078697562,1,0.221607685,1,0.174657702,1,-0.481084168,1,0.449553281,1,-0.007094383,1,-0.352134466,1,0.061318398,1
1.227963686,-4.731547356,1,-1.743916631,1,-8.468718529,1,-0.391905993,1,-0.07692156,1,0.233018547,1,0.172901317,1,-0.481550813,1,0.450196624,1,-0.201823235,1,-0.252673507,1,0.06998539,1
1.231963158,-4.525056362,1,-1.779418111,1,-8.49560833,1,-0.416022688,1,-0.062120356,1,0.241978616,1,0.170864403,1,-0.481958807,1,0.450755745,1,0.008203983,1,-0.305885315,1,0.044291496,1
1.235964417,-4.608186245,1,-1.802716017,1,-8.518013954,1,-0.426293343,1,-0.064823084,1,0.2415227,1,0.168703035,1,-0.48237586,1,0.451778591,1,-0.071312428,1,-0.34796226,1,0.023186684,1
1.239961863,-4.569465637,1,-1.647340894,1,-8.527092934,1,-0.45826906,1,-0.050267506,1,0.249322534,1,0.166451439,1,-0.482775658,1,0.452823102,1,-0.029128075,1,-0.21212256,1,0.015572548,1
1.243961811,-4.566009045,1,-1.698943257,1,-8.562726974,1,-0.475127339,1,-0.048702534,1,0.252800971,1,0.16407986,1,-0.483135641,1,0.453919709,1,-0.022553444,1,-0.284255743,1,-0.018295288,1
1.24796319,-4.484729767,1,-1.718621254,1,-8.618636131,1,-0.497508913,1,-0.046381682,1,0.263518602,1,0.161625326,1,-0.483493894,1,0.455032408,1,0.061828613,1,-0.325172663,1,-0.072363853,1
1.251960874,-4.640678883,1,-1.482084394,1,-8.651709557,1,-0.512768149,1,-0.050788809,1,0.259060144,1,0.159072265,1,-0.483863652,1,0.456165582,1,-0.090919495,1,-0.110725284,1,-0.103565216,1
1.255960345,-4.662570477,1,-1.501101851,1,-8.572657585,1,-0.53303951,1,-0.043778636,1,0.266825438,1,0.156450003,1,-0.484212875,1,0.457303822,1,-0.109787941,1,-0.152410746,1,-0.022519112,1
1.259961605,-4.661257744,1,-1.44152689,1,-8.692011833,1,-0.537625432,1,-0.051168721,1,0.262472898,1,0.153779253,1,-0.484562814,1,0.458447456,1,-0.105446339,1,-0.115920067,1,-0.139877319,1
1.263959289,-4.779540539,1,-1.380371332,1,-8.618890762,1,-0.535423875,1,-0.054225083,1,0.267783225,1,0.151084304,1,-0.48493132,1,0.459595382,1,-0.220540047,1,-0.078069687,1,-0.064874649,1
1.267958522,-4.44342947,1,-1.16948545,1,-8.822285652,1,-0.56533581,1,-0.048829433,1,0.254802316,1,0.148367599,1,-0.485285878,1,0.460744917,1,0.118638515,1,0.109333515,1,-0.266363144,1
1.271959782,-4.786616802,1,-1.109133601,1,-8.826336861,1,-0.573904395,1,-0.064723335,1,0.259801656,1,0.145550653,1,-0.485664994,1,0.461852163,1,-0.221269608,1,0.145328164,1,-0.268555641,1
1.275957227,-4.634439945,1,-1.129695296,1,-8.743456841,1,-0.581416488,1,-0.06447541,1,0.25911063,1,0.142734572,1,-0.486064494,1,0.462980747,1,-0.065637589,1,0.100402594,1,-0.183982849,1
1.27995646,-4.422183037,1,-1.272334576,1,-8.816314697,1,-0.570016026,1,-0.070670806,1,0.266937345,1,0.139908075,1,-0.486492157,1,0.464111537,1,0.150317192,1,-0.06670785,1,-0.255335808,1
1.283957958,-4.703886986,1,-1.159647346,1,-8.782011032,1,-0.586667597,1,-0.076594062,1,0.273201287,1,0.13704215,1,-0.486922443,1,0.465270489,1,-0.127667427,1,0.021170855,1,-0.219559669,1
1.287961364,-4.779249191,1,-1.0642308,1,-8.836047173,1,-0.566678464,1,-0.06784071,1,0.270409286,1,0.134194523,1,-0.487352282,1,0.466456413,1,-0.199314594,1,0.091935873,1,-0.272222519,1
1.291960835,-4.701426506,1,-0.996919394,1,-8.746685028,1,-0.570765197,1,-0.073271334,1,0.263765663,1,0.131373703,1,-0.487770349,1,0.467607379,1,-0.117879391,1,0.13483572,1,-0.181527138,1
1.295962095,-4.680268764,1,-0.9424963,1,-8.799406052,1,-0.574624836,1,-0.070495017,1,0.262352198,1,0.128549576,1,-0.48820278,1,0.46875155,1,-0.092986584,1,0.164810419,1,-0.233057022,1
1.29995954,-4.688883305,1,-0.880448043,1,-8.789731026,1,-0.590519726,1,-0.077092931,1,0.253416628,1,0.12568073,1,-0.488630354,1,0.46987474,1,-0.097908497,1,0.202032745,1,-0.222186089,1
1.303958774,-4.68376255,1,-0.833480299,1,-8.870879173,1,-0.599460542,1,-0.082174517,1,0.242099345,1,0.122810103,1,-0.489071339,1,0.47094506,1,-0.088979244,1,0.224153817,1,-0.302271843,1
1.307960272,-4.789494991,1,-0.495517671,1,-8.864480972,1,-0.602814496,1,-0.090917245,1,0.222211167,1,0.119911976,1,-0.489542872,1,0.471941233,1,-0.19064188,1,0.537020266,1,-0.294993401,1
1.311957717,-4.533210278,1,-0.52182889,1,-9.052774429,1,-0.592487574,1,-0.108440384,1,0.196030572,1,0.117115781,1,-0.490037948,1,0.472824603,1,0.069915771,1,0.486476541,1,-0.482697487,1
1.315957189,-4.669556141,1,-0.773515582,1,-9.042160988,1,-0.614424706,1,-0.127118289,1,0.191842556,1,0.11431732,1,-0.490608335,1,0.473636091,1,-0.061508656,1,0.210502863,1,-0.471909523,1
1.319958568,-4.567514896,1,-0.91595155,1,-9.040505409,1,-0.621191382,1,-0.148638695,1,0.175730914,1,0.111495957,1,-0.491233945,1,0.474390358,1,0.045928478,1,0.043562531,1,-0.470376015,1
1.323956013,-4.758061886,1,-0.413808525,1,-9.165770531,1,-0.598370731,1,-0.165145382,1,0.172431365,1,0.108696789,1,-0.491941154,1,0.475099564,1,-0.138520718,1,0.52135843,1,-0.596234322,1
1.327955246,-4.187590122,1,0.146537527,1,-9.570001602,1,-0.484934747,1,-0.19623813,1,0.16154404,1,0.106216885,1,-0.492725641,1,0.475764543,1,0.438711643,1,1.060065508,1,-1.001778603,1
1.331956506,-4.512938499,1,-1.054036736,1,-9.479861259,1,-0.477940649,1,-0.233200282,1,0.171236426,1,0.10402023,1,-0.493650675,1,0.476409853,1,0.121332169,1,-0.159776926,1,-0.913910866,1
1.335954189,-4.365599155,1,-0.784162283,1,-9.348006248,1,-0.502250552,1,-0.267831445,1,0.165835589,1,0.101741135,1,-0.494713992,1,0.477059424,1,0.277827263,1,0.090071559,1,-0.784947395,1
1.339953423,-4.542069435,1,-0.764465511,1,-9.269476891,1,-0.467858315,1,-0.296616584,1,0.164639443,1,0.099529259,1,-0.495909393,1,0.477677882,1,0.111642838,1,0.090273559,1,-0.710035324,1
1.343954682,-4.576112747,1,-0.72461772,1,-9.230908394,1,-0.47096765,1,-0.31997937,1,0.168405294,1,0.097358458,1,-0.497190803,1,0.478298068,1,0.088618279,1,0.110957921,1,-0.67557621,1
1.347952127,-4.4593153,1,-0.643457592,1,-9.23105526,1,-0.471994132,1,-0.342015028,1,0.173364684,1,0.095168613,1,-0.498576552,1,0.478927225,1,0.217323303,1,0.172766149,1,-0.680357933,1
1.351951361,-4.685730934,1,-0.233295649,1,-9.059979439,1,-0.481670201,1,-0.349075735,1,0.163006172,1,0.092935346,1,-0.500036538,1,0.479551286,1,0.003442764,1,0.563196063,1,-0.514282227,1
1.355952621,-4.774267673,1,-0.706174076,1,-9.563076973,1,-0.417072237,1,-0.369365454,1,0.155636773,1,0.090944745,1,-0.501490355,1,0.480095744,1,-0.072620392,1,0.072684705,1,-1.022612572,1
1.359950304,-3.947651386,1,-1.159108639,1,-9.46694088,1,-0.472307384,1,-0.414184183,1,0.153976172,1,0.08887542,1,-0.503121316,1,0.480635941,1,0.767975807,1,-0.398606181,1,-0.932533264,1
1.363949537,-4.699819088,1,-0.79888165,1,-9.189192772,1,-0.479624748,1,-0.447364569,1,0.162556708,1,0.086739227,1,-0.504905045,1,0.481183171,1,0.031084538,1,-0.057341576,1,-0.661569595,1
1.367957234,-4.723370075,1,-1.067170382,1,-9.184314728,1,-0.455664694,1,-0.440797478,1,0.15976429,1,0.084575199,1,-0.506727993,1,0.48175025,1,0.023129463,1,-0.344815671,1,-0.663713455,1
1.371960878,-4.43830204,1,-0.882066131,1,-9.309915543,1,-0.479179591,1,-0.490851611,1,0.176415339,1,0.082422979,1,-0.508660734,1,0.482358634,1,0.324716091,1,-0.178808331,1,-0.796943665,1
1.375960588,-4.523633957,1,-0.67206502,1,-9.196292877,1,-0.462935776,1,-0.52013123,1,0.183958158,1,0.080207288,1,-0.510732889,1,0.482999504,1,0.257074356,1,0.011536658,1,-0.691640854,1
1.379962087,-4.586776733,1,-1.022600889,1,-9.210747719,1,-0.463491976,1,-0.546432495,1,0.193146318,1,0.078049861,1,-0.512919128,1,0.483661383,1,0.212573051,1,-0.358165443,1,-0.715079308,1
1.383959532,-4.90000391,1,-0.219207078,1,-8.012313843,1,-0.39681226,1,-0.542126954,1,0.184702143,1,0.075932302,1,-0.515164733,1,0.484325945,1,-0.081529617,1,0.426417619,1,0.473975182,1
1.387959003,-4.333604336,1,-1.840667844,1,-10.57279682,1,-0.5065853,1,-0.634750009,1,0.218519032,1,0.073780462,1,-0.5175488,1,0.485072255,1,0.505146503,1,-1.214154005,1,-2.096613884,1
1.391960621,-4.181324005,1,-1.319063663,1,-9.203513145,1,-0.48340559,1,-0.694811046,1,0.232716843,1,0.071379773,1,-0.520255625,1,0.485882908,1,0.680414677,1,-0.71383661,1,-0.738946915,1
1.395958066,-4.648658276,1,-1.333795905,1,-9.471806526,1,-0.497426152,1,-0.720939636,1,0.251951456,1,0.068988375,1,-0.523141742,1,0.486777902,1,0.237552643,1,-0.749782443,1,-1.019851685,1
1.399957299,-4.471989155,1,-1.09500134,1,-9.853917122,1,-0.526739359,1,-0.786352098,1,0.26034978,1,0.066462733,1,-0.526220858,1,0.487719446,1,0.440284729,1,-0.533338368,1,-1.415568352,1
1.403958559,-4.222084999,1,-0.92672646,1,-10.64193821,1,-0.54369545,1,-0.863407195,1,0.271614581,1,0.063824207,1,-0.529555857,1,0.488703609,1,0.718366146,1,-0.388378084,1,-2.218531609,1
1.407956004,-4.231304646,1,-1.358186483,1,-10.94558811,1,-0.621760368,1,-0.973563373,1,0.296055317,1,0.060983095,1,-0.533287168,1,0.489759892,1,0.740605831,1,-0.844899118,1,-2.53914547,1
1.411955476,-3.958088636,1,-0.34633112,1,-10.30578423,1,-0.575409591,1,-1.079427719,1,0.291123718,1,0.057984233,1,-0.537456393,1,0.490831733,1,1.04889226,1,0.140538633,1,-1.918607712,1
1.415956736,-4.554936886,1,-1.520420432,1,-10.13541603,1,-0.578810513,1,-1.179904342,1,0.310445696,1,0.055152286,1,-0.542036414,1,0.491936296,1,0.490469456,1,-1.058573604,1,-1.769879341,1
1.419954181,-4.495426655,1,-1.894297719,1,-10.10823154,1,-0.645090818,1,-1.257545352,1,0.349524915,1,0.052048009,1,-0.546971858,1,0.493174344,1,0.591269016,1,-1.459722638,1,-1.76626873,1
1.423959494,-4.294756413,1,-1.636504173,1,-10.48768425,1,-0.650388956,1,-1.352720261,1,0.387964249,1,0.048724726,1,-0.552252293,1,0.494594008,1,0.835977077,1,-1.230968237,1,-2.171269417,1
1.427961111,-4.807332993,1,-0.781541109,1,-9.546916008,1,-0.650470555,1,-1.454957604,1,0.412173152,1,0.045262132,1,-0.557949424,1,0.496180624,1,0.370753288,1,-0.406132519,1,-1.258481026,1
1.431958795,-4.905068398,1,-1.073746204,1,-11.95287991,1,-0.644544184,1,-1.560472488,1,0.447020024,1,0.041877951,1,-0.56399858,1,0.497890949,1,0.323111534,1,-0.727707028,1,-3.694670677,1
1.435958266,-3.365748882,1,-2.23035264,1,-11.15796852,1,-0.760911763,1,-1.692653775,1,0.464244574,1,0.038004357,1,-0.570568204,1,0.499734461,1,1.916619301,1,-1.917616725,1,-2.932980537,1
1.439960122,-4.732584476,1,-1.600011468,1,-10.5863781,1,-0.798346937,1,-1.815920353,1,0.515669227,1,0.033801354,1,-0.577673793,1,0.501752198,1,0.608135223,1,-1.323123336,1,-2.397870064,1
1.443958282,-4.396765709,1,-1.750953078,1,-10.88843822,1,-0.838756502,1,-1.928349614,1,0.54497993,1,0.029299291,1,-0.585205555,1,0.504018068,1,1.005510807,1,-1.512117982,1,-2.739207268,1
1.447963953,-4.31555891,1,-1.740603566,1,-11.1964922,1,-0.894595981,1,-2.061561346,1,0.59176296,1,0.02445971,1,-0.593244493,1,0.506478488,1,1.152081966,1,-1.542278528,1,-3.089876175,1
1.451965451,-4.409947395,1,-1.635373116,1,-11.21132469,1,-0.944736481,1,-2.202848911,1,0.631652534,1,0.019232413,1,-0.601828933,1,0.50921309,1,1.127102375,1,-1.480334759,1,-3.15100956,1
1.455963373,-4.595347881,1,-1.801750183,1,-10.99554443,1,-0.961268425,1,-2.310328245,1,0.668164492,1,0.013703794,1,-0.610907912,1,0.512198806,1,1.01466608,1,-1.691969752,1,-2.985093117,1
1.459962606,-4.625982761,1,-2.341581345,1,-11.82060146,1,-1.054767966,1,-2.454978466,1,0.725459695,1,0.007800814,1,-0.620444119,1,0.515490592,1,1.060171604,1,-2.279508352,1,-3.863502502,1
1.463963866,-3.352066755,1,-2.119175673,1,-11.46622467,1,-1.081853032,1,-2.668948889,1,0.757248878,1,0.001430114,1,-0.630690575,1,0.519083261,1,2.415322065,1,-2.107879639,1,-3.567572594,1
1.467961311,-4.904016972,1,-2.520741463,1,-11.58953667,1,-1.133010149,1,-2.836975813,1,0.841771364,1,-0.005359587,1,-0.641702354,1,0.523061752,1,0.949998856,1,-2.562731981,1,-3.754973412,1
1.471960545,-4.315554142,1,-3.084557772,1,-11.14742851,1,-1.205093622,1,-2.982410192,1,0.911634922,1,-0.012780991,1,-0.653311789,1,0.527588367,1,1.629021168,1,-3.183814526,1,-3.381875992,1
1.475962162,-4.345026493,1,-2.57429409,1,-12.09965706,1,-1.222182989,1,-3.176998854,1,1.009220481,1,-0.020719809,1,-0.665543437,1,0.532672703,1,1.694095135,1,-2.733678102,1,-4.408410549,1
1.479959607,-4.041913509,1,-3.993306637,1,-13.01284599,1,-1.376026034,1,-3.392732382,1,1.116267681,1,-0.029502245,1,-0.678577781,1,0.53809166,1,2.096963882,1,-4.217890263,1,-5.402632236,1
1.48395884,-4.174070835,1,-4.180010319,1,-12.29495907,1,-1.478899598,1,-3.605408907,1,1.224436998,1,-0.039404552,1,-0.692409515,1,0.544738173,1,2.069524288,1,-4.476566792,1,-4.772905827,1
1.487960339,-4.532600403,1,-3.709480286,1,-12.64483452,1,-1.58883512,1,-3.823682308,1,1.347515941,1,-0.05041853,1,-0.707029521,1,0.552311718,1,1.820381641,1,-4.084224224,1,-5.218472004,1
1.491957784,-4.113736153,1,-3.67018652,1,-12.64292145,1,-1.670276999,1,-4.046281815,1,1.48972404,1,-0.062630191,1,-0.722405314,1,0.560998976,1,2.352821827,1,-4.129419804,1,-5.320055485,1
1.495957017,-4.460588455,1,-4.307181835,1,-12.91424274,1,-1.768221974,1,-4.267982006,1,1.63608849,1,-0.076111853,1,-0.738552749,1,0.570909262,1,2.123598576,1,-4.857082367,1,-5.703299046,1
1.499958277,-4.362350941,1,-4.527991295,1,-13.04821777,1,-1.884655118,1,-4.481633663,1,1.797953963,1,-0.091103449,1,-0.755422533,1,0.582216024,1,2.3428936,1,-5.175731182,1,-5.957960606,1
1.503955722,-3.939691305,1,-4.4450984,1,-13.43821335,1,-1.984639287,1,-4.725721359,1,1.945532322,1,-0.107737899,1,-0.772994757,1,0.595054328,1,2.88962245,1,-5.197898865,1,-6.477938652,1
1.507955194,-4.744454384,1,-5.203821659,1,-13.69826412,1,-2.056587458,1,-4.965595245,1,2.122494936,1,-0.126087636,1,-0.791318536,1,0.609628081,1,2.211987495,1,-6.068323135,1,-6.87828207,1
1.511956692,-5.6004076,1,-6.253802299,1,-14.22412205,1,-2.200598478,1,-5.165373325,1,2.308930397,1,-0.146471545,1,-0.810177326,1,0.626227975,1,1.484435558,1,-7.237809181,1,-7.554158688,1
1.515954375,-7.437291622,1,-7.279731274,1,-14.31653023,1,-2.37082839,1,-5.282121181,1,2.49037075,1,-0.169276223,1,-0.829318643,1,0.644929767,1,-0.224700451,1,-8.392521858,1,-7.805627346,1
1.519953966,-8.656718254,1,-6.911448479,1,-13.98724174,1,-2.515482187,1,-5.374575615,1,2.691833735,1,-0.194715515,1,-0.848415494,1,0.665953696,1,-1.319308758,1,-8.162611961,1,-7.643056393,1
1.523961306,-10.78927135,1,-6.634813309,1,-14.11444759,1,-2.60440731,1,-5.415994644,1,2.895493031,1,-0.222797751,1,-0.867235541,1,0.689494133,1,-3.331471443,1,-8.032855034,1,-7.943684578,1
1.52796495,-12.15193081,1,-7.266907692,1,-14.48301601,1,-2.576443672,1,-5.384603977,1,3.152529716,1,-0.253366977,1,-0.885383964,1,0.715806723,1,-4.580537319,1,-8.818716049,1,-8.489894867,1
1.53196466,-13.68413067,1,-8.226564407,1,-15.14452934,1,-2.551610231,1,-5.329970837,1,3.453163385,1,-0.286607295,1,-0.902528524,1,0.745275736,1,-6.007717133,1,-9.939741135,1,-9.331665039,1
1.535965919,-14.75638199,1,-8.799003601,1,-15.36733723,1,-2.569839954,1,-5.257448673,1,3.713249922,1,-0.322645664,1,-0.91843009,1,0.777963638,1,-6.984578609,1,-10.68156147,1,-9.736469269,1
1.539963365,-14.89341545,1,-10.0701189,1,-15.62210846,1,-2.694858789,1,-5.122224808,1,3.965199947,1,-0.361635208,1,-0.932858467,1,0.813602984,1,-7.036759377,1,-12.13084412,1,-10.17435837,1
1.543962598,-14.99358082,1,-9.750580788,1,-15.57111454,1,-2.906066179,1,-4.989094734,1,4.176939964,1,-0.403805524,1,-0.945536733,1,0.851991892,1,-7.063713551,1,-11.99981785,1,-10.30710888,1
1.547963858,-16.28906822,1,-8.978456497,1,-15.92525387,1,-3.078935862,1,-4.812115669,1,4.312617779,1,-0.448869377,1,-0.956374049,1,0.892591834,1,-8.297631264,1,-11.42510986,1,-10.84564018,1
1.551961303,-16.42967033,1,-9.173447609,1,-15.90378666,1,-3.20376277,1,-4.585431576,1,4.435974598,1,-0.495958418,1,-0.965173244,1,0.934724867,1,-8.388932228,1,-11.82292747,1,-11.00701046,1
1.555960536,-14.4752903,1,-9.807453156,1,-15.31395721,1,-3.43261075,1,-4.366187096,1,4.516818523,1,-0.544776678,1,-0.971785188,1,0.977856159,1,-6.39791584,1,-12.66512108,1,-10.59787655,1
1.559961915,-12.80019093,1,-10.08572006,1,-14.73173714,1,-3.714250326,1,-4.169740677,1,4.506874561,1,-0.595036447,1,-0.976407409,1,1.021349907,1,-4.697413445,1,-13.15574455,1,-10.19614887,1
1.563959241,-11.04634762,1,-11.2298069,1,-13.70435143,1,-4.059055328,1,-3.99372983,1,4.377289295,1,-0.64612931,1,-0.979345381,1,1.064227939,1,-2.92751503,1,-14.51311684,1,-9.350491524,1
1.567958474,-8.458756447,1,-11.46392918,1,-12.13026142,1,-4.535155296,1,-3.944470406,1,4.184247494,1,-0.698004723,1,-0.981073678,1,1.10602057,1,-0.330511093,1,-14.95955276,1,-7.963264942,1
1.571960092,-8.087047577,1,-11.3378315,1,-9.988771439,1,-5.194742203,1,-4.037074089,1,3.915836573,1,-0.751372337,1,-0.982240319,1,1.14691329,1,0.047537804,1,-15.04428291,1,-6.021100998,1
1.575957537,-14.77150726,1,-8.398836136,1,-9.005111694,1,-6.036931038,1,-4.149764538,1,3.319806337,1,-0.806804895,1,-0.98368448,1,1.18648088,1,-6.629089355,1,-12.31093025,1,-5.257021904,1
1.579957008,-24.14312935,1,-3.248809338,1,-12.73413086,1,-6.193302155,1,-3.762612104,1,2.261777401,1,-0.860786378,1,-0.986118257,1,1.221564174,1,-15.98754978,1,-7.342395782,1,-9.2155056,1
1.583958507,-27.53427315,1,0.917399645,1,-18.12628174,1,-5.291038513,1,-2.887954473,1,1.058191538,1,-0.905963063,1,-0.989494205,1,1.247985363,1,-19.36051559,1,-3.309221506,1,-14.8131237,1
1.58795619,-24.38123703,1,-0.017628156,1,-20.29950905,1,-4.310331345,1,-1.991786838,1,-0.024588011,1,-0.938817859,1,-0.993744671,1,1.264370322,1,-16.18472672,1,-4.322729588,1,-17.14753151,1
1.591955662,-16.83692169,1,-3.748452187,1,-20.08271408,1,-3.496304274,1,-1.381482601,1,-0.932311535,1,-0.960989237,1,-0.999236584,1,1.272232771,1,-8.611233711,1,-8.085409164,1,-17.05277824,1
1.595957041,-10.7021904,1,-8.55947876,1,-18.54641914,1,-2.9833951,1,-1.029099584,1,-1.623826027,1,-0.975434065,1,-1.00619936,1,1.274110913,1,-2.439865112,1,-12.89222145,1,-15.61163712,1
1.599954486,-7.461272717,1,-12.39098549,1,-16.31277466,1,-2.86152482,1,-0.81855756,1,-2.116275549,1,-0.985201418,1,-1.014490604,1,1.271961212,1,0.844157696,1,-16.69494629,1,-13.45841122,1
1.603965998,-7.512241364,1,-14.62059212,1,-14.86532688,1,-3.091517687,1,-0.587164938,1,-2.458712578,1,-0.99271816,1,-1.023726821,1,1.266892314,1,0.840533257,1,-18.88145638,1,-12.08543205,1
1.607973337,-7.911800861,1,-15.46511745,1,-13.14428616,1,-3.479877234,1,-0.229756653,1,-2.661492348,1,-0.998890698,1,-1.033259749,1,1.258754849,1,0.48909235,1,-19.67591286,1,-10.43396378,1
1.611976981,-6.18150425,1,-13.69052982,1,-12.83525276,1,-3.783030272,1,0.144017041,1,-2.775379419,1,-1.003708124,1,-1.042511225,1,1.24745059,1,2.265357018,1,-17.84859657,1,-10.18711281,1
1.615976691,-3.708501816,1,-10.77172279,1,-12.77486897,1,-3.903279781,1,0.426614761,1,-2.84829545,1,-1.006974339,1,-1.051389813,1,1.233415604,1,4.781794548,1,-14.87486649,1,-10.18050575,1
1.619977951,-1.780538797,1,-7.665809155,1,-12.47837448,1,-3.808435202,1,0.612358272,1,-2.910098314,1,-1.008451104,1,-1.060001731,1,1.217325449,1,6.751249313,1,-11.71076965,1,-9.929153442,1
1.623975396,-0.204132631,1,-5.104829311,1,-12.0883131,1,-3.498485565,1,0.743250251,1,-2.960924387,1,-1.007659078,1,-1.068484187,1,1.1996665,1,8.367904663,1,-9.086431503,1,-9.574613571,1
1.627974629,1.12790823,1,-3.333117008,1,-11.77538204,1,-3.029446363,1,0.830534875,1,-2.995387793,1,-1.004096985,1,-1.076870203,1,1.180724978,1,9.739131927,1,-7.244953632,1,-9.286195755,1
1.631975889,2.436606646,1,-2.512282133,1,-10.91091824,1,-2.497181177,1,0.871752739,1,-3.005358219,1,-0.99763763,1,-1.085152864,1,1.160850883,1,11.08593655,1,-6.347901344,1,-8.435278893,1
1.635973334,4.476500988,1,-2.319608688,1,-9.650260925,1,-1.924690604,1,0.856892407,1,-2.971065044,1,-0.98840034,1,-1.093267798,1,1.140443325,1,13.16259193,1,-6.073448181,1,-7.177988529,1
1.639972568,7.269565105,1,-2.287570477,1,-9.22955513,1,-1.379072547,1,0.699916303,1,-2.911599874,1,-0.977134764,1,-1.101306677,1,1.120369554,1,15.99150848,1,-5.955323219,1,-6.754292488,1
1.643973947,8.59581089,1,-3.020744801,1,-8.477320671,1,-0.929434419,1,0.426197559,1,-2.814586878,1,-0.96512574,1,-1.109488726,1,1.101793885,1,17.35366821,1,-6.599716187,1,-5.998904228,1
1.647971272,8.103031158,1,-4.357626438,1,-7.784304619,1,-0.588289559,1,0.164294705,1,-2.688132763,1,-0.953324974,1,-1.117833257,1,1.085291386,1,16.89690781,1,-7.84739399,1,-5.306225777,1
1.651970506,6.546592712,1,-5.6183815,1,-7.297019482,1,-0.385592073,1,-0.009419561,1,-2.5549891,1,-0.942065537,1,-1.126199126,1,1.070665956,1,15.37596798,1,-9.020405769,1,-4.823161125,1
1.655971885,4.36444664,1,-6.778451443,1,-7.28020668,1,-0.318282604,1,-0.053953018,1,-2.416994333,1,-0.931245446,1,-1.134317398,1,1.057175159,1,13.22767925,1,-10.095891,1,-4.812542915,1
1.65996933,1.955269694,1,-7.572009087,1,-7.551250458,1,-0.329525918,1,0.062835783,1,-2.290410995,1,-0.920308352,1,-1.141850829,1,1.043716431,1,10.84939861,1,-10.80903244,1,-5.087957382,1
1.663968563,-0.235826105,1,-7.596816063,1,-7.912456512,1,-0.405540794,1,0.320515633,1,-2.19029212,1,-0.908424377,1,-1.148500562,1,1.029069424,1,8.685154915,1,-10.75762844,1,-5.44729948,1
1.667970061,-1.427593708,1,-7.039558411,1,-8.332009315,1,-0.468216062,1,0.669817388,1,-2.128786325,1,-0.894708693,1,-1.154057384,1,1.012128949,1,7.515524387,1,-10.12754536,1,-5.854792118,1
1.671967745,-1.920361996,1,-6.190543175,1,-8.702611923,1,-0.471937686,1,1.056772709,1,-2.102153778,1,-0.878393471,1,-1.158430338,1,0.992224455,1,7.039981365,1,-9.207576752,1,-6.200333595,1
1.675966978,-1.911220312,1,-5.256359577,1,-8.89978981,1,-0.395879775,1,1.426721215,1,-2.114669085,1,-0.858920813,1,-1.161653876,1,0.969077229,1,7.061711311,1,-8.20221138,1,-6.358122826,1
1.679968238,-1.547313571,1,-4.571029663,1,-8.855181694,1,-0.26062578,1,1.771259785,1,-2.14898634,1,-0.836073577,1,-1.163796306,1,0.942754865,1,7.433933258,1,-7.443780422,1,-6.25976944,1
1.683971643,-1.103813171,1,-4.330852985,1,-8.546731949,1,-0.086984396,1,2.051657677,1,-2.205043554,1,-0.809969604,1,-1.164974332,1,0.913579822,1,7.881988525,1,-7.127216339,1,-5.884520531,1
1.687970757,-0.79617089,1,-4.702824116,1,-8.004502296,1,0.07113497,1,2.290301323,1,-2.26483345,1,-0.780976653,1,-1.165274978,1,0.882002234,1,8.19079113,1,-7.418934822,1,-5.264266491,1
1.691972136,-0.565151453,1,-5.204044342,1,-7.418787956,1,0.179259941,1,2.486572504,1,-2.33396697,1,-0.749578595,1,-1.164736152,1,0.848390102,1,8.41973114,1,-7.836088181,1,-4.591094494,1
1.695969582,-0.49910146,1,-5.747504234,1,-6.912248135,1,0.232357129,1,2.657836199,1,-2.408963442,1,-0.716385961,1,-1.163429022,1,0.813161969,1,8.480723381,1,-8.291969299,1,-3.989906549,1
1.699969053,-0.488979131,1,-6.158959866,1,-6.414212227,1,0.236366972,1,2.798206568,1,-2.49734354,1,-0.681856394,1,-1.161383271,1,0.77655983,1,8.482899666,1,-8.612594604,1,-3.391512871,1
1.703970313,-0.669446826,1,-6.366141796,1,-6.089330196,1,0.20378986,1,2.925829172,1,-2.594179869,1,-0.646360397,1,-1.158641696,1,0.738814235,1,8.291725159,1,-8.725763321,1,-2.961839199,1
1.707967758,-1.067560554,1,-6.344709873,1,-5.936213493,1,0.159717619,1,3.046986818,1,-2.718972445,1,-0.610082269,1,-1.155218124,1,0.699984133,1,7.88014555,1,-8.606909752,1,-2.700067997,1
1.71196723,-1.543246746,1,-6.115246296,1,-5.863328934,1,0.113208696,1,3.177332401,1,-2.859480381,1,-0.573034465,1,-1.151099443,1,0.660047054,1,7.388122082,1,-8.275993347,1,-2.514672995,1
1.71596849,-2.137891769,1,-5.781133652,1,-5.906400204,1,0.077664196,1,3.317057371,1,-3.031448126,1,-0.535138369,1,-1.146260023,1,0.618925333,1,6.774085999,1,-7.835474968,1,-2.441147804,1
1.719965935,-2.697801828,1,-5.582187653,1,-6.067424297,1,0.057626747,1,3.469563007,1,-3.222057581,1,-0.496277422,1,-1.140622616,1,0.576523066,1,6.191324234,1,-7.524239063,1,-2.480853796,1
1.723971367,-3.180557966,1,-5.522369862,1,-6.263141155,1,0.042511139,1,3.630153656,1,-3.422838211,1,-0.456517935,1,-1.134096026,1,0.532933474,1,5.681759834,1,-7.345860481,1,-2.550213575,1
1.727972865,-3.601386786,1,-5.554787159,1,-6.380226135,1,0.024147663,1,3.799534559,1,-3.619993448,1,-0.415978789,1,-1.126570582,1,0.488265812,1,5.229550362,1,-7.253205776,1,-2.535545111,1
1.731970549,-4.021096706,1,-5.589325905,1,-6.455269337,1,0.000851281,1,3.972625017,1,-3.818584681,1,-0.37486428,1,-1.117870569,1,0.442263931,1,4.772940159,1,-7.15635252,1,-2.472685575,1
1.735969782,-4.343157291,1,-5.614510536,1,-6.518648624,1,-0.036065709,1,4.151253223,1,-4.01513958,1,-0.333681047,1,-1.108067632,1,0.39627099,1,4.408503056,1,-7.044408798,1,-2.393661022,1
1.739971042,-4.665728569,1,-5.588891983,1,-6.616943359,1,-0.087715916,1,4.328763008,1,-4.202016354,1,-0.292677939,1,-1.09698844,1,0.350051105,1,4.037026405,1,-6.876394272,1,-2.34423399,1
1.743968487,-4.940428734,1,-5.497247219,1,-6.623105049,1,-0.145028576,1,4.506453037,1,-4.379174709,1,-0.252260804,1,-1.084589124,1,0.303969324,1,3.706327438,1,-6.63790226,1,-2.19769907,1
1.74796772,-5.15071106,1,-5.348449707,1,-6.643947601,1,-0.198327437,1,4.675205231,1,-4.528521061,1,-0.212771595,1,-1.070830703,1,0.258367509,1,3.432352066,1,-6.338533401,1,-2.061110497,1
1.75196898,-5.234779835,1,-5.052779198,1,-6.714527607,1,-0.244983524,1,4.833035946,1,-4.674263477,1,-0.174564481,1,-1.05570209,1,0.21363005,1,3.276372433,1,-5.889543056,1,-1.96987915,1
1.755966425,-5.154162407,1,-4.676083088,1,-6.790221691,1,-0.271452904,1,4.97006321,1,-4.798233032,1,-0.137851909,1,-1.039269686,1,0.170053795,1,3.276674271,1,-5.357264042,1,-1.880167007,1
1.759971619,-5.160922527,1,-4.368261337,1,-6.938709259,1,-0.27697438,1,5.088106155,1,-4.893340111,1,-0.102857471,1,-1.02162683,1,0.12795797,1,3.18114996,1,-4.892427921,1,-1.860645771,1
1.763973117,-5.216052055,1,-4.151544571,1,-7.087139606,1,-0.254897267,1,5.174254894,1,-4.95731926,1,-0.06968759,1,-1.002868414,1,0.087585293,1,3.028796196,1,-4.517848015,1,-1.839286804,1
1.767970562,-5.427158833,1,-4.077316284,1,-7.247601032,1,-0.221569195,1,5.261378288,1,-4.992233276,1,-0.038433161,1,-0.983097553,1,0.049134489,1,2.712077618,1,-4.285672188,1,-1.829018116,1
1.771970034,-5.817345142,1,-4.12175703,1,-7.383815765,1,-0.183865443,1,5.329904079,1,-4.989464283,1,-0.009215599,1,-0.962382853,1,0.012800985,1,2.207826138,1,-4.173271656,1,-1.794037819,1
1.775971293,-6.22580862,1,-4.038140774,1,-7.572319508,1,-0.156624675,1,5.407502174,1,-4.969448566,1,0.017926887,1,-0.9408108,1,-0.021356499,1,1.676917076,1,-3.934854746,1,-1.811424255,1
1.7799685,-6.790006161,1,-3.764993906,1,-7.707238197,1,-0.140926808,1,5.476009369,1,-4.938714504,1,0.042992029,1,-0.918435395,1,-0.053372867,1,0.98182869,1,-3.5098207,1,-1.775535583,1
1.783967495,-7.300272465,1,-3.411572933,1,-7.898926258,1,-0.112568796,1,5.544983387,1,-4.893937588,1,0.066048518,1,-0.895348072,1,-0.08329241,1,0.332429409,1,-3.007977962,1,-1.797232628,1
1.787968755,-7.721767902,1,-3.037651062,1,-8.207763672,1,-0.053056855,1,5.597971916,1,-4.825049877,1,0.08726608,1,-0.871628463,1,-0.111167833,1,-0.236245155,1,-2.489066124,1,-1.937382698,1
1.7919662,-8.005911827,1,-2.834270239,1,-8.530277252,1,0.037243653,1,5.630818367,1,-4.737586975,1,0.106808811,1,-0.847417235,1,-0.13700363,1,-0.674961567,1,-2.144135475,1,-2.093463898,1
1.795965672,-8.425443649,1,-2.683930397,1,-8.80586338,1,0.146876454,1,5.649960995,1,-4.646491528,1,0.124893568,1,-0.82283175,1,-0.160895795,1,-1.255851746,1,-1.855301142,1,-2.205713749,1
1.799966931,-9.125776291,1,-2.552534342,1,-9.073983192,1,0.240688413,1,5.652205467,1,-4.559765816,1,0.141698748,1,-0.797973454,1,-0.183008298,1,-2.123738766,1,-1.588234663,1,-2.314311028,1
1.803964376,-10.03574276,1,-2.581636667,1,-9.140312195,1,0.31847465,1,5.661162853,1,-4.502222538,1,0.1573845,1,-0.772900522,1,-0.203589946,1,-3.207088947,1,-1.484251022,1,-2.225336075,1
1.807963848,-10.93101501,1,-2.838412046,1,-9.218767166,1,0.360845596,1,5.661776066,1,-4.46383667,1,0.17204015,1,-0.747616887,1,-0.222868741,1,-4.281548023,1,-1.610633135,1,-2.152731895,1
1.811965466,-11.84311581,1,-2.988792896,1,-9.365255356,1,0.370542645,1,5.657936573,1,-4.441951752,1,0.185711145,1,-0.722164094,1,-0.241065726,1,-5.378328323,1,-1.633714199,1,-2.152632236,1
1.815962911,-12.84195614,1,-2.940692186,1,-9.586916924,1,0.359695107,1,5.644381046,1,-4.46422863,1,0.198474661,1,-0.69657892,1,-0.258409321,1,-6.567028522,1,-1.461531758,1,-2.232391834,1
1.819968224,-14.06782818,1,-2.861578226,1,-9.697881699,1,0.322388679,1,5.620633125,1,-4.504070282,1,0.210421905,1,-0.670872569,1,-0.275157809,1,-7.98779583,1,-1.261489034,1,-2.206250668,1
1.823969841,-15.1758585,1,-2.752858877,1,-9.945317268,1,0.278740257,1,5.596529961,1,-4.57076025,1,0.221604869,1,-0.645066917,1,-0.291476548,1,-9.29551506,1,-1.035171151,1,-2.321489811,1
1.827967525,-16.4128437,1,-2.560184479,1,-10.11577797,1,0.240099579,1,5.563343048,1,-4.649345875,1,0.232128233,1,-0.619180322,1,-0.307524949,1,-10.73675156,1,-0.727953076,1,-2.364873886,1
1.831966758,-17.62585258,1,-2.379836321,1,-10.32562828,1,0.203888923,1,5.526273727,1,-4.721630573,1,0.242033496,1,-0.593216121,1,-0.323360205,1,-12.15844154,1,-0.436244965,1,-2.452792168,1
1.835968018,-18.93452644,1,-2.013283253,1,-10.42171001,1,0.182007819,1,5.486426353,1,-4.777888775,1,0.251358896,1,-0.56720978,1,-0.338977158,1,-13.67983055,1,0.038318157,1,-2.432294369,1
1.839971304,-20.34718132,1,-1.573558211,1,-10.29373932,1,0.168652713,1,5.45603466,1,-4.829963684,1,0.260136306,1,-0.541169107,1,-0.354335904,1,-15.30904293,1,0.582562566,1,-2.193122864,1
1.843970776,-21.6825161,1,-1.096783519,1,-10.13693714,1,0.171922043,1,5.418638706,1,-4.850681305,1,0.268406063,1,-0.515111804,1,-0.369401455,1,-16.86449242,1,1.16030848,1,-1.930608749,1
1.847972155,-22.95071793,1,-0.701626062,1,-9.818117142,1,0.177268192,1,5.358280659,1,-4.849198341,1,0.276180208,1,-0.489129871,1,-0.384105295,1,-18.3554306,1,1.652541161,1,-1.511924744,1
1.851969838,-24.34373665,1,-0.557793498,1,-9.120546341,1,0.183760926,1,5.30458498,1,-4.799675465,1,0.283432603,1,-0.463302374,1,-0.398361981,1,-19.97293472,1,1.888933301,1,-0.720472336,1
1.855969071,-25.18152618,1,-0.457803011,1,-8.472040176,1,0.163712472,1,5.220353127,1,-4.709470749,1,0.290076673,1,-0.437729388,1,-0.412026078,1,-21.0358696,1,2.075829506,1,0.015947342,1
1.85997057,-25.79263306,1,-0.389280528,1,-7.671851635,1,0.115160786,1,5.098600864,1,-4.586789131,1,0.296010762,1,-0.412583679,1,-0.425018132,1,-21.87100601,1,2.224265099,1,0.897974491,1
1.863968015,-26.28477859,1,-0.32615605,1,-6.858148098,1,0.053266082,1,4.947963715,1,-4.424394131,1,0.301141798,1,-0.388067752,1,-0.437296718,1,-22.58395958,1,2.359041691,1,1.787388325,1
1.867967248,-26.82650375,1,-0.374105006,1,-5.94555378,1,-0.035024941,1,4.767776966,1,-4.24183321,1,0.305426359,1,-0.364332676,1,-0.448838145,1,-23.34157944,1,2.373754025,1,2.769731522,1
1.871968985,-27.35004234,1,-0.418349564,1,-4.815019131,1,-0.142411068,1,4.576279163,1,-4.023264885,1,0.308801115,1,-0.341514021,1,-0.459615946,1,-24.07452774,1,2.382348061,1,3.964429379,1
1.875966668,-27.19318199,1,-0.25844264,1,-4.175860405,1,-0.255476862,1,4.365762234,1,-3.795426369,1,0.311254025,1,-0.319700599,1,-0.469590873,1,-24.11944962,1,2.584991217,1,4.662618637,1
1.879965901,-27.90425301,1,0.027389241,1,-3.093646049,1,-0.393205225,1,4.153008461,1,-3.554452181,1,0.312763512,1,-0.298965961,1,-0.478794754,1,-25.02367973,1,2.903156042,1,5.799268723,1
1.88396728,-27.71338463,1,-0.007137569,1,-2.235172987,1,-0.491977662,1,3.949479342,1,-3.284810781,1,0.313361466,1,-0.279321194,1,-0.487163305,1,-25.01696205,1,2.890833616,1,6.708136559,1
1.887964725,-26.75297165,1,0.498140335,1,-1.696012735,1,-0.595720589,1,3.736524105,1,-3.014160156,1,0.313200653,1,-0.260804743,1,-0.494669259,1,-24.23107719,1,3.409558296,1,7.29372406,1
1.891964197,-25.88791847,1,0.779844344,1,-1.01294148,1,-0.658698499,1,3.477010489,1,-2.727693558,1,0.31235081,1,-0.243543729,1,-0.501369953,1,-23.52949715,1,3.696564674,1,8.019348145,1
1.895965457,-25.0230217,1,1.120082498,1,-0.474180162,1,-0.669981718,1,3.207357407,1,-2.438051701,1,0.311052859,1,-0.227651045,1,-0.507267714,1,-22.81573868,1,4.036180973,1,8.596426964,1
1.899962902,-24.10183907,1,1.363455415,1,0.157813981,1,-0.622750282,1,2.908128023,1,-2.137988806,1,0.309580564,1,-0.213208139,1,-0.512366414,1,-22.03239059,1,4.275605202,1,9.262120247,1
1.903962135,-23.30339813,1,1.614197969,1,0.77242744,1,-0.530842543,1,2.607561588,1,-1.846180797,1,0.308152616,1,-0.200269163,1,-0.51670301,1,-21.35779953,1,4.521222591,1,9.905635834,1
1.907963395,-22.82010651,1,1.677216887,1,1.281867743,1,-0.39598611,1,2.295988798,1,-1.562971473,1,0.306990683,1,-0.18885909,1,-0.520290911,1,-20.98399353,1,4.580147266,1,10.43901348,1
1.911960602,-22.62056541,1,1.62078023,1,1.608658195,1,-0.241445765,1,1.980641961,1,-1.283957958,1,0.306230307,1,-0.178986281,1,-0.523185015,1,-20.87938118,1,4.522070885,1,10.78484726,1
1.915959835,-22.86996078,1,1.567649722,1,1.832227111,1,-0.083879538,1,1.688420534,1,-1.021332383,1,0.305955768,1,-0.170610309,1,-0.525401771,1,-21.20944595,1,4.470711708,1,11.02279472,1
1.919967532,-23.31126976,1,1.56028533,1,2.242652655,1,0.082679935,1,1.411613464,1,-0.77107209,1,0.3062343,1,-0.163622707,1,-0.52697432,1,-21.71814346,1,4.469334602,1,11.44325352,1
1.923971295,-24.04877281,1,1.259431243,1,2.250460386,1,0.221460029,1,1.17775774,1,-0.548109114,1,0.306987733,1,-0.157893181,1,-0.527938962,1,-22.51095963,1,4.178122044,1,11.45741653,1
1.927971125,-24.35533905,1,1.174245358,1,2.547275066,1,0.359103203,1,0.969305098,1,-0.335033804,1,0.308209479,1,-0.153267398,1,-0.528326571,1,-22.86222076,1,4.106309414,1,11.75733757,1
1.931972384,-24.14618111,1,1.238302469,1,2.620724916,1,0.472192794,1,0.779542983,1,-0.163085073,1,0.309845597,1,-0.149634331,1,-0.528212368,1,-22.68818855,1,4.187066078,1,11.83108425,1
1.935970068,-23.69347382,1,1.255056381,1,2.713428974,1,0.544939578,1,0.579379201,1,-0.007221243,1,0.311810195,1,-0.14694564,1,-0.527689278,1,-22.26148796,1,4.223100185,1,11.92167473,1
1.939969778,-22.76951599,1,1.198584795,1,2.815718174,1,0.577501774,1,0.387427688,1,0.123776257,1,0.31394279,1,-0.145170897,1,-0.526854277,1,-21.354702,1,4.187039375,1,12.02001381,1
1.943971038,-21.44827271,1,1.17970252,1,2.647936106,1,0.578417361,1,0.168259367,1,0.245385379,1,0.316123545,1,-0.144347295,1,-0.525792599,1,-20.04142952,1,4.188583374,1,11.84679699,1
1.947968721,-20.07048416,1,1.059761763,1,2.526261091,1,0.571382225,1,-0.059539225,1,0.364838362,1,0.31823951,1,-0.144528389,1,-0.524546027,1,-18.66188812,1,4.088021278,1,11.71849537,1
1.951967955,-18.5623951,1,0.984541416,1,1.943142176,1,0.522393703,1,-0.31670776,1,0.467838675,1,0.320236206,1,-0.145755619,1,-0.52318579,1,-17.1419239,1,4.030602455,1,11.12766361,1
1.955969572,-17.4358139,1,0.944025576,1,1.597486854,1,0.473407596,1,-0.564092517,1,0.557158053,1,0.322021782,1,-0.148082033,1,-0.521777987,1,-15.99283409,1,4.005426884,1,10.77339268,1
1.959967017,-16.32723999,1,0.735778093,1,1.236184597,1,0.41408214,1,-0.785596073,1,0.628415346,1,0.323579252,1,-0.151402608,1,-0.52037394,1,-14.85214806,1,3.809926271,1,10.4027195,1
1.96396625,-15.37552071,1,0.218954548,1,0.729983032,1,0.365151674,1,-0.980183184,1,0.68120712,1,0.324913174,1,-0.155592278,1,-0.518992484,1,-13.85993481,1,3.303328514,1,9.886473656,1
1.96796751,-14.46269608,1,0.13777861,1,-0.351346731,1,0.267860532,1,-1.11959374,1,0.723221004,1,0.326040924,1,-0.160464868,1,-0.517651796,1,-12.90004921,1,3.230074167,1,8.794553757,1
1.971964955,-6.641000271,1,-8.322338104,1,-9.416071892,1,0.043787584,1,-1.574030757,1,0.998749256,1,0.326483488,1,-0.166376293,1,-0.5161888,1,-5.021309376,1,-5.229012489,1,-0.280451775,1
1.975964189,-19.41073799,1,8.921620369,1,-4.347821236,1,-0.077046022,1,-3.513169765,1,1.513586164,1,0.325558603,1,-0.177932695,1,-0.514422953,1,-17.67969513,1,12.00030327,1,4.772312164,1
1.979965448,29.88677216,1,-3.649786711,1,8.990839005,1,-0.030990614,1,-4.562603951,1,1.79727459,1,0.325713694,1,-0.194732875,1,-0.513585508,1,31.7792778,1,-0.57943058,1,18.0816555,1
1.983962893,11.84646225,1,-11.54602718,1,-10.79259872,1,-1.068362474,1,-5.892411232,1,2.285792112,1,0.323119491,1,-0.21762234,1,-0.512593091,1,13.95808411,1,-8.513816833,1,-1.737305641,1
1.987962365,3.054177999,1,-8.196339607,1,-17.72698402,1,-0.738032043,1,-5.768669128,1,2.50719142,1,0.318945229,1,-0.242872447,1,-0.510742366,1,5.406227112,1,-5.219624996,1,-8.71262455,1
1.991963625,-13.42088604,1,-3.365160704,1,-15.62136936,1,-0.526935518,1,-5.519879341,1,2.442374468,1,0.315829337,1,-0.267567009,1,-0.508276343,1,-10.83514977,1,-0.435486078,1,-6.655732155,1
1.995960832,-21.86240005,1,1.417075515,1,-15.62178612,1,-0.464262336,1,-5.047222614,1,2.102331877,1,0.313235372,1,-0.290472656,1,-0.506036878,1,-19.06130981,1,4.304472446,1,-6.707275391,1
1.999966741,-25.91830826,1,-1.569616437,1,-16.45316696,1,-0.489378572,1,-4.75072813,1,1.810043931,1,0.310990423,1,-0.311478764,1,-0.504591644,1,-22.92101479,1,1.279124856,1,-7.590177536,1
2.003968716,-28.14452171,1,-2.103723049,1,-16.346632,1,-0.610589564,1,-4.215821266,1,1.567022085,1,0.308433712,1,-0.330668271,1,-0.503586054,1,-24.96914482,1,0.704369307,1,-7.532820702,1
2.007966995,-28.13193703,1,-1.9819417,1,-16.18735504,1,-0.63619864,1,-3.619091272,1,1.387938738,1,0.305598676,1,-0.347404212,1,-0.502640009,1,-24.80220032,1,0.784774065,1,-7.417531967,1
2.011966467,-24.68722534,1,-3.472319126,1,-15.90153313,1,-0.655629456,1,-3.051727772,1,1.198468685,1,0.302687287,1,-0.361667544,1,-0.501649499,1,-21.2266674,1,-0.745583057,1,-7.169919014,1
2.015968084,-20.85311699,1,-3.080066919,1,-14.87514687,1,-0.720111787,1,-2.526125669,1,1.042364597,1,0.299563557,1,-0.373634607,1,-0.500620186,1,-17.28334045,1,-0.393033981,1,-6.175253868,1
2.019965887,-17.11464882,1,-2.218269348,1,-13.72869301,1,-0.750454128,1,-2.08600235,1,0.894433975,1,0.296212375,1,-0.383570313,1,-0.499529928,1,-13.45458126,1,0.429110765,1,-5.054190636,1
2.02396512,-13.78091812,1,-1.125383615,1,-12.70966721,1,-0.75426203,1,-1.756897211,1,0.760981083,1,0.292792082,1,-0.391868532,1,-0.498520404,1,-10.04571724,1,1.483455181,1,-4.055539131,1
2.027966499,-9.865130424,1,0.443612963,1,-12.09371376,1,-0.684678257,1,-1.528609753,1,0.643314898,1,0.289563,1,-0.398934692,1,-0.497648478,1,-6.066153526,1,3.016892433,1,-3.456720352,1
2.031963825,-7.051616669,1,1.581334591,1,-11.42128277,1,-0.582530856,1,-1.39406538,1,0.579073548,1,0.286741793,1,-0.405203789,1,-0.496912539,1,-3.196216583,1,4.123451233,1,-2.800076485,1
2.035963535,-5.424369812,1,2.317120075,1,-10.86113071,1,-0.452448457,1,-1.316712976,1,0.564939499,1,0.284389883,1,-0.4110322,1,-0.496189266,1,-1.516648531,1,4.832604408,1,-2.255688667,1
2.039964914,-5.627606392,1,2.326595783,1,-10.66719055,1,-0.320833772,1,-1.258000493,1,0.55866015,1,0.282524407,1,-0.416604996,1,-0.495402992,1,-1.669983149,1,4.819913864,1,-2.07811451,1
2.043962479,-6.449207306,1,1.46473062,1,-10.78332424,1,-0.206287146,1,-1.168899417,1,0.531265378,1,0.281136811,1,-0.421881437,1,-0.49457857,1,-2.444448948,1,3.940300465,1,-2.210975647,1
2.04796195,-7.425368309,1,0.219660684,1,-10.48239136,1,-0.101246513,1,-1.051672935,1,0.466572613,1,0.280222237,1,-0.426697582,1,-0.493825167,1,-3.37768364,1,2.682027102,1,-1.926416397,1
2.051963329,-10.11701584,1,-3.844346523,1,-10.65776539,1,-0.092220612,1,-0.910310626,1,0.434984565,1,0.2795977,1,-0.430989623,1,-0.493141294,1,-6.031155109,1,-1.392141581,1,-2.117033958,1
2.055960894,-11.39265442,1,-3.309951544,1,-9.892008781,1,-0.131014645,1,-0.629288495,1,0.328735501,1,0.278806448,1,-0.434394777,1,-0.49240008,1,-7.27655983,1,-0.868347883,1,-1.362762451,1
2.059960127,-10.36226749,1,-5.482040405,1,-9.582645416,1,-0.171376362,1,-0.44280827,1,0.173198819,1,0.27808699,1,-0.436695784,1,-0.492000788,1,-6.22576952,1,-3.049181223,1,-1.060776711,1
2.063961267,-8.334395409,1,-3.943816662,1,-9.012662888,1,-0.198624551,1,-0.298903644,1,0.039096888,1,0.277269334,1,-0.438207239,1,-0.491979301,1,-4.18450737,1,-1.519639969,1,-0.494830132,1
2.067958832,-4.371839523,1,-2.433585167,1,-8.956299782,1,-0.207442775,1,-0.276601523,1,0.022234973,1,0.276581228,1,-0.43931061,1,-0.49223116,1,-0.212182522,1,-0.016522169,1,-0.441210747,1
2.071958065,-3.502373219,1,-0.690775692,1,-9.516525269,1,-0.207772329,1,-0.313568473,1,0.029660814,1,0.275822818,1,-0.440479875,1,-0.49247247,1,0.667630672,1,1.718501806,1,-1.004294395,1
2.075965405,-4.960744858,1,-0.490524888,1,-9.805737495,1,-0.150885522,1,-0.323135406,1,0.006812768,1,0.275234103,1,-0.441735357,1,-0.492765695,1,-0.779637337,1,1.912316203,1,-1.297134399,1
2.079968929,-6.213339329,1,-1.013637066,1,-9.567915916,1,-0.064006865,1,-0.271395475,1,-0.054211177,1,0.275006324,1,-0.442866415,1,-0.493224204,1,-2.022234917,1,1.385979891,1,-1.063323021,1
2.083968878,-5.85321331,1,-1.740907311,1,-9.210964203,1,-0.003418676,1,-0.213911682,1,-0.102487639,1,0.275139242,1,-0.443710595,1,-0.493848026,1,-1.654650211,1,0.658878922,1,-0.710094452,1
2.087970018,-4.606570244,1,-2.479279995,1,-8.581207275,1,0.012511896,1,-0.187045202,1,-0.111928254,1,0.275467187,1,-0.444357514,1,-0.494549841,1,-0.402293682,1,-0.077445507,1,-0.083742142,1
2.091967583,-3.980728626,1,-3.461598873,1,-8.027216911,1,-0.002971584,1,-0.184645891,1,-0.082482703,1,0.27577883,1,-0.444966495,1,-0.495198637,1,0.228924751,1,-1.057812929,1,0.467036247,1
2.095967054,-4.091182232,1,-4.411961079,1,-7.656118393,1,-0.063165031,1,-0.184167996,1,-0.04700131,1,0.275871098,1,-0.445607096,1,-0.495702446,1,0.124125004,1,-2.008127928,1,0.835312843,1
2.099968195,-4.200251102,1,-4.873223305,1,-7.528979301,1,-0.131023794,1,-0.177160501,1,-0.006086895,1,0.275638849,1,-0.446267992,1,-0.496031463,1,0.020887852,1,-2.472121,1,0.960328102,1
2.103965759,-4.257324696,1,-4.744962692,1,-7.634293079,1,-0.201334164,1,-0.171456203,1,0.032147303,1,0.275043786,1,-0.446945131,1,-0.496188998,1,-0.030212402,1,-2.349688292,1,0.853691578,1
2.107964993,-4.174431801,1,-4.033815861,1,-7.882953167,1,-0.256147474,1,-0.161882564,1,0.064897873,1,0.274116218,1,-0.447638839,1,-0.496182978,1,0.058797359,1,-1.647210598,1,0.604423046,1
2.111966133,-4.285951614,1,-3.232516766,1,-8.197001457,1,-0.291444659,1,-0.163480595,1,0.083371274,1,0.272973895,1,-0.448341072,1,-0.496061116,1,-0.046532154,1,-0.856410742,1,0.290229797,1
2.115963697,-4.317642689,1,-2.8371737,1,-8.340135574,1,-0.307347238,1,-0.162051931,1,0.094571844,1,0.271697044,1,-0.449069083,1,-0.49587366,1,-0.071807861,1,-0.472735405,1,0.147147179,1
2.119962931,-4.269762039,1,-2.772703886,1,-8.396651268,1,-0.308724761,1,-0.160355777,1,0.111706689,1,0.270361871,1,-0.449793845,1,-0.495627314,1,-0.017543316,1,-0.420422316,1,0.090813637,1
2.123964071,-4.216490269,1,-2.931362391,1,-8.322337151,1,-0.320593446,1,-0.163526967,1,0.12475118,1,0.268969834,1,-0.450538546,1,-0.495316237,1,0.042285919,1,-0.591739416,1,0.16533947,1
2.127961636,-4.311253071,1,-3.087666988,1,-8.358909607,1,-0.32248351,1,-0.151458129,1,0.131843612,1,0.267535359,1,-0.45128268,1,-0.494948536,1,-0.045925617,1,-0.761059999,1,0.129056931,1
2.131960869,-4.526838779,1,-3.004437208,1,-8.362267494,1,-0.324412435,1,-0.143419564,1,0.150686488,1,0.26604259,1,-0.452004582,1,-0.494514793,1,-0.255159378,1,-0.691313505,1,0.126189232,1
2.135962486,-4.284952164,1,-2.835783005,1,-8.616689682,1,-0.340969712,1,-0.131791621,1,0.162092909,1,0.264480829,1,-0.452682257,1,-0.49400115,1,-0.007311821,1,-0.536676645,1,-0.127426147,1
2.139960289,-4.663908482,1,-2.580433369,1,-8.553995132,1,-0.347991079,1,-0.13898699,1,0.168936208,1,0.262863696,1,-0.453389913,1,-0.493456811,1,-0.380044937,1,-0.295846224,1,-0.0639534,1
2.143959761,-4.726378441,1,-2.42954421,1,-8.554649353,1,-0.347939253,1,-0.139879525,1,0.169484079,1,0.261226356,1,-0.454108626,1,-0.492892623,1,-0.436197281,1,-0.159656763,1,-0.063854218,1
2.147961378,-4.316740513,1,-2.201481819,1,-8.687515259,1,-0.346138448,1,-0.107292332,1,0.178027928,1,0.259560347,1,-0.454746366,1,-0.492267013,1,-0.020954609,1,0.053554535,1,-0.195596695,1
2.151958704,-4.472222328,1,-2.240756273,1,-8.55229187,1,-0.35171333,1,-0.120959565,1,0.181833744,1,0.257877827,1,-0.455384135,1,-0.491628766,1,-0.170834064,1,-0.000710011,1,-0.059241295,1
2.155964136,-4.214615822,1,-2.155534983,1,-8.783210754,1,-0.34216547,1,-0.090154707,1,0.184002727,1,0.256201237,1,-0.455960512,1,-0.490941793,1,0.091834068,1,0.069640398,1,-0.288814545,1
2.159965992,-4.40546608,1,-2.06391573,1,-8.597676277,1,-0.336940467,1,-0.127773836,1,0.174228013,1,0.254566669,1,-0.456591308,1,-0.490308017,1,-0.093477726,1,0.146687508,1,-0.102284431,1
2.163963556,-4.417118549,1,-1.941615701,1,-8.685893059,1,-0.328065962,1,-0.131518975,1,0.176517516,1,0.252969652,1,-0.457275838,1,-0.489695787,1,-0.099122524,1,0.254676938,1,-0.189846039,1
2.16796279,-4.578940392,1,-1.912377357,1,-8.657004356,1,-0.31126982,1,-0.131596997,1,0.177176937,1,0.251412928,1,-0.457960725,1,-0.489080161,1,-0.254934788,1,0.26995182,1,-0.160409927,1
2.171964407,-4.633311749,1,-1.889641643,1,-8.620219231,1,-0.299028844,1,-0.117816649,1,0.173972592,1,0.24991177,1,-0.458624899,1,-0.488459289,1,-0.303481102,1,0.279219747,1,-0.123142242,1
2.17596221,-4.548233032,1,-1.983929753,1,-8.529824257,1,-0.292924494,1,-0.102613352,1,0.183379456,1,0.248442844,1,-0.459234178,1,-0.487809271,1,-0.213059902,1,0.171797633,1,-0.032133102,1
2.179961681,-4.472404957,1,-2.110899925,1,-8.468099594,1,-0.295934379,1,-0.096571892,1,0.193551436,1,0.246952757,1,-0.459814399,1,-0.487104267,1,-0.132145882,1,0.031547546,1,0.0303545,1
2.18396306,-3.969047546,1,-2.162600279,1,-8.712229729,1,-0.30986774,1,-0.068776518,1,0.208458558,1,0.245395899,1,-0.460307688,1,-0.486300886,1,0.375534534,1,-0.033906221,1,-0.212528229,1
2.187960625,-4.310425282,1,-2.367576122,1,-8.299256325,1,-0.327212811,1,-0.101188332,1,0.221202061,1,0.243756071,1,-0.460874319,1,-0.485473931,1,0.039120674,1,-0.253417253,1,0.201535225,1
2.191960096,-4.208272934,1,-2.453567266,1,-8.279994011,1,-0.347718894,1,-0.09458214,1,0.240188628,1,0.242001981,1,-0.461481839,1,-0.484588653,1,0.146594048,1,-0.354957104,1,0.221923828,1
2.195961237,-4.287867069,1,-2.552134991,1,-8.219275475,1,-0.395123601,1,-0.087591827,1,0.265337795,1,0.240065157,1,-0.462079525,1,-0.483589947,1,0.0722332,1,-0.470613956,1,0.284164429,1
2.199958801,-4.223677158,1,-2.615944862,1,-8.138055801,1,-0.414238662,1,-0.089721188,1,0.280071944,1,0.237962112,1,-0.462682068,1,-0.482494444,1,0.141697407,1,-0.552932739,1,0.367182732,1
2.203958273,-4.279682636,1,-2.527041674,1,-8.160280228,1,-0.44965753,1,-0.088854045,1,0.295080066,1,0.235714436,1,-0.463296026,1,-0.481342375,1,0.091064453,1,-0.483776569,1,0.346971512,1
2.207959652,-4.497106075,1,-2.408198357,1,-8.261651039,1,-0.471550375,1,-0.049675774,1,0.313835084,1,0.233306423,1,-0.463861942,1,-0.480080873,1,-0.121408939,1,-0.385997772,1,0.248085022,1
2.211957216,-4.332843304,1,-2.16271615,1,-8.353579521,1,-0.495140582,1,-0.108037166,1,0.289850205,1,0.230812833,1,-0.464463055,1,-0.47884506,1,0.048111439,1,-0.162343025,1,0.158614159,1
2.215962648,-4.462519646,1,-1.74780488,1,-8.445669174,1,-0.489105493,1,-0.121002913,1,0.264374495,1,0.228350207,1,-0.465164274,1,-0.477752894,1,-0.075435162,1,0.230903983,1,0.068429947,1
2.219964266,-4.640083313,1,-1.593910098,1,-8.554935455,1,-0.488046855,1,-0.128233179,1,0.248884723,1,0.225951806,1,-0.465884924,1,-0.476758361,1,-0.246700764,1,0.363663793,1,-0.039199829,1
2.223962069,-4.573653698,1,-1.548547029,1,-8.501052856,1,-0.500499904,1,-0.113220461,1,0.244046852,1,0.22354497,1,-0.466564953,1,-0.475805432,1,-0.174329758,1,0.387861848,1,0.016451836,1
2.22796154,-4.41967535,1,-1.588854671,1,-8.485445023,1,-0.495158643,1,-0.119409196,1,0.229267761,1,0.2198181,1,-0.471418977,1,-0.465881288,1,0.021995544,1,0.311118364,1,0.018275261,1
2.231962919,-4.405331135,1,-1.595676303,1,-8.507013321,1,-0.497126818,1,-0.113633901,1,0.224088892,1,0.217405707,1,-0.472026438,1,-0.465014398,1,0.041631699,1,0.283195496,1,-0.001364708,1
2.235966921,-4.489711761,1,-1.515005231,1,-8.503726959,1,-0.497796953,1,-0.113830902,1,0.217340529,1,0.215029553,1,-0.472671628,1,-0.464160174,1,-0.037129402,1,0.343037486,1,0.003553391,1
2.239966869,-4.73936367,1,-1.369581103,1,-8.591517448,1,-0.492481321,1,-0.055253904,1,0.22715196,1,0.212639481,1,-0.473200113,1,-0.463258356,1,-0.282180309,1,0.46762681,1,-0.082118988,1
2.243968487,-4.327096939,1,-1.472711086,1,-8.759338379,1,-0.485983759,1,-0.120088995,1,0.210704759,1,0.210295141,1,-0.47372964,1,-0.462391883,1,0.134696007,1,0.344050169,1,-0.247964859,1
2.24796629,-4.488609314,1,-1.48955822,1,-8.677389145,1,-0.471053183,1,-0.125748411,1,0.204149708,1,0.208020344,1,-0.474396169,1,-0.461610973,1,-0.021016598,1,0.307221174,1,-0.164820671,1
2.251965523,-4.574727535,1,-1.458814859,1,-8.736761093,1,-0.466699213,1,-0.125983581,1,0.202721894,1,0.20578739,1,-0.475061119,1,-0.460827887,1,-0.101350307,1,0.318345308,1,-0.223107338,1
2.255966902,-4.497955322,1,-1.362374187,1,-8.668579102,1,-0.450727612,1,-0.119033791,1,0.204982981,1,0.203597218,1,-0.475707412,1,-0.46004203,1,-0.018958569,1,0.395549774,1,-0.15389061,1
2.259964466,-4.512905121,1,-1.368779778,1,-8.637438774,1,-0.439413548,1,-0.114888988,1,0.20997946,1,0.20143725,1,-0.476336092,1,-0.459232748,1,-0.028443336,1,0.370185375,1,-0.121731758,1
2.263963699,-4.825794697,1,-1.423239827,1,-8.611926079,1,-0.429693162,1,-0.051269975,1,0.217868999,1,0.19930701,1,-0.476858586,1,-0.458365709,1,-0.336791992,1,0.297116518,1,-0.09483242,1
2.267965078,-4.622720242,1,-1.404656768,1,-8.890427589,1,-0.42654404,1,-0.12095169,1,0.200242609,1,0.197176948,1,-0.477338701,1,-0.457506508,1,-0.129546642,1,0.297131538,1,-0.371803284,1
2.271962643,-4.513820648,1,-1.704111218,1,-8.519974709,1,-0.416439444,1,-0.117451958,1,0.200836599,1,0.195141122,1,-0.477970123,1,-0.456732541,1,-0.015162945,1,-0.020219564,1,-0.000688553,1
2.275962353,-4.564195633,1,-1.687577248,1,-8.631038666,1,-0.429651469,1,-0.103616394,1,0.215666428,1,0.193064168,1,-0.478552043,1,-0.455890536,1,-0.060484886,1,-0.021886349,1,-0.110845566,1
2.279963732,-4.458600521,1,-1.949486494,1,-8.444898605,1,-0.439133793,1,-0.108837336,1,0.222492307,1,0.190926999,1,-0.479150862,1,-0.455025256,1,0.050308228,1,-0.30251956,1,0.076189995,1
2.283961058,-4.999977112,1,-1.950335622,1,-8.086924553,1,-0.457988113,1,-0.029867228,1,0.2587879,1,0.188676074,1,-0.479642957,1,-0.45402652,1,-0.486798286,1,-0.32297039,1,0.435664177,1
2.287960529,-4.371115208,1,-2.171059132,1,-8.377893448,1,-0.484054416,1,-0.110331714,1,0.253688723,1,0.186298713,1,-0.480120897,1,-0.452956825,1,0.146210194,1,-0.56435883,1,0.146421432,1
2.291962147,-4.441256046,1,-2.292085886,1,-8.137720108,1,-0.52100575,1,-0.081662811,1,0.281030655,1,0.18378216,1,-0.480708957,1,-0.451850832,1,0.081169128,1,-0.707328916,1,0.387996674,1
2.295959473,-4.611006737,1,-2.318536758,1,-8.239805222,1,-0.556534886,1,-0.082846716,1,0.296400338,1,0.18105723,1,-0.481249183,1,-0.450638711,1,-0.083897114,1,-0.757457733,1,0.287793159,1
2.299958944,-4.900486469,1,-2.309406042,1,-8.15185833,1,-0.595972121,1,-0.03846835,1,0.322562009,1,0.178136781,1,-0.481715649,1,-0.449319184,1,-0.369333744,1,-0.773612499,1,0.378183365,1
2.303960323,-3.805865765,1,-2.123409033,1,-8.550009727,1,-0.624601364,1,-0.000216739,1,0.331259936,1,0.17502223,1,-0.481969357,1,-0.447847754,1,0.727485657,1,-0.614390373,1,-0.016358376,1
2.307957649,-4.608935833,1,-2.09290266,1,-8.297901154,1,-0.66744554,1,-0.038465157,1,0.326917857,1,0.171787575,1,-0.482312977,1,-0.44641614,1,-0.072606564,1,-0.611760616,1,0.239055634,1
2.311963081,-4.744577885,1,-2.030364513,1,-8.507665634,1,-0.705160618,1,-0.022093611,1,0.338726908,1,0.168362051,1,-0.482637018,1,-0.444956452,1,-0.205440998,1,-0.578721523,1,0.032863617,1
2.31596446,-4.595053196,1,-1.967935205,1,-8.323382378,1,-0.742439032,1,-0.008399611,1,0.349518508,1,0.164771214,1,-0.482934445,1,-0.443448067,1,-0.053340435,1,-0.547190785,1,0.220972061,1
2.319962025,-5.301567078,1,-1.790519357,1,-8.191041946,1,-0.754410386,1,0.021304151,1,0.341793776,1,0.16105102,1,-0.483164579,1,-0.441908121,1,-0.757860661,1,-0.40173924,1,0.357504845,1
2.323961258,-4.322211742,1,-1.186828017,1,-8.880630493,1,-0.743055642,1,-0.022494437,1,0.303180754,1,0.157384828,1,-0.48330003,1,-0.440463245,1,0.222667217,1,0.170505881,1,-0.327656746,1
2.327962637,-4.681108475,1,-0.855317593,1,-8.863916397,1,-0.751746833,1,-0.034409497,1,0.285422921,1,0.153790474,1,-0.483621597,1,-0.439177662,1,-0.133444786,1,0.471041203,1,-0.307563782,1
2.331960201,-4.581685066,1,-0.974331498,1,-8.88449955,1,-0.734222054,1,-0.049221121,1,0.26629886,1,0.150272429,1,-0.483959138,1,-0.437976211,1,-0.031098843,1,0.321687698,1,-0.325053215,1
2.335959435,-4.503898144,1,-1.181422949,1,-9.049505234,1,-0.721172392,1,-0.067125797,1,0.261666536,1,0.146833926,1,-0.48434034,1,-0.436825991,1,0.049987793,1,0.084903359,1,-0.487365723,1
2.339961052,-4.430686951,1,-1.292860031,1,-8.959571838,1,-0.701441348,1,-0.080058508,1,0.256429791,1,0.143466741,1,-0.484776616,1,-0.435713083,1,0.126974583,1,-0.055655479,1,-0.395186424,1
2.343958616,-4.528652191,1,-1.156523466,1,-9.289925575,1,-0.687231123,1,-0.113922745,1,0.256787062,1,0.140180513,1,-0.485301465,1,-0.434627533,1,0.033550739,1,0.052195311,1,-0.723891258,1
2.34795785,-4.685174465,1,-0.80203408,1,-9.068287849,1,-0.625098825,1,-0.08120703,1,0.259714007,1,0.137029797,1,-0.485832095,1,-0.433527172,1,-0.118381977,1,0.379358828,1,-0.500885963,1
2.351959229,-4.076062679,1,-0.839741468,1,-9.231800079,1,-0.583598733,1,-0.154059768,1,0.246995777,1,0.134125233,1,-0.486422598,1,-0.432466626,1,0.495835781,1,0.316401362,1,-0.663675308,1
2.355956793,-4.372058392,1,-0.894734323,1,-9.228575706,1,-0.531199396,1,-0.182571709,1,0.259132802,1,0.131400317,1,-0.487227559,1,-0.431436181,1,0.206798077,1,0.237573922,1,-0.6609869,1
2.359956026,-4.201140881,1,-1.196519971,1,-9.218583107,1,-0.476705313,1,-0.20339112,1,0.264590055,1,0.128906414,1,-0.488139331,1,-0.430373847,1,0.385593414,1,-0.086119175,1,-0.652341843,1
2.363957405,-4.028059483,1,-1.357903361,1,-9.460473061,1,-0.471984804,1,-0.243660629,1,0.283856392,1,0.126497492,1,-0.489164025,1,-0.429275393,1,0.567523479,1,-0.268734455,1,-0.896245956,1
2.367954969,-4.004256725,1,-1.521713257,1,-9.849504471,1,-0.494505763,1,-0.298375517,1,0.279113322,1,0.124075837,1,-0.490366191,1,-0.428164095,1,0.601701736,1,-0.453971505,1,-1.288152695,1
2.371954441,-4.233823299,1,-0.371474653,1,-9.561805725,1,-0.508261979,1,-0.355636388,1,0.265664846,1,0.121518247,1,-0.491832972,1,-0.427124381,1,0.384784698,1,0.673546791,1,-1.004468918,1
2.37595582,-3.491310596,1,-0.266979873,1,-10.4137001,1,-0.426283389,1,-0.418393016,1,0.249217629,1,0.119233139,1,-0.493428916,1,-0.426156729,1,1.141050339,1,0.757606566,1,-1.861325264,1
2.379953146,-3.971850395,1,-0.684227824,1,-9.842486382,1,-0.428527236,1,-0.500877976,1,0.240438655,1,0.117109522,1,-0.495392472,1,-0.425305188,1,0.677414417,1,0.321129322,1,-1.297007561,1
2.383952618,-4.10575819,1,-0.969996214,1,-9.896603584,1,-0.404889733,1,-0.566361547,1,0.23979941,1,0.115065746,1,-0.497611731,1,-0.424500585,1,0.562591076,1,0.016706884,1,-1.359357834,1
2.387953997,-4.074748993,1,-0.946035385,1,-9.815372467,1,-0.39417395,1,-0.623268425,1,0.244877666,1,0.113095224,1,-0.500096023,1,-0.423719376,1,0.614935875,1,0.022531271,1,-1.287746429,1
2.39195776,-4.214888573,1,-1.211224198,1,-9.936850548,1,-0.381338537,1,-0.693406343,1,0.252017945,1,0.111158848,1,-0.502817452,1,-0.422934204,1,0.498135567,1,-0.260591209,1,-1.420080185,1
2.395957708,-4.893601418,1,-0.697574794,1,-10.12942028,1,-0.365755618,1,-0.74985981,1,0.261576742,1,0.109270096,1,-0.505815625,1,-0.422129452,1,-0.154905319,1,0.235425115,1,-1.624956131,1
2.399959326,-3.65672946,1,-0.873676121,1,-9.82202816,1,-0.34136641,1,-0.823303342,1,0.258595824,1,0.107482336,1,-0.50902617,1,-0.421331465,1,1.109410048,1,0.042481661,1,-1.331077576,1
2.403957367,-4.227180958,1,-0.884061933,1,-10.1730423,1,-0.34685418,1,-0.903211832,1,0.261915863,1,0.105725706,1,-0.5125826,1,-0.420556813,1,0.569300652,1,0.015384674,1,-1.697403908,1
2.407956839,-4.32571888,1,-0.780119956,1,-9.951347351,1,-0.340237916,1,-0.979776263,1,0.261443347,1,0.10399612,1,-0.51643312,1,-0.419815361,1,0.503546238,1,0.102741897,1,-1.492601395,1
2.411957979,-4.243233204,1,-1.030332685,1,-10.08593464,1,-0.333383262,1,-1.057783008,1,0.2650446,1,0.102275707,1,-0.52058512,1,-0.419095248,1,0.621301651,1,-0.164078951,1,-1.645697594,1
2.415955782,-4.292408466,1,-0.93716222,1,-10.08510971,1,-0.323089778,1,-1.148144841,1,0.26264289,1,0.10060899,1,-0.525087595,1,-0.418396443,1,0.61027813,1,-0.08718574,1,-1.665319443,1
2.419955254,-4.29371357,1,-0.949849367,1,-10.107131,1,-0.322657734,1,-1.220359802,1,0.268924087,1,0.098974958,1,-0.529903591,1,-0.417722106,1,0.649672508,1,-0.11597544,1,-1.709559441,1
2.423956633,-4.243722439,1,-0.86741513,1,-10.33028698,1,-0.315876096,1,-1.306547165,1,0.259375542,1,0.09736269,1,-0.535025299,1,-0.417068183,1,0.742819309,1,-0.049553335,1,-1.956690788,1
2.427954435,-4.133742332,1,-0.7544927,1,-10.70131874,1,-0.306901217,1,-1.385487676,1,0.270252973,1,0.095803127,1,-0.540483177,1,-0.416444123,1,0.898644447,1,0.047693849,1,-2.35367012,1
2.431953907,-4.141203403,1,-1.168767571,1,-10.97104645,1,-0.311590582,1,-1.524550438,1,0.281549752,1,0.0942325,1,-0.546374261,1,-0.415823758,1,0.940499306,1,-0.382496357,1,-2.651808739,1
2.435955524,-4.193881989,1,-1.027537107,1,-10.74827957,1,-0.340904891,1,-1.63368547,1,0.300718993,1,0.092566207,1,-0.552780211,1,-0.415161401,1,0.94124651,1,-0.258154392,1,-2.460330009,1
2.439953327,-3.878135204,1,-0.96802038,1,-11.19925022,1,-0.335565001,1,-1.788336635,1,0.303727269,1,0.090873934,1,-0.55968523,1,-0.41447261,1,1.314344883,1,-0.215899944,1,-2.945519447,1
2.44395256,-4.301520348,1,-1.319880843,1,-11.12861061,1,-0.339683652,1,-1.924218535,1,0.320994347,1,0.089179963,1,-0.567204177,1,-0.413802654,1,0.953128815,1,-0.58524102,1,-2.912737846,1
2.447954655,-4.115776062,1,-1.409554958,1,-11.27879429,1,-0.362351596,1,-2.058465719,1,0.342888355,1,0.087380402,1,-0.575254321,1,-0.413069218,1,1.205104828,1,-0.693415582,1,-3.104012489,1
2.451953173,-4.178071499,1,-1.294425964,1,-11.51140785,1,-0.365610331,1,-2.214134932,1,0.364073157,1,0.085483149,1,-0.583888233,1,-0.412272155,1,1.213460922,1,-0.597746253,1,-3.381361961,1
2.455952883,-4.30767107,1,-1.385158658,1,-11.57847691,1,-0.363095433,1,-2.369378328,1,0.386126369,1,0.083542325,1,-0.593150675,1,-0.411405534,1,1.159209251,1,-0.708455622,1,-3.497208595,1
2.4599545,-3.945513487,1,-1.51572752,1,-11.92320156,1,-0.388791353,1,-2.545130491,1,0.424449414,1,0.081514277,1,-0.603063703,1,-0.410427898,1,1.601486921,1,-0.859859943,1,-3.894985199,1
2.463951826,-4.224465847,1,-1.504576206,1,-12.02838802,1,-0.39185065,1,-2.722153187,1,0.46766606,1,0.079297237,1,-0.613711774,1,-0.409304827,1,1.407988548,1,-0.871223986,1,-4.058070183,1
2.467951298,-3.945668459,1,-2.197495461,1,-12.17209816,1,-0.420804083,1,-2.923386097,1,0.521431446,1,0.076900728,1,-0.62512368,1,-0.407952935,1,1.777660131,1,-1.588224173,1,-4.264894009,1
2.471959114,-4.124131203,1,-2.294259787,1,-12.42522144,1,-0.456618756,1,-3.129885197,1,0.568547726,1,0.074228153,1,-0.637349188,1,-0.4063887,1,1.695723534,1,-1.711355925,1,-4.586781025,1
2.475962639,-3.649581432,1,-2.472293615,1,-12.87458038,1,-0.448747844,1,-3.346281767,1,0.644437492,1,0.071307279,1,-0.650434554,1,-0.40454945,1,2.272624016,1,-1.917760968,1,-5.111103058,1
2.479962349,-4.003553391,1,-2.796871185,1,-13.04344559,1,-0.514536142,1,-3.582192898,1,0.717447281,1,0.0679911,1,-0.664394617,1,-0.402346283,1,2.026726246,1,-2.273754597,1,-5.361407757,1
2.483963728,-2.874851942,1,-3.067065239,1,-12.91443634,1,-0.534244597,1,-3.827199459,1,0.785481751,1,0.064276017,1,-0.679385185,1,-0.399746746,1,3.270170927,1,-2.578353405,1,-5.321577072,1
2.487961054,-3.684169769,1,-3.155537367,1,-13.59873486,1,-0.549028635,1,-4.10151577,1,0.875460744,1,0.060191225,1,-0.695406258,1,-0.396748602,1,2.581956387,1,-2.703825235,1,-6.103181839,1
2.491960526,-2.982918978,1,-3.800786495,1,-13.77918911,1,-0.580289543,1,-4.367618561,1,0.994035542,1,0.055564672,1,-0.712509394,1,-0.393137634,1,3.410713911,1,-3.389770269,1,-6.389725208,1
2.495961905,-3.474592209,1,-4.271250248,1,-14.18950653,1,-0.67873174,1,-4.670035362,1,1.113002658,1,0.050178099,1,-0.73078233,1,-0.388792276,1,3.053202152,1,-3.90596509,1,-6.915846825,1
2.499959469,-2.762848616,1,-4.499060631,1,-14.3397007,1,-0.695705354,1,-4.956324577,1,1.244746208,1,0.043962087,1,-0.750254691,1,-0.383616239,1,3.905513048,1,-4.184642315,1,-7.192272186,1
2.503958702,-2.21662426,1,-4.310293198,1,-14.4219923,1,-0.752946436,1,-5.297402382,1,1.386486173,1,0.036844626,1,-0.77090621,1,-0.37752533,1,4.598053455,1,-4.051882267,1,-7.41163826,1
2.507960081,-3.226783752,1,-5.024930954,1,-15.02061749,1,-0.815052271,1,-5.619281769,1,1.568514466,1,0.028557606,1,-0.792962134,1,-0.37021178,1,3.7409482,1,-4.82896328,1,-8.160297394,1
2.511957645,-1.917455912,1,-5.158688545,1,-14.5118475,1,-0.889337003,1,-5.928461075,1,1.734706402,1,0.018876074,1,-0.816203833,1,-0.361473024,1,5.207890511,1,-5.03223896,1,-7.813705444,1
2.515957355,-3.274606943,1,-5.648442745,1,-15.7721014,1,-1.017063022,1,-6.315359116,1,1.938050985,1,0.007419924,1,-0.840801895,1,-0.351077199,1,4.013358116,1,-5.600049973,1,-9.250221252,1
2.519958496,-3.082653284,1,-5.829721928,1,-15.60588932,1,-1.13991034,1,-6.633004189,1,2.143327475,1,-0.006249172,1,-0.866692543,1,-0.338669598,1,4.371709824,1,-5.869286537,1,-9.274812698,1
2.523956299,-2.776627064,1,-6.202749729,1,-16.0264473,1,-1.196335435,1,-7.122767925,1,2.343907833,1,-0.022331603,1,-0.894036174,1,-0.323891401,1,4.848046303,1,-6.339519978,1,-9.902941704,1
2.527955532,-4.350919724,1,-5.608458519,1,-16.54375458,1,-1.250885606,1,-7.50577879,1,2.493039608,1,-0.040834319,1,-0.923009396,1,-0.306666851,1,3.447990417,1,-5.849378586,1,-10.64709282,1
2.531956911,-6.600995064,1,-4.96914053,1,-17.56616974,1,-1.206286788,1,-7.869645119,1,2.651006937,1,-0.061939318,1,-0.953223765,1,-0.286628008,1,1.37264061,1,-5.319696426,1,-11.91374588,1
2.535954475,-6.444392204,1,-4.428826332,1,-18.16446686,1,-1.09995091,1,-8.270422935,1,2.791824102,1,-0.085841171,1,-0.984579742,1,-0.263264537,1,1.702872276,1,-4.892701626,1,-12.77386665,1
2.539953709,-6.60260725,1,-3.037808418,1,-17.63134766,1,-1.049330115,1,-8.605183601,1,2.896867514,1,-0.113080867,1,-1.01706171,1,-0.236031801,1,1.716073513,1,-3.618152618,1,-12.52112484,1
2.543955088,-7.580027103,1,0.438082784,1,-16.96171761,1,-0.800617576,1,-8.75440979,1,2.979473829,1,-0.143904567,1,-1.050082207,1,-0.204505727,1,0.903914928,1,-0.259689301,1,-12.14638138,1
2.547958612,-8.891841888,1,2.468006611,1,-17.87911415,1,-0.267095327,1,-8.742745399,1,3.023370981,1,-0.177737102,1,-1.082705736,1,-0.168395445,1,-0.253708839,1,1.657133579,1,-13.36505222,1
