Time,inertial-6253.76535:estCompensatedAccelX,inertial-6253.76535:estCompensatedAccelX:valid,inertial-6253.76535:estCompensatedAccelY,inertial-6253.76535:estCompensatedAccelY:valid,inertial-6253.76535:estCompensatedAccelZ,inertial-6253.76535:estCompensatedAccelZ:valid,inertial-6253.76535:estAngularRateX,inertial-6253.76535:estAngularRateX:valid,inertial-6253.76535:estAngularRateY,inertial-6253.76535:estAngularRateY:valid,inertial-6253.76535:estAngularRateZ,inertial-6253.76535:estAngularRateZ:valid,inertial-6253.76535:estRoll,inertial-6253.76535:estRoll:valid,inertial-6253.76535:estPitch,inertial-6253.76535:estPitch:valid,inertial-6253.76535:estYaw,inertial-6253.76535:estYaw:valid
0,-4.516490459,1,-1.869551539,1,-8.540779114,1,0.005204532,1,-0.005297759,1,0.004881599,1,0.241297498,1,-0.509526968,1,1.06492281,1
0.003997696,-4.489985466,1,-1.898097634,1,-8.544792175,1,0.008927442,1,-0.000919459,1,0.00330813,1,0.24130635,1,-0.509541571,1,1.064940095,1
0.00799744,-4.489420414,1,-1.900834918,1,-8.53151226,1,0.003747679,1,-0.003499217,1,0.004024098,1,0.241327956,1,-0.50955379,1,1.064946294,1
0.011998976,-4.479697227,1,-1.933703661,1,-8.537997246,1,0.003632948,1,-0.005307167,1,0.004653888,1,0.241338655,1,-0.509568751,1,1.064967752,1
0.015996415,-4.46600008,1,-1.903811574,1,-8.524557114,1,0.002043907,1,-0.002835326,1,0.006107654,1,0.241344601,1,-0.509584427,1,1.064981699,1
0.019996161,-4.509675503,1,-1.916147947,1,-8.552211761,1,0.000759715,1,0.000741565,1,0.002181528,1,0.241347209,1,-0.509596229,1,1.065000296,1
0.023997696,-4.481957912,1,-1.896303654,1,-8.525141716,1,0.002348033,1,-0.001642656,1,0.004676159,1,0.241346911,1,-0.509605587,1,1.065022111,1
0.027995136,-4.486460686,1,-1.868597984,1,-8.521832466,1,0.002555369,1,-0.000549294,1,0.004817489,1,0.241340101,1,-0.509618759,1,1.065047741,1
0.031994622,-4.469169617,1,-1.872813463,1,-8.53188324,1,0.00185606,1,-0.002466222,1,0.003204098,1,0.241335675,1,-0.509631515,1,1.06506741,1
0.036002304,-4.492218494,1,-1.831511617,1,-8.52110672,1,0.002822194,1,-0.005178602,1,0.002700111,1,0.2413349,1,-0.509648144,1,1.065089583,1
0.040005889,-4.487975597,1,-1.879640341,1,-8.528759003,1,-0.000473128,1,-0.004456322,1,0.008127037,1,0.241328672,1,-0.509662509,1,1.065099835,1
0.044005632,-4.473906994,1,-1.876132607,1,-8.512639046,1,0.004138109,1,-0.002420118,1,0.007160456,1,0.241328165,1,-0.509677827,1,1.065122604,1
0.048007168,-4.467588902,1,-1.903885603,1,-8.548336983,1,0.004362965,1,-0.003244351,1,0.004427912,1,0.241334394,1,-0.509697855,1,1.06514287,1
0.052004863,-4.483676434,1,-1.883835673,1,-8.534358978,1,0.006049625,1,-0.004353052,1,0.002318674,1,0.241343468,1,-0.509710312,1,1.065161467,1
0.056004353,-4.473173618,1,-1.90239954,1,-8.534917831,1,7.42E-05,1,-0.002964271,1,0.006011207,1,0.241348863,1,-0.509727538,1,1.065172553,1
0.060005888,-4.479529858,1,-1.905298471,1,-8.523546219,1,-0.000768193,1,-0.001227497,1,0.00639802,1,0.241342977,1,-0.509740114,1,1.065195441,1
0.064003587,-4.506899834,1,-1.899352789,1,-8.549868584,1,0.002481583,1,-0.001458906,1,0.004212268,1,0.241339937,1,-0.509759247,1,1.065220118,1
0.068003073,-4.507979393,1,-1.897542477,1,-8.527525902,1,-0.002379346,1,0.001220307,1,0.008006163,1,0.241329491,1,-0.509772062,1,1.06524992,1
0.072004609,-4.500713348,1,-1.870448828,1,-8.524456978,1,0.001769582,1,-0.003885248,1,0.005965882,1,0.241315335,1,-0.509780407,1,1.065276861,1
0.076002307,-4.487499714,1,-1.850565553,1,-8.535640717,1,0.000130836,1,-0.003221822,1,0.008359464,1,0.241305202,1,-0.509795606,1,1.065295219,1
0.080002047,-4.504127979,1,-1.873913527,1,-8.516471863,1,-0.000871909,1,0.002042074,1,0.006044045,1,0.241291866,1,-0.509809256,1,1.065323591,1
0.084003843,-4.520715237,1,-1.858090639,1,-8.537151337,1,0.002131447,1,-0.003914773,1,0.004725214,1,0.241286665,1,-0.509816885,1,1.065339804,1
0.088001795,-4.51544857,1,-1.865527391,1,-8.504098892,1,0.000682629,1,-0.000644724,1,0.003213749,1,0.24128373,1,-0.50982064,1,1.065361857,1
0.092001282,-4.496533394,1,-1.854085922,1,-8.512633324,1,0.003108941,1,-0.000536325,1,0.000828173,1,0.241279468,1,-0.50982672,1,1.065379143,1
0.096003331,-4.490037441,1,-1.869825602,1,-8.542222977,1,-0.000593718,1,-0.001067979,1,0.002563043,1,0.241276905,1,-0.509835899,1,1.065396547,1
0.100001283,-4.495535851,1,-1.871366262,1,-8.495800972,1,0.001933358,1,0.000224533,1,0.003490795,1,0.241266802,1,-0.509839475,1,1.065416932,1
0.10400077,-4.509248257,1,-1.905458093,1,-8.509869576,1,0.00253131,1,0.001473325,1,0.005293055,1,0.240793124,1,-0.50888896,1,1.065083146,1
0.108002558,-4.520686626,1,-1.873527884,1,-8.545891762,1,0.001040663,1,0.000423182,1,0.004702979,1,0.240785778,1,-0.508892238,1,1.065104127,1
0.112000257,-4.520044804,1,-1.877954841,1,-8.538861275,1,-0.002601502,1,0.001890753,1,0.003170845,1,0.240773574,1,-0.50888896,1,1.065126896,1
0.115999997,-4.492185593,1,-1.848659992,1,-8.530863762,1,8.83E-05,1,0.001144621,1,0.007189135,1,0.240756214,1,-0.508892238,1,1.065155268,1
0.120001793,-4.503706932,1,-1.86945343,1,-8.530534744,1,-0.000592496,1,-0.001248476,1,0.003243421,1,0.240746304,1,-0.50889802,1,1.065183043,1
0.123999491,-4.468926907,1,-1.839802504,1,-8.561494827,1,0.000313366,1,0.000162029,1,0.008624089,1,0.240732059,1,-0.508891582,1,1.065207958,1
0.127999231,-4.503608227,1,-1.829505324,1,-8.533333778,1,-0.000836476,1,0.00160478,1,0.005126405,1,0.240710363,1,-0.508895457,1,1.065239191,1
0.132001027,-4.485469818,1,-1.861660838,1,-8.534262657,1,0.000600172,1,-0.001273684,1,0.007949256,1,0.240707636,1,-0.508887351,1,1.065259337,1
0.135998726,-4.505813122,1,-1.856409192,1,-8.539551735,1,0.000794438,1,0.002553312,1,0.004607025,1,0.240701631,1,-0.508890569,1,1.06528616,1
0.139998466,-4.481967926,1,-1.860200286,1,-8.522125244,1,0.001915816,1,-0.003509864,1,0.007205477,1,0.240701884,1,-0.508889139,1,1.065303922,1
0.143999994,-4.488113403,1,-1.861315608,1,-8.564901352,1,0.004040794,1,0.005311623,1,0.004550169,1,0.240709111,1,-0.508885145,1,1.065326333,1
0.147997692,-4.510890961,1,-1.889339685,1,-8.5633564,1,0.002439397,1,0.001311222,1,0.002297578,1,0.240709409,1,-0.508876622,1,1.065346599,1
0.151997179,-4.510437012,1,-1.857662678,1,-8.554116249,1,0.004222847,1,-0.001410311,1,0.006209446,1,0.240720183,1,-0.508872747,1,1.065362573,1
0.156004608,-4.49894762,1,-1.878770351,1,-8.543605804,1,0.005029543,1,0.00275789,1,0.003648237,1,0.240730435,1,-0.508873761,1,1.065383315,1
0.160008445,-4.46750927,1,-1.901955724,1,-8.552955627,1,0.005351195,1,0.002913185,1,0.001056303,1,0.240741357,1,-0.508867443,1,1.0654037,1
0.164008185,-4.51956892,1,-1.884987235,1,-8.548153877,1,0.006403295,1,0.00267485,1,0.003696785,1,0.240755558,1,-0.508865356,1,1.065416574,1
0.168009728,-4.495876312,1,-1.886983156,1,-8.546224594,1,0.005348009,1,0.000139197,1,0.003807395,1,0.240775272,1,-0.508863211,1,1.065437198,1
0.172007427,-4.514697075,1,-1.907173634,1,-8.507535934,1,0.008147731,1,0.000320239,1,0.001823418,1,0.240782171,1,-0.508867979,1,1.065460801,1
0.176006913,-4.51097393,1,-1.909008265,1,-8.566282272,1,0.004624183,1,-0.002885089,1,0.005001964,1,0.240791246,1,-0.508876622,1,1.065487623,1
0.180008709,-4.533934593,1,-1.900474668,1,-8.53575325,1,0.00340306,1,-0.00167417,1,0.002789041,1,0.240802199,1,-0.508871853,1,1.065500379,1
0.184006393,-4.492035866,1,-1.862532616,1,-8.507180214,1,0.000543626,1,-0.000431092,1,0.004406422,1,0.240800858,1,-0.50887531,1,1.065518975,1
0.188005626,-4.510674,1,-1.870389938,1,-8.5296278,1,0.004830836,1,0.000345961,1,0.004716142,1,0.240803614,1,-0.508884072,1,1.065537095,1
0.192007169,-4.514644146,1,-1.891580343,1,-8.531208992,1,0.003187379,1,-0.000209505,1,0.002555243,1,0.240809798,1,-0.508885264,1,1.065552831,1
0.196004868,-4.511483669,1,-1.888577461,1,-8.521486282,1,0.001785886,1,0.000429935,1,0.006191789,1,0.240810052,1,-0.508885026,1,1.065573573,1
0.200004354,-4.478436947,1,-1.855811596,1,-8.523866653,1,0.002292347,1,0.004197469,1,0.002584381,1,0.240806803,1,-0.508884311,1,1.065601945,1
0.204005882,-4.517112255,1,-1.886281133,1,-8.51832962,1,0.001215159,1,0.002629012,1,0.004520222,1,0.240807742,1,-0.508872628,1,1.065620422,1
0.208003581,-4.468587875,1,-1.865820408,1,-8.515728951,1,0.006769427,1,0.002512968,1,0.006025549,1,0.240804762,1,-0.508862853,1,1.065657377,1
0.212003067,-4.520170689,1,-1.86331439,1,-8.523682594,1,0.000591319,1,0.002253913,1,0.001876785,1,0.240809172,1,-0.508852482,1,1.065670013,1
0.21600461,-4.483049393,1,-1.863606453,1,-8.528803825,1,0.005431952,1,0.001758442,1,0.001069942,1,0.24081409,1,-0.508845866,1,1.065688252,1
0.220002308,-4.45690155,1,-1.862326622,1,-8.534877777,1,0.000771237,1,0.0075949,1,0.001805446,1,0.240826473,1,-0.508835733,1,1.065702915,1
0.224001795,-4.500082493,1,-1.849840164,1,-8.518899918,1,0.003747091,1,0.002982101,1,0.002602552,1,0.240826845,1,-0.508822799,1,1.065720916,1
0.228003591,-4.486526966,1,-1.868303418,1,-8.543977737,1,0.006325303,1,0.00410371,1,-0.001282402,1,0.240834609,1,-0.508806527,1,1.065733194,1
0.232001275,-4.484485626,1,-1.887723446,1,-8.560563087,1,0.005578966,1,0.001325288,1,0.003418272,1,0.240844086,1,-0.508796573,1,1.065751672,1
0.236000761,-4.460486412,1,-1.888410091,1,-8.552382469,1,0.00291682,1,0.003898297,1,0.006486979,1,0.240854576,1,-0.508786738,1,1.065769672,1
0.240002304,-4.479128361,1,-1.880444288,1,-8.5674963,1,0.003502631,1,0.005408029,1,0.001400079,1,0.240859643,1,-0.508773923,1,1.065786004,1
0.244000256,-4.468254089,1,-1.863548875,1,-8.551347733,1,0.007218317,1,0.002124651,1,0.00183279,1,0.240872711,1,-0.508765161,1,1.065796733,1
0.247999743,-4.478583336,1,-1.869332075,1,-8.533403397,1,0.006719222,1,0.001923115,1,0.000299777,1,0.240901127,1,-0.508758843,1,1.065804124,1
0.252001286,-4.506053448,1,-1.880960107,1,-8.560424805,1,0.008354669,1,0.003325883,1,0.002023499,1,0.240923405,1,-0.508751035,1,1.065812349,1
0.255998969,-4.514230728,1,-1.871230602,1,-8.551026344,1,0.002330382,1,0.00254788,1,0.003370786,1,0.240939915,1,-0.508743763,1,1.065828562,1
0.259998471,-4.47795105,1,-1.880437374,1,-8.528623581,1,0.006285519,1,0.000482922,1,0.001706633,1,0.240959883,1,-0.508736312,1,1.065839171,1
0.264000267,-4.509694576,1,-1.887301087,1,-8.551450729,1,0.008886149,1,0.003427074,1,0.001760039,1,0.240978926,1,-0.508739948,1,1.065857053,1
0.26799795,-4.502640724,1,-1.895614505,1,-8.535694122,1,0.006074743,1,0.00548626,1,0.000988946,1,0.241000056,1,-0.508731186,1,1.065871239,1
0.271997452,-4.494198799,1,-1.90665102,1,-8.510271072,1,0.001882577,1,0.00343478,1,0.002178099,1,0.241010472,1,-0.508722842,1,1.065886855,1
0.276005119,-4.507799625,1,-1.878926039,1,-8.504872322,1,0.005250135,1,0.000377125,1,0.000881889,1,0.241014674,1,-0.508720934,1,1.065905809,1
0.280008972,-4.509434223,1,-1.873293638,1,-8.522985458,1,0.004728287,1,0.004225069,1,0.002681771,1,0.241025999,1,-0.50871563,1,1.065915942,1
0.284008712,-4.469739437,1,-1.895560145,1,-8.569663048,1,0.001657288,1,0.004685855,1,0.004248976,1,0.241035759,1,-0.508702517,1,1.065931201,1
0.288010508,-4.48233366,1,-1.896619201,1,-8.539442062,1,0.005897094,1,-0.001697921,1,0.000558156,1,0.241044462,1,-0.508702397,1,1.065946221,1
0.292008191,-4.504724503,1,-1.925086856,1,-8.524808884,1,0.007299602,1,-0.000132647,1,0.004056764,1,0.241052091,1,-0.50869745,1,1.06596303,1
0.296007693,-4.461725235,1,-1.908142328,1,-8.542036057,1,0.005145061,1,0.001414579,1,0.005634752,1,0.241052374,1,-0.508696437,1,1.06598866,1
0.300009459,-4.487773418,1,-1.852180362,1,-8.557599068,1,0.004070753,1,0.00043724,1,0.001609913,1,0.241067916,1,-0.508702457,1,1.066000342,1
0.304007173,-4.457593918,1,-1.881428719,1,-8.535593987,1,0.000348596,1,-0.000453973,1,0.007621447,1,0.241062075,1,-0.508708477,1,1.066019177,1
0.308006912,-4.488904476,1,-1.893991351,1,-8.564685822,1,0.006031599,1,-0.001717995,1,0.004373185,1,0.241069645,1,-0.508712351,1,1.066040158,1
0.312008709,-4.494671822,1,-1.851189494,1,-8.520040512,1,0.005858216,1,0.00206377,1,0.003579086,1,0.241076782,1,-0.508717477,1,1.066065311,1
0.316006392,-4.501044273,1,-1.899603128,1,-8.54113102,1,0.001639896,1,0.000503883,1,0.004439614,1,0.24108398,1,-0.508720875,1,1.066076517,1
0.320006132,-4.471868992,1,-1.88322258,1,-8.550296783,1,0.003897431,1,0.001494577,1,0.00268105,1,0.241092399,1,-0.508720517,1,1.066092491,1
0.32400769,-4.507102013,1,-1.867000461,1,-8.561974525,1,0.003181114,1,-0.003278801,1,0.006413893,1,0.241092578,1,-0.508730352,1,1.066111445,1
0.328005105,-4.47164917,1,-1.837323785,1,-8.518235207,1,0.00438326,1,0.001954565,1,0.001910673,1,0.241098091,1,-0.508730769,1,1.066140294,1
0.332004607,-4.496030331,1,-1.887484074,1,-8.56253624,1,0.007340088,1,0.002047868,1,0.004028233,1,0.241104871,1,-0.508736134,1,1.06615603,1
0.336006135,-4.469150543,1,-1.900010228,1,-8.518340111,1,0.004536435,1,0.000220133,1,0.006067147,1,0.241119772,1,-0.508736134,1,1.0661726,1
0.340003848,-4.493700981,1,-1.898733974,1,-8.568604469,1,0.004086112,1,-0.002024686,1,0.004275,1,0.241122961,1,-0.508745611,1,1.066203713,1
0.34400332,-4.489661694,1,-1.899450064,1,-8.54117012,1,0.002064462,1,-0.004143456,1,0.005826533,1,0.241128221,1,-0.508751869,1,1.066221952,1
0.348004878,-4.512748718,1,-1.842591524,1,-8.547625542,1,0.003821671,1,-0.000227852,1,0.004109999,1,0.241127536,1,-0.508758843,1,1.066248894,1
0.352002561,-4.518155098,1,-1.910079718,1,-8.536593437,1,0.005840433,1,0.004115426,1,0.006255907,1,0.240584835,1,-0.507876277,1,1.066628098,1
0.356002063,-4.48947525,1,-1.876761556,1,-8.530576706,1,0.002713366,1,-0.000162601,1,0.004544373,1,0.240672439,1,-0.507830262,1,1.065936804,1
0.360003591,-4.501718998,1,-1.880818486,1,-8.51265049,1,0.003815769,1,0.005504784,1,0.00523298,1,0.240667656,1,-0.507834494,1,1.065959334,1
0.364001274,-4.498308182,1,-1.867944241,1,-8.529644966,1,0.003877822,1,-0.001386328,1,0.005004806,1,0.240677983,1,-0.507837236,1,1.065981507,1
0.368000776,-4.488726139,1,-1.849247098,1,-8.530416489,1,0.004686048,1,0.001432554,1,0.004962432,1,0.240687326,1,-0.507833242,1,1.065998077,1
0.372002304,-4.499974728,1,-1.849359989,1,-8.58010006,1,0.0057043,1,0.001475182,1,0.005121332,1,0.240687683,1,-0.507837057,1,1.066021204,1
0.375999749,-4.453799725,1,-1.849557281,1,-8.530335426,1,0.009129797,1,0.004037845,1,0.004975322,1,0.24070622,1,-0.507832766,1,1.066037893,1
0.37999922,-4.462055206,1,-1.823708057,1,-8.535342216,1,0.004067189,1,0.001962003,1,0.003500371,1,0.240722343,1,-0.507831573,1,1.066059351,1
0.384000778,-4.479865074,1,-1.855576038,1,-8.532137871,1,0.004381087,1,0.000575773,1,0.005908835,1,0.24073182,1,-0.507820964,1,1.066077352,1
0.387998194,-4.486832142,1,-1.870368361,1,-8.510169983,1,0.005160446,1,0.004446087,1,0.004764346,1,0.240749419,1,-0.507816017,1,1.066088557,1
0.391997963,-4.491806984,1,-1.887563586,1,-8.547780991,1,0.005731612,1,0.001616837,1,0.003814175,1,0.240765691,1,-0.507807016,1,1.066100478,1
0.396005362,-4.495580673,1,-1.883265853,1,-8.524857521,1,0.004242692,1,0.000726202,1,0.002516293,1,0.24077633,1,-0.507805109,1,1.066118956,1
0.400008947,-4.496012211,1,-1.886775613,1,-8.550050735,1,0.002596837,1,-0.000257922,1,-0.002331405,1,0.240789652,1,-0.507806361,1,1.066136718,1
0.404008716,-4.497210979,1,-1.887929797,1,-8.547657967,1,0.004862247,1,0.002965827,1,0.005839517,1,0.240803674,1,-0.507809699,1,1.066152453,1
0.408010244,-4.479537964,1,-1.918397188,1,-8.542341232,1,0.005478301,1,-0.000625843,1,0.002311238,1,0.24081406,1,-0.507808387,1,1.066167593,1
0.412007689,-4.520894051,1,-1.91700983,1,-8.564250946,1,0.004985057,1,-0.000148408,1,0.006348559,1,0.24082607,1,-0.507811487,1,1.06618607,1
0.416007161,-4.473804951,1,-1.866564989,1,-8.515604019,1,0.004612209,1,0.001041649,1,0.003096388,1,0.240835056,1,-0.507805824,1,1.066200376,1
0.420008689,-4.512055397,1,-1.878466845,1,-8.557878494,1,0.003175545,1,0.002276615,1,-0.000248185,1,0.240852818,1,-0.507807016,1,1.066207051,1
0.424006402,-4.481671333,1,-1.854453206,1,-8.566987038,1,0.005372652,1,0.004396765,1,0.002547356,1,0.240858629,1,-0.507802606,1,1.066222906,1
0.428005874,-4.458866596,1,-1.880639195,1,-8.540640831,1,0.003179561,1,-0.001253616,1,0.002652792,1,0.24086608,1,-0.507802248,1,1.066237807,1
0.432007432,-4.478533268,1,-1.897729516,1,-8.549462318,1,0.002878233,1,0.003115002,1,0.003682301,1,0.240875781,1,-0.507794261,1,1.06625104,1
0.436005116,-4.472767353,1,-1.922670722,1,-8.531802177,1,0.002728091,1,0.002464563,1,0.004119835,1,0.240892649,1,-0.5077914,1,1.06626606,1
0.440004617,-4.476727962,1,-1.907628536,1,-8.558551788,1,0.003330914,1,0.001423092,1,0.005600426,1,0.240896583,1,-0.507783592,1,1.06628561,1
0.444006145,-4.52270174,1,-1.896178842,1,-8.523091316,1,0.003365018,1,0.001391059,1,0.003626177,1,0.240891859,1,-0.507774293,1,1.06631124,1
0.448003829,-4.509886742,1,-1.89377749,1,-8.514042854,1,-0.000141697,1,0.003561917,1,0.00788775,1,0.240889803,1,-0.507771075,1,1.066340208,1
0.45200333,-4.49831295,1,-1.881169558,1,-8.521663666,1,0.003521879,1,0.004774502,1,-0.000162045,1,0.240892768,1,-0.507753253,1,1.066355586,1
0.456004858,-4.480714321,1,-1.842126012,1,-8.507113457,1,0.005006501,1,0.008089758,1,0.004701675,1,0.240891889,1,-0.507732213,1,1.066384077,1
0.460002571,-4.506745338,1,-1.839935064,1,-8.5477314,1,0.003525438,1,0.006757686,1,0.002890154,1,0.240900248,1,-0.507714093,1,1.066410184,1
0.464002311,-4.486103058,1,-1.858883977,1,-8.55600071,1,0.005911499,1,0.005315629,1,0.003221381,1,0.240908012,1,-0.507696927,1,1.066430688,1
0.468003839,-4.520339966,1,-1.845890522,1,-8.531039238,1,0.002010166,1,0.007188833,1,0.003642558,1,0.240912348,1,-0.5076738,1,1.066456318,1
0.472001523,-4.463670731,1,-1.882738113,1,-8.502849579,1,0.00648712,1,0.005772363,1,0.002702885,1,0.240918741,1,-0.507651508,1,1.066475749,1
0.476001024,-4.472975254,1,-1.904266119,1,-8.550205231,1,0.003504284,1,0.003420648,1,0.006311727,1,0.240930527,1,-0.507635713,1,1.066495895,1
0.480002552,-4.470450878,1,-1.869244933,1,-8.562664032,1,0.002484328,1,0.006079025,1,0.000628136,1,0.24094364,1,-0.507615805,1,1.066509604,1
0.484000266,-4.471777916,1,-1.87540102,1,-8.553456306,1,0.004542133,1,0.004228444,1,0.001198953,1,0.240955055,1,-0.507600307,1,1.066525221,1
0.488000005,-4.460101604,1,-1.894030333,1,-8.541716576,1,0.00371442,1,0.002559988,1,0.00218168,1,0.240965605,1,-0.507583499,1,1.066543221,1
0.492001534,-4.470242023,1,-1.897529125,1,-8.562614441,1,0.003817394,1,0.005436033,1,0.001315395,1,0.240978688,1,-0.507574558,1,1.0665555,1
0.495999247,-4.468279839,1,-1.877949595,1,-8.542949677,1,0.006130059,1,0.003467309,1,8.99E-05,1,0.240990385,1,-0.507554173,1,1.066559792,1
0.499998987,-4.48084259,1,-1.886301517,1,-8.545184135,1,0.003875815,1,0.0034696,1,0.00309753,1,0.241008222,1,-0.507541478,1,1.066571236,1
0.504000485,-4.503747463,1,-1.89675796,1,-8.540326118,1,0.002085511,1,0.005327804,1,0.002262648,1,0.24101752,1,-0.507528424,1,1.066584468,1
0.507998228,-4.523606777,1,-1.853271842,1,-8.549023628,1,0.003417636,1,0.003467628,1,0.001809912,1,0.241029873,1,-0.507518172,1,1.066600442,1
0.511997938,-4.495565891,1,-1.889131904,1,-8.542384148,1,0.00262742,1,0.001521663,1,0.004697822,1,0.241039574,1,-0.507506549,1,1.066616058,1
0.515999496,-4.469400883,1,-1.885493875,1,-8.521868706,1,0.004812758,1,0.006466939,1,0.003433777,1,0.241052121,1,-0.507483721,1,1.066622734,1
0.520003319,-4.464951515,1,-1.869680524,1,-8.55594635,1,0.002818942,1,0.005433255,1,0.005725241,1,0.24106136,1,-0.507468581,1,1.066638708,1
0.524003088,-4.514099121,1,-1.859519362,1,-8.528390884,1,0.00231229,1,0.005993535,1,-0.004251807,1,0.241069421,1,-0.507450223,1,1.066656709,1
0.528004587,-4.512459278,1,-1.873287439,1,-8.527837753,1,0.006442958,1,0.005906306,1,0.002415228,1,0.241077557,1,-0.507426977,1,1.066667438,1
0.53200233,-4.514908314,1,-1.916991711,1,-8.537973404,1,0.002543176,1,0.004340671,1,-0.002267146,1,0.241087228,1,-0.507406533,1,1.066681504,1
0.53600204,-4.498114586,1,-1.874707818,1,-8.560258865,1,0.002448814,1,0.003992881,1,0.003650295,1,0.241094053,1,-0.507382631,1,1.06668663,1
0.540003836,-4.479578495,1,-1.871460915,1,-8.532604218,1,0.00685345,1,0.00324898,1,0.001931464,1,0.241107062,1,-0.507365167,1,1.06670177,1
0.544002056,-4.465090752,1,-1.855994821,1,-8.540169716,1,0.00332196,1,0.005753998,1,0.002136674,1,0.24111937,1,-0.507345736,1,1.066713929,1
0.548001766,-4.444863319,1,-1.90126574,1,-8.558052063,1,0.004054366,1,0.003722553,1,0.002279817,1,0.241132692,1,-0.507328033,1,1.066728354,1
0.552003324,-4.479673386,1,-1.886491895,1,-8.546175957,1,0.000249001,1,0.001668375,1,0.00169633,1,0.241137892,1,-0.507315874,1,1.066746116,1
0.556001008,-4.470884323,1,-1.886996627,1,-8.526727676,1,0.005504214,1,0.001850592,1,0.000608006,1,0.241144747,1,-0.50730294,1,1.066760778,1
0.560000539,-4.512476921,1,-1.844052315,1,-8.527075768,1,0.007324928,1,0.003871858,1,0.003601058,1,0.241163149,1,-0.507293403,1,1.066773891,1
0.564002573,-4.499642849,1,-1.855501533,1,-8.539039612,1,0.004516456,1,0.00408942,1,0.00206224,1,0.241181672,1,-0.507281005,1,1.066781998,1
0.568000495,-4.464986801,1,-1.876682758,1,-8.529810905,1,0.00784987,1,-0.000894178,1,-0.000911557,1,0.241197973,1,-0.507272601,1,1.066785812,1
0.572000027,-4.488994598,1,-1.884382963,1,-8.541059494,1,0.004585076,1,0.003711209,1,-0.001465986,1,0.241223663,1,-0.507260859,1,1.066792488,1
0.576001763,-4.462553024,1,-1.879255056,1,-8.552942276,1,0.0063026,1,-0.002500384,1,0.001976106,1,0.241244823,1,-0.50724411,1,1.066800833,1
0.579999506,-4.482544422,1,-1.891942859,1,-8.52309227,1,0.008793268,1,0.006656426,1,0.000411453,1,0.241270527,1,-0.507228851,1,1.066807747,1
0.583999217,-4.48643446,1,-1.890540838,1,-8.533810616,1,0.007737178,1,0.004143169,1,0.000477525,1,0.241295591,1,-0.507208943,1,1.066820145,1
0.588001013,-4.525341511,1,-1.890959263,1,-8.53918457,1,0.007783277,1,0.001262238,1,0.006488614,1,0.241311714,1,-0.50719732,1,1.066833019,1
0.591998994,-4.514730453,1,-1.896907568,1,-8.54148674,1,0.006622688,1,0.004946017,1,-3.05E-05,1,0.241326824,1,-0.50717777,1,1.066843867,1
0.595998704,-4.511394978,1,-1.903576851,1,-8.507852554,1,0.003400596,1,0.00398982,1,0.003720773,1,0.241330072,1,-0.507161915,1,1.066860676,1
0.600000501,-4.491209507,1,-1.910658598,1,-8.519088745,1,0.002891566,1,0.006501335,1,0.002141126,1,0.241340384,1,-0.507143021,1,1.066871643,1
0.603998184,-4.458816051,1,-1.913952351,1,-8.53254509,1,0.001392245,1,0.005552794,1,0.003408691,1,0.240882754,1,-0.506215155,1,1.066528201,1
0.607997954,-4.473240376,1,-1.918020248,1,-8.55109024,1,0.002413236,1,0.004068452,1,0.002292784,1,0.240880221,1,-0.506201208,1,1.066545963,1
0.611999512,-4.45013237,1,-1.926183462,1,-8.537928581,1,-0.000931096,1,0.003617498,1,-0.000960377,1,0.240882292,1,-0.506182432,1,1.066556454,1
0.615997195,-4.45634079,1,-1.877293468,1,-8.567947388,1,0.003108103,1,0.004156921,1,0.004779998,1,0.240877718,1,-0.506166518,1,1.066583633,1
0.619996905,-4.415445328,1,-1.889258265,1,-8.57247448,1,0.003235983,1,0.003075065,1,0.003951774,1,0.240873128,1,-0.506146908,1,1.066605568,1
0.623998463,-4.448499203,1,-1.901118517,1,-8.546426773,1,-0.002905702,1,0.001500678,1,0.004161736,1,0.240859702,1,-0.506145179,1,1.066636443,1
0.627996147,-4.443967342,1,-1.880123019,1,-8.543832779,1,-0.000142222,1,0.00290345,1,0.002186604,1,0.240860537,1,-0.506139398,1,1.066655159,1
0.631995618,-4.451317787,1,-1.88138032,1,-8.556624413,1,0.006531701,1,0.00223698,1,0.006862626,1,0.240851194,1,-0.506133199,1,1.066680193,1
0.635996938,-4.4769454,1,-1.882108688,1,-8.545912743,1,-0.001740553,1,0.000277481,1,0.004401268,1,0.240839362,1,-0.506132543,1,1.06670332,1
0.640000522,-4.498278618,1,-1.865417957,1,-8.584975243,1,0.002200888,1,0.000267514,1,0.004947732,1,0.240842208,1,-0.506137609,1,1.066719294,1
0.643999994,-4.477156639,1,-1.859294891,1,-8.521029472,1,0.001551509,1,0.001215653,1,0.004109256,1,0.240837649,1,-0.506136954,1,1.066743016,1
0.648001254,-4.502632141,1,-1.876881838,1,-8.542015076,1,0.002975088,1,-0.00138337,1,0.004782991,1,0.24083221,1,-0.506139815,1,1.06675899,1
0.651998997,-4.465738297,1,-1.904448748,1,-8.556951523,1,0.001617852,1,-0.000336044,1,0.003455122,1,0.24083595,1,-0.506143093,1,1.066780806,1
0.655998468,-4.477575779,1,-1.890260816,1,-8.559254646,1,0.001247659,1,0.004118852,1,0.004684095,1,0.240836516,1,-0.506146073,1,1.066795826,1
0.660000503,-4.447072983,1,-1.888512015,1,-8.546336174,1,0.005460131,1,-0.003014555,1,0.003582426,1,0.240842119,1,-0.506142318,1,1.06682086,1
0.663998485,-4.460663795,1,-1.857603788,1,-8.526627541,1,0.004776458,1,0.000619635,1,0.007132345,1,0.240845025,1,-0.506151199,1,1.066840887,1
0.667997956,-4.488330841,1,-1.868654847,1,-8.553647995,1,0.000397831,1,-0.005562846,1,0.003079637,1,0.240848064,1,-0.506156564,1,1.066862464,1
0.671999514,-4.485619068,1,-1.904258728,1,-8.542933464,1,0.003069408,1,-0.000114104,1,0.00483684,1,0.240849376,1,-0.506166577,1,1.066874266,1
0.6759969,-4.469788074,1,-1.909011126,1,-8.559247017,1,0.002021805,1,-0.000571779,1,0.007091782,1,0.240852728,1,-0.506172419,1,1.06689167,1
0.679996908,-4.477934837,1,-1.913383365,1,-8.517709732,1,0.001491366,1,-0.001593306,1,0.005019851,1,0.240853667,1,-0.506181479,1,1.066915154,1
0.683998466,-4.465113163,1,-1.904881597,1,-8.546877861,1,0.000710813,1,-0.001388574,1,0.001470484,1,0.240854502,1,-0.50619638,1,1.066924691,1
0.687996149,-4.485001564,1,-1.90857017,1,-8.561066628,1,0.001458391,1,-0.00297842,1,0.006007541,1,0.24085632,1,-0.506204069,1,1.066945076,1
0.691995621,-4.482933044,1,-1.858061433,1,-8.534992218,1,0.001295878,1,-0.007243894,1,0.008592985,1,0.240849346,1,-0.506226063,1,1.06696701,1
0.695997179,-4.478564262,1,-1.861658812,1,-8.545020103,1,0.001772282,1,-0.003462045,1,0.002302184,1,0.240851417,1,-0.506253421,1,1.066984296,1
0.699994624,-4.462197781,1,-1.884801269,1,-8.552968979,1,0.005067996,1,-0.003488648,1,0.003400277,1,0.240857258,1,-0.506271839,1,1.066998601,1
0.703994095,-4.44025135,1,-1.889019966,1,-8.524300575,1,0.004992811,1,-0.003275508,1,0.008480119,1,0.240861267,1,-0.50628823,1,1.067019582,1
0.707995653,-4.461613655,1,-1.877806902,1,-8.536617279,1,0.005345488,1,-0.00387713,1,0.006192265,1,0.240869373,1,-0.506311417,1,1.067039609,1
0.711993575,-4.496687889,1,-1.882382035,1,-8.555249214,1,0.005762567,1,-0.001845103,1,0.002461066,1,0.240874529,1,-0.506334186,1,1.067063212,1
0.715993106,-4.482467175,1,-1.907297969,1,-8.5082798,1,0.001522723,1,0.000554215,1,0.006721403,1,0.240888476,1,-0.506352186,1,1.067075372,1
0.719994605,-4.498998642,1,-1.884149432,1,-8.543009758,1,0.003081019,1,-0.00543606,1,0.002336603,1,0.240901053,1,-0.506369531,1,1.067081571,1
0.723992348,-4.482330799,1,-1.885011196,1,-8.534930229,1,0.007013992,1,-0.004645427,1,0.00659238,1,0.240907937,1,-0.506395102,1,1.067104936,1
0.727991819,-4.497389317,1,-1.892968655,1,-8.538002968,1,0.001331431,1,-0.008849431,1,0.005631282,1,0.240915641,1,-0.506423533,1,1.067124963,1
0.731993318,-4.555606842,1,-1.873560786,1,-8.560250282,1,0.003854531,1,-0.002203897,1,0.003737981,1,0.240923777,1,-0.506444991,1,1.067139626,1
0.735991061,-4.462293625,1,-1.908479095,1,-8.516256332,1,0.003251966,1,-0.004337277,1,0.005161486,1,0.240915194,1,-0.506462872,1,1.067165136,1
0.739990532,-4.490219593,1,-1.887644887,1,-8.537672043,1,0.004882483,1,9.51E-06,1,0.005332393,1,0.240922078,1,-0.506478846,1,1.067186594,1
0.743992329,-4.457101345,1,-1.880977035,1,-8.556703568,1,0.005854152,1,0.000566181,1,0.008777596,1,0.240931883,1,-0.506483734,1,1.06720829,1
0.747990251,-4.462079525,1,-1.884634972,1,-8.507065773,1,0.005116876,1,-0.002605082,1,0.00467106,1,0.24093166,1,-0.50649035,1,1.067236185,1
0.751989782,-4.484743595,1,-1.849945664,1,-8.55309391,1,0.000476132,1,-0.002827167,1,0.007047261,1,0.240928963,1,-0.506505609,1,1.067263484,1
0.755991578,-4.50217247,1,-1.888551712,1,-8.539050102,1,0.00212529,1,-0.004357401,1,0.004602645,1,0.240924001,1,-0.506515026,1,1.067289829,1
0.759995162,-4.471680164,1,-1.908042789,1,-8.520813942,1,0.006460711,1,-0.002922409,1,0.00278834,1,0.240926057,1,-0.506534278,1,1.067309976,1
0.763994634,-4.494333744,1,-1.859875441,1,-8.548047066,1,0.001558674,1,-0.003145296,1,0.008246688,1,0.240921363,1,-0.506550372,1,1.067331314,1
0.767996132,-4.503679276,1,-1.89489615,1,-8.530652046,1,0.003012587,1,-0.000375776,1,0.003748364,1,0.240910888,1,-0.506564438,1,1.067358851,1
0.771993876,-4.480790138,1,-1.860097885,1,-8.550679207,1,0.003678536,1,-0.002093413,1,0.003205897,1,0.240913734,1,-0.506575644,1,1.06738174,1
0.775993586,-4.467316628,1,-1.847379684,1,-8.542570114,1,0.005159075,1,-0.000851123,1,0.005260541,1,0.240917265,1,-0.506587863,1,1.067401052,1
0.779995143,-4.487421989,1,-1.878788114,1,-8.553893089,1,0.00451042,1,-0.003144622,1,0.003378434,1,0.240923777,1,-0.506601393,1,1.067426801,1
0.783992827,-4.500696182,1,-1.875486851,1,-8.555467606,1,0.00479239,1,-0.002785058,1,0.007595984,1,0.240929499,1,-0.506611586,1,1.067450404,1
0.787992597,-4.505734444,1,-1.880880117,1,-8.542683601,1,0.006812891,1,-0.000824613,1,0.006597373,1,0.240939826,1,-0.50662297,1,1.067472816,1
0.791994393,-4.473352909,1,-1.873182178,1,-8.53695488,1,0.006817102,1,-0.005276971,1,0.003548888,1,0.240954056,1,-0.506630361,1,1.067498446,1
0.795992315,-4.484416008,1,-1.881242394,1,-8.562922478,1,0.007640865,1,0.000507608,1,0.002197195,1,0.240965888,1,-0.506635427,1,1.067515492,1
0.799992085,-4.479615688,1,-1.868613005,1,-8.528563499,1,0.008962714,1,-0.001206557,1,0.003386971,1,0.240993455,1,-0.506644011,1,1.067529798,1
0.803993881,-4.459854603,1,-1.873357773,1,-8.549854279,1,0.010711132,1,-0.002048162,1,0.001457682,1,0.241016641,1,-0.506644905,1,1.06754458,1
0.807991803,-4.470765114,1,-1.900498629,1,-8.540894508,1,0.008320789,1,0.002180997,1,0.003852912,1,0.241041288,1,-0.506657004,1,1.067560554,1
0.811991572,-4.465844154,1,-1.913511276,1,-8.540089607,1,0.005251459,1,-0.001070464,1,0.004993134,1,0.241058752,1,-0.506661892,1,1.06758213,1
0.815993071,-4.478803635,1,-1.915066719,1,-8.525178909,1,0.004442413,1,-0.00481259,1,0.003233386,1,0.241069645,1,-0.506678879,1,1.067598939,1
0.819991052,-4.473789692,1,-1.920106769,1,-8.554128647,1,0.005858562,1,-0.003570207,1,0.004910433,1,0.241086259,1,-0.506691933,1,1.06761992,1
0.823990762,-4.457708359,1,-1.904692173,1,-8.552007675,1,0.005286496,1,-0.005197831,1,0.003654638,1,0.241091669,1,-0.506711781,1,1.067645907,1
0.82799232,-4.46389389,1,-1.890944719,1,-8.545173645,1,0.005837365,1,-0.004650412,1,0.007009103,1,0.241099864,1,-0.506727457,1,1.067667961,1
0.831990302,-4.486727715,1,-1.899093509,1,-8.5439291,1,0.005983466,1,-0.001482651,1,0.005880029,1,0.241107881,1,-0.506748319,1,1.067688704,1
0.835990012,-4.502957821,1,-1.923456073,1,-8.553344727,1,0.00638017,1,-0.003569643,1,0.006752884,1,0.241104841,1,-0.506766856,1,1.067720294,1
0.839992046,-4.483990669,1,-1.871883988,1,-8.56145668,1,0.001648305,1,-0.001813645,1,0.005196569,1,0.241101533,1,-0.506783605,1,1.06774509,1
0.843990028,-4.473038673,1,-1.88248837,1,-8.549484253,1,0.001854071,1,-0.005133837,1,0.00716837,1,0.241094366,1,-0.506803036,1,1.067774773,1
0.8479895,-4.477897644,1,-1.843009114,1,-8.529407501,1,-0.000110411,1,-0.00053059,1,0.003979691,1,0.241095707,1,-0.506818473,1,1.067801356,1
0.851991296,-4.485116482,1,-1.847334146,1,-8.539195061,1,0.004113864,1,-0.005017857,1,0.002942209,1,0.240576014,1,-0.505984247,1,1.068176627,1
0.855988979,-4.477248192,1,-1.873685718,1,-8.548085213,1,0.002020293,1,-0.003207947,1,0.009551244,1,0.240664318,1,-0.505957842,1,1.067478299,1
0.859988213,-4.490115166,1,-1.891614676,1,-8.546951294,1,0.004734818,1,-0.007009307,1,0.003700392,1,0.240670323,1,-0.505978227,1,1.06750524,1
0.86398977,-4.480692863,1,-1.876911998,1,-8.510907173,1,0.000801276,1,-0.000891551,1,0.004596015,1,0.240680113,1,-0.50599736,1,1.067524195,1
0.867987454,-4.474747658,1,-1.884508014,1,-8.525159836,1,0.004306913,1,-0.002321812,1,0.006793253,1,0.240680382,1,-0.506022155,1,1.067550302,1
0.871987224,-4.50686264,1,-1.916141629,1,-8.560606956,1,0.000678919,1,-0.001739354,1,0.00456699,1,0.240692213,1,-0.506031811,1,1.067569733,1
0.875988722,-4.512417316,1,-1.86653769,1,-8.541089058,1,0.006125965,1,-0.004801553,1,0.003854721,1,0.240693927,1,-0.506056547,1,1.067593694,1
0.879992068,-4.49739027,1,-1.912423849,1,-8.546361923,1,0.008844135,1,-0.000294231,1,0.003254712,1,0.240702823,1,-0.506072462,1,1.067610264,1
0.883991539,-4.502864838,1,-1.91503334,1,-8.515649796,1,0.00313725,1,-0.005289364,1,0.004283685,1,0.240707129,1,-0.506087005,1,1.067625046,1
0.887993097,-4.483693123,1,-1.902548909,1,-8.54209137,1,0.00274735,1,-0.003241135,1,0.006315641,1,0.240714043,1,-0.506101787,1,1.067648768,1
0.891990781,-4.469320774,1,-1.876631975,1,-8.577385902,1,0.000962326,1,-0.00378486,1,0.0017815,1,0.240721673,1,-0.506123364,1,1.067665219,1
0.895990252,-4.443319321,1,-1.883348107,1,-8.549881935,1,0.006170331,1,-0.001942316,1,0.00560521,1,0.240724683,1,-0.506136656,1,1.067684174,1
0.89999181,-4.4581604,1,-1.876169086,1,-8.521058083,1,0.003264021,1,-0.001084008,1,0.004359742,1,0.240746602,1,-0.506148696,1,1.067702889,1
0.903989494,-4.440233231,1,-1.861938119,1,-8.553949356,1,0.011327025,1,-0.003347755,1,0.005635915,1,0.240759939,1,-0.506163001,1,1.067726374,1
0.907988966,-4.47055912,1,-1.870300174,1,-8.541935921,1,0.006401386,1,-0.00282891,1,0.005843831,1,0.240781769,1,-0.506182134,1,1.067745447,1
0.911990523,-4.488443375,1,-1.865833282,1,-8.544373512,1,0.005321976,1,-0.005027728,1,0.005358037,1,0.240792096,1,-0.506199837,1,1.067763805,1
0.915988207,-4.496832371,1,-1.886177659,1,-8.560305595,1,0.005995008,1,-0.00522899,1,0.000369592,1,0.240807861,1,-0.506227136,1,1.067783713,1
0.919987738,-4.464940548,1,-1.870885134,1,-8.54387188,1,0.006788817,1,-0.005667817,1,0.00593509,1,0.240819126,1,-0.506250381,1,1.067799926,1
0.923989236,-4.473194599,1,-1.90147543,1,-8.573950768,1,0.004060521,1,-0.004804775,1,0.004556717,1,0.240844488,1,-0.506271124,1,1.067809701,1
0.92798692,-4.514387608,1,-1.886627674,1,-8.533975601,1,0.007781667,1,-0.006190489,1,0.003828161,1,0.240857765,1,-0.50628823,1,1.067820787,1
0.931986451,-4.483620167,1,-1.846718431,1,-8.549036026,1,0.007199264,1,-0.001032653,1,0.00189033,1,0.240888521,1,-0.506312549,1,1.067825794,1
0.935988247,-4.45851469,1,-1.872920275,1,-8.521650314,1,0.008605586,1,-0.002344186,1,0.006808922,1,0.240910038,1,-0.506337106,1,1.067839861,1
0.939985931,-4.510081291,1,-1.875177741,1,-8.533049583,1,0.003021177,1,-0.006242469,1,0.003389509,1,0.240931854,1,-0.506357372,1,1.067847133,1
0.943985164,-4.481217861,1,-1.896277905,1,-8.536988258,1,0.008539013,1,-0.005404878,1,0.00141968,1,0.240950987,1,-0.506370723,1,1.067860603,1
0.947986662,-4.500966549,1,-1.888416529,1,-8.52856636,1,0.006859393,1,-0.003816746,1,0.005261792,1,0.240970269,1,-0.506392658,1,1.067869306,1
0.951984406,-4.525826454,1,-1.926334023,1,-8.534151077,1,0.004992425,1,-0.001475912,1,0.005227526,1,0.240989596,1,-0.506407261,1,1.067882299,1
0.955983877,-4.491270542,1,-1.8893857,1,-8.53246212,1,0.003686491,1,-0.001794611,1,0.005620167,1,0.2409973,1,-0.5064165,1,1.067900777,1
0.959985435,-4.499201298,1,-1.914790273,1,-8.528884888,1,0.004436511,1,-0.00389702,1,0.002813078,1,0.241003335,1,-0.506429136,1,1.06791079,1
0.963982821,-4.481040478,1,-1.900162697,1,-8.564389229,1,0.00403739,1,-0.002127593,1,0.003023711,1,0.24101004,1,-0.506449878,1,1.067923665,1
0.96798259,-4.494113445,1,-1.860182166,1,-8.523080826,1,0.001066701,1,-0.000976991,1,0.004817775,1,0.241017923,1,-0.506456256,1,1.067945957,1
0.971984386,-4.459362984,1,-1.844721675,1,-8.544258118,1,0.00598878,1,-0.000285244,1,0.006770388,1,0.241019577,1,-0.506475031,1,1.067963123,1
0.97598207,-4.50027132,1,-1.854435921,1,-8.521726608,1,0.001500763,1,-0.000863667,1,0.00222594,1,0.241019741,1,-0.506479383,1,1.067978024,1
0.979981542,-4.493854046,1,-1.870268583,1,-8.532193184,1,0.001589709,1,0.000714311,1,0.002725414,1,0.241023138,1,-0.506488562,1,1.067997217,1
0.983983099,-4.501861095,1,-1.889023423,1,-8.520327568,1,0.005901578,1,-0.001095228,1,0.00423563,1,0.241036132,1,-0.50649786,1,1.06801486,1
0.987980545,-4.481051445,1,-1.891201615,1,-8.51924324,1,0.00331372,1,0.000137824,1,0.004745744,1,0.241043448,1,-0.506501377,1,1.06803298,1
0.991980016,-4.508489132,1,-1.859911561,1,-8.529522896,1,-0.000218798,1,0.003498605,1,0.003227397,1,0.241050079,1,-0.506506383,1,1.068053961,1
0.995981574,-4.503745079,1,-1.870441914,1,-8.52890873,1,0.005258892,1,-0.002955054,1,0.00428617,1,0.241053998,1,-0.506504536,1,1.06806922,1
0.999985158,-4.447999001,1,-1.887158394,1,-8.548356056,1,0.002029621,1,0.001080065,1,0.002530097,1,0.241065606,1,-0.506506205,1,1.068082452,1
1.00398469,-4.449793816,1,-1.862831116,1,-8.519861221,1,0.007333105,1,9.65E-05,1,0.003229758,1,0.24107562,1,-0.506514847,1,1.068101883,1
1.007986188,-4.464080811,1,-1.891579151,1,-8.532295227,1,0.003732839,1,-0.002645474,1,0.003063504,1,0.241079003,1,-0.506524146,1,1.068125606,1
1.011983871,-4.456553936,1,-1.90399611,1,-8.537896156,1,-0.001129629,1,-0.002106152,1,0.003825889,1,0.241085485,1,-0.506533325,1,1.068141937,1
1.015983343,-4.480491638,1,-1.909071326,1,-8.539263725,1,0.003916052,1,-0.00058847,1,0.005629341,1,0.24108839,1,-0.506541014,1,1.068152547,1
1.019984841,-4.470573425,1,-1.912576556,1,-8.532702446,1,0.00879485,1,-0.001966484,1,0.003774504,1,0.241100773,1,-0.506553829,1,1.068173885,1
1.023982644,-4.505674839,1,-1.89293921,1,-8.538722992,1,0.004508852,1,-0.001077089,1,0.003765513,1,0.241113007,1,-0.506566763,1,1.068184972,1
1.027982116,-4.485687256,1,-1.865954161,1,-8.521183014,1,0.005609956,1,-0.001713523,1,0.006248353,1,0.241113961,1,-0.506574094,1,1.068205118,1
1.031983614,-4.471153736,1,-1.88288939,1,-8.546640396,1,0.004490297,1,0.002977285,1,0.006278761,1,0.241115764,1,-0.506575465,1,1.068228602,1
1.035981297,-4.483782291,1,-1.882560015,1,-8.526683807,1,0.005832114,1,0.003087286,1,0.00369019,1,0.241122812,1,-0.506577611,1,1.068245649,1
1.039980531,-4.517968178,1,-1.858426809,1,-8.513741493,1,0.006026742,1,0.001196688,1,0.0007054,1,0.241143689,1,-0.506578803,1,1.068258882,1
1.043982029,-4.499677181,1,-1.87846148,1,-8.533325195,1,0.007615945,1,0.003247977,1,0.005360621,1,0.241157174,1,-0.506577075,1,1.068272591,1
1.047979832,-4.504756451,1,-1.914567709,1,-8.531778336,1,0.004111691,1,0.002069852,1,0.000527111,1,0.24117057,1,-0.506563723,1,1.068291426,1
1.051979065,-4.489576817,1,-1.894617677,1,-8.558839798,1,0.004282229,1,-0.000410493,1,0.003060084,1,0.241181582,1,-0.506566167,1,1.068305612,1
1.055980802,-4.448084831,1,-1.898951054,1,-8.561103821,1,0.009349126,1,0.002367464,1,0.002322292,1,0.241194338,1,-0.506561458,1,1.06831646,1
1.059978724,-4.448683262,1,-1.917194963,1,-8.540877342,1,0.003981533,1,-0.001622907,1,0.003958669,1,0.241211489,1,-0.506571829,1,1.068326473,1
1.063978195,-4.425930023,1,-1.925032258,1,-8.55670929,1,0.00322846,1,0.000635598,1,0.003019251,1,0.241212934,1,-0.506577075,1,1.06834507,1
1.067979813,-4.475208759,1,-1.891456127,1,-8.550168037,1,0.002603747,1,-0.005414952,1,0.004967982,1,0.241218969,1,-0.506593168,1,1.068355918,1
1.071977258,-4.492427349,1,-1.918302774,1,-8.559007645,1,0.000717285,1,-0.006402569,1,0.003601416,1,0.241216779,1,-0.506608188,1,1.068366051,1
1.075976729,-4.481424332,1,-1.872378826,1,-8.538675308,1,0.000910922,1,-0.000822955,1,0.004574564,1,0.241223231,1,-0.506631553,1,1.068379045,1
1.079978228,-4.506252766,1,-1.886261106,1,-8.535676003,1,0.000271785,1,-0.003625016,1,0.006126086,1,0.241221383,1,-0.506651163,1,1.068397164,1
1.083975673,-4.47363472,1,-1.881091356,1,-8.561162949,1,0.000391751,1,-0.00226084,1,0.00145745,1,0.241215289,1,-0.506661236,1,1.068418384,1
1.087975144,-4.475595474,1,-1.869399071,1,-8.56696701,1,-6.48E-05,1,-0.004177009,1,0.00809443,1,0.241220325,1,-0.506681681,1,1.068437696,1
1.091976762,-4.497415543,1,-1.86030519,1,-8.535007477,1,0.001430952,1,-0.002423046,1,0.006227481,1,0.241220385,1,-0.506703019,1,1.068459392,1
1.095974684,-4.48653698,1,-1.912185788,1,-8.563322067,1,0.000156086,1,-0.002686272,1,0.004912633,1,0.241212249,1,-0.506711483,1,1.068486452,1
1.099974155,-4.479012489,1,-1.903884292,1,-8.546059608,1,-0.000778575,1,-0.004128683,1,0.004832636,1,0.241203636,1,-0.506723523,1,1.068506479,1
1.103975654,-4.488417149,1,-1.859406114,1,-8.529842377,1,0.002795033,1,0.001264404,1,0.004480478,1,0.240763813,1,-0.505841494,1,1.06816566,1
1.107973337,-4.488800526,1,-1.899322271,1,-8.534092903,1,0.0002419,1,-0.00433232,1,0.005582989,1,0.240757897,1,-0.505856156,1,1.068186283,1
1.111972809,-4.49884367,1,-1.858168364,1,-8.542262077,1,0.001622089,1,-0.000536848,1,0.004130333,1,0.240748271,1,-0.505866468,1,1.068214178,1
1.115974188,-4.51553297,1,-1.840345144,1,-8.540990829,1,0.004951793,1,0.001518577,1,0.006641025,1,0.240749925,1,-0.505870402,1,1.068234921,1
1.119977713,-4.475540638,1,-1.840525866,1,-8.531172752,1,0.005720871,1,-0.001238111,1,0.001655982,1,0.240762696,1,-0.505885899,1,1.068246722,1
1.123977184,-4.488258362,1,-1.843208671,1,-8.520289421,1,0.005191007,1,-0.001878433,1,0.002846938,1,0.240773767,1,-0.505889833,1,1.068261623,1
1.127978802,-4.50252676,1,-1.861079931,1,-8.528841972,1,0.004430638,1,0.001722848,1,0.004223123,1,0.240794718,1,-0.505891919,1,1.068275452,1
1.131976485,-4.506528378,1,-1.830795527,1,-8.545845032,1,0.007137618,1,0.001130501,1,0.004827369,1,0.24081333,1,-0.505897105,1,1.068282127,1
1.135975957,-4.498385906,1,-1.843524337,1,-8.527277946,1,0.007237841,1,0.001146276,1,-0.001336791,1,0.240840584,1,-0.505894065,1,1.068292499,1
1.139977455,-4.496520996,1,-1.851498961,1,-8.539578438,1,0.009080263,1,0.003955315,1,0.00396841,1,0.240866899,1,-0.505890429,1,1.068303466,1
1.143975139,-4.511993408,1,-1.855845094,1,-8.539011002,1,0.010435225,1,0.002457567,1,0.002587487,1,0.240896896,1,-0.505887151,1,1.06831181,1
1.147974372,-4.442346573,1,-1.836054564,1,-8.529677391,1,0.005872962,1,0.003759253,1,0.003378909,1,0.240922496,1,-0.505880237,1,1.06832552,1
1.151975989,-4.474560738,1,-1.861116052,1,-8.541338921,1,0.009323847,1,0.002634843,1,-0.001273593,1,0.240952626,1,-0.505877793,1,1.068338633,1
1.155973434,-4.492797852,1,-1.866176605,1,-8.550274849,1,0.010341357,1,0.00175353,1,0.000985194,1,0.240982533,1,-0.505871832,1,1.068348289,1
1.159973145,-4.486751556,1,-1.869415522,1,-8.556247711,1,0.00806488,1,-0.002070874,1,0.000328228,1,0.241020307,1,-0.50587815,1,1.068342566,1
1.163974643,-4.471040726,1,-1.925628185,1,-8.55975914,1,0.007251665,1,0.003117466,1,0.003933279,1,0.241058007,1,-0.505874157,1,1.068355203,1
1.167972326,-4.484488964,1,-1.945777535,1,-8.532473564,1,0.004161219,1,-0.002789549,1,0.006673037,1,0.241075248,1,-0.505878985,1,1.068379402,1
1.171971798,-4.492117405,1,-1.952588916,1,-8.541874886,1,0.006525403,1,-0.000382005,1,0.002596637,1,0.241089195,1,-0.505879223,1,1.068396211,1
1.175973415,-4.466181278,1,-1.931479692,1,-8.538179398,1,0.003726334,1,0.000632239,1,0.005632086,1,0.241104841,1,-0.505877674,1,1.068413615,1
1.17997086,-4.517418861,1,-1.889521837,1,-8.525578499,1,0.007262765,1,0.000855778,1,0.00278565,1,0.241112605,1,-0.505881786,1,1.068436027,1
1.183970332,-4.459819317,1,-1.887014508,1,-8.531205177,1,0.004216491,1,0.003323832,1,0.00341389,1,0.241118893,1,-0.505880654,1,1.068456054,1
1.18797183,-4.480351925,1,-1.897458315,1,-8.530341148,1,0.002708738,1,0.000498944,1,0.005738656,1,0.241122812,1,-0.505883276,1,1.068475723,1
1.191969514,-4.495024204,1,-1.887049198,1,-8.538743019,1,0.000765917,1,-0.000952037,1,0.003591921,1,0.241124466,1,-0.505886018,1,1.068491697,1
1.195968986,-4.494292259,1,-1.881724715,1,-8.533670425,1,0.006687911,1,0.001519509,1,0.005205959,1,0.241138458,1,-0.505883455,1,1.068499088,1
1.199970603,-4.476150513,1,-1.872953773,1,-8.54343605,1,0.005216526,1,-0.000973718,1,0.004117794,1,0.241139054,1,-0.505891323,1,1.068522811,1
1.203968287,-4.506490707,1,-1.851826668,1,-8.544348717,1,0.006029581,1,0.000635379,1,0.001870982,1,0.241148308,1,-0.505894363,1,1.068537593,1
1.207967758,-4.477482319,1,-1.880122781,1,-8.520945549,1,0.003405701,1,0.000322092,1,0.004320351,1,0.241160169,1,-0.505897641,1,1.068556428,1
1.211969256,-4.49476099,1,-1.887473345,1,-8.530486107,1,0.00452378,1,-0.001691612,1,0.00275753,1,0.241165549,1,-0.50589776,1,1.068576932,1
1.215966702,-4.507435322,1,-1.855311513,1,-8.533910751,1,0.003893429,1,1.68E-05,1,0.004918665,1,0.241171598,1,-0.505904198,1,1.06859684,1
1.219966173,-4.510117054,1,-1.878813267,1,-8.532263756,1,0.004996482,1,-0.002913644,1,0.004213456,1,0.241181552,1,-0.50591445,1,1.068618059,1
1.223968029,-4.491219997,1,-1.880785942,1,-8.532012939,1,0.003051376,1,0.001124082,1,0.006564969,1,0.241190404,1,-0.505922258,1,1.068634748,1
1.227965713,-4.503905773,1,-1.909908414,1,-8.548652649,1,0.006489873,1,-0.003075017,1,0.002887554,1,0.241188303,1,-0.505925119,1,1.068656802,1
1.231965184,-4.494273663,1,-1.928818345,1,-8.515403748,1,0.002145505,1,0.000814856,1,0.006758752,1,0.241199136,1,-0.505930901,1,1.068678617,1
1.235966682,-4.481670856,1,-1.920894504,1,-8.543169022,1,0.005633488,1,-0.003152801,1,0.005567003,1,0.241201207,1,-0.505942643,1,1.06870079,1
1.239970088,-4.475059986,1,-1.875897646,1,-8.566993713,1,0.002330891,1,0.001683259,1,0.007320413,1,0.241204113,1,-0.505947232,1,1.068715334,1
1.243969321,-4.49177599,1,-1.885864377,1,-8.549362183,1,-0.000225808,1,0.002093645,1,0.004009901,1,0.24119775,1,-0.505951345,1,1.06873858,1
1.247971058,-4.474988937,1,-1.879368067,1,-8.519698143,1,-0.001474558,1,-0.001069251,1,0.004358981,1,0.241198078,1,-0.505952656,1,1.068759322,1
1.251968741,-4.526338577,1,-1.896434903,1,-8.552517891,1,0.006641911,1,0.001968526,1,0.000463466,1,0.241205588,1,-0.505954683,1,1.06877017,1
1.255968571,-4.502692223,1,-1.864951968,1,-8.519199371,1,0.001752067,1,-0.001842384,1,0.003455368,1,0.241212025,1,-0.505956769,1,1.06878984,1
1.259964108,-4.468523502,1,-1.859404087,1,-8.544465065,1,0.004141191,1,0.002323376,1,0.003140138,1,0.24122104,1,-0.505956173,1,1.068804145,1
1.263961554,-4.484092712,1,-1.873445272,1,-8.555223465,1,0.005061173,1,-0.002688449,1,0.003905035,1,0.24122107,1,-0.505955279,1,1.068826675,1
1.267961144,-4.469544888,1,-1.847467542,1,-8.521865845,1,0.005899907,1,0.001582274,1,-0.000783825,1,0.241248086,1,-0.505957365,1,1.068833947,1
1.271962643,-4.487634182,1,-1.873770714,1,-8.523467064,1,0.003757847,1,-0.002013336,1,0.001754407,1,0.241266161,1,-0.505962849,1,1.068845987,1
1.275960326,-4.500689983,1,-1.877008557,1,-8.51601696,1,0.007208024,1,-0.000799504,1,0.004259351,1,0.24128899,1,-0.505972803,1,1.068852782,1
1.279960036,-4.489120483,1,-1.826391339,1,-8.519809723,1,0.006392379,1,0.002473683,1,0.004458214,1,0.241314217,1,-0.505975962,1,1.068867922,1
1.283961654,-4.499854565,1,-1.822137117,1,-8.522954941,1,0.005569447,1,-0.00015538,1,-0.001352398,1,0.241344482,1,-0.505978405,1,1.068871975,1
1.287959337,-4.483859539,1,-1.842915893,1,-8.503919601,1,0.009632874,1,0.001804967,1,0.004863712,1,0.241380572,1,-0.505974531,1,1.068875074,1
1.291958809,-4.482492447,1,-1.848957419,1,-8.561513901,1,0.011252045,1,-0.000994888,1,0.002565079,1,0.241421312,1,-0.50597477,1,1.068875432,1
1.295954466,-4.458238602,1,-1.875563622,1,-8.528707504,1,0.012113938,1,0.00356891,1,0.001049138,1,0.241459563,1,-0.505978882,1,1.068881631,1
1.299951911,-4.493002892,1,-1.884101033,1,-8.557222366,1,0.010308539,1,3.18E-05,1,-0.001378035,1,0.241506115,1,-0.505980372,1,1.068880558,1
1.303951383,-4.470549107,1,-1.888921261,1,-8.523916245,1,0.008509941,1,0.000956672,1,0.001372419,1,0.24153702,1,-0.50597924,1,1.068895102,1
1.307947278,-4.492125034,1,-1.866462111,1,-8.529933929,1,0.011842721,1,0.001104336,1,-0.000632743,1,0.241581187,1,-0.505974531,1,1.068892598,1
1.311944723,-4.453127861,1,-1.859975934,1,-8.5148592,1,0.007712543,1,0.000129752,1,-0.000832631,1,0.241624609,1,-0.50597465,1,1.068893313,1
1.315944195,-4.467022896,1,-1.857006073,1,-8.527114868,1,0.014121915,1,-0.000337527,1,0.002979493,1,0.241668195,1,-0.505973935,1,1.068903446,1
1.319939852,-4.464488983,1,-1.827322245,1,-8.502155304,1,0.01176331,1,-0.002220218,1,0.000938798,1,0.241726205,1,-0.505974889,1,1.068897009,1
1.323937297,-4.480714798,1,-1.80375433,1,-8.544530869,1,0.016608087,1,-0.001359822,1,0.000342046,1,0.241785452,1,-0.505979359,1,1.06889081,1
1.327936769,-4.483068466,1,-1.826195717,1,-8.524557114,1,0.014697266,1,0.003096699,1,-0.00034163,1,0.241853148,1,-0.5059793,1,1.068890691,1
1.331932425,-4.444205761,1,-1.822234392,1,-8.541909218,1,0.022394536,1,-0.001706791,1,0.000360461,1,0.241922855,1,-0.505978763,1,1.068887949,1
1.335929871,-4.461942673,1,-1.825476527,1,-8.531099319,1,0.025967987,1,-0.000904081,1,-0.002547605,1,0.242015958,1,-0.505976796,1,1.068884254,1
1.339929342,-4.459283352,1,-1.825559616,1,-8.55502224,1,0.030738579,1,-0.00201467,1,0.006508879,1,0.242137015,1,-0.505981445,1,1.068893313,1
1.343924999,-4.481601238,1,-1.819237232,1,-8.502953529,1,0.045322064,1,-0.005711635,1,0.01360932,1,0.242279753,1,-0.505998015,1,1.068922758,1
1.347922444,-4.44560957,1,-1.869984269,1,-8.50554657,1,0.058181327,1,-0.00253018,1,0.021041496,1,0.242449641,1,-0.506020129,1,1.068990827,1
1.351921916,-4.494750023,1,-1.805981755,1,-8.468034744,1,0.059262414,1,-0.004245558,1,0.021586901,1,0.242075279,1,-0.50524348,1,1.069461226,1
1.355923414,-4.507351398,1,-1.86685133,1,-8.477399826,1,0.063381568,1,-0.001777194,1,0.025096457,1,0.242356434,1,-0.505230606,1,1.068842411,1
1.359927297,-4.498272896,1,-1.845012784,1,-8.495274544,1,0.067778476,1,0.005596902,1,0.023281317,1,0.242570162,1,-0.505243003,1,1.068955541,1
1.363927007,-4.534059048,1,-1.827127218,1,-8.494668007,1,0.066548809,1,0.006100747,1,0.020198241,1,0.242783442,1,-0.505240321,1,1.069057107,1
1.367922664,-4.530165195,1,-1.791594863,1,-8.494824409,1,0.064824142,1,0.005686882,1,0.016397133,1,0.243008524,1,-0.505230248,1,1.069137216,1
1.371920109,-4.470929623,1,-1.834125757,1,-8.513557434,1,0.066089459,1,0.007313361,1,0.016479671,1,0.243229955,1,-0.505215228,1,1.069215417,1
1.37591958,-4.480754375,1,-1.897336364,1,-8.515647888,1,0.063379236,1,0.011506,1,0.008672982,1,0.243458673,1,-0.50519073,1,1.06927526,1
1.379914999,-4.47900486,1,-1.88157177,1,-8.536677361,1,0.063640811,1,0.010383445,1,0.003786202,1,0.243696779,1,-0.505148113,1,1.069316387,1
1.383912683,-4.489972115,1,-1.855911613,1,-8.540917397,1,0.061767869,1,0.009838282,1,-0.000903163,1,0.24393408,1,-0.505106509,1,1.069338322,1
1.387912154,-4.477147579,1,-1.798589706,1,-8.548682213,1,0.062617712,1,0.01094555,1,-0.004684287,1,0.244180202,1,-0.505063415,1,1.069339395,1
1.39190805,-4.467278004,1,-1.841075063,1,-8.542534828,1,0.065348223,1,0.010513416,1,-0.004788286,1,0.24443996,1,-0.505021632,1,1.069324017,1
1.395905495,-4.46628952,1,-1.846471429,1,-8.573554993,1,0.064375713,1,0.005794777,1,-0.015005397,1,0.244715035,1,-0.504986465,1,1.069276571,1
1.399904966,-4.448721409,1,-1.845511079,1,-8.587197304,1,0.066873603,1,0.006179157,1,-0.014815757,1,0.244999275,1,-0.504952013,1,1.069226742,1
1.403900623,-4.460731506,1,-1.880380154,1,-8.558965683,1,0.069616035,1,0.00371164,1,-0.016708681,1,0.245307162,1,-0.504918635,1,1.069144607,1
1.407898068,-4.467664242,1,-1.915758133,1,-8.548784256,1,0.064826146,1,0.00131101,1,-0.018673128,1,0.245606199,1,-0.504890263,1,1.069068313,1
1.411898136,-4.512626171,1,-1.89812839,1,-8.527170181,1,0.061387971,1,0.004564888,1,-0.01690999,1,0.245891094,1,-0.504862428,1,1.068995476,1
1.415894032,-4.519742012,1,-1.930066466,1,-8.516168594,1,0.06784153,1,0.006824438,1,-0.019043244,1,0.246203169,1,-0.504825652,1,1.068917036,1
1.419891477,-4.526869297,1,-1.911610007,1,-8.495229721,1,0.070219494,1,0.002650042,1,-0.019309066,1,0.246516138,1,-0.504791141,1,1.068836927,1
1.423891187,-4.525730133,1,-1.922301173,1,-8.458025932,1,0.074131697,1,0.008394391,1,-0.018010911,1,0.246840745,1,-0.504754841,1,1.06876862,1
1.427886844,-4.495390892,1,-1.896768689,1,-8.463504791,1,0.071920842,1,0.00700247,1,-0.019847378,1,0.247165129,1,-0.504705369,1,1.068699002,1
1.431884289,-4.512482166,1,-1.903485775,1,-8.445257187,1,0.074602172,1,0.006136257,1,-0.01809236,1,0.247496143,1,-0.504657805,1,1.068633199,1
1.435883999,-4.510585785,1,-1.934266448,1,-8.442982674,1,0.074002318,1,0.016251406,1,-0.019728197,1,0.247828946,1,-0.504596829,1,1.068557501,1
1.439879656,-4.454146385,1,-1.909442425,1,-8.479105949,1,0.071351752,1,0.013706845,1,-0.023703216,1,0.248162374,1,-0.504525125,1,1.068487883,1
1.443877339,-4.504570484,1,-1.934022188,1,-8.499267578,1,0.070156768,1,0.015481975,1,-0.019725442,1,0.248481393,1,-0.504447877,1,1.068414569,1
1.447877169,-4.45831871,1,-1.933367133,1,-8.468018532,1,0.069721483,1,0.015369172,1,-0.0209691,1,0.248800054,1,-0.504363656,1,1.068336606,1
1.451872826,-4.43924427,1,-1.905472398,1,-8.52115345,1,0.069782406,1,0.013520376,1,-0.0239546,1,0.249114588,1,-0.504278302,1,1.068255901,1
1.455870509,-4.529808998,1,-1.955664396,1,-8.511616707,1,0.065033607,1,0.020052649,1,-0.024722174,1,0.249426574,1,-0.504193008,1,1.068173766,1
1.459870219,-4.429412365,1,-2.012291193,1,-8.527636528,1,0.064922556,1,0.016019678,1,-0.019917728,1,0.249735281,1,-0.50409323,1,1.068089604,1
1.463866115,-4.484711647,1,-1.976997018,1,-8.598078728,1,0.061988495,1,0.020113138,1,-0.02306891,1,0.250033885,1,-0.504009306,1,1.068001747,1
1.467863798,-4.50613451,1,-1.998092651,1,-8.56688118,1,0.063710973,1,0.017983342,1,-0.025407499,1,0.250331879,1,-0.503909051,1,1.067907691,1
1.471863508,-4.503640175,1,-2.058251143,1,-8.57924366,1,0.058760379,1,0.019575004,1,-0.022900596,1,0.250615358,1,-0.503816783,1,1.067828298,1
1.475859404,-4.505930424,1,-2.088235855,1,-8.540380478,1,0.054311361,1,0.020722933,1,-0.022065185,1,0.250884354,1,-0.503717721,1,1.067750812,1
1.479863048,-4.491485119,1,-2.091789722,1,-8.526509285,1,0.051037636,1,0.019780291,1,-0.016983323,1,0.251132011,1,-0.503622055,1,1.067681789,1
1.483862758,-4.478545189,1,-2.090492487,1,-8.526924133,1,0.047016669,1,0.019662585,1,-0.018795658,1,0.251355082,1,-0.503518343,1,1.067624211,1
1.487864614,-4.490556717,1,-2.083158731,1,-8.533696175,1,0.043183368,1,0.024239099,1,-0.012566052,1,0.251553625,1,-0.503416836,1,1.067585468,1
1.491862297,-4.494296551,1,-2.084254265,1,-8.542410851,1,0.041960213,1,0.02155309,1,-0.01394321,1,0.251737982,1,-0.503315866,1,1.067547441,1
1.495862007,-4.475239277,1,-2.07943368,1,-8.523798943,1,0.034531858,1,0.022198865,1,-0.010106502,1,0.251910716,1,-0.503212512,1,1.067518473,1
1.499857664,-4.48803091,1,-2.086848736,1,-8.523011208,1,0.032814533,1,0.026923144,1,-0.010299955,1,0.252058864,1,-0.503111482,1,1.067499638,1
1.503855109,-4.42439127,1,-2.090058804,1,-8.575896263,1,0.03232282,1,0.022924444,1,-0.008867407,1,0.252196848,1,-0.503015757,1,1.067480683,1
1.507854819,-4.449387074,1,-2.04278326,1,-8.534111977,1,0.026156258,1,0.021909308,1,-0.00931875,1,0.252322972,1,-0.502920151,1,1.067464113,1
1.511850476,-4.415301323,1,-2.072479486,1,-8.54245472,1,0.025379973,1,0.025334427,1,-0.004528421,1,0.252425045,1,-0.502827227,1,1.06746614,1
1.51584816,-4.443761826,1,-1.995693564,1,-8.555721283,1,0.024614062,1,0.020085385,1,-0.010934519,1,0.252528369,1,-0.502737641,1,1.067456126,1
1.519847989,-4.460814476,1,-1.96419692,1,-8.577127457,1,0.023941195,1,0.018014792,1,-0.00900038,1,0.252625644,1,-0.502662599,1,1.06744051,1
1.523843527,-4.457227707,1,-1.957242012,1,-8.595561981,1,0.026125932,1,0.019109285,1,-0.00969393,1,0.252729028,1,-0.502582133,1,1.067429781,1
1.52784133,-4.397473812,1,-1.917607903,1,-8.57357502,1,0.0241498,1,0.014898559,1,-0.007847292,1,0.252836406,1,-0.50250423,1,1.067404985,1
1.531840801,-4.420649529,1,-1.970169306,1,-8.595324516,1,0.026059959,1,0.017128374,1,-0.009620359,1,0.252946645,1,-0.502439737,1,1.067375898,1
1.535836458,-4.439517975,1,-1.946064115,1,-8.587603569,1,0.027743876,1,0.012414967,1,-0.011401083,1,0.253073275,1,-0.502367616,1,1.067338467,1
1.539834142,-4.444413662,1,-1.956114888,1,-8.560143471,1,0.026145138,1,0.010441894,1,-0.010534106,1,0.253189087,1,-0.502310455,1,1.067308068,1
1.543833852,-4.458535194,1,-1.997141361,1,-8.521910667,1,0.025834432,1,0.00872297,1,-0.006667151,1,0.253305823,1,-0.502257347,1,1.067273974,1
1.547829747,-4.444327831,1,-1.985708356,1,-8.565541267,1,0.024107095,1,0.011210195,1,-0.012243325,1,0.253422678,1,-0.502211154,1,1.067235708,1
1.551827431,-4.437409401,1,-2.007858515,1,-8.533149719,1,0.018154088,1,0.006453875,1,-0.011080429,1,0.253523499,1,-0.5021649,1,1.067192554,1
1.555826902,-4.455890656,1,-2.003018618,1,-8.533985138,1,0.022145867,1,0.008004909,1,-0.011143457,1,0.253626049,1,-0.502123237,1,1.067154169,1
1.559822559,-4.487459183,1,-2.02106595,1,-8.574185371,1,0.019455697,1,0.009918641,1,-0.009519488,1,0.253726512,1,-0.502080321,1,1.06712079,1
1.563820243,-4.460904121,1,-2.013550043,1,-8.525454521,1,0.021549584,1,0.008939206,1,-0.009475442,1,0.253817618,1,-0.502031982,1,1.06708765,1
1.567819834,-4.469337463,1,-2.024376869,1,-8.534286499,1,0.020212691,1,0.007463061,1,-0.008958358,1,0.253900856,1,-0.501987517,1,1.067065001,1
1.571815729,-4.535064697,1,-2.059341431,1,-8.527745247,1,0.015113632,1,0.013587759,1,-0.009641321,1,0.253987074,1,-0.501939416,1,1.067036867,1
1.575813413,-4.518707752,1,-2.125709534,1,-8.527072906,1,0.013387593,1,0.014766983,1,-0.004494607,1,0.254049361,1,-0.501881063,1,1.067019582,1
1.579813123,-4.479245663,1,-2.113222361,1,-8.52826786,1,0.008427224,1,0.014642719,1,-0.004690734,1,0.254098237,1,-0.501826942,1,1.067013979,1
1.58380878,-4.506315231,1,-2.071584463,1,-8.54633522,1,0.00501339,1,0.015941922,1,-0.003140964,1,0.254115313,1,-0.501763999,1,1.067020059,1
1.587806463,-4.457157612,1,-2.051608086,1,-8.520978928,1,0.001721669,1,0.017072827,1,0.004705204,1,0.25413096,1,-0.501696467,1,1.067029476,1
1.591806173,-4.50756073,1,-2.094807386,1,-8.523728371,1,-2.90E-05,1,0.019579314,1,0.003320615,1,0.254116684,1,-0.501630247,1,1.067067027,1
1.595802069,-4.52240181,1,-2.128248453,1,-8.512843132,1,-0.001130325,1,0.021631958,1,0.00581472,1,0.254096031,1,-0.501547635,1,1.067104578,1
1.59980011,-4.495026588,1,-2.104956627,1,-8.527636528,1,-0.005300617,1,0.021608332,1,0.00271712,1,0.254063457,1,-0.501465499,1,1.067143798,1
1.6038059,-4.440739632,1,-2.041870356,1,-8.531367302,1,-0.009457427,1,0.021835955,1,0.003547743,1,0.253594846,1,-0.50055486,1,1.066764712,1
1.607807755,-4.414055347,1,-2.040227175,1,-8.534409523,1,-0.006087725,1,0.02337092,1,0.007850603,1,0.253534466,1,-0.50047493,1,1.066823125,1
1.611805677,-4.37258625,1,-2.062296391,1,-8.543012619,1,-0.010894001,1,0.022460381,1,0.009578967,1,0.253464907,1,-0.500394881,1,1.066892266,1
1.615805387,-4.367685318,1,-2.114219904,1,-8.557922363,1,-0.011143485,1,0.019162763,1,0.009820214,1,0.253390193,1,-0.500329196,1,1.066959143,1
1.619807005,-4.396505356,1,-2.212478399,1,-8.569730759,1,-0.015772343,1,0.016185438,1,0.01193244,1,0.253303736,1,-0.500275493,1,1.067037344,1
1.623804927,-4.409572601,1,-2.236124516,1,-8.570645332,1,-0.023233609,1,0.012272932,1,0.01950502,1,0.253187478,1,-0.500234485,1,1.06712389,1
1.627804399,-4.428102493,1,-2.191314459,1,-8.577303886,1,-0.028218789,1,0.013269695,1,0.021467905,1,0.253050059,1,-0.500197768,1,1.067215681,1
1.631806254,-4.413415909,1,-2.145787477,1,-8.558529854,1,-0.032193713,1,0.008247131,1,0.021971211,1,0.252873808,1,-0.500179112,1,1.06732595,1
1.635803938,-4.358963966,1,-2.044950724,1,-8.583800316,1,-0.037127174,1,0.007406346,1,0.026559725,1,0.252681553,1,-0.500178576,1,1.067447543,1
1.639803648,-4.334571838,1,-2.009791613,1,-8.600783348,1,-0.036921766,1,0.001070082,1,0.023231998,1,0.252484322,1,-0.500186741,1,1.067564964,1
1.643799782,-4.404254436,1,-2.022853374,1,-8.577866554,1,-0.038778782,1,0.005062692,1,0.029818438,1,0.25227946,1,-0.500199616,1,1.067684531,1
1.647797465,-4.377606869,1,-2.090757132,1,-8.542028427,1,-0.039502986,1,0.00043932,1,0.030602075,1,0.25206247,1,-0.500223398,1,1.067818522,1
1.651796937,-4.463495731,1,-2.10376358,1,-8.559603691,1,-0.041166753,1,-4.85E-05,1,0.032122698,1,0.251841486,1,-0.500261426,1,1.067948937,1
1.655792952,-4.455634594,1,-2.06172514,1,-8.564699173,1,-0.045121659,1,-0.003835323,1,0.034320313,1,0.251597673,1,-0.500291288,1,1.068094373,1
1.659790635,-4.461081028,1,-2.077045679,1,-8.595059395,1,-0.047612071,1,0.000875644,1,0.033747613,1,0.251338214,1,-0.500338495,1,1.068247318,1
1.663790345,-4.476093292,1,-2.029755354,1,-8.563202858,1,-0.049657796,1,-0.001583956,1,0.036405247,1,0.251074433,1,-0.500382245,1,1.068404555,1
1.667786241,-4.477735519,1,-2.034163475,1,-8.5990839,1,-0.05318673,1,-0.004209455,1,0.039255407,1,0.250796229,1,-0.50042516,1,1.068565369,1
1.671783686,-4.465145111,1,-1.994398832,1,-8.571111679,1,-0.054752115,1,-0.003761674,1,0.036902543,1,0.250510156,1,-0.500473917,1,1.068725824,1
1.675783396,-4.447741985,1,-1.979639649,1,-8.553675652,1,-0.054211233,1,-0.004753627,1,0.037407652,1,0.250209749,1,-0.500527143,1,1.068887353,1
1.679779053,-4.477502346,1,-1.996526361,1,-8.55800724,1,-0.051288377,1,-0.00626978,1,0.036985546,1,0.249919087,1,-0.500584126,1,1.069046617,1
1.683776498,-4.487588882,1,-2.006808758,1,-8.55880928,1,-0.050820831,1,-0.001304008,1,0.033874869,1,0.249638081,1,-0.500641704,1,1.069199324,1
1.687776208,-4.44376421,1,-2.054808617,1,-8.54134655,1,-0.052734632,1,-0.001601796,1,0.035972442,1,0.249352083,1,-0.500690758,1,1.069355845,1
1.691772103,-4.486307621,1,-2.042430878,1,-8.542677879,1,-0.05983083,1,0.000223682,1,0.037179537,1,0.249045953,1,-0.500738084,1,1.069513202,1
1.695769906,-4.470243931,1,-2.016279221,1,-8.548148155,1,-0.057756044,1,-0.004558474,1,0.036996525,1,0.248727232,1,-0.500782132,1,1.069677114,1
1.699769616,-4.50325489,1,-1.955027819,1,-8.506399155,1,-0.064027883,1,-0.004376641,1,0.036930963,1,0.24841027,1,-0.500833511,1,1.069836378,1
1.703765273,-4.466882706,1,-2.001264572,1,-8.53352356,1,-0.060695615,1,0.0011941,1,0.039246053,1,0.248077855,1,-0.500881851,1,1.070008993,1
1.707762957,-4.483625889,1,-1.97169733,1,-8.510242462,1,-0.061640069,1,-0.00286925,1,0.038636353,1,0.247748092,1,-0.500924528,1,1.070173979,1
1.711762667,-4.441917419,1,-2.029289722,1,-8.524269104,1,-0.066500425,1,-0.000975237,1,0.035971366,1,0.247404367,1,-0.500970483,1,1.070345044,1
1.715758562,-4.422408581,1,-1.966037273,1,-8.578415871,1,-0.067007691,1,0.000634336,1,0.044142466,1,0.247055963,1,-0.501008749,1,1.070520282,1
1.719756246,-4.43153429,1,-1.947467446,1,-8.579649925,1,-0.064405665,1,-0.001482758,1,0.038880281,1,0.246710241,1,-0.50105685,1,1.070695639,1
1.723761916,-4.394359589,1,-1.92631948,1,-8.552238464,1,-0.06486287,1,-0.003104224,1,0.036981989,1,0.246365055,1,-0.501105249,1,1.070865154,1
1.727763653,-4.400105476,1,-1.959591746,1,-8.543037415,1,-0.06604103,1,-0.005700008,1,0.03930911,1,0.246020913,1,-0.501161575,1,1.071040988,1
1.731761694,-4.449189663,1,-1.919916153,1,-8.574309349,1,-0.067911737,1,-0.004692404,1,0.042902481,1,0.245671377,1,-0.501219809,1,1.071207523,1
1.735761404,-4.414783001,1,-1.968949199,1,-8.533024788,1,-0.069589853,1,-0.005306785,1,0.043158036,1,0.245321214,1,-0.501270235,1,1.071382761,1
1.739757299,-4.425525665,1,-1.913341165,1,-8.566495895,1,-0.065065145,1,-0.003022595,1,0.041284092,1,0.244971544,1,-0.50132668,1,1.071551919,1
1.743754983,-4.447316647,1,-1.957444429,1,-8.600458145,1,-0.06423454,1,-0.004547455,1,0.042672567,1,0.244625673,1,-0.501385272,1,1.071730256,1
1.747754693,-4.435087681,1,-1.941761255,1,-8.571614265,1,-0.066789247,1,-0.009401505,1,0.038391933,1,0.244278565,1,-0.501452625,1,1.071907997,1
1.751756549,-4.450335503,1,-2.024150848,1,-8.553753853,1,-0.067082286,1,-0.004034637,1,0.04370869,1,0.243933067,1,-0.50152427,1,1.072077155,1
1.755754232,-4.448696613,1,-2.047833443,1,-8.557683945,1,-0.071448438,1,-0.007707047,1,0.043953873,1,0.243567809,1,-0.501590133,1,1.07226193,1
1.759753942,-4.447187901,1,-2.077152729,1,-8.58177948,1,-0.07320182,1,-0.007928815,1,0.049001832,1,0.243189067,1,-0.501658142,1,1.072445989,1
1.763749599,-4.429053307,1,-2.032718658,1,-8.575245857,1,-0.078790896,1,-0.004225083,1,0.046103723,1,0.242792279,1,-0.501727998,1,1.072646022,1
1.767747283,-4.400197029,1,-2.013714075,1,-8.574136734,1,-0.078023113,1,-0.006176015,1,0.047755476,1,0.242385611,1,-0.501799285,1,1.072852969,1
1.771747351,-4.427787781,1,-1.957112551,1,-8.603404045,1,-0.082365707,1,-0.012368649,1,0.053171769,1,0.241960242,1,-0.501877427,1,1.07307446,1
1.775743246,-4.435791969,1,-1.943130493,1,-8.563578606,1,-0.083426364,1,-0.008537714,1,0.048362054,1,0.24153094,1,-0.501956999,1,1.073273897,1
1.779741168,-4.415802479,1,-1.851123452,1,-8.557565689,1,-0.079413697,1,-0.010611104,1,0.048338469,1,0.241103932,1,-0.502039254,1,1.073479891,1
1.783740878,-4.424141407,1,-1.772861958,1,-8.573966026,1,-0.079085231,1,-0.008964906,1,0.045557931,1,0.240689486,1,-0.502121449,1,1.073678255,1
1.787736535,-4.463980198,1,-1.720002532,1,-8.611680031,1,-0.069706395,1,-0.011933747,1,0.046589904,1,0.240298152,1,-0.502211452,1,1.073857307,1
1.791734219,-4.461265564,1,-1.763804674,1,-8.6052351,1,-0.070356429,1,-0.015306607,1,0.039201085,1,0.239918455,1,-0.502301216,1,1.074042797,1
1.795734286,-4.456062317,1,-1.805264354,1,-8.569149971,1,-0.069330856,1,-0.018766478,1,0.037493709,1,0.239567801,1,-0.502400815,1,1.074198484,1
1.799730659,-4.483675957,1,-1.868421674,1,-8.528204918,1,-0.068775788,1,-0.017898703,1,0.039386809,1,0.239229426,1,-0.502505302,1,1.074346542,1
1.803728342,-4.518779278,1,-1.84357667,1,-8.545269012,1,-0.065637477,1,-0.018491866,1,0.034138814,1,0.238896906,1,-0.502614915,1,1.074483156,1
1.807728171,-4.430090427,1,-1.78529036,1,-8.608743668,1,-0.063894063,1,-0.019071067,1,0.03660205,1,0.238572419,1,-0.502725363,1,1.074626327,1
1.811724067,-4.399569511,1,-1.834006786,1,-8.592276573,1,-0.06110438,1,-0.019643128,1,0.034168608,1,0.238257274,1,-0.502833724,1,1.074762702,1
1.81572175,-4.435387135,1,-1.741759181,1,-8.63737011,1,-0.057365701,1,-0.020088818,1,0.036130145,1,0.237958595,1,-0.502947628,1,1.074890852,1
1.81972146,-4.41604948,1,-1.873768091,1,-8.617887497,1,-0.058009543,1,-0.026810508,1,0.034903191,1,0.237664312,1,-0.503075004,1,1.075027108,1
1.823717356,-4.372817516,1,-1.91522181,1,-8.610060692,1,-0.057651792,1,-0.027654121,1,0.032126807,1,0.237379372,1,-0.503207684,1,1.075145483,1
1.827715039,-4.487779617,1,-1.884254098,1,-8.65296936,1,-0.058080796,1,-0.029719811,1,0.033994272,1,0.237097085,1,-0.503362238,1,1.075270176,1
1.831714869,-4.434154034,1,-1.919779658,1,-8.613759995,1,-0.056874745,1,-0.032140203,1,0.037617814,1,0.236810535,1,-0.503512084,1,1.075389385,1
1.835710764,-4.416941166,1,-1.944228053,1,-8.627543449,1,-0.054813072,1,-0.035989262,1,0.037685882,1,0.236529544,1,-0.503678381,1,1.075509787,1
1.839708447,-4.423697948,1,-1.937853098,1,-8.637871742,1,-0.063750602,1,-0.035107277,1,0.041496512,1,0.236215249,1,-0.503851831,1,1.075645566,1
1.843714356,-4.412522316,1,-1.929123163,1,-8.632836342,1,-0.063813314,1,-0.042284183,1,0.040312499,1,0.235895023,1,-0.504045069,1,1.075786829,1
1.847716093,-4.430056572,1,-1.933821559,1,-8.636730194,1,-0.069217205,1,-0.045953304,1,0.043880533,1,0.235563353,1,-0.504253983,1,1.075929642,1
1.851713777,-4.409121037,1,-1.967044234,1,-8.617693901,1,-0.069495074,1,-0.053040568,1,0.049415678,1,0.234800994,1,-0.503603816,1,1.076630235,1
1.855713844,-4.443459988,1,-1.962347984,1,-8.656600952,1,-0.076375082,1,-0.051173862,1,0.052037887,1,0.234516129,1,-0.503810108,1,1.076061606,1
1.85970974,-4.426453114,1,-1.955531955,1,-8.655320168,1,-0.079393372,1,-0.057004891,1,0.053625062,1,0.234123707,1,-0.504077256,1,1.076234341,1
1.863707662,-4.440615654,1,-2.042467356,1,-8.647937775,1,-0.085048079,1,-0.060394105,1,0.057903752,1,0.233698428,1,-0.504364073,1,1.076425672,1
1.867707372,-4.365062714,1,-2.010643482,1,-8.68194294,1,-0.092901856,1,-0.066694342,1,0.06159902,1,0.233257324,1,-0.504667044,1,1.076610208,1
1.871703267,-4.37480402,1,-2.094293118,1,-8.685354233,1,-0.09576048,1,-0.069950141,1,0.060655609,1,0.232785389,1,-0.505002677,1,1.076817989,1
1.875701189,-4.354647636,1,-2.116196394,1,-8.63405323,1,-0.102809794,1,-0.081179708,1,0.069795109,1,0.232282653,1,-0.505362749,1,1.077036619,1
1.879701018,-4.353358269,1,-2.090029001,1,-8.712812424,1,-0.113496542,1,-0.090168804,1,0.070710689,1,0.231745973,1,-0.50575459,1,1.077254534,1
1.883702993,-4.312551975,1,-2.052888632,1,-8.756536484,1,-0.11158821,1,-0.098276548,1,0.079794265,1,0.231176749,1,-0.506191075,1,1.077499866,1
1.887701035,-4.194739819,1,-1.988154292,1,-8.870305061,1,-0.113590516,1,-0.111855678,1,0.086605571,1,0.230599716,1,-0.506676316,1,1.077758551,1
1.891700745,-4.244595528,1,-1.983055711,1,-8.862919807,1,-0.115072429,1,-0.12505503,1,0.094841599,1,0.230005756,1,-0.50722158,1,1.078034043,1
1.89569664,-4.294188976,1,-2.020457506,1,-8.879315376,1,-0.118605778,1,-0.137230575,1,0.103254944,1,0.229382947,1,-0.50781852,1,1.078336835,1
1.899694324,-4.355988026,1,-1.997448206,1,-8.85206604,1,-0.12706542,1,-0.153341904,1,0.10942547,1,0.228741989,1,-0.508483231,1,1.078650951,1
1.903694034,-4.40512085,1,-2.143711805,1,-8.881529808,1,-0.129471108,1,-0.170829684,1,0.117649026,1,0.228072479,1,-0.509221375,1,1.078979611,1
1.907696128,-4.234471321,1,-2.284409285,1,-8.989840508,1,-0.124633297,1,-0.184839755,1,0.13871938,1,0.227379873,1,-0.510028124,1,1.079369068,1
1.91169405,-4.008968353,1,-2.209984303,1,-9.168091774,1,-0.113324277,1,-0.2300715,1,0.179031521,1,0.22666648,1,-0.510984242,1,1.07985878,1
1.915693879,-3.843901873,1,-2.149095774,1,-9.269540787,1,-0.110365428,1,-0.295596451,1,0.210848883,1,0.225916609,1,-0.512165785,1,1.080467224,1
1.919689775,-3.608735085,1,-1.868432283,1,-9.586658478,1,-0.113240816,1,-0.375836939,1,0.243911609,1,0.225133672,1,-0.513667226,1,1.081155062,1
1.923687458,-3.73491168,1,-1.635370612,1,-9.767745018,1,-0.09110675,1,-0.467390627,1,0.265893877,1,0.224379525,1,-0.515546262,1,1.081862688,1
1.927687168,-3.982968092,1,-2.202204227,1,-9.417933464,1,-0.089712322,1,-0.521727502,1,0.287853062,1,0.223644137,1,-0.517716587,1,1.082601786,1
1.931683064,-4.037325382,1,-2.577090502,1,-9.345233917,1,-0.08564508,1,-0.55571878,1,0.327268124,1,0.222877309,1,-0.520086408,1,1.083436131,1
1.935680747,-3.812248945,1,-2.325662136,1,-9.49655056,1,-0.036410246,1,-0.620660722,1,0.362916917,1,0.222144306,1,-0.522675455,1,1.084376097,1
1.939681053,-3.908565998,1,-2.991869688,1,-9.695403099,1,0.016192794,1,-0.687878311,1,0.415501863,1,0.221580401,1,-0.525570989,1,1.085472107,1
1.943677187,-4.032590389,1,-2.817089081,1,-9.837103844,1,0.022716159,1,-0.757176459,1,0.43595019,1,0.221053615,1,-0.528785765,1,1.08666718,1
1.947675109,-4.002269268,1,-2.90946579,1,-9.961803436,1,0.05866633,1,-0.83975637,1,0.44407779,1,0.220646232,1,-0.532281876,1,1.08783567,1
1.951674938,-3.991221428,1,-2.325799227,1,-9.948806763,1,0.084315121,1,-0.913311005,1,0.416311204,1,0.220373526,1,-0.536087513,1,1.08887887,1
1.955670476,-4.17718029,1,-2.402140856,1,-10.32125568,1,0.165563509,1,-0.943744838,1,0.437071085,1,0.22037439,1,-0.540095031,1,1.0898664,1
1.959668279,-4.366588593,1,-3.784285784,1,-10.30625629,1,0.138750777,1,-0.938088119,1,0.461850971,1,0.220446095,1,-0.544157028,1,1.090953827,1
1.963674068,-4.89991951,1,-3.958767653,1,-11.26246834,1,0.101946913,1,-0.963138223,1,0.489031702,1,0.2202961,1,-0.548264921,1,1.092154741,1
1.967676163,-4.923714161,1,-3.784163237,1,-12.0446043,1,0.111678578,1,-1.016303062,1,0.515221536,1,0.220055401,1,-0.5525738,1,1.093417764,1
1.971674085,-5.177503586,1,-3.967903852,1,-10.99274158,1,0.085532933,1,-1.06046629,1,0.547755301,1,0.219695494,1,-0.557111681,1,1.094844937,1
1.975673914,-3.904838324,1,-3.828271866,1,-10.01880169,1,0.117272682,1,-1.160230756,1,0.59326154,1,0.219350189,1,-0.561915755,1,1.096298456,1
1.979669809,-5.968699455,1,-4.576936245,1,-10.593853,1,0.027702928,1,-1.259009719,1,0.66672039,1,0.218757302,1,-0.567211568,1,1.097955823,1
1.983667493,-7.975174904,1,-5.668972969,1,-11.81153011,1,-0.069827802,1,-1.242477775,1,0.759692609,1,0.217596963,1,-0.572762251,1,1.099963069,1
1.987667203,-7.177641392,1,-6.087695122,1,-10.98000145,1,-0.165618122,1,-1.188421011,1,0.838068008,1,0.215780288,1,-0.578159869,1,1.102442026,1
1.991663098,-6.701089382,1,-5.981203556,1,-10.60460377,1,-0.272143543,1,-1.213840365,1,0.950413108,1,0.213298887,1,-0.583602607,1,1.105389118,1
1.995660782,-7.941618919,1,-6.032797337,1,-10.50442696,1,-0.424106926,1,-1.223445296,1,1.068187356,1,0.209972069,1,-0.58923161,1,1.108899236,1
1.99966085,-10.14238167,1,-6.29571867,1,-11.62591743,1,-0.613270462,1,-1.166175485,1,1.193147182,1,0.20560877,1,-0.594861329,1,1.113022804,1
2.003656626,-9.831812859,1,-7.256136417,1,-10.84760666,1,-0.876775563,1,-1.065978408,1,1.291964054,1,0.199929088,1,-0.600232959,1,1.117845178,1
2.007654428,-9.263977051,1,-6.48418808,1,-10.73248672,1,-1.138088584,1,-1.005643606,1,1.329050422,1,0.192898035,1,-0.605310678,1,1.123114109,1
2.011654139,-10.36078644,1,-5.512971401,1,-11.64785099,1,-1.333137631,1,-0.944789946,1,1.364805579,1,0.184755012,1,-0.610164285,1,1.128668308,1
2.015650034,-11.55159855,1,-4.033319473,1,-13.22250366,1,-1.411499262,1,-0.836361587,1,1.345671177,1,0.175929487,1,-0.61465472,1,1.134406447,1
2.019647837,-11.63538074,1,-3.068582296,1,-14.67819786,1,-1.337298036,1,-0.632991314,1,1.29219377,1,0.167069957,1,-0.618472815,1,1.140175223,1
2.023647785,-9.752079964,1,-3.139279604,1,-14.86068058,1,-1.192621708,1,-0.432300001,1,1.216911435,1,0.158717528,1,-0.621379137,1,1.145831227,1
2.027643681,-6.906487465,1,-3.476853132,1,-14.16431236,1,-1.030707002,1,-0.285677463,1,1.162606239,1,0.151070863,1,-0.6235075,1,1.151334047,1
2.031641483,-4.479268074,1,-4.186269283,1,-13.10376453,1,-0.917689383,1,-0.253023922,1,1.155340552,1,0.1440164,1,-0.625233352,1,1.156774521,1
2.035641432,-2.650071859,1,-5.028095245,1,-12.11167526,1,-0.871173918,1,-0.276602834,1,1.188532829,1,0.137214079,1,-0.626929402,1,1.162305355,1
2.039637327,-1.479605317,1,-5.735962868,1,-11.58806038,1,-0.867262125,1,-0.335971206,1,1.243085146,1,0.13036789,1,-0.628793538,1,1.168056726,1
2.04363513,-0.819619775,1,-6.118193626,1,-11.35809135,1,-0.904247046,1,-0.395208299,1,1.301215053,1,0.123276487,1,-0.630883932,1,1.174081564,1
2.047635317,-0.429663897,1,-6.239825726,1,-11.41151428,1,-0.935434163,1,-0.434158444,1,1.348448515,1,0.115887992,1,-0.63315928,1,1.180362701,1
2.051631451,0.040913783,1,-6.701216698,1,-11.47611332,1,-0.982075691,1,-0.448320121,1,1.375982881,1,0.108210616,1,-0.635542333,1,1.186845422,1
2.055629253,0.193097278,1,-7.057722569,1,-11.68350601,1,-1.038772583,1,-0.442985356,1,1.36876452,1,0.100265391,1,-0.637895882,1,1.193410277,1
2.059628963,0.273307502,1,-7.339519501,1,-11.99295998,1,-1.100871086,1,-0.40356347,1,1.346740961,1,0.092088558,1,-0.64011395,1,1.199945688,1
2.063624859,0.479925603,1,-7.604203224,1,-12.29572201,1,-1.154914379,1,-0.334153742,1,1.309555888,1,0.083715133,1,-0.642058909,1,1.206399441,1
2.067622662,0.867582619,1,-7.854899883,1,-12.4070406,1,-1.199850321,1,-0.238278165,1,1.258671284,1,0.075231515,1,-0.643610656,1,1.212675333,1
2.071622372,1.297756076,1,-7.910477638,1,-12.51791954,1,-1.223019481,1,-0.140986666,1,1.202754378,1,0.066731654,1,-0.644724131,1,1.218739748,1
2.075618505,1.979154944,1,-7.805998325,1,-12.62442398,1,-1.202796817,1,-0.046015158,1,1.149926782,1,0.0583653,1,-0.645390511,1,1.224579811,1
2.079616547,2.663036346,1,-7.712149143,1,-12.62565517,1,-1.157728434,1,0.047331262,1,1.090635896,1,0.050262801,1,-0.645627558,1,1.230182767,1
2.083622694,3.471492529,1,-7.571135998,1,-12.50672531,1,-1.080139518,1,0.128142074,1,1.039153934,1,0.042571295,1,-0.645463586,1,1.235530019,1
2.087624788,4.209739208,1,-7.499291897,1,-12.29834175,1,-0.980754137,1,0.197567418,1,0.989086866,1,0.035379924,1,-0.644958019,1,1.240632772,1
2.091622591,4.712660789,1,-7.627569199,1,-12.11728001,1,-0.870928407,1,0.263123184,1,0.938163936,1,0.028752824,1,-0.644160569,1,1.245486975,1
2.095622301,5.293872356,1,-7.833717823,1,-11.88602638,1,-0.7669909,1,0.319033444,1,0.895531416,1,0.022709139,1,-0.643088579,1,1.25010252,1
2.099618196,5.623874664,1,-8.108693123,1,-11.67375278,1,-0.68118161,1,0.367335379,1,0.846168578,1,0.017195879,1,-0.641782582,1,1.254484892,1
2.103615999,6.15860033,1,-8.282901764,1,-11.37613964,1,-0.591308773,1,0.417712867,1,0.795123041,1,0.012289856,1,-0.640240252,1,1.257933855,1
2.107615948,6.396642208,1,-8.302477837,1,-11.36668301,1,-0.527936637,1,0.455261588,1,0.748128116,1,0.00772932,1,-0.638526499,1,1.261803865,1
2.111611843,6.434986591,1,-8.287873268,1,-11.2891674,1,-0.451799333,1,0.493508518,1,0.710809112,1,0.003600327,1,-0.636645615,1,1.265441418,1
2.115609884,6.793246746,1,-8.097567558,1,-11.17321873,1,-0.368623614,1,0.523458183,1,0.664650381,1,-6.30E-05,1,-0.634613216,1,1.268857598,1
2.119609594,6.673359871,1,-7.850252628,1,-11.34244823,1,-0.27775991,1,0.561541617,1,0.60478586,1,-0.003218426,1,-0.632443666,1,1.272002816,1
2.123605251,6.452904701,1,-7.756052017,1,-11.42835426,1,-0.176675782,1,0.612277329,1,0.532101154,1,-0.005774888,1,-0.630097628,1,1.274802566,1
2.127603292,6.19324255,1,-7.61743021,1,-11.46523762,1,-0.074523039,1,0.680144966,1,0.461475343,1,-0.007709039,1,-0.627504766,1,1.27724576,1
2.131603003,5.880330563,1,-7.5015769,1,-11.53922272,1,0.035495393,1,0.756962299,1,0.375376374,1,-0.008982807,1,-0.624629438,1,1.279287457,1
2.135599136,5.75980711,1,-7.40110302,1,-11.52686882,1,0.149480775,1,0.850296378,1,0.285221756,1,-0.009544989,1,-0.621403217,1,1.280875087,1
2.139596701,5.756700039,1,-7.299207687,1,-11.45287704,1,0.254255503,1,0.956005991,1,0.183238864,1,-0.009384382,1,-0.61777544,1,1.281983495,1
2.143596649,5.898683548,1,-7.144534111,1,-11.28739071,1,0.355289668,1,1.05646348,1,0.079961568,1,-0.008497446,1,-0.61374867,1,1.282573104,1
2.147592545,6.103188038,1,-7.023113251,1,-11.12363148,1,0.455126345,1,1.139881253,1,-0.026438741,1,-0.006931865,1,-0.609357119,1,1.282671452,1
2.151590347,6.365952492,1,-6.950388908,1,-10.92691612,1,0.544424117,1,1.210880637,1,-0.122989848,1,-0.004710652,1,-0.604642749,1,1.282282948,1
2.155590057,6.568967342,1,-6.768383026,1,-10.68512821,1,0.635149837,1,1.275913477,1,-0.224568129,1,-0.001866037,1,-0.599671245,1,1.281423569,1
2.159585953,6.666776657,1,-6.579675198,1,-10.49228382,1,0.713382542,1,1.322139263,1,-0.32974562,1,0.001589081,1,-0.594479561,1,1.280071974,1
2.163583755,6.68596983,1,-6.490655899,1,-10.33751583,1,0.789458334,1,1.363699317,1,-0.435630739,1,0.005603039,1,-0.589107871,1,1.278256059,1
2.167583704,6.561888218,1,-6.374554634,1,-10.19123936,1,0.850184858,1,1.398503661,1,-0.543505371,1,0.010154603,1,-0.58357203,1,1.275954723,1
2.171579599,6.408249378,1,-6.267840385,1,-10.14105892,1,0.914253354,1,1.434633136,1,-0.645636737,1,0.015195996,1,-0.577881753,1,1.273200154,1
2.175577402,6.132194996,1,-6.215281963,1,-10.14984894,1,0.973325491,1,1.467785835,1,-0.747120678,1,0.020707911,1,-0.572038949,1,1.270002246,1
2.179577351,5.849647522,1,-6.047314167,1,-10.31433296,1,1.029857874,1,1.500465393,1,-0.841144741,1,0.026649168,1,-0.566029668,1,1.266404867,1
2.183573484,5.382164955,1,-5.86553812,1,-10.52097416,1,1.089300871,1,1.541340113,1,-0.942282736,1,0.033031367,1,-0.559849203,1,1.262398243,1
2.187571526,4.815275669,1,-5.657001495,1,-10.78060055,1,1.162325382,1,1.585787773,1,-1.039397717,1,0.039858885,1,-0.553464174,1,1.258012652,1
2.191571474,4.040453911,1,-5.58357954,1,-11.01164627,1,1.225341558,1,1.654319048,1,-1.145618796,1,0.047141317,1,-0.546809793,1,1.253219843,1
2.195567369,3.386592388,1,-5.430738926,1,-11.19145203,1,1.280447721,1,1.739830732,1,-1.240300775,1,0.054838404,1,-0.539789975,1,1.248055458,1
2.199565411,3.003197908,1,-5.492453575,1,-11.28773212,1,1.331350088,1,1.840230346,1,-1.340500116,1,0.062875651,1,-0.532331228,1,1.24255681,1
2.203571558,2.729940176,1,-5.354335785,1,-11.41300106,1,1.377547622,1,1.949516296,1,-1.421934247,1,0.071222998,1,-0.52439791,1,1.236754656,1
2.207573414,2.665083408,1,-5.122454166,1,-11.42854786,1,1.424700141,1,2.04753089,1,-1.503847361,1,0.079826489,1,-0.515979409,1,1.230725884,1
2.211571693,2.745179415,1,-4.886448383,1,-11.48775959,1,1.467608452,1,2.129881859,1,-1.569481969,1,0.088651717,1,-0.50712955,1,1.224509478,1
2.215571642,2.691457272,1,-4.525264263,1,-11.3756094,1,1.512785435,1,2.209965706,1,-1.619446039,1,0.097658969,1,-0.497892529,1,1.218182564,1
2.219567776,2.769162178,1,-4.382454395,1,-11.24107456,1,1.55778718,1,2.258308172,1,-1.657158852,1,0.106817894,1,-0.488326818,1,1.21180737,1
2.223565817,2.768717766,1,-4.222872734,1,-11.16695404,1,1.60939157,1,2.310166597,1,-1.69069767,1,0.116109647,1,-0.478489876,1,1.20544517,1
2.227565527,2.609413147,1,-4.001851082,1,-11.19633102,1,1.641717434,1,2.340177059,1,-1.703642607,1,0.125495583,1,-0.468455702,1,1.199118853,1
2.231561661,2.399069309,1,-3.858204842,1,-11.19908714,1,1.68264854,1,2.381138563,1,-1.714326024,1,0.134921372,1,-0.458206892,1,1.192911625,1
2.235559702,2.046639919,1,-3.6450634,1,-11.2066412,1,1.720510602,1,2.395147324,1,-1.716659188,1,0.144391388,1,-0.447788596,1,1.186826229,1
2.239559412,1.729736567,1,-3.383370161,1,-11.288167,1,1.758001208,1,2.426528931,1,-1.717356443,1,0.153892472,1,-0.437232226,1,1.180898428,1
2.243555546,1.281418681,1,-3.237367392,1,-11.21770954,1,1.798205614,1,2.444289923,1,-1.710472584,1,0.163415849,1,-0.426531672,1,1.175138831,1
2.247553349,0.944681108,1,-3.06463027,1,-11.38273239,1,1.828726888,1,2.468781471,1,-1.709893823,1,0.172957391,1,-0.415691674,1,1.169550419,1
2.251553297,0.375118613,1,-2.889619589,1,-11.41667175,1,1.861763,1,2.493854046,1,-1.704776287,1,0.18250297,1,-0.404716671,1,1.164138794,1
2.255549192,-0.112276942,1,-2.857557774,1,-11.34919357,1,1.885914564,1,2.514014721,1,-1.701082587,1,0.192038015,1,-0.393591195,1,1.158912778,1
2.259546995,-0.600956678,1,-2.658111334,1,-11.32010746,1,1.903815746,1,2.544910908,1,-1.703716397,1,0.201549679,1,-0.382339776,1,1.15383625,1
2.263546944,-0.922024667,1,-2.578787804,1,-11.25972366,1,1.925139546,1,2.557184935,1,-1.700179219,1,0.211017117,1,-0.370959163,1,1.148914337,1
2.267543077,-1.350050092,1,-2.367316723,1,-11.10790348,1,1.934788346,1,2.571175337,1,-1.700550795,1,0.22044231,1,-0.359489918,1,1.144144654,1
2.27154088,-1.43633461,1,-2.218746424,1,-10.94664669,1,1.952301979,1,2.568338156,1,-1.704679847,1,0.229818672,1,-0.347934723,1,1.13950479,1
2.275541067,-1.792191148,1,-2.021919012,1,-10.8156271,1,1.954271197,1,2.553186417,1,-1.711346626,1,0.23915112,1,-0.336391568,1,1.134970069,1
2.279536963,-1.749853969,1,-1.773079991,1,-10.57513237,1,1.964965343,1,2.526351452,1,-1.712259412,1,0.248426363,1,-0.324886233,1,1.130537868,1
2.283534765,-1.883794188,1,-1.682116628,1,-10.47923756,1,1.98041153,1,2.471019506,1,-1.71356535,1,0.257683754,1,-0.313487679,1,1.126188874,1
2.287534952,-1.899145007,1,-1.488598704,1,-10.41541958,1,1.984933972,1,2.407850742,1,-1.721419811,1,0.266919136,1,-0.302281678,1,1.121883869,1
2.291530848,-2.21768117,1,-1.421616673,1,-10.25196075,1,1.985039949,1,2.31768465,1,-1.729621291,1,0.276131213,1,-0.29131937,1,1.117585659,1
2.29552865,-2.693594217,1,-1.586772561,1,-10.30741119,1,1.971236825,1,2.253204823,1,-1.741963983,1,0.285259426,1,-0.280611277,1,1.113278031,1
2.299528599,-3.341794014,1,-2.002596378,1,-10.44957256,1,1.929473639,1,2.197131872,1,-1.736005425,1,0.2942276,1,-0.270099223,1,1.108989716,1
2.303524971,-3.963561535,1,-2.401991606,1,-10.65003681,1,1.872947097,1,2.156002522,1,-1.725245714,1,0.302936733,1,-0.259749055,1,1.104792953,1
2.307522774,-4.803308964,1,-2.596571684,1,-11.05959988,1,1.814075589,1,2.132134438,1,-1.71241641,1,0.311352491,1,-0.249498472,1,1.100704908,1
2.311522484,-5.768470764,1,-2.392690182,1,-11.54986763,1,1.75588572,1,2.126486778,1,-1.710096717,1,0.319454849,1,-0.239287972,1,1.096720457,1
2.315518618,-6.603126526,1,-1.968413949,1,-11.94653702,1,1.71177578,1,2.144152403,1,-1.716313839,1,0.327280283,1,-0.229021341,1,1.092835069,1
2.319516659,-7.411422253,1,-1.51713407,1,-12.09587479,1,1.69338274,1,2.174241304,1,-1.728732944,1,0.334921598,1,-0.218630552,1,1.089028716,1
2.323522806,-7.881433487,1,-1.12902379,1,-12.25111008,1,1.701636672,1,2.212676287,1,-1.754367709,1,0.34250176,1,-0.208040595,1,1.085285664,1
2.3275249,-8.213611603,1,-0.935455322,1,-12.18465137,1,1.710455179,1,2.259888649,1,-1.776741266,1,0.350063145,1,-0.19722943,1,1.081600547,1
2.331522703,-8.356228828,1,-0.897360563,1,-11.93697834,1,1.735251188,1,2.300713778,1,-1.802275777,1,0.357656449,1,-0.186185822,1,1.077981472,1
2.335523129,-8.323508263,1,-0.864892542,1,-11.63397408,1,1.754879713,1,2.32313633,1,-1.798491478,1,0.365277141,1,-0.174988851,1,1.074464679,1
2.339519262,-8.20922184,1,-0.792134881,1,-11.3372345,1,1.765191317,1,2.316132307,1,-1.78506887,1,0.372882903,1,-0.163741365,1,1.071092129,1
2.343516827,-7.957853794,1,-0.623925686,1,-10.87880421,1,1.774146557,1,2.296912432,1,-1.752136469,1,0.38046667,1,-0.152549356,1,1.067874789,1
2.347517014,-7.82120657,1,-0.507810891,1,-10.23607922,1,1.789275289,1,2.253746986,1,-1.705718875,1,0.388043046,1,-0.141503304,1,1.064834356,1
2.351513147,-7.964590073,1,-0.328081042,1,-9.749650955,1,1.788714767,1,2.179636002,1,-1.651913404,1,0.395578355,1,-0.130750343,1,1.061981678,1
2.355511189,-8.610618591,1,-0.111931011,1,-9.019022942,1,1.777281404,1,2.118579865,1,-1.594685674,1,0.402982384,1,-0.120194547,1,1.058355331,1
2.359511375,-8.91103363,1,0.124965802,1,-8.470680237,1,1.752490044,1,2.032100439,1,-1.527243972,1,0.410327017,1,-0.110093586,1,1.055883527,1
2.363507271,-9.177122116,1,0.497241646,1,-7.765702248,1,1.731873512,1,1.926837683,1,-1.464980364,1,0.417536795,1,-0.100435913,1,1.053585291,1
2.367505074,-9.682260513,1,0.758408368,1,-7.152828693,1,1.707471967,1,1.815348983,1,-1.389803052,1,0.424630553,1,-0.09126465,1,1.051436067,1
2.37150526,-10.06840038,1,1.208996654,1,-6.599494457,1,1.689675927,1,1.69221282,1,-1.329966545,1,0.431610703,1,-0.082634047,1,1.049400926,1
2.375501394,-10.44014931,1,1.645093799,1,-6.183146,1,1.671265125,1,1.542895436,1,-1.274672031,1,0.438496679,1,-0.07457643,1,1.047400832,1
2.379499197,-10.92576122,1,2.062964439,1,-5.827650547,1,1.646146059,1,1.370280147,1,-1.221724033,1,0.445282161,1,-0.067169406,1,1.045373559,1
2.383498907,-11.57235909,1,2.569935083,1,-5.303412437,1,1.611541867,1,1.20701158,1,-1.184350371,1,0.45192793,1,-0.06046455,1,1.043276548,1
2.387495279,-11.87302399,1,2.79216814,1,-4.800038815,1,1.572482109,1,0.999268949,1,-1.162980437,1,0.458432347,1,-0.054423556,1,1.041007757,1
2.391493082,-12.80876446,1,2.988711357,1,-4.207038879,1,1.524569035,1,0.837102771,1,-1.137200713,1,0.46475026,1,-0.049087375,1,1.038534403,1
2.395493031,-13.30897713,1,2.89094758,1,-3.78813839,1,1.443926811,1,0.667383909,1,-1.126188278,1,0.470821679,1,-0.044350173,1,1.035856724,1
2.399489164,-14.03956223,1,2.97936821,1,-3.421341896,1,1.365575075,1,0.489706039,1,-1.111367226,1,0.476565212,1,-0.040252481,1,1.03292501,1
2.403487206,-14.7989645,1,3.422840834,1,-3.16253686,1,1.276392817,1,0.307892233,1,-1.104422092,1,0.481964052,1,-0.036794953,1,1.029733777,1
2.407487154,-15.39968872,1,3.927673578,1,-2.854291677,1,1.185819149,1,0.124640383,1,-1.115122557,1,0.487007171,1,-0.03396742,1,1.026208758,1
2.411483288,-16.24090576,1,4.511898041,1,-2.681838274,1,1.084415197,1,-0.071976952,1,-1.133654356,1,0.491678685,1,-0.031770043,1,1.022290826,1
2.415481329,-17.27776337,1,4.953602791,1,-2.452712774,1,0.987266779,1,-0.234782144,1,-1.169596314,1,0.495962828,1,-0.030129654,1,1.01792717,1
2.419481277,-18.52723312,1,5.048820019,1,-2.190773487,1,0.88271749,1,-0.380211234,1,-1.199051619,1,0.499846697,1,-0.028956065,1,1.013170481,1
2.423477411,-19.79104805,1,4.976631165,1,-1.916662574,1,0.756717741,1,-0.466949552,1,-1.214426041,1,0.503277481,1,-0.028130529,1,1.0081141,1
2.427475452,-20.9371376,1,4.938824177,1,-1.520923495,1,0.608611584,1,-0.523719013,1,-1.223473072,1,0.506167114,1,-0.027514592,1,1.00288558,1
2.431475878,-21.2611351,1,5.176720142,1,-1.089861631,1,0.441835344,1,-0.587923944,1,-1.213883519,1,0.508415937,1,-0.027082657,1,0.997551799,1
2.435472488,-21.67139053,1,5.359502316,1,-0.736828327,1,0.253281295,1,-0.666010797,1,-1.174048543,1,0.509957433,1,-0.026948646,1,0.99215275,1
2.439470291,-21.77582359,1,5.670153141,1,-0.244938061,1,0.065303922,1,-0.755506814,1,-1.105600476,1,0.51074332,1,-0.027191026,1,0.98677361,1
2.4434762,-21.68843269,1,5.955705166,1,0.248079583,1,-0.125502259,1,-0.870408297,1,-1.00732255,1,0.510773957,1,-0.027952185,1,0.98149097,1
2.447478294,-21.51689339,1,5.96901226,1,0.834208846,1,-0.308413357,1,-1.029943347,1,-0.857652843,1,0.510056674,1,-0.02942978,1,0.976376712,1
2.451476574,-21.32518959,1,5.766989708,1,1.440171957,1,-0.494348615,1,-1.220088005,1,-0.667436719,1,0.508596539,1,-0.031853162,1,0.97150898,1
2.455476522,-21.18564224,1,5.353572845,1,1.84857893,1,-0.668460906,1,-1.443569779,1,-0.423314661,1,0.506419063,1,-0.0354353,1,0.967014194,1
2.459472418,3.329754353,1,-6.980556488,1,-5.492342472,1,-1.121388316,1,-1.888283968,1,0.233891979,1,0.503162622,1,-0.040861845,1,0.963370562,1
2.463470221,-11.59002399,1,3.60123229,1,-1.997662425,1,-1.353081822,1,-3.364669561,1,0.924483895,1,0.498259008,1,-0.051330544,1,0.960238576,1
2.467470169,8.425375938,1,-6.330230713,1,-3.626718521,1,-1.87362206,1,-2.88445425,1,1.110427499,1,0.491867423,1,-0.064447269,1,0.957904398,1
2.471466303,20.22143364,1,-17.20905685,1,-12.59147549,1,-2.221104383,1,-3.580592394,1,1.286390066,1,0.483950973,1,-0.077773385,1,0.956142128,1
2.475464106,3.82586956,1,-15.40087318,1,-13.59696579,1,-2.893155575,1,-4.170976162,1,1.558126092,1,0.47379446,1,-0.094480425,1,0.953935862,1
2.479464293,10.71881771,1,-10.36842823,1,-20.0471344,1,-2.756021261,1,-3.964189291,1,1.708405852,1,0.46238178,1,-0.111842297,1,0.952450931,1
2.483460665,12.79230404,1,-11.43665791,1,-21.72392654,1,-2.666000366,1,-4.209582806,1,1.98745954,1,0.451989621,1,-0.129663467,1,0.951959431,1
2.487458467,-3.92805171,1,-8.012978554,1,-18.22395706,1,-2.629348755,1,-4.207606792,1,1.93890357,1,0.441194862,1,-0.148534179,1,0.951640725,1
2.491458416,-1.049050093,1,-6.417831421,1,-14.46919823,1,-2.514327765,1,-4.100660324,1,1.856610775,1,0.431060612,1,-0.166565746,1,0.951583743,1
2.49545455,-3.587470055,1,-2.405790806,1,-12.25676727,1,-2.64589262,1,-4.513406754,1,1.915411711,1,0.420684338,1,-0.185345113,1,0.951338768,1
2.499452353,-7.384556293,1,1.369122505,1,-12.19442463,1,-2.708192825,1,-4.829077244,1,1.950535059,1,0.410067409,1,-0.205570877,1,0.9508605,1
2.503452301,-10.82325745,1,6.686947346,1,-13.42070103,1,-2.382554531,1,-5.024355888,1,1.988981485,1,0.399949819,1,-0.226862878,1,0.950338066,1
2.507448435,-17.95637131,1,7.794901848,1,-15.01633167,1,-2.159677029,1,-5.00831461,1,1.727506638,1,0.391052723,1,-0.248291925,1,0.949439347,1
2.511446238,-18.69207001,1,9.662483215,1,-17.19715691,1,-1.842805982,1,-4.720025063,1,1.521797895,1,0.383439392,1,-0.268764704,1,0.948032498,1
2.515446424,-24.75231552,1,10.64792919,1,-19.01602364,1,-1.542074084,1,-4.30207634,1,1.301938653,1,0.377029359,1,-0.287830353,1,0.946443975,1
2.519442797,-22.96783638,1,8.359368324,1,-20.58125877,1,-1.206193924,1,-3.724649906,1,1.245459557,1,0.371890664,1,-0.304584295,1,0.945289493,1
2.523440838,-22.12726402,1,8.212129593,1,-20.33862305,1,-0.8100878,1,-3.070560217,1,1.184957385,1,0.367959082,1,-0.319054812,1,0.944861889,1
2.527440786,-17.21568108,1,6.06601572,1,-18.87558556,1,-0.482536614,1,-2.533952951,1,1.237717628,1,0.365220368,1,-0.331191987,1,0.945397198,1
2.531436682,-14.91339874,1,6.015229702,1,-16.38949394,1,-0.225017294,1,-2.147638559,1,1.264325857,1,0.363354862,1,-0.341741025,1,0.946816862,1
2.535434961,-10.25526714,1,4.157869339,1,-13.20925617,1,0.016465321,1,-1.947796345,1,1.270683289,1,0.362276971,1,-0.351142406,1,0.948789299,1
2.53943491,-7.997124195,1,1.233948231,1,-11.55478477,1,0.140797853,1,-1.851314664,1,1.290330052,1,0.361864567,1,-0.360031486,1,0.95103097,1
2.543431282,-5.912650108,1,-1.835878253,1,-9.195010185,1,0.138308957,1,-1.786117792,1,1.322926283,1,0.361583591,1,-0.368681014,1,0.953504801,1
2.547429085,-6.899328232,1,-3.950808525,1,-9.099991798,1,0.185918003,1,-1.753899693,1,1.193593383,1,0.361294806,1,-0.377194166,1,0.955871701,1
2.551429033,-5.695387363,1,-7.49154377,1,-8.246706009,1,0.131982192,1,-1.709287643,1,1.110468268,1,0.361267209,1,-0.385242492,1,0.957872868,1
2.555425167,-5.733663082,1,-9.350753784,1,-6.667282104,1,-0.023057668,1,-1.693107367,1,1.002984405,1,0.360814005,1,-0.39314428,1,0.959562123,1
2.559423208,-5.641533375,1,-10.88225555,1,-6.264498711,1,-0.227174923,1,-1.68100214,1,0.900233328,1,0.359849572,1,-0.40075168,1,0.960811317,1
2.563423395,-6.286552906,1,-10.78807259,1,-5.319684982,1,-0.45136404,1,-1.662465215,1,0.832143068,1,0.358118504,1,-0.408250213,1,0.961777925,1
2.567425489,-6.61163187,1,-10.18710041,1,-5.864377022,1,-0.6935004,1,-1.640017986,1,0.803666532,1,0.355504811,1,-0.415559351,1,0.962581694,1
2.571423531,-8.919897079,1,-8.139641762,1,-6.609801292,1,-0.914865017,1,-1.517743111,1,0.821279585,1,0.351882517,1,-0.422670275,1,0.963527441,1
2.575423717,-8.553759575,1,-5.842159748,1,-7.633974075,1,-1.042641282,1,-1.352162242,1,0.816405714,1,0.347438633,1,-0.429159999,1,0.964743376,1
2.579419851,-9.352941513,1,-3.574183464,1,-9.044901848,1,-1.121521473,1,-1.215209723,1,0.849458873,1,0.342459172,1,-0.43513,1,0.966269135,1
2.583417892,-9.463274002,1,-1.897009373,1,-10.21829414,1,-1.127194524,1,-1.006505728,1,0.877959907,1,0.337121606,1,-0.440473408,1,0.968211472,1
2.587418079,-9.332363129,1,-0.825066388,1,-10.77329445,1,-1.119893909,1,-0.765021086,1,0.913534284,1,0.331554174,1,-0.44499144,1,0.970688641,1
2.591414213,-7.886003494,1,-0.87879926,1,-10.32216167,1,-1.076413393,1,-0.587834477,1,0.904262602,1,0.325927317,1,-0.448712349,1,0.973551035,1
2.595412254,-6.684885025,1,-1.518397331,1,-9.831931114,1,-1.048912883,1,-0.488881975,1,0.877038181,1,0.320370138,1,-0.451884925,1,0.976558626,1
2.599412203,-5.401449203,1,-3.41624999,1,-9.249399185,1,-1.058489919,1,-0.405940443,1,0.794143021,1,0.314897388,1,-0.454619318,1,0.979459405,1
2.603408098,-4.720679283,1,-4.112691402,1,-9.048206329,1,-1.088492393,1,-0.380240858,1,0.783769608,1,0.30980736,1,-0.457164556,1,0.980649829,1
2.607406139,-5.041261196,1,-3.867799044,1,-8.624378204,1,-1.176906347,1,-0.41508922,1,0.782062888,1,0.304019272,1,-0.459633201,1,0.983452201,1
2.611406326,-6.042439938,1,-3.909561157,1,-8.985844612,1,-1.215389967,1,-0.331411362,1,0.744638324,1,0.297990829,1,-0.461955458,1,0.986224413,1
2.61540246,-6.867413998,1,-4.424213886,1,-9.329299927,1,-1.256381512,1,-0.234138355,1,0.734758794,1,0.291815042,1,-0.463914663,1,0.98901248,1
2.619400501,-6.424118042,1,-2.506909847,1,-9.334072113,1,-1.243956208,1,-0.114011981,1,0.703087091,1,0.285521865,1,-0.465412378,1,0.991854787,1
2.62340045,-6.902867317,1,-1.573225498,1,-9.984336853,1,-1.180153966,1,0.11455249,1,0.685195148,1,0.279332995,1,-0.466169864,1,0.994809628,1
2.627396345,-3.331412315,1,-1.517481327,1,-8.716406822,1,-1.148091555,1,0.011833084,1,0.731216609,1,0.273289859,1,-0.466758728,1,0.997916341,1
2.631394386,-5.04598093,1,-0.893971801,1,-10.38737774,1,-1.118051171,1,0.077991433,1,0.704113424,1,0.267336994,1,-0.467348397,1,1.001092434,1
2.635394335,-4.292981148,1,-0.378881723,1,-8.685395241,1,-1.082517982,1,0.017809074,1,0.679679632,1,0.261599034,1,-0.467792481,1,1.004142046,1
2.639390469,-5.143496513,1,-0.628249049,1,-10.12858772,1,-0.960725546,1,0.042411242,1,0.62820363,1,0.256236851,1,-0.468431503,1,1.006974697,1
2.643388748,-5.248240948,1,-0.047134127,1,-10.62818718,1,-0.884753108,1,0.089526631,1,0.617559612,1,0.251282215,1,-0.468843907,1,1.009752631,1
2.647388697,-4.061907768,1,-0.64823848,1,-9.805779457,1,-0.80254072,1,0.076189838,1,0.615700245,1,0.246693954,1,-0.469070345,1,1.012514472,1
2.65138483,-3.433497667,1,-0.356466591,1,-9.807313919,1,-0.79382509,1,-0.036674708,1,0.602417707,1,0.242307484,1,-0.469599873,1,1.015184641,1
2.655382872,-4.504041672,1,-0.263463318,1,-9.371981621,1,-0.719626546,1,-0.016483368,1,0.565887809,1,0.238097265,1,-0.470311254,1,1.017694354,1
2.659383059,-5.440402031,1,-0.090327419,1,-10.32851028,1,-0.642384171,1,-0.038225416,1,0.527134895,1,0.234336674,1,-0.47090134,1,1.020042658,1
2.663379192,-4.980822086,1,-0.559154332,1,-9.207267761,1,-0.61042881,1,-0.005830373,1,0.527487636,1,0.230807856,1,-0.47149381,1,1.022308946,1
2.667377472,-4.395637512,1,-1.280429006,1,-9.039973259,1,-0.584338486,1,-0.035128117,1,0.496367157,1,0.22739175,1,-0.47201097,1,1.024557948,1
2.671377659,-4.432822704,1,-1.44955492,1,-9.415483475,1,-0.545387268,1,-0.053936694,1,0.440153211,1,0.224224314,1,-0.472621202,1,1.026543379,1
2.675373793,-4.409442425,1,-1.264386296,1,-9.227928162,1,-0.511448622,1,-0.074170783,1,0.408327699,1,0.221301034,1,-0.473246992,1,1.028328538,1
2.679371834,-4.468105316,1,-0.732550025,1,-9.274980545,1,-0.499327421,1,-0.090677716,1,0.39552176,1,0.218509719,1,-0.473920017,1,1.030005693,1
2.683371782,-4.999532223,1,-0.281922847,1,-9.356235504,1,-0.457499951,1,-0.075361989,1,0.366380185,1,0.215859875,1,-0.474588811,1,1.031595588,1
2.687373877,-4.960064888,1,-0.111468337,1,-9.301600456,1,-0.407347262,1,-0.084364057,1,0.330881923,1,0.21347855,1,-0.475191653,1,1.033039331,1
2.691371918,-4.812517166,1,0.143479943,1,-9.210988998,1,-0.378759146,1,-0.095963225,1,0.290185004,1,0.211322635,1,-0.475812674,1,1.034321785,1
2.695372343,-4.73894453,1,0.391271979,1,-9.496508598,1,-0.326838285,1,-0.093137287,1,0.253826767,1,0.209389359,1,-0.476389676,1,1.035428524,1
2.699368477,-4.119127274,1,-0.095118143,1,-9.228790283,1,-0.281822532,1,-0.133506283,1,0.213577241,1,0.207765445,1,-0.477024943,1,1.036356449,1
2.703366518,-3.890322447,1,-0.074666083,1,-9.392191887,1,-0.251470357,1,-0.17519936,1,0.19171527,1,0.20633699,1,-0.477801353,1,1.037118912,1
2.707366467,-4.334748268,1,-0.133910328,1,-9.320795059,1,-0.219319567,1,-0.195936054,1,0.159701586,1,0.205121309,1,-0.478675574,1,1.037721992,1
2.711362362,-4.139757156,1,-0.383367211,1,-9.236686707,1,-0.185640797,1,-0.212190747,1,0.14216353,1,0.204094723,1,-0.479586422,1,1.038209558,1
2.715360403,-4.234492779,1,-0.9017874,1,-9.089231491,1,-0.177743196,1,-0.233549118,1,0.126467451,1,0.203187659,1,-0.480570495,1,1.038597345,1
2.71936059,-4.208522797,1,-1.357773423,1,-8.935320854,1,-0.180894986,1,-0.251401246,1,0.122155629,1,0.202324569,1,-0.481620938,1,1.038923264,1
2.723356724,-4.325635433,1,-1.503455758,1,-9.081693649,1,-0.176125094,1,-0.25867188,1,0.108548537,1,0.201477334,1,-0.482720584,1,1.039206505,1
2.727354527,-4.204904556,1,-1.263156414,1,-9.105883598,1,-0.181090415,1,-0.270841599,1,0.103318065,1,0.200650945,1,-0.483834594,1,1.039443135,1
2.731354713,-4.291050434,1,-0.93758291,1,-9.076726913,1,-0.178184405,1,-0.284935951,1,0.109168284,1,0.199829578,1,-0.485009491,1,1.039660335,1
2.735350847,-4.454656124,1,-0.817344964,1,-9.132712364,1,-0.168625548,1,-0.292554855,1,0.099811055,1,0.199039593,1,-0.486219168,1,1.039868712,1
2.73934865,-4.325726509,1,-0.967261314,1,-9.120854378,1,-0.158519104,1,-0.295734316,1,0.089978077,1,0.198304325,1,-0.48744455,1,1.040033817,1
2.743349075,-4.265693665,1,-1.039216995,1,-9.100279808,1,-0.147292897,1,-0.315941989,1,0.090845935,1,0.197627991,1,-0.488721699,1,1.040157795,1
2.747345448,-4.376173496,1,-1.287988067,1,-8.987408638,1,-0.143277675,1,-0.32204172,1,0.08715684,1,0.196988493,1,-0.490044594,1,1.040272951,1
2.75134325,-4.483436108,1,-1.584779739,1,-8.945421219,1,-0.141241819,1,-0.331365734,1,0.091752365,1,0.196374148,1,-0.491397381,1,1.040382028,1
2.755343676,-4.559979439,1,-1.791345119,1,-8.85238266,1,-0.139076576,1,-0.338437974,1,0.088071376,1,0.195760891,1,-0.492784858,1,1.04048121,1
2.759339809,-4.608615398,1,-2.021920204,1,-8.792104721,1,-0.141987801,1,-0.340737402,1,0.090705201,1,0.19514741,1,-0.494179189,1,1.040578485,1
2.763337612,-4.678022861,1,-2.018873692,1,-8.700446129,1,-0.149222001,1,-0.339845777,1,0.098912731,1,0.194499046,1,-0.495583773,1,1.040698171,1
2.767338037,-4.799215794,1,-1.810751915,1,-8.620071411,1,-0.153780356,1,-0.333610594,1,0.096391715,1,0.193827629,1,-0.496986568,1,1.040852904,1
2.771334171,-4.734466076,1,-1.690733075,1,-8.588116646,1,-0.158688739,1,-0.326886058,1,0.104074202,1,0.193123013,1,-0.498363197,1,1.041021466,1
2.775332451,-4.784449577,1,-1.537005186,1,-8.573077202,1,-0.154965729,1,-0.324286699,1,0.106324218,1,0.192401454,1,-0.499729604,1,1.041221261,1
2.779332399,-4.934636116,1,-1.808701515,1,-8.554297447,1,-0.161986217,1,-0.312411875,1,0.104168512,1,0.191678122,1,-0.501059711,1,1.041420698,1
2.783328295,-4.804893494,1,-1.974946499,1,-8.566076279,1,-0.16657792,1,-0.314424962,1,0.09743984,1,0.190926492,1,-0.502360642,1,1.041604757,1
2.787326574,-4.485046864,1,-2.040039778,1,-8.724245071,1,-0.173087299,1,-0.316247493,1,0.104676619,1,0.190157607,1,-0.503674924,1,1.041789889,1
2.791326761,-4.443732738,1,-2.105447769,1,-8.782007217,1,-0.186796457,1,-0.328415394,1,0.106134355,1,0.18934083,1,-0.505016685,1,1.041993976,1
2.795323372,-4.299503326,1,-2.15509367,1,-8.810465813,1,-0.195725515,1,-0.354737371,1,0.111230724,1,0.188482925,1,-0.50644052,1,1.042194843,1
2.799321651,-4.350424767,1,-2.159937382,1,-8.84099865,1,-0.227942929,1,-0.383626342,1,0.12658003,1,0.187526524,1,-0.507978022,1,1.042412639,1
2.8033216,-4.434690475,1,-2.234515667,1,-8.689170837,1,-0.251186758,1,-0.402082533,1,0.135141894,1,0.186456263,1,-0.509616733,1,1.042652726,1
2.807323694,-4.45118475,1,-2.404713869,1,-8.650261879,1,-0.276079178,1,-0.408948779,1,0.15234223,1,0.185247362,1,-0.511321783,1,1.042968392,1
2.811321974,-4.643913746,1,-2.284754515,1,-8.505129814,1,-0.295925766,1,-0.404571533,1,0.166095987,1,0.183931902,1,-0.513035059,1,1.04333508,1
2.815321922,-4.728082657,1,-2.057061911,1,-8.589819908,1,-0.304478824,1,-0.388122618,1,0.174834549,1,0.182523102,1,-0.514722586,1,1.04376626,1
2.819318056,-4.650568962,1,-1.789802074,1,-8.467293739,1,-0.320321321,1,-0.379478425,1,0.180494994,1,0.181025535,1,-0.516361237,1,1.044251084,1
2.823315859,-4.365650177,1,-1.824584484,1,-8.666247368,1,-0.332118005,1,-0.365919232,1,0.188956827,1,0.179460078,1,-0.517951488,1,1.044788599,1
2.827316284,-4.29767561,1,-1.445387244,1,-8.730881691,1,-0.331642449,1,-0.369189262,1,0.202306688,1,0.177842095,1,-0.519532979,1,1.045369148,1
2.831312418,-4.376177788,1,-0.947045863,1,-8.835773468,1,-0.307323933,1,-0.38316384,1,0.217970759,1,0.17622681,1,-0.521163464,1,1.046013117,1
2.835310221,-4.504152775,1,-1.186324,1,-8.695907593,1,-0.269537896,1,-0.383897692,1,0.245643795,1,0.1747154,1,-0.522831321,1,1.046761513,1
2.839310646,-4.677992344,1,-1.329968095,1,-8.665892601,1,-0.245400697,1,-0.389819384,1,0.252584934,1,0.173285767,1,-0.524533272,1,1.047590494,1
2.84330678,-4.342717171,1,-1.725898743,1,-8.741486549,1,-0.243399084,1,-0.386870176,1,0.261017948,1,0.171869248,1,-0.526229918,1,1.048458457,1
2.847304821,-4.131959915,1,-1.896673918,1,-8.861081123,1,-0.245201886,1,-0.409863412,1,0.296412259,1,0.170422941,1,-0.527989626,1,1.049414754,1
2.851305008,-3.908121824,1,-1.634455681,1,-9.272082329,1,-0.261344373,1,-0.446570158,1,0.306329817,1,0.167101189,1,-0.529231429,1,1.053444147,1
2.855301142,-3.863899946,1,-0.833249927,1,-9.215158463,1,-0.234088883,1,-0.472577274,1,0.306251258,1,0.165696725,1,-0.531267405,1,1.053154469,1
2.859299421,-4.213068962,1,-0.823867381,1,-9.460160255,1,-0.197739109,1,-0.516684234,1,0.326904118,1,0.164284259,1,-0.533424556,1,1.054218292,1
2.863299608,-4.176167488,1,-1.609798908,1,-8.881484985,1,-0.212981552,1,-0.5378052,1,0.332680941,1,0.162907377,1,-0.535713255,1,1.055329204,1
2.86729598,-4.716704845,1,-1.571156859,1,-8.95423317,1,-0.233723581,1,-0.557872832,1,0.332989991,1,0.161444649,1,-0.538102627,1,1.056445241,1
2.87129426,-4.388909817,1,-0.950940371,1,-8.770339012,1,-0.228783906,1,-0.571409762,1,0.334395111,1,0.159924731,1,-0.540552855,1,1.05755794,1
2.875294209,-4.208543777,1,-0.97532469,1,-8.790704727,1,-0.212913767,1,-0.571048021,1,0.336406082,1,0.158480242,1,-0.543009758,1,1.05868566,1
2.879290342,-4.147016525,1,-0.93504566,1,-8.906195641,1,-0.206236988,1,-0.583524406,1,0.329974502,1,0.157065362,1,-0.545500398,1,1.059801936,1
2.883288383,-4.337261677,1,-1.228386641,1,-8.767704964,1,-0.216870978,1,-0.604116619,1,0.326413512,1,0.155665085,1,-0.548039734,1,1.06088686,1
2.887288332,-4.685427666,1,-1.30950737,1,-8.542279243,1,-0.24856934,1,-0.615289629,1,0.329631567,1,0.154166624,1,-0.550659478,1,1.061965942,1
2.891284704,-4.802946568,1,-1.419208288,1,-8.495986938,1,-0.268090606,1,-0.624478877,1,0.325922906,1,0.152577251,1,-0.553300261,1,1.063036919,1
2.895282984,-4.761927128,1,-1.420768857,1,-8.477507591,1,-0.291484833,1,-0.62956351,1,0.332697749,1,0.15088363,1,-0.555973589,1,1.064118385,1
2.899282932,-4.611256123,1,-1.631420493,1,-8.487823486,1,-0.30923903,1,-0.62958461,1,0.334230185,1,0.149093941,1,-0.558647633,1,1.065227151,1
2.903279066,-4.791876793,1,-1.942601562,1,-8.463449478,1,-0.333955586,1,-0.636899114,1,0.352558523,1,0.147182778,1,-0.561355591,1,1.066391587,1
2.907277107,-4.747750282,1,-1.945056796,1,-8.298362732,1,-0.358168274,1,-0.636262119,1,0.366823584,1,0.145124167,1,-0.564083219,1,1.067638397,1
2.911277294,-4.938014507,1,-1.662910223,1,-8.550336838,1,-0.376284987,1,-0.635470331,1,0.380091727,1,0.142931893,1,-0.566810131,1,1.068968534,1
2.915273666,-4.849000931,1,-1.742371917,1,-8.212500572,1,-0.39548865,1,-0.638419271,1,0.397740424,1,0.140650317,1,-0.569551408,1,1.070367575,1
2.919271946,-5.462660789,1,-1.757398248,1,-8.564429283,1,-0.456581563,1,-0.560800433,1,0.395626098,1,0.138166249,1,-0.572220325,1,1.071849108,1
2.923272133,-4.157976627,1,0.664513946,1,-9.062363625,1,-0.280972898,1,-0.735725582,1,0.465435594,1,0.135815814,1,-0.574948907,1,1.073451996,1
2.927274227,-5.379874229,1,-1.671842575,1,-8.515634537,1,-0.366763264,1,-0.61596489,1,0.443178594,1,0.133669123,1,-0.577866495,1,1.075192571,1
2.931272268,-5.11762619,1,-3.918205738,1,-7.852023125,1,-0.547199905,1,-0.697060108,1,0.459872276,1,0.130833372,1,-0.580703259,1,1.07691586,1
2.935272694,-4.917148113,1,-1.517759442,1,-8.422615051,1,-0.524407148,1,-0.679372489,1,0.486341774,1,0.127683461,1,-0.58367151,1,1.078704357,1
2.939269066,-4.202319145,1,-0.524173379,1,-8.715291023,1,-0.459975481,1,-0.701467931,1,0.553849876,1,0.124583066,1,-0.586665869,1,1.080778599,1
2.943267345,-5.572273254,1,-2.109866858,1,-8.626616478,1,-0.49402073,1,-0.708962083,1,0.577042878,1,0.121416055,1,-0.589752913,1,1.083083034,1
2.947267532,-5.166046619,1,-2.139539719,1,-8.496513367,1,-0.553098023,1,-0.741461217,1,0.589673817,1,0.118001506,1,-0.592901111,1,1.085450649,1
2.951263666,-5.202946186,1,-0.811039507,1,-8.807700157,1,-0.549881279,1,-0.767466068,1,0.633292973,1,0.11436791,1,-0.59618783,1,1.087951541,1
2.955261946,-5.117153645,1,-0.613480866,1,-8.983578682,1,-0.531010807,1,-0.815343201,1,0.662237346,1,0.11068324,1,-0.599615097,1,1.090641618,1
2.959262133,-5.142165661,1,-1.132431269,1,-9.21848011,1,-0.527936101,1,-0.854565024,1,0.676085711,1,0.106993318,1,-0.603224456,1,1.093419671,1
2.963258505,-5.059189796,1,-1.285874367,1,-9.274331093,1,-0.55288291,1,-0.888681293,1,0.702089012,1,0.103197783,1,-0.606976032,1,1.096303225,1
2.967256784,-5.081021786,1,-1.082734227,1,-9.425538063,1,-0.574343324,1,-0.940558136,1,0.713006735,1,0.099224053,1,-0.610905349,1,1.099285245,1
2.971256971,-4.978851318,1,-0.977656424,1,-9.655060768,1,-0.580585957,1,-0.995814383,1,0.731938183,1,0.095147833,1,-0.615032256,1,1.102353573,1
2.975253582,-5.048970222,1,-1.117092967,1,-9.739145279,1,-0.578296602,1,-1.055053592,1,0.762779117,1,0.0909895,1,-0.619394898,1,1.105523705,1
2.979251623,-5.197247028,1,-1.336363673,1,-9.776420593,1,-0.588386416,1,-1.125555992,1,0.789344966,1,0.086715549,1,-0.624017358,1,1.108850956,1
2.98325181,-4.998988152,1,-1.465320706,1,-10.08258533,1,-0.614620745,1,-1.201430321,1,0.81414938,1,0.082289368,1,-0.628926158,1,1.112300038,1
2.987248182,-5.09384203,1,-1.444312572,1,-10.4975214,1,-0.652093649,1,-1.267262697,1,0.842358291,1,0.077637389,1,-0.634111047,1,1.11589551,1
2.991246223,-4.41958952,1,-1.431392908,1,-10.30765247,1,-0.693632483,1,-1.365468621,1,0.870826006,1,0.072715357,1,-0.639606953,1,1.11963892,1
2.995246887,-4.389881134,1,-1.395671248,1,-10.81621838,1,-0.731218934,1,-1.479401469,1,0.883645594,1,0.067547172,1,-0.645543039,1,1.123510242,1
2.999243259,-4.42304039,1,-1.502928615,1,-10.93481159,1,-0.775047958,1,-1.581444383,1,0.909723878,1,0.062134169,1,-0.651890993,1,1.127508879,1
3.003241301,-3.904758453,1,-1.833106995,1,-10.82432079,1,-0.844494879,1,-1.71786654,1,0.947610438,1,0.056343384,1,-0.658692658,1,1.131697536,1
3.007241488,-3.939792871,1,-1.796480179,1,-10.9091711,1,-0.919902146,1,-1.8641361,1,0.97507,1,0.050113413,1,-0.666046798,1,1.136082888,1
3.011237621,-4.188476563,1,-1.701031685,1,-11.07233715,1,-0.984471619,1,-1.986718178,1,1.00999248,1,0.04344276,1,-0.673939228,1,1.140675664,1
3.015235662,-3.888716936,1,-1.752620339,1,-11.08781052,1,-1.041210413,1,-2.145821333,1,1.05461061,1,0.036332127,1,-0.682364881,1,1.145559072,1
3.019236088,-4.011046886,1,-1.649173498,1,-11.13664532,1,-1.091136456,1,-2.291507483,1,1.088176966,1,0.028778054,1,-0.691371322,1,1.150730968,1
3.02323246,-3.833747387,1,-1.73559165,1,-11.4958334,1,-1.148412228,1,-2.457670689,1,1.132917643,1,0.020787632,1,-0.700970232,1,1.156207204,1
3.027230978,-3.522226334,1,-1.694147944,1,-11.58121204,1,-1.206194639,1,-2.648737192,1,1.179204941,1,0.012290081,1,-0.711229324,1,1.162044287,1
3.031231165,-3.967633247,1,-2.003729105,1,-11.64091587,1,-1.298407674,1,-2.834874153,1,1.210808396,1,0.003193329,1,-0.722263575,1,1.168273926,1
3.035227299,-2.972469807,1,-2.24925518,1,-11.85487366,1,-1.380043864,1,-3.115175486,1,1.304986477,1,-0.006643781,1,-0.734128892,1,1.175036192,1
3.039225578,-2.787611485,1,-2.392472744,1,-11.87999821,1,-1.448447585,1,-3.376712561,1,1.393584728,1,-0.017386047,1,-0.747041583,1,1.182548523,1
3.043225527,-2.711443901,1,-2.612781286,1,-12.30571365,1,-1.494749904,1,-3.605674505,1,1.485049486,1,-0.028990272,1,-0.760883451,1,1.190895677,1
3.047227859,-1.903171897,1,-2.7359097,1,-13.02129078,1,-1.528154016,1,-3.90030098,1,1.602738023,1,-0.041498657,1,-0.775642812,1,1.200209141,1
3.051226139,-1.670757651,1,-3.379538298,1,-13.38321686,1,-1.591334701,1,-4.255691051,1,1.696251154,1,-0.055109791,1,-0.791625798,1,1.210648537,1
3.055226326,-2.87584734,1,-3.501413584,1,-13.80913544,1,-1.684579372,1,-4.562538624,1,1.747650504,1,-0.069882095,1,-0.808815837,1,1.222114682,1
3.059222698,-5.537118912,1,-3.912258625,1,-14.25257874,1,-1.777908683,1,-4.719666004,1,1.781102061,1,-0.085858367,1,-0.826811373,1,1.234514713,1
3.063221216,-7.325273037,1,-5.191475391,1,-14.39657211,1,-1.904461145,1,-4.769569397,1,1.875885963,1,-0.103207447,1,-0.845047951,1,1.248003125,1
3.067221165,-9.39058876,1,-7.039492607,1,-14.17068005,1,-2.157719374,1,-4.785793781,1,2.008378744,1,-0.122629896,1,-0.863179505,1,1.263037682,1
3.071217299,-11.09921551,1,-8.413509369,1,-14.50152111,1,-2.432827473,1,-4.747640133,1,2.1314466,1,-0.144559965,1,-0.880976319,1,1.279703021,1
3.075215578,-10.02955437,1,-7.792029381,1,-15.47600842,1,-2.717151403,1,-4.793760777,1,2.277566195,1,-0.169311389,1,-0.898446441,1,1.29829216,1
3.079216242,-8.065611839,1,-8.503816605,1,-14.5813303,1,-3.029443026,1,-4.855556965,1,2.465177536,1,-0.197279379,1,-0.915627062,1,1.319158077,1
3.083212614,-11.03662491,1,-7.679934025,1,-15.53104401,1,-3.211712837,1,-4.974124432,1,2.656338692,1,-0.228491664,1,-0.932704926,1,1.342611074,1
3.087210417,-15.07010078,1,-7.03589201,1,-17.21617126,1,-3.336578608,1,-4.959135056,1,2.86929822,1,-0.262984276,1,-0.949313998,1,1.369083881,1
3.091210842,-18.43784523,1,-7.260092258,1,-17.80448914,1,-3.438551426,1,-4.841349125,1,3.009765625,1,-0.300327122,1,-0.964881539,1,1.398164988,1
3.095206976,-17.90118027,1,-7.920649529,1,-17.56837082,1,-3.530809879,1,-4.755815029,1,3.213815212,1,-0.34033978,1,-0.979157925,1,1.429755688,1
3.099205017,-18.06916428,1,-8.086449623,1,-17.40983009,1,-3.718845129,1,-4.750958443,1,3.494131327,1,-0.383941442,1,-0.992193043,1,1.464674354,1
3.103205442,-17.1776104,1,-6.000281811,1,-17.29325676,1,-3.86734724,1,-4.803638935,1,3.719850302,1,-0.431114018,1,-1.004169464,1,1.501409888,1
3.107201815,-16.08594322,1,-3.67366004,1,-17.29670334,1,-3.947999001,1,-4.978820324,1,3.95831418,1,-0.482357323,1,-1.014935374,1,1.543466806,1
3.111200094,-17.34434891,1,-3.800994635,1,-17.75954819,1,-4.03905201,1,-5.108703613,1,4.242019176,1,-0.537669599,1,-1.024562359,1,1.589638114,1
3.115200281,-18.44532776,1,-5.964075089,1,-17.15321732,1,-4.153293133,1,-5.12270689,1,4.487398148,1,-0.596770048,1,-1.032454133,1,1.639511824,1
3.119196415,-21.45302391,1,-8.131327629,1,-18.06095886,1,-4.386264324,1,-5.077282906,1,4.616153717,1,-0.658977866,1,-1.038291574,1,1.691985011,1
3.123194695,-24.1699028,1,-9.963430405,1,-16.34954262,1,-4.699629784,1,-4.860674381,1,4.780433655,1,-0.723351181,1,-1.041668415,1,1.745615363,1
3.127194881,-22.28105927,1,-10.88380241,1,-14.87341309,1,-5.286716461,1,-4.566014767,1,4.883257866,1,-0.789559722,1,-1.042059302,1,1.799211979,1
3.131191254,-22.48913193,1,-8.740260124,1,-15.20438194,1,-5.720284939,1,-4.203123093,1,4.734671593,1,-0.856098354,1,-1.039928198,1,1.850709915,1
3.135189533,-20.59601021,1,-4.99793148,1,-16.63957024,1,-5.811168194,1,-3.717887163,1,4.561843872,1,-0.919967294,1,-1.035452962,1,1.897980332,1
3.13918972,-19.01133728,1,-1.487976909,1,-17.97064972,1,-5.492192268,1,-3.246075392,1,4.300867081,1,-0.978875399,1,-1.029167056,1,1.940182686,1
3.143186092,-18.39769173,1,-1.296549678,1,-19.57283783,1,-5.057481289,1,-2.856620312,1,4.062319756,1,-1.03167367,1,-1.021540046,1,1.977270126,1
3.147184372,-13.65439892,1,-2.998349905,1,-17.69242477,1,-4.656314373,1,-2.656680584,1,3.682936668,1,-1.078840375,1,-1.013473153,1,2.009901285,1
3.151184559,-13.34232235,1,8.027507782,1,-15.84740829,1,-3.92010951,1,-3.24614501,1,3.557668209,1,-1.123134255,1,-1.005789518,1,2.041721821,1
3.155181408,-23.80640411,1,8.319643021,1,-22.91476822,1,-2.650073051,1,-2.967713356,1,3.279536486,1,-1.163426876,1,-0.998754501,1,2.073970079,1
3.159179449,-11.54558468,1,-2.493235111,1,-17.53970528,1,-1.907963395,1,-2.457436085,1,3.078184605,1,-1.194985151,1,-0.991025627,1,2.100892305,1
3.163179874,-6.968213081,1,-6.29094553,1,-12.52033329,1,-1.473455906,1,-2.52210784,1,2.863850117,1,-1.222106814,1,-0.983407974,1,2.125326157,1
3.167181969,-12.78080368,1,-7.847883224,1,-12.78120995,1,-1.250237703,1,-2.590493441,1,2.769686699,1,-1.247538209,1,-0.976214051,1,2.149481773,1
3.171180248,-12.11458683,1,-9.652105331,1,-13.15459156,1,-1.324674726,1,-2.315960646,1,2.725227118,1,-1.271279454,1,-0.968760133,1,2.17202878,1
3.175180912,-9.217364311,1,-9.928084373,1,-11.86440277,1,-1.413118601,1,-2.173766613,1,2.638541222,1,-1.293594003,1,-0.961017191,1,2.192489147,1
3.179177284,-9.266480446,1,-9.651700974,1,-11.67603683,1,-1.417113304,1,-2.042823553,1,2.547461033,1,-1.314712524,1,-0.953246713,1,2.211385489,1
3.183175325,-8.873691559,1,-9.036393166,1,-12.22001362,1,-1.405765533,1,-1.819669843,1,2.450702667,1,-1.334256768,1,-0.945438445,1,2.228460312,1
3.187175751,-7.603511333,1,-8.111906052,1,-12.22505379,1,-1.328794599,1,-1.607020259,1,2.349452734,1,-1.351884127,1,-0.937625468,1,2.243474007,1
3.191171885,-6.826123714,1,-7.314994812,1,-12.11044121,1,-1.173556685,1,-1.403238058,1,2.232209206,1,-1.367450476,1,-0.929916441,1,2.256590128,1
3.195170164,-6.313578129,1,-7.008153915,1,-11.73259163,1,-0.966281593,1,-1.168717504,1,2.096860886,1,-1.38072145,1,-0.922433555,1,2.267827749,1
3.199170589,-6.254048347,1,-7.064878941,1,-11.78825188,1,-0.754496455,1,-0.899310768,1,1.943799496,1,-1.391440034,1,-0.915248036,1,2.276986599,1
3.203166962,-5.86352396,1,-7.831943989,1,-11.49144077,1,-0.565873802,1,-0.577657938,1,1.767332315,1,-1.39950633,1,-0.908450425,1,2.283854485,1
3.207165241,-6.296968937,1,-8.476511002,1,-11.34095383,1,-0.418631107,1,-0.203158021,1,1.575071096,1,-1.40487504,1,-0.902120352,1,2.288187742,1
3.211165905,-5.83066988,1,-8.870883942,1,-10.86188316,1,-0.292897105,1,0.21506393,1,1.351740599,1,-1.407473087,1,-0.896333754,1,2.289697647,1
3.215162992,-4.720195293,1,-9.047142029,1,-10.2929163,1,-0.163435534,1,0.605237663,1,1.116465688,1,-1.407363176,1,-0.891184807,1,2.2883811,1
3.219161034,-3.107348442,1,-9.429829597,1,-9.619244576,1,-0.046161167,1,0.964345813,1,0.864330649,1,-1.404757023,1,-0.886741817,1,2.284487963,1
3.223161459,-1.594607234,1,-9.664653778,1,-9.153909683,1,0.04306867,1,1.265915155,1,0.628504336,1,-1.399986863,1,-0.883041799,1,2.278332472,1
3.227157831,0.04263356,1,-9.558598518,1,-8.689622879,1,0.119867399,1,1.505124331,1,0.387825638,1,-1.393440962,1,-0.880061686,1,2.27025938,1
3.231155872,1.078500271,1,-9.204294205,1,-8.253282547,1,0.202393577,1,1.689976215,1,0.142600194,1,-1.38543117,1,-0.877859354,1,2.260683537,1
3.235156298,1.559440494,1,-8.737482071,1,-7.862282753,1,0.321600676,1,1.817002296,1,-0.107953183,1,-1.376109838,1,-0.876476109,1,2.2499156,1
3.23915267,2.355770588,1,-8.140032768,1,-7.637172222,1,0.467531383,1,1.960066795,1,-0.374746114,1,-1.365406513,1,-0.875901103,1,2.238020182,1
3.243150949,2.28633666,1,-7.714317799,1,-7.462271214,1,0.632424533,1,2.073564768,1,-0.636629581,1,-1.35328877,1,-0.876174748,1,2.225089312,1
3.247151375,2.571067572,1,-7.238088131,1,-7.464548588,1,0.837958753,1,2.176477909,1,-0.913791537,1,-1.339488029,1,-0.877292812,1,2.210970163,1
3.251147747,2.057036161,1,-6.935413837,1,-7.587046146,1,1.029803276,1,2.302357912,1,-1.155503631,1,-1.324074984,1,-0.879208565,1,2.195810795,1
3.255146027,2.276258469,1,-7.099428177,1,-7.52814436,1,1.200861931,1,2.425349474,1,-1.391305685,1,-1.306964993,1,-0.881746948,1,2.179405451,1
3.259146452,2.631005764,1,-6.746029854,1,-7.470929146,1,1.377500176,1,2.521323442,1,-1.611608863,1,-1.28823936,1,-0.884855568,1,2.161832094,1
3.263142824,2.641969681,1,-6.423009396,1,-7.609309196,1,1.551153302,1,2.611338377,1,-1.819477916,1,-1.26789701,1,-0.888479292,1,2.14315033,1
3.267141104,2.588338852,1,-6.240633488,1,-7.433130741,1,1.722824216,1,2.726569653,1,-1.996369123,1,-1.245895028,1,-0.892438769,1,2.123265028,1
3.271141291,2.659663677,1,-6.071789265,1,-7.30116272,1,1.884914994,1,2.842126846,1,-2.164177656,1,-1.222144961,1,-0.896609426,1,2.10206604,1
3.275137901,2.527426481,1,-5.825000763,1,-7.268241882,1,2.031233788,1,2.951696157,1,-2.31097579,1,-1.196698666,1,-0.900893629,1,2.079559803,1
3.279136181,2.501805782,1,-5.633765221,1,-7.240384579,1,2.162074566,1,3.064342737,1,-2.437958241,1,-1.169620275,1,-0.905153275,1,2.055767298,1
3.283136606,2.560194731,1,-5.42263031,1,-7.196552277,1,2.296583176,1,3.161588669,1,-2.554113388,1,-1.140955329,1,-0.909276247,1,2.030700922,1
3.2871387,2.588125706,1,-5.372590542,1,-7.12965107,1,2.409429789,1,3.235381365,1,-2.652663946,1,-1.110864162,1,-0.913165987,1,2.00453949,1
3.291137218,2.967004538,1,-5.162546158,1,-7.124458313,1,2.519859791,1,3.293198824,1,-2.728146076,1,-1.079498529,1,-0.916749656,1,1.977411628,1
3.295137644,3.177115679,1,-5.0176754,1,-7.114095211,1,2.622888088,1,3.319697142,1,-2.79095912,1,-1.047044635,1,-0.919971764,1,1.949512482,1
3.299133778,3.172441959,1,-4.687996387,1,-7.276023865,1,2.717228174,1,3.319185972,1,-2.847347021,1,-1.013722897,1,-0.922806859,1,1.921077371,1
3.303132057,2.866328478,1,-4.355375767,1,-7.527290821,1,2.813049793,1,3.311625004,1,-2.891229868,1,-0.979650676,1,-0.925244808,1,1.892252207,1
3.307132483,2.528787136,1,-4.219035625,1,-7.830035686,1,2.875640631,1,3.31473732,1,-2.930895329,1,-0.944931984,1,-0.927217662,1,1.863063335,1
3.311128855,1.72392118,1,-3.910499811,1,-8.105311394,1,2.980613232,1,3.300081491,1,-2.983778,1,-0.909611464,1,-0.92875278,1,1.833572984,1
3.315127134,1.391790152,1,-3.801763535,1,-8.433483124,1,3.072822571,1,3.309305191,1,-3.028059959,1,-0.87361753,1,-0.92979455,1,1.803759694,1
3.319127321,0.789462149,1,-3.527780294,1,-9.046754837,1,3.153666019,1,3.334620476,1,-3.069911242,1,-0.836997151,1,-0.930306613,1,1.773612022,1
3.323123693,0.188277632,1,-3.156074524,1,-9.519550323,1,3.243913412,1,3.37593317,1,-3.113631964,1,-0.799740076,1,-0.930168152,1,1.743099928,1
3.327121973,-0.621220827,1,-2.654880047,1,-9.995371819,1,3.359920979,1,3.460162401,1,-3.160848141,1,-0.761718512,1,-0.929282248,1,1.712124348,1
3.331122398,-1.074029803,1,-2.07273078,1,-10.51092911,1,3.48754549,1,3.5477736,1,-3.212718487,1,-0.722808242,1,-0.927568197,1,1.680637956,1
3.335118771,-1.416390657,1,-1.615306377,1,-10.99197102,1,3.630172014,1,3.647360325,1,-3.266933441,1,-0.683027804,1,-0.924969316,1,1.648693681,1
3.33911705,-1.585601926,1,-1.324707866,1,-11.26959133,1,3.77116704,1,3.739263058,1,-3.302095652,1,-0.642504632,1,-0.921408653,1,1.616443872,1
3.343117237,-1.633844614,1,-1.122389197,1,-11.516222,1,3.907967806,1,3.833463669,1,-3.345035315,1,-0.601417124,1,-0.916845381,1,1.584079742,1
3.347113609,-1.560434222,1,-0.956013203,1,-11.63751888,1,4.033157349,1,3.912445784,1,-3.374804497,1,-0.559920013,1,-0.911254764,1,1.551747799,1
3.351111889,-1.499044299,1,-0.823585033,1,-11.75631618,1,4.148768902,1,3.986324787,1,-3.387589931,1,-0.518294156,1,-0.904635429,1,1.519711852,1
3.355112553,-1.428400159,1,-0.767735362,1,-11.85671902,1,4.263260841,1,4.037361622,1,-3.388674974,1,-0.47679469,1,-0.896743298,1,1.486979365,1
