Time,inertial-6253.76535:scaledAccelX,inertial-6253.76535:scaledAccelY,inertial-6253.76535:scaledAccelZ,inertial-6253.76535:scaledGyroX,inertial-6253.76535:scaledGyroY,inertial-6253.76535:scaledGyroZ,inertial-6253.76535:scaledMagX,inertial-6253.76535:scaledMagY,inertial-6253.76535:scaledMagZ,inertial-6253.76535:roll,inertial-6253.76535:pitch,inertial-6253.76535:yaw
0,0.5513230562210083,0.1162745207548141,-0.827473342,-0.031527143,0.016966891,-0.011624344,-0.401866913,-0.253827602,-0.199978188,-0.130699322,0.5827990174293518,2.575700998306274
0.004996864,0.5504781603813171,0.1151672750711441,-0.828253746,-0.031965923,0.012985347,-0.012934292,-0.402204067,-0.253919512,-0.200067729,-0.130921528,0.5828567743301392,2.575592517852783
0.009994752,0.5524138212203979,0.1148044541478157,-0.828346729,-0.035361737,0.013971947,-0.012936383,-0.402315855,-0.25394997,-0.200097412,-0.131168231,0.5829163193702698,2.575478315353394
0.014993664,0.552670419,0.1184526830911636,-0.826534271,-0.039097209,0.012565401,-0.015175163,-0.402401894,-0.253973424,-0.20012024,-0.131437019,0.5829724073410034,2.575349331
0.0199936,0.5532816052436829,0.1198095455765724,-0.826800883,-0.03932555,0.010320465,-0.016462602,-0.402430415,-0.253981203,-0.200127825,-0.131714568,0.583017111,2.575211048126221
0.02499456,0.5512585639953613,0.121224619,-0.825587571,-0.040027957,0.012908394,-0.015698832,-0.402189493,-0.253917158,-0.199316159,-0.13199231,0.5830744504928589,2.57508111
0.029996799,0.5509609580039978,0.1239063069224358,-0.826230705,-0.039016344,0.011769406,-0.016240364,-0.402109623,-0.253895938,-0.199047014,-0.132278129,0.5831180214881897,2.574938774108887
0.03499392,0.5525926947593689,0.1267674267292023,-0.827461898,-0.036681436,0.011075626,-0.012499554,-0.402048141,-0.253879607,-0.198839933,-0.132538468,0.5831658244132996,2.574823379516602
0.03999155,0.5489948391914368,0.1265598982572556,-0.828772545,-0.033692464,0.01079919,-0.011235749,-0.402027756,-0.253874183,-0.198771268,-0.132773668,0.5832102298736572,2.574719190597534
0.044990465,0.5499129295349121,0.1271150857210159,-0.828310192,-0.030536706,0.010818045,-0.009379325,-0.402109563,-0.253876805,-0.199669763,-0.132996723,0.5832480192184448,2.574619532
0.049990401,0.552066982,0.124395452,-0.82828033,-0.029010832,0.010353539,-0.009175451,-0.402160823,-0.253879339,-0.200203091,-0.133192345,0.5832950472831726,2.574534655
0.054991361,0.5520569086074829,0.121027984,-0.827370048,-0.029906539,0.009424723,-0.009558612,-0.402200252,-0.253881276,-0.200613469,-0.1333967,0.5833325386047363,2.574446678161621
0.059993088,0.5523160099983215,0.1194687709212303,-0.826438904,-0.027672252,0.010281565,-0.007964862,-0.402213335,-0.253881931,-0.200749531,-0.133576885,0.5833831429481506,2.574366092681885
0.064990208,0.5520336627960205,0.1225532069802284,-0.827860057,-0.027910583,0.009578443,-0.008472161,-0.401769012,-0.253862083,-0.200836226,-0.133771747,0.5834221243858337,2.574279785
0.069988094,0.5509777069091797,0.1283999532461166,-0.827689171,-0.025720118,0.009737895,-0.007574685,-0.401163489,-0.253834993,-0.200846806,-0.133965716,0.5834606885910034,2.574191331863403
0.074987009,0.547981858,0.1296088099479675,-0.827561438,-0.026163796,0.009964258,-0.007039128,-0.400697589,-0.253814161,-0.200854942,-0.134158,0.5834938883781433,2.574106216430664
0.079986945,0.5459355711936951,0.1310707777738571,-0.827072918,-0.025598247,0.009677294,-0.005748011,-0.400543094,-0.253807247,-0.200857639,-0.134353295,0.5835310816764832,2.574027538299561
0.084987901,0.546761692,0.1265053451061249,-0.826385856,-0.024485203,0.010506719,-0.00544213,-0.400424242,-0.253801942,-0.200859711,-0.134518713,0.5835704207420349,2.573960542678833
0.089989886,0.5456823706626892,0.1225683689117432,-0.827868342,-0.024827799,0.012556544,-0.004813726,-0.400985658,-0.253691167,-0.201326624,-0.134685636,0.5836189985275269,2.573895931243896
0.094987005,0.5484150052070618,0.1220339313149452,-0.830012143,-0.025204573,0.013277676,-0.004169286,-0.401417613,-0.253605932,-0.201685876,-0.134850398,0.583678126,2.573834180831909
0.099984899,0.5497066378593445,0.1253638416528702,-0.83097595,-0.02478501,0.014998169,-0.00352649,-0.401560843,-0.253577679,-0.201804981,-0.135018691,0.5837422609329224,2.573772430419922
0.104984321,0.5507820248603821,0.127708688,-0.828675687,-0.022757411,0.016280571,-0.001486957,-0.401671052,-0.253555954,-0.201896638,-0.135177791,0.5838260650634766,2.573717355728149
0.109990142,0.5512213706970215,0.1277958750724792,-0.827628493,-0.020586366,0.017323662,-0.003578153,-0.401620775,-0.253665715,-0.201900318,-0.135323465,0.5839065313339233,2.573652267456055
0.114991359,0.5485504269599915,0.1288942098617554,-0.826135397,-0.021240164,0.01950687,-0.000257516,-0.401494294,-0.253868431,-0.201876163,-0.135470897,0.5839974880218506,2.573606252670288
0.119993344,0.5488914251327515,0.1272651255130768,-0.827462375,-0.019267635,0.01930104,0.001053322,-0.401452363,-0.253935665,-0.201868147,-0.135602042,0.5840847492218018,2.573560237884521
0.12499021,0.5502235293388367,0.1259627789258957,-0.828437567,-0.016833771,0.019709958,0.002216005,-0.401420087,-0.253987372,-0.201861978,-0.135709777,0.5841856598854065,2.573530912399292
0.129988089,0.5502209067344666,0.1282361149787903,-0.826091051,-0.015878135,0.021210063,0.003348457,-0.401409388,-0.254004538,-0.201859936,-0.13582249,0.5842885375022888,2.573502540588379
0.134987012,0.5495621562004089,0.1267764121294022,-0.824908793,-0.014401,0.021242592,0.004996356,-0.401400685,-0.253954709,-0.202365786,-0.13591142,0.5843951106071472,2.573481559753418
0.139986947,0.5515789985656738,0.1253804415464401,-0.827141047,-0.01698282,0.020894371,0.00497319,-0.401397794,-0.253938198,-0.202533513,-0.136012152,0.5844982266426086,2.573469400405884
0.144987911,0.5516743063926697,0.1221888586878777,-0.827166736,-0.015968429,0.022718007,0.004374333,-0.401395589,-0.253925502,-0.202662587,-0.136112839,0.5846142768859863,2.573446750640869
0.149989888,0.5500273704528809,0.1235233023762703,-0.825898767,-0.018568117,0.023343414,0.003819612,-0.401394844,-0.2539213,-0.202705383,-0.13622041,0.5847232341766357,2.573426961898804
0.154987007,0.5527993440628052,0.1229010671377182,-0.825832248,-0.018259253,0.025653733,0.004189254,-0.401399791,-0.253560215,-0.202551588,-0.136323079,0.5848586559295654,2.573408842086792
0.159984902,0.5554894208908081,0.1233167722821236,-0.825148821,-0.018669276,0.025635036,0.003908143,-0.401402801,-0.253351957,-0.202454388,-0.136436775,0.5849906206130981,2.573386907577515
0.164983809,0.5561127662658691,0.122767799,-0.826736987,-0.021633809,0.026081165,0.003434451,-0.401405096,-0.25319171,-0.202379599,-0.136567906,0.5851298570632935,2.573358535766602
0.169983745,0.552049994,0.123462088,-0.826828718,-0.02153076,0.025567519,0.00227713,-0.401405871,-0.253138602,-0.202354804,-0.136702225,0.5852550268173218,2.573320388793945
0.174984708,0.5512393116950989,0.1245803833007813,-0.827136517,-0.024010297,0.026510099,0.001330203,-0.401007801,-0.253107637,-0.202586979,-0.136860177,0.5853815078735352,2.573282957077026
0.17998746,0.5525100231170654,0.1277792453765869,-0.825307429,-0.021776639,0.026548354,0.002649968,-0.400473773,-0.253107369,-0.202917308,-0.136996388,0.5855107307434082,2.573246240615845
0.18498534,0.5548515915870667,0.1290490478277206,-0.825431406,-0.020434916,0.027397677,0.003701546,-0.400062859,-0.25310716,-0.203171477,-0.13712725,0.5856524705886841,2.573216199874878
0.189983234,0.5551126003265381,0.1262956559658051,-0.824635923,-0.018751923,0.024247525,0.004934787,-0.399926633,-0.253107101,-0.203255758,-0.137230784,0.5857759118080139,2.573203086853027
0.194982141,0.5561211109161377,0.124300055,-0.82518816,-0.018518304,0.023529315,0.005676049,-0.399821818,-0.253107041,-0.203320608,-0.1373346,0.5858978033065796,2.573193788528442
0.199982077,0.5539050698280334,0.1228767260909081,-0.823873818,-0.018361567,0.025651392,0.006263234,-0.400085688,-0.253252506,-0.203191668,-0.137429506,0.5860320329666138,2.573184013366699
0.204983041,0.5529712438583374,0.1262169182300568,-0.825451314,-0.016817819,0.025787752,0.005880916,-0.400288701,-0.253364444,-0.203092456,-0.137536496,0.5861624479293823,2.573163270950317
0.209984764,0.5536209940910339,0.1280971169471741,-0.82481271,-0.01674222,0.02355016,0.005905934,-0.400356025,-0.253401548,-0.203059554,-0.137638971,0.5862789154052734,2.573145151138306
0.21498163,0.5555530190467834,0.1247949302196503,-0.824876189,-0.016094446,0.023402415,0.002918698,-0.400407821,-0.253430128,-0.203034237,-0.137732372,0.5863995552062988,2.573121309280396
0.219979525,0.5553270578384399,0.1230751723051071,-0.826414227,-0.017159473,0.022589127,0.005507195,-0.400368452,-0.253412038,-0.203054324,-0.137821212,0.5865157246589661,2.573108673095703
0.224978432,0.5547108054161072,0.124824196,-0.827364206,-0.018779065,0.021321105,0.006628452,-0.400281012,-0.253370285,-0.20309858,-0.137931287,0.586619496,2.573088884353638
0.229978368,0.553607166,0.1267467588186264,-0.825322568,-0.016540445,0.022251647,0.002520702,-0.400252044,-0.253356427,-0.203113243,-0.1380447,0.5867267251014709,2.573051452636719
0.234979331,0.5546424984931946,0.1263657361268997,-0.825663328,-0.018586244,0.022187436,0.00401993,-0.400229752,-0.253345788,-0.203124523,-0.138154984,0.586842954,2.573030710220337
0.239981055,0.5533739924430847,0.1293557435274124,-0.825299323,-0.020344313,0.023488212,0.003434736,-0.400222361,-0.253342271,-0.203128278,-0.138293073,0.5869614481925964,2.573000907897949
0.244984061,0.5530324578285217,0.1290548294782639,-0.825214446,-0.018827099,0.024706565,0.002537129,-0.400879949,-0.253333062,-0.203815073,-0.13842231,0.5870760679244995,2.572962045669556
0.249981955,0.5538300275802612,0.128064364,-0.822771668,-0.019928716,0.02348952,0.002011668,-0.401098013,-0.253330022,-0.204042792,-0.138550296,0.5871962904930115,2.572929382324219
0.254980862,0.5529576539993286,0.1280822902917862,-0.82432276,-0.020310842,0.023970539,0.003296776,-0.40126577,-0.253327638,-0.204218015,-0.138679683,0.5873180627822876,2.572902202606201
0.259981066,0.5534155964851379,0.1288643926382065,-0.823407888,-0.020959307,0.026214857,0.002018555,-0.401321411,-0.253326863,-0.204276115,-0.138820991,0.5874507427215576,2.572865009307861
0.264982283,0.5565678477287292,0.1283978521823883,-0.823574722,-0.020905158,0.023939321,0.004044016,-0.400565624,-0.253188252,-0.204242557,-0.138948664,0.5875741243362427,2.572835206985474
0.269984245,0.5538065433502197,0.1300630122423172,-0.824330926,-0.020026203,0.024451053,0.005070081,-0.400117397,-0.253108174,-0.20421207,-0.139077708,0.5876935720443726,2.572810888290405
0.27498138,0.552981973,0.1314266622066498,-0.823869824,-0.018792905,0.025524428,0.007514707,-0.399772555,-0.253046542,-0.2041886,-0.13918668,0.5878235697746277,2.572797775268555
0.279979259,0.5566310286521912,0.1346445381641388,-0.824374914,-0.015483515,0.025361151,0.008281244,-0.399658203,-0.253026128,-0.204180822,-0.139284611,0.5879535675048828,2.572796106338501
0.284978181,0.5553685426712036,0.1339022368192673,-0.822328448,-0.012451626,0.024349634,0.010882488,-0.399770439,-0.252919853,-0.20417197,-0.139356896,0.5880821943283081,2.572803497314453
0.289978117,0.5582002401351929,0.1301845014095306,-0.821162403,-0.011451582,0.0243656,0.010782504,-0.400009543,-0.252793342,-0.204166144,-0.139416412,0.588206947,2.572817564
0.294979066,0.5569822192192078,0.1260476857423782,-0.821313083,-0.011766068,0.020647729,0.010505609,-0.400193542,-0.252696007,-0.204161674,-0.139463678,0.5883206129074097,2.572839260101318
0.299981058,0.5554062724113464,0.1260000020265579,-0.822837591,-0.012618028,0.020507297,0.009415677,-0.400254548,-0.252663732,-0.204160199,-0.139524072,0.5884310603141785,2.572855710983276
0.304978162,0.5553451180458069,0.1275464296340942,-0.821891069,-0.01163285,0.021847393,0.008438121,-0.400301486,-0.252638906,-0.204159051,-0.139589593,0.5885419845581055,2.572854042053223
0.309976071,0.5552210211753845,0.1280648410320282,-0.82212913,-0.01197474,0.021837391,0.009160824,-0.400212735,-0.25284043,-0.204634964,-0.139657363,0.588656485,2.572857141494751
0.314974964,0.5575518012046814,0.129305974,-0.822100937,-0.010500007,0.020348577,0.008095938,-0.400144458,-0.252995521,-0.205001161,-0.139718354,0.5887649059295654,2.572856664657593
0.319974899,0.5564815402030945,0.1271536201238632,-0.821996212,-0.012354461,0.021243075,0.006531848,-0.400121838,-0.25304696,-0.205122575,-0.139789835,0.5888755917549133,2.572854518890381
0.324975878,0.5573841333389282,0.1267090141773224,-0.823623121,-0.010807779,0.021788884,0.007867931,-0.400104403,-0.253086507,-0.205216005,-0.13984324,0.5889915227890015,2.572854995727539
0.329978108,0.5586758852005005,0.1277607679367065,-0.822137475,-0.009696811,0.020524932,0.008419609,-0.40007025,-0.253127575,-0.205084816,-0.139902592,0.5890936851501465,2.572852611541748
0.334975243,0.5581650137901306,0.1296027302742004,-0.823443949,-0.011368398,0.01816725,0.009019537,-0.400015265,-0.253187418,-0.204819888,-0.13996543,0.5891918540000916,2.572864294052124
0.33997339,0.5560701489448547,0.1281671524047852,-0.822255909,-0.010011337,0.018585939,0.009097702,-0.399997056,-0.253207266,-0.204732046,-0.140016928,0.589290977,2.572868347167969
0.344972283,0.5554612874984741,0.1305235028266907,-0.822122872,-0.008022496,0.018437566,0.007999726,-0.399983019,-0.253222555,-0.204664454,-0.140064061,0.58938545,2.572873115539551
0.349972218,0.5555034875869751,0.1322972774505615,-0.822496414,-0.007533303,0.01958297,0.00876382,-0.399978369,-0.253227621,-0.204642043,-0.140118495,0.5894873738288879,2.572873830795288
0.354973197,0.5576276779174805,0.1296548992395401,-0.823040068,-0.008038769,0.018689115,0.009532602,-0.400379837,-0.25275296,-0.204875693,-0.140165761,0.5895909070968628,2.572888851165771
0.359975159,0.5575215220451355,0.1292783170938492,-0.823419869,-0.007887631,0.018508144,0.009573937,-0.400512964,-0.252595574,-0.204953179,-0.14020142,0.5896918773651123,2.572902202606201
0.364972293,0.5588433146476746,0.1271243691444397,-0.822912991,-0.00842394,0.015629297,0.008544113,-0.400615394,-0.252474457,-0.205012798,-0.140250176,0.5897791981697083,2.572909832000732
0.369970173,0.5581287145614624,0.1226412579417229,-0.822285771,-0.008159081,0.018749699,0.007877509,-0.400649339,-0.252434313,-0.205032557,-0.140277132,0.5898813605308533,2.57292366
0.374969095,0.5587716102600098,0.1252065002918243,-0.822769165,-0.008959664,0.019430635,0.00825412,-0.400326073,-0.25230974,-0.205198616,-0.140326068,0.5899845957756042,2.572937488555908
0.37997517,0.5570487380027771,0.1281588524580002,-0.822394907,-0.009852291,0.017903069,0.006582136,-0.400132418,-0.252245247,-0.205291003,-0.140387312,0.5900737643241882,2.572930097579956
0.384976387,0.5581400394439697,0.1285212635993958,-0.822929323,-0.009211362,0.018667638,0.004793198,-0.399983436,-0.252195656,-0.205362082,-0.140455112,0.5901677012443542,2.572918653488159
0.389978379,0.5602681040763855,0.1298877596855164,-0.823162138,-0.011578926,0.01691035,0.006253097,-0.399934053,-0.252179176,-0.205385655,-0.140523434,0.5902623534202576,2.572914123535156
0.394975483,0.5621134042739868,0.1299813687801361,-0.821407735,-0.008961736,0.018908646,0.006153609,-0.399979681,-0.252225399,-0.20569925,-0.140581921,0.5903700590133667,2.572908401489258
0.399973363,0.5622405409812927,0.1310530304908752,-0.821709275,-0.009933882,0.016410023,0.006400898,-0.400079131,-0.252300054,-0.206101164,-0.140651762,0.5904637575149536,2.572901487350464
0.404972285,0.5604706406593323,0.1291640251874924,-0.819194555,-0.009194618,0.016880374,0.007462581,-0.400155663,-0.252357513,-0.206410408,-0.140703633,0.590557873,2.572906970977783
0.409972221,0.5576074123382568,0.130211204,-0.820203364,-0.008092196,0.015814669,0.006734814,-0.400181055,-0.252376556,-0.206512958,-0.14076145,0.5906425714492798,2.572898626327515
0.414973706,0.5585262179374695,0.1291889697313309,-0.821130395,-0.008396883,0.013434775,0.006611017,-0.400200576,-0.252391219,-0.206591859,-0.1408149,0.5907157063484192,2.572897911071777
0.419975668,0.5574689507484436,0.1274581402540207,-0.822887003,-0.005832323,0.013275377,0.007338509,-0.400158048,-0.252393544,-0.206237674,-0.140859962,0.5907832980155945,2.572892904281616
0.424972802,0.5605267882347107,0.1254559457302094,-0.819655538,-0.006513246,0.013072565,0.004486016,-0.400125325,-0.252395362,-0.205965161,-0.140900105,0.5908573865890503,2.572883844
0.429970682,0.5616509914398193,0.1250265389680862,-0.81938386,-0.007829921,0.011155268,0.001288995,-0.400114477,-0.252395958,-0.205874801,-0.140958145,0.5909242630004883,2.572856903076172
0.434969604,0.5614149570465088,0.1242576166987419,-0.820198357,-0.007973878,0.011254411,0.001098252,-0.400106132,-0.252396405,-0.205805272,-0.141009629,0.5909871459007263,2.572829484939575
0.43996954,0.5603415966033936,0.1276674866676331,-0.820680678,-0.008823516,0.009283828,2.686920925043523e-05,-0.400075018,-0.252396852,-0.205755696,-0.141079023,0.5910332798957825,2.572795867919922
0.444970757,0.5598834753036499,0.1311058551073074,-0.819182336,-0.007766447,0.009028754,-0.000202133,-0.400022417,-0.252397507,-0.205690727,-0.141148731,0.5910859107971191,2.572761535644531
0.449972987,0.5621320009231567,0.1328569650650024,-0.819415152,-0.007702557,0.007460499,0.002723957,-0.400004953,-0.252397716,-0.205669194,-0.141218871,0.5911310315132141,2.572743177
0.454970121,0.5608370304107666,0.1331325769424438,-0.819972932,-0.006078533,0.006498631,0.001821537,-0.399991542,-0.252397895,-0.205652624,-0.14127636,0.5911672711372375,2.572716474533081
0.459968507,0.5603559613227844,0.1321007609367371,-0.81992507,-0.006827805,0.004397089,0.001216783,-0.399987072,-0.252397954,-0.205647141,-0.141340673,0.591192365,2.572684526443481
0.464967161,0.5620578527450562,0.1284610033035278,-0.822255969,-0.005951027,0.001983162,0.00102726,-0.399915546,-0.252404481,-0.206214204,-0.141383544,0.5912133455276489,2.572663307189941
0.469967097,0.5600835680961609,0.1271098107099533,-0.82049942,-0.007051897,0.000197114,0.001350036,-0.399891824,-0.252406657,-0.206402227,-0.141437337,0.5912137031555176,2.572642803192139
0.474967808,0.5594991445541382,0.1275347769260406,-0.820843875,-0.008005202,-8.54E-05,-0.000194432,-0.399873585,-0.252408326,-0.206546903,-0.141499206,0.5912191271781921,2.572618961334229
0.4799698,0.5600083470344543,0.1267362684011459,-0.821997523,-0.006707572,0.00076366,-0.000646123,-0.399867535,-0.252408892,-0.206594869,-0.141554773,0.5912253856658936,2.572586297988892
0.484966666,0.5630269050598145,0.1265473812818527,-0.821248412,-0.006660115,-0.001844512,-0.000330017,-0.399915278,-0.252303541,-0.206298307,-0.141612932,0.5912184715270996,2.572551488876343
0.489964813,0.5598275661468506,0.127146989,-0.819221795,-0.007168487,-0.002376049,-0.00385587,-0.399944097,-0.252242446,-0.206117451,-0.141677767,0.591213584,2.572509288787842
0.494963706,0.5615611672401428,0.129821852,-0.81946218,-0.005770005,-0.00393305,-0.002144181,-0.39996627,-0.252195448,-0.205978289,-0.141739935,0.5911918878555298,2.572471380233765
0.499963641,0.5601770877838135,0.1287960708141327,-0.821249902,-0.00604241,-0.006177338,-0.000592913,-0.399973631,-0.252179861,-0.20593214,-0.141793504,0.5911691784858704,2.572451591491699
0.50496459,0.560672939,0.131706029,-0.820620656,-0.005478252,-0.005714835,-0.001555336,-0.399893165,-0.252199888,-0.206060365,-0.141858667,0.5911414623260498,2.572407960891724
0.509972751,0.5602046847343445,0.1332461833953857,-0.822142005,-0.003586163,-0.009335386,-0.002376358,-0.399779618,-0.25223884,-0.206267968,-0.141905293,0.5910977125167847,2.572378635406494
0.514975727,0.5601617097854614,0.1310399919748306,-0.822071254,-0.001713069,-0.00935169,-0.001375287,-0.399692237,-0.252268821,-0.206427708,-0.141938627,0.5910568237304688,2.572351455688477
0.519973874,0.558085561,0.1293631196022034,-0.820313811,-0.000921679,-0.010000334,-0.000781987,-0.39966327,-0.252278745,-0.206480682,-0.141958416,0.591005266,2.572335958480835
0.524973035,0.5545554757118225,0.1315557062625885,-0.821291447,0.000102594,-0.009807592,-0.000184209,-0.399640977,-0.252286375,-0.206521437,-0.141985282,0.5909520983695984,2.572307586669922
0.529973269,0.5550047159194946,0.1315706074237823,-0.822053075,0.000838707,-0.010185846,0.000424452,-0.399984092,-0.252281696,-0.206480563,-0.141999587,0.5908929705619812,2.572292089
0.534974217,0.5544203519821167,0.1303359270095825,-0.82155931,0.000959043,-0.007961848,0.001794093,-0.40024811,-0.25227809,-0.206449106,-0.142010808,0.5908530354499817,2.572287082672119
0.53997618,0.5564072132110596,0.1308622509241104,-0.81938082,0.00238342,-0.0074408,0.001260892,-0.40033567,-0.252276897,-0.206438676,-0.142018318,0.5908158421516418,2.572274923324585
0.544973314,0.5591740608215332,0.1317291259765625,-0.820904195,0.00249464,-0.007847789,0.002737411,-0.400403023,-0.252275974,-0.206430659,-0.142019838,0.590779185,2.572270631790161
0.549971223,0.5590490698814392,0.1322315335273743,-0.82084614,0.003347352,-0.008005927,0.002088682,-0.400312483,-0.252220094,-0.206430808,-0.142020419,0.5907465815544128,2.572263240814209
0.554970086,0.5603847503662109,0.130261242,-0.821994007,0.002794219,-0.006787939,0.00300366,-0.400128633,-0.252120912,-0.206433773,-0.142017901,0.5907193422317505,2.572258472442627
0.559970021,0.5580810308456421,0.1289666146039963,-0.823374391,0.001953979,-0.008958081,0.004085876,-0.400067657,-0.25208801,-0.206434771,-0.142004415,0.5906718969345093,2.572275400161743
0.56497103,0.5562129616737366,0.1269170343875885,-0.823109746,0.00221854,-0.007727858,0.003286185,-0.400020778,-0.252062708,-0.206435531,-0.142000884,0.5906354784965515,2.57227087
0.569972992,0.5582314729690552,0.1252667009830475,-0.82365334,-0.000540537,-0.008312112,0.003325421,-0.400005221,-0.252054304,-0.206435785,-0.142007887,0.5906010866165161,2.572267532348633
0.574970126,0.5595173239707947,0.1230477318167686,-0.823532343,-0.002014939,-0.005478341,0.000116655,-0.399862528,-0.251849353,-0.206630781,-0.142021954,0.5905764698982239,2.572256803512573
0.579967976,0.5606973767280579,0.123006172,-0.822117209,-0.005462273,-0.004418478,-0.002392974,-0.399815202,-0.251781404,-0.206695437,-0.142067939,0.5905619859695435,2.572221755981445
0.584966898,0.5594757795333862,0.1219061687588692,-0.820883512,-0.005501625,-0.004452945,-0.003747198,-0.399778813,-0.251729131,-0.206745192,-0.14211531,0.590536356,2.572182178497314
0.589966834,0.5583686232566833,0.1254080981016159,-0.820624948,-0.007890305,-0.004452037,-0.002738883,-0.399766743,-0.251711816,-0.206761688,-0.142179534,0.5905166864395142,2.572154521942139
0.594967782,0.5557800531387329,0.1257770955562592,-0.822475195,-0.010315187,-0.00367326,-0.007140533,-0.399553329,-0.252006263,-0.206631869,-0.142270505,0.5904920101165771,2.572086095809937
0.599970043,0.5560952425003052,0.1265801638364792,-0.822006226,-0.013768934,-0.002740037,-0.007374682,-0.399432063,-0.25218004,-0.206553549,-0.142394498,0.5904690027236938,2.572010040283203
0.604967654,0.5564062595367432,0.1290904134511948,-0.821673155,-0.012090651,-0.0021835,-0.007931958,-0.399338752,-0.252313733,-0.206493288,-0.142501131,0.590453029,2.571936607
0.609965563,0.5572900176048279,0.1333927363157272,-0.821707547,-0.013012612,-0.000758853,-0.00675247,-0.399307817,-0.252358079,-0.206473321,-0.142619342,0.5904372334480286,2.571863174438477
0.614964724,0.5551295876502991,0.1350990980863571,-0.821553648,-0.00817972,-0.001325204,-0.006619229,-0.399427772,-0.252273887,-0.206456482,-0.142710701,0.590412438,2.571798801422119
0.619964659,0.5530924201011658,0.1366783380508423,-0.8209396,-0.006880869,-0.001310628,-0.001441987,-0.399612516,-0.252126694,-0.206449449,-0.142788261,0.5904121398925781,2.571758508682251
0.62496537,0.5531238913536072,0.1393867433071136,-0.821676791,-0.00183923,-0.002701021,0.001409875,-0.399754643,-0.252013445,-0.206444025,-0.14283365,0.5903890132904053,2.571737289428711
0.629967332,0.554469883,0.1391614824533463,-0.820903659,0.000700697,-0.001393125,0.00521525,-0.399801761,-0.251975864,-0.206442222,-0.14284879,0.5903835296630859,2.571739912033081
0.634964228,0.5577080249786377,0.1339385807514191,-0.821434557,0.004182782,-0.002176862,0.006817944,-0.39983803,-0.251946986,-0.206440836,-0.142825812,0.5903757810592651,2.571750402450562
0.639962614,0.5592997670173645,0.1307525634765625,-0.820894718,0.006424641,-0.003427588,0.007168789,-0.399749547,-0.251940638,-0.206585288,-0.142789677,0.5903695225715637,2.571775197982788
0.644967675,0.5587480664253235,0.1290476024150848,-0.820844233,0.007196394,-0.003747829,0.008153662,-0.399681479,-0.25193575,-0.206696451,-0.142743215,0.5903602838516235,2.571803092956543
0.649967849,0.5580306053161621,0.1272887587547302,-0.820643723,0.005705514,-0.002608938,0.007642044,-0.399658889,-0.251934141,-0.206733301,-0.142709911,0.5903537273406982,2.571827888
0.65496856,0.5583465099334717,0.1267807185649872,-0.822230518,0.003635715,-0.003689641,0.005930429,-0.399641514,-0.251932889,-0.206761658,-0.14268975,0.5903428196907043,2.571836233139038
0.659970582,0.5580845475196838,0.1277332603931427,-0.820696175,0.002301443,-0.000165269,0.005771396,-0.399690092,-0.252132595,-0.206659466,-0.14267613,0.5903478860855103,2.571846961975098
0.664967418,0.5569961667060852,0.1276841312646866,-0.822451472,0.003966089,5.314024747349322e-06,0.004432656,-0.399782389,-0.252488613,-0.206467986,-0.142663375,0.5903468728065491,2.571842432022095
0.669965327,0.5575892329216003,0.1296921074390411,-0.824345469,0.003027157,-0.001353596,0.005307569,-0.399812996,-0.25260669,-0.206404507,-0.142652601,0.5903428196907043,2.571853160858154
0.674964249,0.5570949912071228,0.1328106224536896,-0.822635531,0.003786265,0.000411889,0.007061233,-0.39983657,-0.252697498,-0.206355661,-0.142636865,0.5903533697128296,2.571866512298584
0.679964662,0.5550313591957092,0.1356592774391174,-0.822311163,0.005188852,0.001146225,0.009250844,-0.399844378,-0.252727628,-0.206339464,-0.14261952,0.5903548002243042,2.571890354156494
0.684965611,0.5571141242980957,0.1367229074239731,-0.820092857,0.007044677,0.001170028,0.010424145,-0.400119126,-0.252543449,-0.20638746,-0.142585173,0.5903702974319458,2.571915149688721
0.689967632,0.5572826266288757,0.1321710199117661,-0.82326597,0.00762169,0.003159182,0.010641736,-0.400210232,-0.252482384,-0.206403375,-0.142536521,0.5903941988945007,2.571949243545532
0.694964707,0.5559338927268982,0.1305029541254044,-0.82354331,0.005872516,0.002220742,0.009346543,-0.400280327,-0.252435386,-0.206415609,-0.142506614,0.5904020667076111,2.571968793869019
0.699962616,0.5586604475975037,0.1297400742769241,-0.822826147,0.006186437,0.001946331,0.009432477,-0.400303572,-0.2524198,-0.206419677,-0.142464384,0.5904209017753601,2.572001218795776
0.704961538,0.5590648651123047,0.1309137344360352,-0.822292089,0.006745494,0.00197232,0.0093346,-0.400071323,-0.252363533,-0.206618816,-0.142432272,0.590442419,2.572030067443848
0.709961712,0.5561551451683044,0.1288146525621414,-0.822019398,0.004734233,0.002611523,0.009432414,-0.399932414,-0.252333939,-0.206733361,-0.142396674,0.5904607176780701,2.572059154510498
0.714962661,0.5583125948905945,0.1258508563041687,-0.822743118,0.004058586,0.003680309,0.006337862,-0.399825543,-0.25231114,-0.206821501,-0.142365262,0.5904858112335205,2.572073698043823
0.719964683,0.5591602325439453,0.1229485422372818,-0.819278181,0.001519236,0.004432115,0.003965389,-0.399790108,-0.2523036,-0.206850722,-0.142353699,0.5905173420906067,2.572071313858032
0.724961817,0.5571180582046509,0.1273380815982819,-0.819060147,0.000897857,0.003735677,0.004544548,-0.399846792,-0.25241068,-0.206762031,-0.142354757,0.5905394554138184,2.572072744369507
0.729959667,0.5544948577880859,0.132359579,-0.820669472,6.548811143147759e-06,0.004712578,0.006860689,-0.399950266,-0.252560049,-0.206620499,-0.142366007,0.5905640125274658,2.572084665298462
0.734958589,0.5547046065330505,0.132658452,-0.820947826,-0.000180141,0.004679948,0.006084507,-0.400029898,-0.252674967,-0.206511602,-0.142385855,0.5905871391296387,2.572082757949829
0.739958286,0.5579124689102173,0.1300609558820724,-0.822626531,4.706723848357797e-05,0.006712443,0.007254864,-0.400056303,-0.252713084,-0.206475496,-0.142389834,0.5906233787536621,2.572090864181519
0.744959235,0.5576573610305786,0.1294017434120178,-0.820686698,-0.000531342,0.006212898,0.009814063,-0.400076628,-0.25274241,-0.206447706,-0.14238286,0.5906627178192139,2.572112798690796
0.749961197,0.558021605,0.1309288144111633,-0.822106659,0.001445125,0.005638573,0.007021768,-0.399835676,-0.25250566,-0.206779748,-0.142388687,0.5906915068626404,2.572117805480957
0.75495857,0.5590736865997314,0.1297894269227982,-0.822593153,-0.000817181,0.006664786,0.0074326,-0.399650306,-0.252323508,-0.207035258,-0.142387018,0.5907281637191772,2.572134256362915
0.759956479,0.5574523210525513,0.1296984553337097,-0.823835909,0.000312653,0.008214679,0.008316227,-0.399588853,-0.252263099,-0.207119972,-0.142386928,0.5907679796218872,2.572150707244873
0.76495564,0.5566503405570984,0.1320237368345261,-0.82297349,-0.000651022,0.010717635,0.00716572,-0.399541557,-0.252216637,-0.207185149,-0.142392531,0.5908277034759521,2.572167634963989
0.769955575,0.5565797686576843,0.1293220669031143,-0.822360516,0.000447609,0.011245657,0.007509173,-0.399471045,-0.252112925,-0.206911087,-0.142394453,0.5908801555633545,2.572169780731201
0.774956524,0.5565314888954163,0.1256878226995468,-0.822381735,-0.003343078,0.012560811,0.006691142,-0.399361342,-0.251943856,-0.206401229,-0.142409027,0.5909502506256104,2.572171926498413
0.779964924,0.5566557049751282,0.1273249834775925,-0.823494375,-0.002294644,0.013094977,0.008121138,-0.399324983,-0.251887798,-0.20623216,-0.142421275,0.5910212993621826,2.572186708450317
0.784968436,0.5556482076644897,0.1323456466197968,-0.822639346,-0.005141697,0.014350437,0.00663957,-0.399297029,-0.251844704,-0.206102088,-0.142461404,0.5910880565643311,2.572181224822998
0.78996712,0.5562287569046021,0.1337480843067169,-0.823197782,-0.003437961,0.015848869,0.007914996,-0.39928773,-0.251830399,-0.206058949,-0.142502472,0.5911741852760315,2.572179555892944
0.794966042,0.5572075247764587,0.1332968324422836,-0.821529329,-0.004229699,0.017814785,0.009629633,-0.39967227,-0.252223045,-0.206646964,-0.142523274,0.5912709832191467,2.572196483612061
0.799965978,0.557797372,0.1341968476772308,-0.819443524,-0.003964496,0.01697256,0.01161342,-0.399799794,-0.252353251,-0.206841931,-0.142544895,0.5913642644882202,2.572221994400024
0.804966927,0.559627354,0.132975236,-0.819709241,-0.00037819,0.019865271,0.013780192,-0.399897903,-0.252453417,-0.206991941,-0.142537251,0.5914849042892456,2.572254896
0.809968889,0.5586565136909485,0.1338103711605072,-0.819316506,-2.81E-05,0.017967677,0.013232463,-0.399930447,-0.252486646,-0.207041681,-0.142534465,0.5915818214416504,2.572287321090698
0.814966023,0.5607828497886658,0.1329168230295181,-0.818585992,0.002190482,0.01756355,0.014790145,-0.399810582,-0.252255082,-0.206466049,-0.142512172,0.5916815400123596,2.572322130203247
0.819963932,0.559725821,0.1342592835426331,-0.818281531,0.002138092,0.017462529,0.014674203,-0.399734974,-0.252114683,-0.206123278,-0.142490774,0.5917750597000122,2.572369099
0.824962795,0.5599085092544556,0.1315543353557587,-0.81986773,0.00481737,0.016228095,0.015757669,-0.3996768,-0.25200665,-0.205859527,-0.142446935,0.5918736457824707,2.572417736053467
0.829963028,0.5584119558334351,0.1269713640213013,-0.821269631,0.005485209,0.015917426,0.017624903,-0.399657518,-0.251970828,-0.205772072,-0.142386168,0.5919607281684875,2.572486400604248
0.834963977,0.5571117997169495,0.1277215182781219,-0.821061254,0.003746449,0.016400613,0.016159583,-0.399613559,-0.251946032,-0.205948919,-0.142334536,0.592049241,2.572544097900391
0.83996594,0.5597059726715088,0.1292588412761688,-0.82056284,0.004063176,0.017461764,0.015160054,-0.399569631,-0.251940638,-0.206253752,-0.142294437,0.592146099,2.572588920593262
0.844963074,0.5599073767662048,0.1274150758981705,-0.82055825,0.004667569,0.016571384,0.014181188,-0.399535835,-0.251936466,-0.206488311,-0.142252907,0.5922421216964722,2.572630882263184
0.849961221,0.5597214102745056,0.1266109943389893,-0.819616318,0.004631611,0.014985324,0.013880904,-0.399524629,-0.251935095,-0.20656608,-0.142205685,0.5923281908035278,2.572680950164795
0.854960144,0.5568804144859314,0.1313327103853226,-0.820247352,0.005504211,0.016226508,0.016439022,-0.399516016,-0.251934022,-0.206625924,-0.142159447,0.5924201607704163,2.572740077972412
0.859960079,0.5561956763267517,0.1327767819166183,-0.821597755,0.007676396,0.017019309,0.019034006,-0.399212778,-0.251939476,-0.206651539,-0.142100066,0.592513382,2.572802066802979
0.864961028,0.5575298666954041,0.1304610967636108,-0.821957529,0.008768061,0.018113513,0.01892422,-0.398979485,-0.251943678,-0.206671238,-0.142025113,0.5926129817962646,2.572875499725342
0.86996299,0.5583663582801819,0.1298555135726929,-0.820929706,0.010142991,0.018870851,0.018945251,-0.398902118,-0.251945078,-0.20667778,-0.141945824,0.5927153825759888,2.572944641113281
0.874960124,0.5623388290405273,0.1273340731859207,-0.820238531,0.010598951,0.017441226,0.02030299,-0.398842603,-0.251946151,-0.206682801,-0.141849682,0.5928230285644531,2.573028087615967
0.879958034,0.5622428059577942,0.1267697811126709,-0.819937408,0.009052333,0.015867427,0.017738871,-0.398966134,-0.251802295,-0.207008138,-0.141780883,0.5929124355316162,2.573089361190796
0.884956956,0.560525119,0.1258486807346344,-0.821511447,0.00633489,0.018270453,0.014883677,-0.399206042,-0.251545757,-0.207585737,-0.141724244,0.593015194,2.573144912719727
0.889956892,0.5600898265838623,0.1228741481900215,-0.82280606,0.004118134,0.018517541,0.013578872,-0.399285585,-0.251460701,-0.207777262,-0.141673699,0.5931156277656555,2.573190927505493
0.89495784,0.5603690147399902,0.1238014027476311,-0.822112679,0.002257756,0.019217456,0.01119332,-0.399346799,-0.251395255,-0.207924619,-0.14165388,0.5932246446609497,2.573216676712036
0.899959803,0.56095767,0.1251446455717087,-0.821127653,-0.001285944,0.023559118,0.009979164,-0.399367094,-0.251373529,-0.20797348,-0.141653374,0.5933494567871094,2.573230743408203
0.904957175,0.5609279274940491,0.1281348019838333,-0.821721017,-0.002720153,0.02176737,0.008739164,-0.399710566,-0.251688391,-0.208000943,-0.141667128,0.593466043,2.573242188
0.909955084,0.5594367384910583,0.1323069334030151,-0.820364833,-0.002698491,0.022746177,0.008716103,-0.39982444,-0.251792789,-0.208010048,-0.141698197,0.5935821533203125,2.573236703872681
0.914960384,0.5575999617576599,0.1350366175174713,-0.821080804,-0.001797051,0.024877094,0.008046408,-0.399912089,-0.251873136,-0.208017051,-0.141724333,0.5937041044235229,2.573228836
0.919960558,0.5573853254318237,0.1355417519807816,-0.821065962,0.001452107,0.023127791,0.009426222,-0.399941146,-0.251899779,-0.208019376,-0.141728237,0.5938186645507813,2.573233366012573
0.924961507,0.5581119060516357,0.1330282688140869,-0.818971395,0.002933059,0.025444739,0.011857376,-0.399862558,-0.25197351,-0.208070189,-0.141720831,0.5939517617225647,2.573250770568848
0.929963529,0.5603907108306885,0.1331812739372253,-0.818194926,0.00203886,0.023762021,0.011359485,-0.399811506,-0.25201115,-0.208099172,-0.14171125,0.5940831303596497,2.573273181915283
0.934960663,0.5623442530632019,0.1313100159168243,-0.817011774,0.004819768,0.026787827,0.012330627,-0.399772227,-0.252040088,-0.208121464,-0.141682357,0.594226599,2.573294401168823
0.939958811,0.5602809190750122,0.1308077722787857,-0.816825509,0.005229046,0.024074946,0.012360415,-0.399759203,-0.252049685,-0.208128855,-0.141658902,0.5943577885627747,2.573316335678101
0.944957972,0.5606999397277832,0.1298241317272186,-0.820227504,0.00446043,0.024723604,0.013144324,-0.399610251,-0.251856357,-0.208004177,-0.14162755,0.5944883227348328,2.573342561721802
0.949957907,0.560595691,0.1275941133499146,-0.819350064,0.006684904,0.023936762,0.013357505,-0.399420768,-0.251589864,-0.207831383,-0.141580775,0.5946165323257446,2.573377609
0.954958618,0.5615044832229614,0.1268879324197769,-0.81870079,0.004177792,0.020859526,0.013629857,-0.399274945,-0.251384795,-0.20769842,-0.141547084,0.5947346687316895,2.573417186737061
0.95996058,0.5645138621330261,0.1230107024312019,-0.816909313,0.0058225,0.023405608,0.013325118,-0.399226606,-0.251316816,-0.207654342,-0.141499713,0.5948658585548401,2.573450565338135
0.964957416,0.5662193298339844,0.1245676800608635,-0.814607382,0.002708306,0.02033798,0.010302585,-0.399189413,-0.251264513,-0.207620427,-0.141490653,0.5949850082397461,2.573465109
0.969955325,0.5655208230018616,0.1270002573728561,-0.814772487,0.000956689,0.018103568,0.00995317,-0.39892444,-0.25135681,-0.207946494,-0.141484216,0.5950882434844971,2.57347846
0.974954247,0.5648009777069092,0.1238493397831917,-0.816817522,0.002866532,0.018401723,0.008079343,-0.398720533,-0.251427829,-0.20819737,-0.141469538,0.5951881408691406,2.573480129241943
0.979954422,0.5654280185699463,0.122691311,-0.818849623,-0.000800062,0.014985089,0.006230562,-0.398652941,-0.251451343,-0.208280563,-0.141484201,0.5952680706977844,2.573468685150146
0.98495537,0.5642498135566711,0.1216754466295242,-0.817886829,-0.001586076,0.013570799,0.00461118,-0.398600906,-0.251469463,-0.208344579,-0.141495883,0.5953372120857239,2.573456048965454
0.989957392,0.5636798739433289,0.1238865852355957,-0.818888485,-0.003966951,0.012170495,0.002333752,-0.398811042,-0.251498729,-0.208225787,-0.141531616,0.5954082012176514,2.573426246643066
0.994954467,0.5638648867607117,0.1263641864061356,-0.819140732,-0.006629058,0.011410447,-0.000396276,-0.399202675,-0.251544744,-0.207992792,-0.141597822,0.5954701900482178,2.573382854
0.999952614,0.5622720122337341,0.1301824003458023,-0.820071995,-0.005340522,0.012294964,-0.000810458,-0.399332523,-0.251560003,-0.207915545,-0.141661823,0.5955281853675842,2.573335647583008
1.004951596,0.5614616274833679,0.1325986236333847,-0.820231795,-0.008877003,0.013749707,-0.001309158,-0.399432451,-0.251571745,-0.207856104,-0.141759515,0.5955917239189148,2.573287725448608
1.009951949,0.5587230920791626,0.1314773112535477,-0.822126865,-0.008383288,0.015064274,0.000499445,-0.399465591,-0.251575619,-0.20783639,-0.141831309,0.5956605672836304,2.573247909545898
1.014953017,0.5597322583198547,0.1315841823816299,-0.822954714,-0.00890133,0.017905191,0.000326013,-0.399291664,-0.251581907,-0.20776172,-0.141911611,0.595737636,2.573211431503296
1.019955158,0.5612542033195496,0.1299228668212891,-0.821215153,-0.010419754,0.017913627,0.002316843,-0.399233997,-0.251583993,-0.207736954,-0.141990811,0.5958250761032104,2.573179960250854
1.024952292,0.5622940063476563,0.1309026181697845,-0.819653034,-0.009077548,0.020736368,0.001512811,-0.399189651,-0.251585573,-0.20771791,-0.142069951,0.5959320068359375,2.573139429092407
1.029949903,0.5628867745399475,0.1270530670881271,-0.818935871,-0.009217736,0.019463578,0.001358971,-0.399174958,-0.251586109,-0.207711592,-0.14213717,0.5960397124290466,2.573108673095703
1.034948826,0.5595439076423645,0.1248501911759377,-0.82201618,-0.011251901,0.022295609,-0.001124861,-0.399012774,-0.251591593,-0.20794794,-0.142225921,0.5961431264877319,2.573051691055298
1.039948583,0.561456561,0.1247886940836906,-0.82087481,-0.01350318,0.023021467,-0.001592291,-0.398921669,-0.251594692,-0.208085984,-0.142322704,0.5962536334991455,2.572993040084839
1.044949532,0.5613304376602173,0.127364844,-0.820806205,-0.014732129,0.025605381,-0.003120234,-0.398851573,-0.251597077,-0.208192199,-0.142435238,0.5963786840438843,2.572935104370117
1.049957395,0.5634996294975281,0.1274833828210831,-0.820039928,-0.015331396,0.026764559,-0.003030151,-0.398828328,-0.251597852,-0.208227411,-0.142560333,0.5965120792388916,2.572862386703491
1.054960608,0.564796507,0.1297367960214615,-0.819525898,-0.016555509,0.027997002,-0.003463623,-0.398924321,-0.251540691,-0.208496571,-0.142699867,0.5966531038284302,2.572789192199707
1.059958816,0.5637564063072205,0.1366804093122482,-0.818134606,-0.017597539,0.028269589,-0.001046974,-0.399070948,-0.251463532,-0.20882991,-0.142849997,0.5967932939529419,2.572722196578979
1.064957738,0.5629270672798157,0.1381435990333557,-0.815902352,-0.01417582,0.029660009,-0.001758588,-0.39918378,-0.251404136,-0.209086388,-0.142979875,0.5969363451004028,2.572653293609619
1.069957614,0.5626652240753174,0.1339340806007385,-0.814246118,-0.01089552,0.026368134,0.001387466,-0.399221182,-0.251384467,-0.209171429,-0.143065736,0.5970701575279236,2.572614908218384
1.074958563,0.5656465291976929,0.1319207400083542,-0.812148809,-0.007571841,0.023875844,0.002754842,-0.399249971,-0.251369327,-0.209236875,-0.143144906,0.5971966981887817,2.572570323944092
1.079960585,0.5668313503265381,0.1301965415477753,-0.810437679,-0.00710726,0.019739127,0.004578432,-0.398707986,-0.25142625,-0.209316254,-0.143192366,0.5973087549209595,2.572560548782349
1.084957719,0.5681625604629517,0.1282168626785278,-0.810412347,-0.004241963,0.016040443,0.002878993,-0.398290962,-0.251470059,-0.209377319,-0.143239439,0.5974016785621643,2.572530746459961
1.089955807,0.5690286159515381,0.1291935592889786,-0.810479283,-0.002799871,0.011368683,0.003050573,-0.398152679,-0.251484603,-0.209397569,-0.143273175,0.5974774956703186,2.572507143
1.094954967,0.5663607716560364,0.1318111419677734,-0.811067104,-0.001063633,0.006756647,0.002336131,-0.398046315,-0.251495779,-0.209413156,-0.143304154,0.597517729,2.572485208511353
1.099954963,0.5668525099754333,0.1306848227977753,-0.812687159,-0.000319227,0.004356265,0.003299959,-0.398238152,-0.251496077,-0.209522218,-0.143320143,0.597546399,2.572475195
1.104955912,0.5652649998664856,0.130178377,-0.81346643,-0.00081989,0.001437582,0.005123302,-0.39861542,-0.251492858,-0.209711179,-0.143325925,0.5975663661956787,2.572478294372559
1.109957933,0.5665844082832336,0.1304111033678055,-0.813458204,0.0005342,-0.000183666,0.003725159,-0.39874053,-0.251491755,-0.209773839,-0.143336684,0.5975726842880249,2.572477818
1.11495471,0.5647739171981812,0.1302385032176971,-0.816158593,0.001676078,-0.002273649,0.005403021,-0.398836762,-0.251490921,-0.209822044,-0.143329933,0.5975645184516907,2.572484731674194
1.119952679,0.5636060833930969,0.128658727,-0.815672755,0.001314455,-0.005120291,0.002958891,-0.39886868,-0.251490653,-0.209838033,-0.143332437,0.5975358486175537,2.572476625442505
1.124951601,0.5640271902084351,0.1272918581962585,-0.815781713,0.000593319,-0.005466659,0.003185592,-0.398628801,-0.251425683,-0.209602863,-0.143329054,0.5975126028060913,2.572475433349609
1.129951477,0.5644580125808716,0.1283636838197708,-0.817267358,0.001164427,-0.008692477,0.001510135,-0.398549289,-0.251404166,-0.209524885,-0.143338203,0.5974730253219604,2.572467327
1.134952426,0.5638913512229919,0.1279157549142838,-0.817754328,-0.002070808,-0.006360186,0.000652237,-0.398488075,-0.251387566,-0.209464878,-0.143364877,0.5974438190460205,2.572454452514648
1.139954448,0.5632845163345337,0.1265417039394379,-0.819120407,-0.002646756,-0.006401842,-0.000143765,-0.398467779,-0.251382053,-0.209444985,-0.143392071,0.5974123477935791,2.572429656982422
1.144951582,0.563140333,0.1264704614877701,-0.818230808,-0.004349156,-0.004970601,-0.000584456,-0.398553222,-0.251372844,-0.209094122,-0.143430293,0.597389817,2.572403192520142
1.149949431,0.5602349042892456,0.1256150901317596,-0.817306042,-0.005706943,-0.003675703,-0.002380216,-0.398606539,-0.251368552,-0.208894745,-0.143484995,0.5973690748214722,2.572368144989014
1.154948354,0.5616686344146729,0.1305230259895325,-0.819779456,-0.008016078,-0.001716525,-0.002624681,-0.398647606,-0.251365274,-0.208741322,-0.143552631,0.5973539352416992,2.572331428527832
1.159948587,0.5621653199195862,0.1313546895980835,-0.819213569,-0.008919329,-0.001442083,-0.005034542,-0.398661196,-0.251364172,-0.20869045,-0.143645257,0.597338855,2.572272300720215
1.164949775,0.5654781460762024,0.1301306635141373,-0.81969136,-0.009975518,-0.001434088,-0.0071696,-0.398471206,-0.251399547,-0.209033757,-0.1437397,0.5973339676856995,2.572205066680908
1.169951797,0.5611733794212341,0.1305200755596161,-0.819627523,-0.007796336,-0.000530782,-0.005100613,-0.398206055,-0.251447767,-0.209533229,-0.143812671,0.5973239541053772,2.572148323059082
1.174948812,0.5609794855117798,0.1338079273700714,-0.816841662,-0.008198478,-0.001081084,-0.004430354,-0.398002058,-0.251484871,-0.209917545,-0.143898413,0.597311795,2.572094440460205
1.179947019,0.5611878633499146,0.1320805996656418,-0.8168239,-0.006485154,0.001746651,-0.004206079,-0.397934407,-0.251497179,-0.210044965,-0.143973708,0.5973163843154907,2.572035074234009
1.184952021,0.5613091588020325,0.1318939328193665,-0.816465974,-0.006818276,0.003320481,-0.00620035,-0.397882372,-0.251506656,-0.210143015,-0.144065902,0.597326398,2.571965217590332
1.189952016,0.5624951720237732,0.132258877,-0.818095148,-0.005387254,0.002867869,-0.002306327,-0.398118585,-0.251348853,-0.209791109,-0.144119084,0.597339392,2.571929454803467
1.194952965,0.5603065490722656,0.1350300163030624,-0.816994429,-0.005303598,0.003497483,-0.002134607,-0.39830035,-0.251227438,-0.209520355,-0.144193247,0.5973469018936157,2.571886777877808
1.199954987,0.5622214078903198,0.1319033801555634,-0.818176627,-0.005562312,0.002329652,-0.001304121,-0.39836064,-0.251187176,-0.20943056,-0.144245252,0.5973646640777588,2.571857213973999
1.204952121,0.5637398362159729,0.1277996748685837,-0.817598522,-0.005894782,0.005189528,-0.003961013,-0.398407012,-0.251156211,-0.209361494,-0.14430216,0.5973793268203735,2.571808338165283
1.20994997,0.5658388137817383,0.1266137510538101,-0.817706823,-0.008161644,0.002026294,-0.001920648,-0.398418725,-0.25135088,-0.209634081,-0.144363061,0.5973899364471436,2.571773052215576
1.214948893,0.565450907,0.1257358938455582,-0.817615986,-0.007326066,0.003355235,-0.00304595,-0.398424029,-0.251707852,-0.210142612,-0.144426718,0.5974097847938538,2.571728706359863
1.219948769,0.5665077567100525,0.1269752979278564,-0.817227662,-0.007711979,0.001215448,-0.004512135,-0.398425817,-0.251826227,-0.210311234,-0.144501075,0.5974148511886597,2.571669578552246
1.224949718,0.566380501,0.1253970712423325,-0.815693378,-0.009743554,0.002877487,-0.0070587,-0.398427188,-0.251917303,-0.210440964,-0.144595921,0.5974308848381042,2.571591138839722
1.229951739,0.5663843154907227,0.1243611723184586,-0.817488611,-0.012559636,0.000819761,-0.009804889,-0.398427635,-0.251947522,-0.210483983,-0.144702449,0.5974334478378296,2.571513175964355
1.234949112,0.564362109,0.1266247630119324,-0.816851139,-0.014999583,-0.000484358,-0.008793337,-0.398234308,-0.251568466,-0.210462078,-0.144826204,0.5974194407463074,2.571433544158936
1.239946961,0.5639427900314331,0.1298628896474838,-0.816894472,-0.01507318,-0.002381611,-0.00979976,-0.398170203,-0.25144276,-0.210454807,-0.14495568,0.5974015,2.571350336074829
1.244946122,0.5637090802192688,0.1304673254489899,-0.815074444,-0.015874399,-0.001916611,-0.008622351,-0.39812088,-0.251346052,-0.210449219,-0.145087063,0.5973874926567078,2.571271896362305
1.249946117,0.5651010274887085,0.1313426643610001,-0.813988507,-0.014940056,-0.002828406,-0.009228284,-0.398104519,-0.251313984,-0.210447356,-0.145225495,0.5973745584487915,2.571187257766724
1.254947066,0.5659123063087463,0.1336780488491058,-0.813165247,-0.015221081,-0.003421173,-0.009606787,-0.398341924,-0.251334041,-0.21029757,-0.145355597,0.5973585844039917,2.57110858
1.259949088,0.5618886947631836,0.1328911632299423,-0.815593302,-0.013627925,-0.005522722,-0.006067188,-0.398482472,-0.251351774,-0.210211188,-0.145463854,0.5973268151283264,2.571050882339478
1.264946461,0.5608808398246765,0.1329052150249481,-0.815504014,-0.011420509,-0.007014796,-0.006838622,-0.398590624,-0.251365393,-0.210144728,-0.145570368,0.5972883701324463,2.570987462997437
1.269944549,0.564292312,0.1320209503173828,-0.817842901,-0.012170407,-0.005825736,-0.004288643,-0.398626477,-0.251369923,-0.21012269,-0.14565739,0.5972564220428467,2.570946931838989
1.274943471,0.5652469992637634,0.1304423809051514,-0.816061974,-0.011508226,-0.006898804,-0.003325933,-0.398313165,-0.251379251,-0.210031092,-0.145738274,0.597221851,2.570907592773438
1.279943466,0.563647449,0.1280203014612198,-0.816017091,-0.009908821,-0.005901879,-0.006535849,-0.397865504,-0.251388252,-0.209925443,-0.145821348,0.5971848964691162,2.570844888687134
1.284944415,0.5627826452255249,0.1265053898096085,-0.817384124,-0.011635966,-0.008307152,-0.006530674,-0.397521079,-0.251395166,-0.209844157,-0.145911396,0.5971376299858093,2.570788621902466
1.289946675,0.5647135376930237,0.1288806796073914,-0.816334665,-0.015921528,-0.008750213,-0.007872559,-0.397406876,-0.251397461,-0.209817201,-0.146022454,0.5970924496650696,2.570732116699219
1.29494369,0.5605061650276184,0.132375106,-0.814127147,-0.014655801,-0.009411116,-0.009453386,-0.397318989,-0.251399219,-0.209796458,-0.146153733,0.5970407128334045,2.570647716522217
1.299941659,0.5601601004600525,0.1330453604459763,-0.816380501,-0.01481142,-0.009082503,-0.005924501,-0.397842437,-0.251188725,-0.210114896,-0.146261126,0.5969880819320679,2.570600509643555
1.30494082,0.5620288848876953,0.137402281,-0.816335201,-0.011627303,-0.010418127,-0.004955919,-0.398245186,-0.251026779,-0.210359916,-0.1463691,0.5969285368919373,2.570549249649048
1.309940696,0.5647958517074585,0.1381720155477524,-0.814276516,-0.009783071,-0.011399779,-0.00292344,-0.39837873,-0.250973076,-0.210441157,-0.146455169,0.5968743562698364,2.570511102676392
1.314941645,0.5647051334381104,0.1353373676538467,-0.812017858,-0.008652212,-0.011498199,-0.003344786,-0.398481458,-0.25093174,-0.210503668,-0.146544605,0.5968225598335266,2.570466995239258
1.319949865,0.5664876103401184,0.1362988501787186,-0.813395917,-0.008481949,-0.013425356,-0.002661283,-0.39842847,-0.25103575,-0.210578889,-0.1466171,0.5967580676078796,2.570433616638184
1.324952841,0.5632942318916321,0.1380399018526077,-0.814391196,-0.006839945,-0.015304578,-0.001524543,-0.398299694,-0.25123477,-0.210691869,-0.146681011,0.5966765284538269,2.570406675338745
1.329950929,0.5614058971405029,0.1370074898004532,-0.815490723,-0.005566244,-0.018381102,0.000714258,-0.398256987,-0.251300752,-0.210729331,-0.146728918,0.5965869426727295,2.570398330688477
1.334949851,0.5624439716339111,0.1361619979143143,-0.816673815,-0.004230164,-0.017068127,0.002314533,-0.398224115,-0.251351535,-0.210758165,-0.146754429,0.5965044498443604,2.570402622
1.339950085,0.565761924,0.134853333,-0.817985296,-0.002189643,-0.019010058,0.001519499,-0.398213208,-0.251368374,-0.210767716,-0.146778986,0.5964154601097107,2.570399522781372
1.344951272,0.5650169253349304,0.1334172785282135,-0.817240357,-0.002682684,-0.018619373,0.000387503,-0.398002893,-0.251650929,-0.210269213,-0.146801904,0.5963271260261536,2.570391654968262
1.349953294,0.5607284307479858,0.1334260851144791,-0.820119023,-0.002780517,-0.018741412,-0.000825944,-0.397933155,-0.251744658,-0.210103929,-0.14682737,0.5962284803390503,2.570382595062256
1.354950428,0.5599664449691772,0.1287962943315506,-0.822377324,-0.004627161,-0.016874038,0.000389713,-0.397879511,-0.25181675,-0.209976748,-0.146856129,0.5961366295814514,2.570372819900513
1.359948277,0.5595869421958923,0.1296143531799316,-0.822853625,-0.006326918,-0.013025906,-0.000428104,-0.397861719,-0.251840651,-0.209934577,-0.146900281,0.5960724353790283,2.570359945297241
1.3649472,0.5599110126495361,0.1315521597862244,-0.823973119,-0.00906704,-0.009487633,-0.000369338,-0.397899121,-0.251757622,-0.210045278,-0.146962583,0.5960199236869812,2.570338726043701
1.369947195,0.5607733130455017,0.1315458118915558,-0.822884679,-0.010907995,-0.004394941,-0.001172876,-0.397924155,-0.251704991,-0.210117415,-0.147039711,0.595988393,2.570305585861206
1.374948144,0.5623620748519897,0.1331887245178223,-0.825086176,-0.009972247,-0.001612357,0.000468491,-0.397943407,-0.251664519,-0.210172921,-0.147105142,0.5959745645523071,2.570285320281982
1.379950047,0.5607523322105408,0.1369496434926987,-0.822277009,-0.011223247,0.000435271,-0.001611804,-0.397949815,-0.251651078,-0.210191324,-0.147200629,0.5959703922271729,2.570244789123535
1.384947181,0.5627878308296204,0.1396734565496445,-0.821933925,-0.010911643,0.003494801,-0.001777505,-0.397926122,-0.251697093,-0.209988862,-0.147303134,0.595985472,2.570195675
1.38994503,0.5632839798927307,0.1369370967149734,-0.821036756,-0.007769612,0.005169425,-0.00011732,-0.397889376,-0.251769185,-0.209703282,-0.147371888,0.5960152745246887,2.570155382156372
1.39494431,0.562934399,0.1392087042331696,-0.820065856,-0.010060741,0.008627839,-0.00118927,-0.397861063,-0.251824647,-0.209483549,-0.147464633,0.5960568189620972,2.570107460021973
1.399944186,0.5616186261177063,0.139214352,-0.818157911,-0.008370766,0.008635649,-0.00054316,-0.397851676,-0.251843035,-0.209410682,-0.147544771,0.596094549,2.570063114
1.404945135,0.5630580186843872,0.136892095,-0.816890001,-0.005658099,0.008262162,0.001061637,-0.397844464,-0.251857191,-0.209354624,-0.147600606,0.5961417555809021,2.570029258728027
1.409947157,0.5631164312362671,0.132438138,-0.815241039,-0.003623114,0.005358556,0.002718768,-0.398045182,-0.251654536,-0.209334448,-0.14762719,0.5961742997169495,2.570021629333496
1.414944291,0.5640925765037537,0.1334129273891449,-0.815057814,-0.002450873,0.00435971,0.001627204,-0.398199618,-0.25149858,-0.209318906,-0.147660539,0.5962013602256775,2.569995880126953
1.419942141,0.5671176910400391,0.1303730309009552,-0.813661098,-0.003136666,0.000198315,0.000353316,-0.398250848,-0.251446873,-0.209313765,-0.14769277,0.5962185859680176,2.569972754
1.424941301,0.5682612657546997,0.1306837201118469,-0.812221766,-0.001298151,-0.003223785,-0.000299922,-0.398290247,-0.251407117,-0.209309787,-0.147712693,0.5962141156196594,2.569950819015503
1.429941297,0.5648499131202698,0.1320900619029999,-0.81374985,-0.00186331,-0.006367337,-7.52E-05,-0.398187637,-0.251457602,-0.209716022,-0.147733197,0.5961934924125671,2.569936275482178
1.434942007,0.5661921501159668,0.1295863837003708,-0.813941836,-0.002050366,-0.007900397,-0.001881487,-0.397991747,-0.251560837,-0.21044068,-0.147761017,0.5961593389511108,2.569906234741211
1.43994391,0.5651440620422363,0.1290255784988403,-0.814904273,-0.002256603,-0.011739201,-0.002060358,-0.397926778,-0.25159508,-0.210680962,-0.147788063,0.5961071252822876,2.569884061813354
1.444941044,0.564844549,0.130769745,-0.815897465,-0.00226298,-0.013767081,-0.003062118,-0.397876829,-0.251621425,-0.21086584,-0.147818103,0.596035898,2.569848537445068
1.449938893,0.5646988749504089,0.1317358911037445,-0.814167678,-0.002194335,-0.014580427,-0.003198405,-0.397860259,-0.251630157,-0.210927144,-0.147860169,0.5959669351577759,2.569809436798096
1.454943776,0.5633339285850525,0.1344273686408997,-0.813493252,-0.002090273,-0.015431452,-0.003017103,-0.397847027,-0.251767457,-0.210466132,-0.147904813,0.5958914756774902,2.569778442382813
1.459943891,0.5630883574485779,0.134512797,-0.81534797,-0.002391208,-0.016382573,-0.004459821,-0.397842646,-0.251812965,-0.210313275,-0.147954062,0.5958085060119629,2.569732427597046
1.464944839,0.562533975,0.135906845,-0.813307881,-0.001969623,-0.020888297,-0.001172483,-0.397839278,-0.251847982,-0.210195661,-0.147975728,0.59570843,2.569725275039673
1.469946861,0.5629673600196838,0.139363095,-0.813385129,-0.000438161,-0.020124255,-0.001691598,-0.397838175,-0.251859605,-0.210156664,-0.148009345,0.5956094861030579,2.569702148
1.474943757,0.5620459318161011,0.138832226,-0.813600302,0.002373775,-0.021874329,0.000199446,-0.397890151,-0.251615822,-0.210414484,-0.148022711,0.5954999327659607,2.569690942764282
1.479941607,0.5630863308906555,0.1386423856019974,-0.814873219,0.00357773,-0.025645176,0.001153842,-0.39792043,-0.251472473,-0.2105712,-0.148025826,0.5953753590583801,2.569687843322754
1.484940529,0.5616123676300049,0.1416582763195038,-0.815951765,0.004660491,-0.027323967,0.003252404,-0.397943765,-0.251362175,-0.21069178,-0.148019716,0.5952377319335938,2.569702386856079
1.489941239,0.5600394010543823,0.1396092772483826,-0.815623522,0.007803463,-0.029411076,0.007539641,-0.397951484,-0.251325607,-0.21073176,-0.147976086,0.5950897932052612,2.569743633270264
1.494942188,0.562200129,0.1341293305158615,-0.816230118,0.008780653,-0.032038089,0.006961296,-0.398013532,-0.251381546,-0.210598081,-0.14791584,0.5949382185935974,2.569785356521606
1.499944448,0.5633790493011475,0.1312754154205322,-0.814609885,0.010017463,-0.035583265,0.008807451,-0.398090661,-0.251484871,-0.210387915,-0.147832766,0.5947750210762024,2.569846391677856
1.504941583,0.5584794878959656,0.1347420215606689,-0.815819204,0.009294834,-0.034340758,0.008091982,-0.398150027,-0.251564384,-0.210226208,-0.147769913,0.5946067571640015,2.569891691207886
1.509939671,0.5639018416404724,0.1325498670339584,-0.817191362,0.010341614,-0.038190801,0.007855333,-0.398169696,-0.251590729,-0.210172594,-0.147694468,0.5944281220436096,2.569952249526978
1.514938593,0.56423074,0.1296714693307877,-0.816426396,0.010135605,-0.038270537,0.006436467,-0.398184836,-0.251611024,-0.210131332,-0.147619843,0.5942530035972595,2.569995641708374
1.51993835,0.5634723901748657,0.1285280883312225,-0.818366885,0.009599116,-0.041423768,0.006307494,-0.398138285,-0.251672208,-0.210404038,-0.147544473,0.5940530300140381,2.57004714
1.524939299,0.5607104897499084,0.1223336681723595,-0.822333395,0.008147076,-0.046633627,0.004013806,-0.398102492,-0.251719296,-0.210613862,-0.14746736,0.5938264727592468,2.570087909698486
1.529941201,0.5602453947067261,0.118725874,-0.814237297,0.005014214,-0.045354515,0.001118518,-0.398090631,-0.251734883,-0.210683435,-0.147413269,0.5935993194580078,2.570117712020874
1.534938335,0.5698976516723633,0.1220029890537262,-0.818139553,0.001812595,-0.045418818,-0.002168292,-0.398081481,-0.251746893,-0.21073696,-0.147392705,0.593402624,2.570127725601196
1.539936304,0.5648888349533081,0.1205787658691406,-0.814542294,-0.004166177,-0.048381861,-0.004625356,-0.398080617,-0.251688659,-0.210268155,-0.147408381,0.5931726098060608,2.570116996765137
1.544935226,0.5629704594612122,0.1150919944047928,-0.820389092,-0.00984764,-0.048593257,-0.006778202,-0.398082137,-0.251580894,-0.209415451,-0.147443429,0.5929312705993652,2.570109367370605
1.549935102,0.5617812275886536,0.1096728295087814,-0.820948243,-0.019188825,-0.04926578,-0.014708655,-0.398082644,-0.251545161,-0.209132716,-0.147541091,0.5926785469055176,2.570064544677734
1.554936051,0.5612451434135437,0.1145734563469887,-0.822270274,-0.023678878,-0.04684988,-0.017417829,-0.398083001,-0.251517683,-0.208915159,-0.147682756,0.5924344062805176,2.569986581802368
1.559938073,0.5641670227050781,0.1213416159152985,-0.82222712,-0.031040557,-0.044505663,-0.023323631,-0.39808315,-0.251508564,-0.208843023,-0.14790149,0.5922043919563293,2.56986928
1.564935446,0.5599184036254883,0.1283950507640839,-0.823839426,-0.036441192,-0.041440509,-0.026234629,-0.398678392,-0.251695096,-0.209027126,-0.148172498,0.5919786691665649,2.569724321365356
1.569933295,0.5534332394599915,0.1333282291889191,-0.824444115,-0.039902039,-0.036739815,-0.027168455,-0.398875773,-0.251756966,-0.209088162,-0.148468465,0.5917624235153198,2.569563865661621
1.574932456,0.5537189245223999,0.1441532522439957,-0.829656899,-0.038083773,-0.03214775,-0.026489511,-0.399027646,-0.251804531,-0.20913513,-0.148772031,0.591570258,2.569403171539307
1.579932451,0.5505330562591553,0.1533988267183304,-0.827706933,-0.03396171,-0.027851781,-0.022098806,-0.399077982,-0.251820326,-0.209150717,-0.14906472,0.5913992524147034,2.569255590438843
1.5849334,0.5522772073745728,0.1559512764215469,-0.826318502,-0.029641453,-0.023109064,-0.020632794,-0.398915917,-0.251886755,-0.209118322,-0.149333939,0.5912588834762573,2.569107055664063
1.589941502,0.5545676946640015,0.1530976742506027,-0.826466501,-0.025918927,-0.015739202,-0.015583825,-0.398812473,-0.25192222,-0.209096596,-0.149553806,0.5911576151847839,2.568997144699097
1.594944477,0.5568225383758545,0.150830403,-0.825721025,-0.022271028,-0.011791071,-0.01163471,-0.398732871,-0.251949519,-0.209079862,-0.149742275,0.5910812020301819,2.568899154663086
1.599942684,0.5572365522384644,0.1525812596082687,-0.825926661,-0.016334925,-0.003835046,-0.008278998,-0.398706466,-0.251958549,-0.209074318,-0.149900332,0.5910565853118896,2.568819761276245
1.604941607,0.5608723163604736,0.1581248044967651,-0.825775564,-0.011165488,-0.000467953,-0.002740595,-0.398573428,-0.251881808,-0.209154397,-0.150033548,0.5910502076148987,2.568753719329834
1.609941483,0.5559738278388977,0.160171166,-0.824644387,-0.003694411,0.003170758,0.000330178,-0.398415655,-0.251771927,-0.209265992,-0.150116682,0.5910566449165344,2.568712234
1.614942431,0.5543879866600037,0.1593322604894638,-0.826651871,0.002736619,0.008588064,0.005548174,-0.39829424,-0.251687378,-0.209351867,-0.150150135,0.5910944938659668,2.568699836730957
1.619944453,0.5546678304672241,0.158106267,-0.827156365,0.009479585,0.013750333,0.0119148,-0.398253977,-0.251659364,-0.209380344,-0.15012899,0.5911641120910645,2.568719148635864
1.624941587,0.5570303201675415,0.1552444249391556,-0.828738332,0.013634189,0.018060368,0.014078868,-0.398223013,-0.251637816,-0.209402248,-0.150073215,0.5912551879882813,2.568746328353882
1.629939675,0.5555980205535889,0.1507030576467514,-0.82721132,0.017766267,0.022869907,0.017553704,-0.398213357,-0.251677185,-0.20893234,-0.149982631,0.5913753509521484,2.568804740905762
1.634938836,0.557135284,0.1502722352743149,-0.828881323,0.020785343,0.027879694,0.021166135,-0.398205936,-0.251707435,-0.208570763,-0.14986977,0.5915201902389526,2.568861722946167
1.63993907,0.5590267777442932,0.1483586877584457,-0.828255892,0.024804067,0.031688578,0.01962702,-0.398203462,-0.251717478,-0.208450869,-0.149739906,0.5916918516159058,2.568916082382202
1.644940019,0.5588954091072083,0.1493537724018097,-0.826617479,0.027746985,0.038013626,0.021598265,-0.398201555,-0.251725197,-0.208358616,-0.149589628,0.5918915867805481,2.568973302841187
1.649942279,0.5578473806381226,0.144341916,-0.827830672,0.031575006,0.041350584,0.024233559,-0.398342639,-0.251698852,-0.20862335,-0.149410367,0.5921003818511963,2.569047689437866
1.654939413,0.5590484738349915,0.1408847868442535,-0.827798724,0.033542793,0.04321209,0.023302248,-0.398594528,-0.25164932,-0.209125668,-0.149217322,0.5923320055007935,2.569120168685913
1.659937501,0.5574977397918701,0.1328926384449005,-0.826341689,0.035588689,0.046372913,0.019932462,-0.398678035,-0.251632899,-0.209292218,-0.149012297,0.5925607681274414,2.569170236587524
1.664936423,0.5603525042533875,0.1308432221412659,-0.823741496,0.033898719,0.0495818,0.017268302,-0.398742318,-0.251620263,-0.209420383,-0.148826644,0.5928232669830322,2.569204330444336
1.669936657,0.5653510689735413,0.1275651454925537,-0.823652565,0.03287353,0.05084068,0.011163331,-0.398763627,-0.251616061,-0.209462866,-0.148655578,0.5930894613265991,2.569202423095703
1.674937844,0.5670177340507507,0.1239480897784233,-0.823770404,0.030715875,0.051437121,0.003622168,-0.398580402,-0.251681417,-0.209181964,-0.148516834,0.5933545827865601,2.569156885147095
1.679939866,0.5691945552825928,0.1208730489015579,-0.824226737,0.027460236,0.052962039,-0.003538714,-0.398519635,-0.251703084,-0.209088817,-0.148412243,0.593623161,2.569070578
1.684937,0.5730699896812439,0.1216698288917542,-0.826284111,0.025439236,0.054984476,-0.011626158,-0.398472905,-0.251719773,-0.209017158,-0.148345768,0.5938993692398071,2.568938255310059
1.68993485,0.5767567157745361,0.1220462173223495,-0.827270746,0.023782829,0.054389749,-0.022524504,-0.398457408,-0.251725286,-0.20899339,-0.14833498,0.5941687226295471,2.568731784820557
1.694933772,0.5785478353500366,0.1272596269845963,-0.829725206,0.023105901,0.055523958,-0.029551577,-0.398593634,-0.251781851,-0.209448293,-0.14835982,0.5944397449493408,2.568487644195557
1.699933648,0.5795907974243164,0.1325816810131073,-0.828985214,0.02614145,0.05527468,-0.037688378,-0.398675442,-0.251813561,-0.209716216,-0.148407087,0.5947024822235107,2.568181037902832
1.704934597,0.5814678072929382,0.1363323330879211,-0.829934597,0.031477258,0.054636769,-0.04297103,-0.398738414,-0.251837969,-0.209922358,-0.148441002,0.594967246,2.567837715148926
1.709936619,0.5775269865989685,0.1373694986104965,-0.83054471,0.035828359,0.057629522,-0.049177039,-0.398759305,-0.251846045,-0.20999071,-0.148488358,0.5952187776565552,2.567464351654053
1.714933753,0.5675016641616821,0.1282316893339157,-0.838505626,0.030434312,0.064388461,-0.054833591,-0.398773253,-0.251996964,-0.210068777,-0.148552388,0.5954866409301758,2.567059516906738
1.719931602,0.5556803345680237,0.1241238415241241,-0.837983012,0.025524905,0.075325355,-0.057273842,-0.398775756,-0.252192914,-0.21012035,-0.148662895,0.595781147,2.566629648208618
1.724936724,0.5481194853782654,0.1237724050879478,-0.840020418,0.021396171,0.088680826,-0.060984943,-0.398777694,-0.252343684,-0.210160032,-0.148803204,0.5961384773254395,2.566176176071167
1.7299366,0.5441896319389343,0.1305654495954514,-0.836954892,0.018967438,0.1038700640201569,-0.062481385,-0.398778319,-0.252393693,-0.21017319,-0.148990899,0.5965713858604431,2.565692663192749
1.734937549,0.5413218140602112,0.1329584419727325,-0.843505502,0.017080851,0.1267125755548477,-0.064307615,-0.398778796,-0.252432168,-0.210183308,-0.149203211,0.5971044301986694,2.565178632736206
1.739940047,0.5364891886711121,0.1285247057676315,-0.849111795,0.01280738,0.1525305658578873,-0.065953836,-0.398024291,-0.252762944,-0.210007057,-0.149441585,0.5977545976638794,2.564634323120117
1.744937778,0.5309175252914429,0.1298385262489319,-0.857944906,-3.33E-05,0.1844174861907959,-0.063685223,-0.397443771,-0.253017426,-0.209871441,-0.149750799,0.598542333,2.564079523086548
1.749936104,0.5300655961036682,0.1445566713809967,-0.858441353,-0.006420139,0.2172039747238159,-0.061377943,-0.397251278,-0.253101796,-0.209826469,-0.150149778,0.5994991660118103,2.563484191894531
1.754935265,0.5122541785240173,0.1553811728954315,-0.87328285,-0.017404605,0.2631520628929138,-0.057644948,-0.397103161,-0.253166735,-0.209791884,-0.150628015,0.6006428003311157,2.562871456
1.75993526,0.498289943,0.1678797751665115,-0.892307639,-0.031013137,0.3208385109901428,-0.045280818,-0.396710485,-0.253285468,-0.21021907,-0.151169851,0.6020419001579285,2.562285900115967
1.76493597,0.480588973,0.1379905194044113,-0.927518129,-0.074427098,0.4053669571876526,-0.029173037,-0.396060973,-0.253475159,-0.210991308,-0.151823595,0.6038228273391724,2.561748743057251
1.769937873,0.4208012223243713,0.1820252984762192,-0.930791557,-0.112216353,0.525335431,0.005851182,-0.395845592,-0.253538042,-0.21124737,-0.152790204,0.6061309576034546,2.561297655105591
1.774934769,0.4101600646972656,0.2179542183876038,-0.933331668,-0.081444412,0.6912827491760254,0.032846827,-0.395679891,-0.253586441,-0.211444393,-0.153587982,0.6093087792396545,2.560797214508057
1.779932976,0.3930954337120056,0.2523037493228912,-0.97003603,-0.103738748,0.8474094867706299,0.079214022,-0.395624936,-0.253602505,-0.211509719,-0.154505283,0.6132417917251587,2.560402631759644
1.784932137,0.3528894484043121,0.3442513942718506,-1.02299571,-0.09927059,1.065007806,0.1512265056371689,-0.394312799,-0.25365898,-0.213737652,-0.155455977,0.618154764,2.560164451599121
1.789932013,0.374572366,0.3896367847919464,-1.046342373,-0.118459836,1.271420121192932,0.2575661242008209,-0.393877745,-0.253677726,-0.214476392,-0.156297326,0.6242721080780029,2.560380220413208
1.794932961,0.5269544124603271,0.4040445387363434,-1.093259335,-0.112889893,1.354025721549988,0.3139301240444183,-0.393542945,-0.25369215,-0.215044796,-0.156965449,0.6310119032859802,2.560855150222778
1.799934983,0.5956972241401672,0.3862734138965607,-1.104806781,-0.123193972,1.387755393981934,0.3372659385204315,-0.393431962,-0.253696918,-0.215233281,-0.15752764,0.6377977728843689,2.561392545700073
1.804932117,0.6090810894966125,0.3080698251724243,-1.074867964,-0.152563974,1.486134886741638,0.3872435390949249,-0.392047465,-0.252844065,-0.219131097,-0.158009753,0.6452341079711914,2.56223464
1.809930205,0.7370830178260803,0.2540439367294312,-1.059505463,-0.198993057,1.606425404548645,0.4926721751689911,-0.391266942,-0.252349347,-0.22135219,-0.158257008,0.6535072922706604,2.563606977462769
1.814929128,0.9148601889610291,0.222133145,-1.083190322,-0.274965882,1.736160039901733,0.6866627931594849,-0.390666395,-0.251968652,-0.223061159,-0.158131272,0.662885308,2.566164493560791
1.819929361,0.9615980386734009,0.1764145791530609,-1.076089382,-0.382517368,1.826826333999634,0.8796612620353699,-0.390467256,-0.251842439,-0.223627821,-0.157749131,0.6728286743164063,2.569979906082153
1.82493031,1.126520037651062,0.282300204,-1.103478551,-0.368478656,1.861529708,1.065870761871338,-0.389017701,-0.250327736,-0.227434412,-0.156665787,0.6832654476165771,2.574866056442261
1.82993257,1.067776441574097,0.435486227,-1.002608061,-0.284692466,1.895986557006836,1.208580971,-0.38722986,-0.248396039,-0.23209551,-0.154958501,0.6938177347183228,2.580498218536377
1.834929705,1.112291812896729,0.5112361311912537,-1.053949714,-0.125431672,1.949094533920288,1.258911967277527,-0.385854244,-0.246909738,-0.235681906,-0.152270719,0.7047158479690552,2.586276292800903
1.839927554,1.26069963,0.6020569801330566,-1.181299686,0.092452466,1.932597875595093,1.278676867485046,-0.38539809,-0.246416897,-0.236871079,-0.148453295,0.7154932022094727,2.592124700546265
1.844926476,1.397260665893555,0.596548855,-1.335304379,0.3511106073856354,1.826642513275146,1.301713705062866,-0.385047138,-0.246037707,-0.237786084,-0.142800212,0.7256795763969421,2.598470926
1.849926353,1.478994846343994,0.6816635727882385,-1.536152363,0.5028550028800964,1.607274413108826,1.244557261,-0.383126497,-0.241519541,-0.24346514,-0.136644825,0.7344619035720825,2.604645729064941
1.854927301,1.325127601623535,0.7416080832481384,-1.687972188,0.6889415383338928,1.285188436508179,1.174183726,-0.38164869,-0.238043129,-0.247834787,-0.12979947,0.741017759,2.610653638839722
1.859935284,0.9417790174484253,0.6687927842140198,-1.620580792,0.915367603,1.010996103286743,1.133129954338074,-0.38115868,-0.236890405,-0.249283686,-0.121472478,0.7456254363059998,2.616904258728027
1.864938498,0.5902894139289856,0.5526055693626404,-1.524632096,1.064946174621582,0.8646626472473145,1.107023000717163,-0.380781651,-0.236003458,-0.250398517,-0.112138547,0.7492693662643433,2.623305797576904
1.869936585,0.2961331903934479,0.4672004282474518,-1.433138013,1.122461676597595,0.8109091520309448,1.097385526,-0.380420893,-0.234105006,-0.251711249,-0.102379829,0.7524515986442566,2.629895448684692
1.874935508,0.07390748,0.3912483751773834,-1.367975235,1.100521922111511,0.8043454885482788,1.089091658592224,-0.379904926,-0.231022,-0.253674865,-0.092657171,0.7554370164871216,2.636590719223022
1.879935503,-0.074147478,0.3304203450679779,-1.329802752,1.028155326843262,0.814401388,1.088743925094604,-0.379733831,-0.229999736,-0.254325986,-0.083200119,0.7583469152450562,2.643404960632324
1.88493669,-0.165601656,0.3142695724964142,-1.322235107,0.9234020709991455,0.8213850259780884,1.074677109718323,-0.379602194,-0.229213163,-0.254826993,-0.074304461,0.7611590623855591,2.650197982788086
1.889938712,-0.228313848,0.3359500169754028,-1.337203741,0.8064978122711182,0.8038249015808105,1.038798928260803,-0.379558533,-0.228952348,-0.254993111,-0.066229574,0.7637374997138977,2.656762123
1.894936085,-0.277845562,0.3669816553592682,-1.368933439,0.7004174590110779,0.748768687,0.9816787242889404,-0.382083744,-0.226859674,-0.253129154,-0.059007153,0.7658625245094299,2.662942648
1.899933934,-0.313358963,0.4030461311340332,-1.401168227,0.6161776781082153,0.6596710085868835,0.9093358516693115,-0.38292107,-0.226165786,-0.252511114,-0.052589633,0.7673822045326233,2.668623208999634
1.904932857,-0.347670972,0.4408034682273865,-1.42281723,0.5605388283729553,0.5432127714157104,0.8205611109733582,-0.383565307,-0.225631893,-0.252035558,-0.046916623,0.7681818008422852,2.673691749572754
1.909932852,-0.391452938,0.4767301678657532,-1.43048656,0.531367302,0.4122678339481354,0.7206153273582458,-0.38377893,-0.225454852,-0.251877904,-0.041909173,0.7682077884674072,2.678051471710205
1.914933801,-0.436093569,0.5008401274681091,-1.434509635,0.5247689485549927,0.2752921581268311,0.6136133670806885,-0.38602519,-0.223386705,-0.250641733,-0.037480686,0.7674509286880493,2.681681394577026
1.919935942,-0.483128428,0.5131074190139771,-1.43064177,0.5335174798965454,0.1410503685474396,0.5103545188903809,-0.387285173,-0.22222288,-0.249955967,-0.033497665,0.7659326195716858,2.684612035751343
1.924933076,-0.52909863,0.5007122159004211,-1.413773298,0.5436332821846008,0.010391029,0.4133033156394958,-0.388254672,-0.221327394,-0.249428317,-0.029881252,0.7637088894844055,2.686902761459351
1.929931283,-0.57518363,0.4645383954048157,-1.393177748,0.5307563543319702,-0.113613449,0.3210259675979614,-0.38857612,-0.221030474,-0.249253348,-0.026664732,0.760830283,2.688641309738159
1.934930205,-0.617262721,0.4090408384799957,-1.370022535,0.4827704727649689,-0.225955874,0.2388157099485397,-0.390856862,-0.219941959,-0.247762665,-0.023970637,0.7573620676994324,2.689908504486084
1.939930081,-0.648070455,0.3524311780929565,-1.35120666,0.3942545056343079,-0.328474224,0.162301779,-0.393663585,-0.21871376,-0.245900944,-0.021971673,0.7533695697784424,2.690751314163208
1.94493103,-0.664261878,0.3157225251197815,-1.338394642,0.2756369709968567,-0.428080797,0.086771749,-0.395823181,-0.217768759,-0.24446848,-0.020871919,0.7488776445388794,2.691125392913818
1.949933052,-0.648704827,0.3088459372520447,-1.344825387,0.1413184553384781,-0.533286035,0.009812197,-0.396539271,-0.217455402,-0.243993506,-0.02081193,0.7438781261444092,2.690999031066895
1.954930186,-0.603821695,0.3297223150730133,-1.369021535,0.01997667,-0.663958371,-0.070527047,-0.397090256,-0.217214301,-0.24362804,-0.021782761,0.7382457256317139,2.690302133560181
1.959928274,-0.537018061,0.3555397689342499,-1.394323349,-0.080567054,-0.82643199,-0.16745466,-0.401849985,-0.216247454,-0.239519462,-0.023723049,0.7318243384361267,2.688957214355469
1.964927197,-0.477959663,0.3742667138576508,-1.410941124,-0.146696046,-1.015923738,-0.277251154,-0.405512273,-0.215503529,-0.236358196,-0.026467353,0.7244853973388672,2.686897039413452
1.96992743,-0.442604452,0.3848945796489716,-1.416734695,-0.183290824,-1.219127774,-0.403724372,-0.406726629,-0.215256855,-0.235309973,-0.029873343,0.7161225080490112,2.684056758880615
1.974928379,-0.434845656,0.3811570107936859,-1.404183745,-0.201986194,-1.419012547,-0.538777113,-0.407660961,-0.215067059,-0.234503448,-0.033832014,0.7067549228668213,2.680433988571167
1.979930401,-0.439608157,0.3653988540172577,-1.377193093,-0.215181917,-1.601052403,-0.675379574,-0.410998613,-0.214540109,-0.230880186,-0.038270842,0.6964753866195679,2.676058769226074
1.984927535,-0.449146658,0.3396195769309998,-1.344251633,-0.229490638,-1.754989147,-0.810637414,-0.416628271,-0.213665441,-0.224699065,-0.043145772,0.6854344606399536,2.670993328094482
1.989925623,-0.43630743,0.3109154403209686,-1.316699028,-0.251627594,-1.885791659,-0.933462858,-0.41849497,-0.213375434,-0.22264953,-0.048411079,0.6737778186798096,2.665332794189453
1.994930744,-0.41532144,0.288312167,-1.295488477,-0.278791666,-2.000351191,-1.045106053,-0.419931263,-0.213152274,-0.22107254,-0.054048438,0.661574662,2.659165620803833
1.99993062,-0.376427025,0.2773766219615936,-1.288929224,-0.302507699,-2.102882385,-1.142407537,-0.420407504,-0.213078275,-0.220549628,-0.059971012,0.648898184,2.652586698532104
2.004931688,-0.335776359,0.2729111313819885,-1.288429499,-0.320347786,-2.20554781,-1.224407792,-0.429436475,-0.214546621,-0.205457315,-0.066075779,0.6357299089431763,2.645717144012451
2.009933233,-0.284656554,0.2707969844341278,-1.292874813,-0.331849307,-2.311034918,-1.293505549,-0.432430327,-0.215033486,-0.200452983,-0.072267383,0.6220496892929077,2.638646602630615
2.014930487,-0.233097896,0.2636046409606934,-1.302695274,-0.337327659,-2.420374393,-1.35417366,-0.434733897,-0.215408102,-0.196602494,-0.078447953,0.6078500747680664,2.631452322006226
2.019928217,-0.180142701,0.2507253587245941,-1.320268989,-0.35364145,-2.538229227,-1.400090337,-0.435497701,-0.215532318,-0.195325732,-0.084587261,0.5930837988853455,2.624256610870361
2.024927139,-0.113785341,0.2342294454574585,-1.348148108,-0.383954167,-2.66699338,-1.436796188,-0.441744506,-0.21793738,-0.180575088,-0.090726815,0.5777256488800049,2.617100954055786
2.029927254,-0.04464221,0.2094323188066483,-1.371921301,-0.427493155,-2.816089392,-1.468638301,-0.445216179,-0.21930635,-0.172277048,-0.096879281,0.5616596937179565,2.610061645507813
2.034928322,0.005732822,0.181558833,-1.378876209,-0.484388918,-2.973263264,-1.494539857,-0.447887391,-0.220359668,-0.165892273,-0.10308972,0.5448404550552368,2.603193759918213
2.039930344,0.035582766,0.157879427,-1.377329826,-0.550807476,-3.125275612,-1.517104983,-0.448773116,-0.220708922,-0.163775206,-0.109393544,0.5272916555404663,2.596513271331787
2.044927597,0.048664406,0.1323007345199585,-1.362532377,-0.624982595,-3.263473272,-1.528111458,-0.451899558,-0.222859025,-0.151845798,-0.115801178,0.5090816020965576,2.590067863464355
2.049925327,0.062903591,0.1050148978829384,-1.34069705,-0.70679003,-3.380147219,-1.535556674,-0.455401689,-0.225469127,-0.137503281,-0.122331582,0.4903430044651031,2.583882331848145
2.05492425,0.077745147,0.075422034,-1.316512346,-0.791247308,-3.473182201,-1.529808521,-0.458096325,-0.227477416,-0.12646769,-0.128984988,0.47120294,2.578019857406616
2.059924126,0.1004651263356209,0.049031332,-1.296695352,-0.877964735,-3.546371222,-1.520177245,-0.458989799,-0.228143334,-0.122808494,-0.135774419,0.4517793655395508,2.572490692138672
2.064925432,0.1364678591489792,0.02418814,-1.280019283,-0.964282036,-3.597416162,-1.49916327,-0.459677279,-0.228655711,-0.119992994,-0.142694816,0.4322110116481781,2.567322254180908
2.069927454,0.176033229,0.00849515,-1.269496441,-1.042767882,-3.638504267,-1.471255422,-0.462162763,-0.232308671,-0.098527849,-0.149713457,0.4125476479530334,2.562524318695068
2.074924707,0.219646618,-0.001503705,-1.252372742,-1.111810088,-3.670150757,-1.440054297,-0.464075178,-0.235119358,-0.082011871,-0.156812355,0.392841637,2.558109521865845
2.079922676,0.2582855522632599,0.00027074,-1.231470704,-1.163128734,-3.684514284,-1.402702093,-0.464709282,-0.236051336,-0.076535486,-0.163923204,0.37318778,2.554098129272461
2.084921598,0.2989680767059326,0.008250624,-1.212414861,-1.19301939,-3.684374332,-1.365001321,-0.465197176,-0.236768425,-0.07232178,-0.170971185,0.3536632061004639,2.550450563430786
2.089921474,0.34237963,0.019275339,-1.192546129,-1.196830153,-3.667960167,-1.329759479,-0.465336949,-0.238859564,-0.058696419,-0.177853838,0.3343536555767059,2.547114133834839
2.094922781,0.3941647410392761,0.031517848,-1.184683323,-1.180296302,-3.643477201,-1.299739361,-0.465422213,-0.242342591,-0.035848033,-0.184485525,0.315301239,2.544059991836548
2.099925041,0.4471531510353088,0.04161907,-1.180131316,-1.144791007,-3.615195751,-1.272889256,-0.465450495,-0.243497506,-0.028271941,-0.190799624,0.2965300977230072,2.541252374649048
2.104922056,0.4985094666481018,0.047695909,-1.175355792,-1.094729662,-3.584985733,-1.251522779,-0.465472251,-0.244386137,-0.022442654,-0.196741596,0.2780271172523499,2.538649559020996
2.109920025,0.5395705699920654,0.047286678,-1.16267097,-1.037801981,-3.557718992,-1.233009696,-0.465479463,-0.244680792,-0.020509772,-0.202267915,0.2597587704658508,2.536221027374268
2.114918947,0.560245693,0.045429576,-1.136364341,-0.979589403,-3.517856836,-1.217050433,-0.460977703,-0.249004155,0.008235051,-0.207414776,0.2417656928300858,2.533926725387573
2.119918823,0.5691613554954529,0.043436728,-1.105114818,-0.922639489,-3.468868494,-1.192183733,-0.459484994,-0.250437707,0.017766289,-0.212206721,0.2240886688232422,2.531803607940674
2.124919891,0.5773048400878906,0.039666694,-1.071124673,-0.864090919,-3.395996094,-1.153430939,-0.458336502,-0.25154075,0.025099931,-0.216614857,0.2068688273429871,2.529897928237915
2.129927874,0.5756531357765198,0.032392628,-1.037501812,-0.812811553,-3.307552338,-1.106203675,-0.457955658,-0.251906484,0.027531628,-0.220680624,0.1901773661375046,2.528213500976563
2.134931087,0.5852211117744446,0.017784867,-1.013173819,-0.772649467,-3.198810816,-1.051081777,-0.452364922,-0.255318969,0.048639514,-0.224453568,0.1741362661123276,2.526734113693237
2.139929533,0.6134170889854431,0.003617208,-1.004852653,-0.747362792,-3.08538866,-0.983828843,-0.449200213,-0.257225275,0.060398705,-0.228002816,0.1588132530450821,2.525531053543091
2.144928694,0.6625121235847473,-0.003386038,-1.013795257,-0.752882898,-2.975120783,-0.908774734,-0.446765184,-0.258692056,0.069446608,-0.231513202,0.1442300826311111,2.524627685546875
2.149928808,0.7482337355613708,-0.007865091,-1.039723039,-0.790171325,-2.88585186,-0.833678305,-0.44595778,-0.2591784,0.072446719,-0.235146642,0.1303289085626602,2.524042844772339
2.154929638,0.8642218112945557,0.002698594,-1.077020407,-0.846997499,-2.83972621,-0.767218113,-0.441534311,-0.260953009,0.08441446,-0.239042506,0.1169348433613777,2.523747444152832
2.15993166,0.9938474893569946,0.023272321,-1.101961136,-0.903465509,-2.835881472,-0.71453017,-0.436233431,-0.262953609,0.0981232,-0.243216842,0.1038270965218544,2.523745298
2.164928675,1.088267326,0.033645436,-1.114378691,-0.957747877,-2.868553162,-0.680515289,-0.432154745,-0.264492899,0.1086711436510086,-0.247635618,0.090741828,2.524000644683838
2.169927359,1.136568546295166,0.041713711,-1.10811162,-1.000942945,-2.922246456,-0.669799984,-0.430802345,-0.265003324,0.1121686473488808,-0.252269417,0.077454947,2.524419308
2.174926281,1.170197725296021,0.059043624,-1.058667898,-1.025573015,-2.986967087,-0.667994738,-0.429761767,-0.265396029,0.1148597374558449,-0.257058889,0.063919723,2.524983406066895
2.179926157,1.162193536758423,0.083504729,-0.967089295,-1.020480275,-3.028042793,-0.667711258,-0.421766937,-0.267729878,0.1300708800554276,-0.261887461,0.050180584,2.525647640228271
2.184927225,1.123207926750183,0.098860376,-0.846764326,-0.989646733,-3.022745132,-0.660801232,-0.415615499,-0.269525588,0.1417748332023621,-0.266617209,0.036459874,2.526418924331665
2.189929247,1.066467166,0.1096775010228157,-0.703484416,-0.940316677,-2.963575363,-0.645107031,-0.413575798,-0.270121008,0.145655632,-0.271155298,0.022995967,2.527271270751953
2.194926262,1.023458003997803,0.1061302274465561,-0.565965831,-0.87663722,-2.84149766,-0.615094483,-0.412006378,-0.270579159,0.1486416608095169,-0.275423765,0.010167475,2.528172969818115
2.199924231,0.9933329820632935,0.087824069,-0.444482565,-0.814860344,-2.6646626,-0.579699576,-0.407138795,-0.272102714,0.1572501361370087,-0.279391885,-0.00175266,2.529055595397949
2.20492363,0.9865046739578247,0.054348245,-0.348785728,-0.774400592,-2.442070246,-0.544913292,-0.398997813,-0.274661899,0.171577126,-0.28315109,-0.012497252,2.529838324
2.209923506,1.020714521408081,0.018958505,-0.28496629,-0.761979461,-2.193635702,-0.51830256,-0.396298438,-0.27551046,0.1763276904821396,-0.286837995,-0.02190174,2.530424356460571
2.214924574,1.084288477897644,-0.009769469,-0.240290776,-0.767633438,-1.949166298,-0.499154717,-0.394221425,-0.276163369,0.179982916,-0.290547967,-0.029979095,2.530764341
2.219926596,1.155018329620361,-0.018748213,-0.199247196,-0.774040997,-1.728324294,-0.479281634,-0.393532723,-0.276379853,0.1811949163675308,-0.294309616,-0.03685043,2.530910254
2.224923611,1.209840416908264,-0.014105869,-0.161107585,-0.767503202,-1.533107877,-0.461565822,-0.382163882,-0.27912882,0.196007252,-0.298059881,-0.042694472,2.530864477157593
2.229921579,1.237219691,-2.05E-05,-0.126020789,-0.739373684,-1.352941751,-0.436405331,-0.378394186,-0.280040354,0.2009187340736389,-0.301693767,-0.047622684,2.530717134475708
2.23492074,1.236563086509705,-0.00192603,-0.08800789,-0.684249401,-1.176206708,-0.404556394,-0.375493646,-0.280741692,0.2046977877616882,-0.305043191,-0.051678184,2.530497312545776
2.239920855,1.224109411239624,-0.011857731,-0.049362954,-0.608352542,-0.993452609,-0.373324215,-0.374531895,-0.280974239,0.2059508562088013,-0.307987243,-0.054842781,2.530175209
2.244921923,1.198250412940979,-0.028212601,-0.006374693,-0.508700311,-0.797637522,-0.339375198,-0.368171096,-0.283685476,0.2143655717372894,-0.310410559,-0.057069495,2.529723405838013
2.249923944,1.178753495,-0.034067251,0.030522002,-0.395990908,-0.588059545,-0.30491218,-0.364671081,-0.285211086,0.2189994007349014,-0.312253147,-0.058267429,2.529102087020874
2.254920959,1.156273126602173,-0.012629405,0.062880404,-0.265931934,-0.376058012,-0.261291981,-0.361978084,-0.28638494,0.2225648164749146,-0.313492447,-0.058423217,2.528396606445313
2.259918928,1.157536625862122,0.017159026,0.069739379,-0.125793666,-0.159017846,-0.20728153,-0.361085147,-0.286774158,0.223747045,-0.314059556,-0.057430319,2.527627707
2.264923573,1.187592506408691,0.034290668,0.055149809,0.012155378,0.044849433,-0.148599982,-0.35820502,-0.287818402,0.2267879545688629,-0.313947231,-0.05531675,2.526809930801392
2.269923925,1.229789376,0.030198427,0.032248355,0.1358793079853058,0.2244070172309875,-0.09446796,-0.355038524,-0.288915664,0.2299454212188721,-0.31318897,-0.052184541,2.525958299636841
2.274924755,1.263557673,0.015537865,0.000410158,0.2292354702949524,0.3786283731460571,-0.04559727,-0.352602124,-0.289759934,0.2323748767375946,-0.311928213,-0.048194315,2.525081157684326
2.279927015,1.277395963668823,0.005784377,-0.031681769,0.2931781709194183,0.5050103664398193,-0.001569928,-0.351794243,-0.290039867,0.233180434,-0.310346484,-0.043540761,2.524201631546021
2.284924507,1.273251056671143,0.010975164,-0.054859895,0.3314126133918762,0.616452694,0.044492893,-0.351172656,-0.290255278,0.2338002622127533,-0.308605105,-0.038315251,2.523380041122437
2.289922237,1.257931113243103,0.030903038,-0.069527477,0.3542316257953644,0.719158947,0.094971873,-0.351720273,-0.290399969,0.2355465143918991,-0.306802124,-0.032560475,2.522667169570923
2.29492116,1.237660408,0.057208892,-0.080212772,0.3717014491558075,0.8244876265525818,0.1588324755430222,-0.352141619,-0.29051128,0.2368901669979095,-0.304971278,-0.026237844,2.522110701
2.299921036,1.236963510513306,0.088531077,-0.090639271,0.3800922930240631,0.9288933277130127,0.2264799326658249,-0.352281332,-0.290548205,0.2373356968164444,-0.303163588,-0.019302236,2.521735429763794
2.304922104,1.262859582901001,0.129901335,-0.099207275,0.3899295628070831,1.025711178779602,0.3022886514663696,-0.352388829,-0.290576607,0.2376784831285477,-0.301382542,-0.011727988,2.521586656570435
2.309924364,1.298180341720581,0.1847469657659531,-0.097852618,0.4058135747909546,1.112104535102844,0.3801534175872803,-0.353683621,-0.289983332,0.2378909885883331,-0.299616843,-0.003570027,2.521714448928833
2.314921379,1.324920773506165,0.2393813878297806,-0.090806134,0.4258735775947571,1.191717863082886,0.4617708325386047,-0.355953097,-0.288917392,0.2381544262170792,-0.297835767,0.005118072,2.522128582000732
2.319919586,1.187326550483704,0.2570245563983917,-0.210520133,0.4157549738883972,1.288918137550354,0.5572106838226318,-0.356705606,-0.288563937,0.2382417768239975,-0.296036661,0.014181133,2.522851705551147
2.324918747,-0.872197509,0.022771187,-0.880719125,-0.026855968,1.760535121,0.779257059,-0.357284606,-0.288291991,0.2383089959621429,-0.295489162,0.021075806,2.524565935134888
2.329918623,-0.159129098,0.3872791230678558,-0.832171857,0.1779885441064835,2.253250598907471,1.016733765602112,-0.357476592,-0.288201839,0.2383312731981277,-0.295520276,0.033890292,2.526179075241089
2.334919691,-0.992363513,1.050204515457153,-1.626923323,0.4430567622184753,2.105861663818359,1.050395011901855,-0.364308178,-0.285320133,0.2362295389175415,-0.293496341,0.043607175,2.528996706008911
2.339921713,-1.45769906,1.130911707878113,-1.276996732,0.3313081562519073,2.426944971084595,1.008202910423279,-0.366573393,-0.284364581,0.2355326563119888,-0.293331325,0.053713147,2.530791997909546
2.344918728,-1.744847536,0.9107652902603149,-1.118472099,0.5202119946479797,3.028102636,1.044020891189575,-0.368316323,-0.283629358,0.2349964380264282,-0.291582912,0.066595294,2.531997680664063
2.349916697,-1.527935386,0.6483760476112366,-1.112580657,0.5441184639930725,3.786191940307617,1.152565240859985,-0.368894249,-0.283385575,0.2348186373710632,-0.289012969,0.084097132,2.532461166381836
2.354915857,-0.835514247,0.8055647015571594,-1.19951117,0.6495198607444763,4.465826988220215,1.118138313293457,-0.378282487,-0.279375225,0.2279008328914642,-0.286601841,0.1064274609088898,2.531703472137451
2.359915733,-0.208469108,0.49560985,-1.006261826,0.7141107320785522,4.995874881744385,1.062791705131531,-0.38360855,-0.27709952,0.2239290326833725,-0.283611298,0.131873831,2.529785156
2.364916801,0.7751100063323975,0.092050932,-0.850297153,0.8778417110443115,5.401551723480225,1.001096248626709,-0.387706637,-0.275348514,0.2208729982376099,-0.279109061,0.1611253023147583,2.526851415634155
2.369918823,1.285627365112305,-0.205174133,-0.984639049,0.8248933553695679,5.610667705535889,0.9536226987838745,-0.389065474,-0.274767935,0.2198596745729446,-0.274469674,0.1917736083269119,2.523437261581421
2.374915838,1.619749188423157,-0.420167923,-1.241738796,0.6305986642837524,5.620736122131348,0.8807895183563232,-0.397092849,-0.271457791,0.2111440151929855,-0.27069962,0.2226290702819824,2.519870281219482
2.379913807,1.785668015480042,-0.668695629,-1.481480002,0.32950905,5.465854644775391,0.739117444,-0.406795025,-0.267472774,0.2002514600753784,-0.268178374,0.252342701,2.516001462936401
2.384912729,2.104025126,-0.731542468,-1.711978793,0.001828767,5.120059013366699,0.629055917,-0.414260179,-0.264406592,0.191870391,-0.267331958,0.2806465625762939,2.511950016021729
2.389912844,2.189676046,-0.597212315,-1.814793468,-0.266505629,4.574789047241211,0.6321852803230286,-0.4167355,-0.263389885,0.1890913844108582,-0.268016964,0.3059943914413452,2.508794784545898
2.39491415,2.163814783096313,-0.381622463,-1.760033488,-0.384111881,3.996179342269897,0.7688384056091309,-0.418640077,-0.262607604,0.1869531273841858,-0.269155949,0.3285249769687653,2.507209539413452
2.399922132,1.840107560157776,-0.14398852,-1.589722872,-0.483190179,3.445094347000122,0.9042289257049561,-0.432033777,-0.259006262,0.1688658148050308,-0.270744532,0.3479228019714355,2.507263660430908
2.404925108,1.595161080360413,0.1258789002895355,-1.372107148,-0.488552094,3.079214811325073,1.009933710098267,-0.442339301,-0.256235272,0.1549488455057144,-0.272623062,0.3654245734214783,2.508226871490479
2.409923315,1.349063038825989,0.6484230756759644,-1.247346282,-0.414362848,2.752736568450928,0.9998898506164551,-0.445756435,-0.255316496,0.1503342390060425,-0.274939179,0.3809643983840942,2.509378671646118
2.414922237,1.361333012580872,1.066247224807739,-1.090821624,-0.213768199,2.518456220626831,0.9503162503242493,-0.448385656,-0.254609555,0.1467836201190948,-0.27698195,0.3954522907733917,2.510319948196411
2.419922113,1.346614122390747,1.437756776809692,-1.015965819,0.081807569,2.240354299545288,0.8032241463661194,-0.453610271,-0.252571642,0.1378207504749298,-0.278269887,0.4082807302474976,2.510643482208252
2.42492342,1.276288509368896,1.472901463508606,-0.891454697,0.3986694514751434,1.998146653175354,0.6427178978919983,-0.462031662,-0.249180049,0.1230520009994507,-0.278110236,0.4196689426898956,2.510471820831299
2.429925442,1.019442439079285,1.321224331855774,-0.831100583,0.7261158227920532,1.799008489,0.5417003631591797,-0.464824021,-0.248055458,0.1181549653410912,-0.276142567,0.4295122921466827,2.510101079940796
2.434922457,0.8181514143943787,0.954956055,-0.811762333,1.011056423187256,1.651245713233948,0.5602017045021057,-0.46697256,-0.247190163,0.1143870279192924,-0.271763206,0.4385482966899872,2.510371446609497
2.439920664,0.6677031517028809,0.5068873763084412,-0.871857285,1.177561521530151,1.552503586,0.6490491032600403,-0.467684984,-0.246903241,0.1131376549601555,-0.26543954,0.4470554292201996,2.511646032333374
2.444919586,0.6509542465209961,0.1483438014984131,-0.945196569,1.245404243469238,1.465960264205933,0.7720755338668823,-0.474121869,-0.242198661,0.1022958308458328,-0.257804006,0.455362469,2.513998031616211
2.449919462,0.7046529650688171,-0.04852644,-0.96909529,1.235443830490112,1.359251737594604,0.8615571260452271,-0.476256222,-0.240638718,0.098700888,-0.249654233,0.4633687734603882,2.517124414
2.45492053,0.7434483170509338,-0.047096618,-0.937696695,1.187484264373779,1.258229732513428,0.9017404913902283,-0.477898449,-0.239438444,0.095934831,-0.241740614,0.4709650278091431,2.520619630813599
2.459922791,0.7813093662261963,0.079342239,-0.924462378,1.164183020591736,1.162875056266785,0.8887491226196289,-0.478442997,-0.239040464,0.095017649,-0.234183699,0.4780801236629486,2.524114370346069
2.464919806,0.7505797743797302,0.2202138155698776,-0.906727076,1.134953379631042,1.076298356056213,0.8157618045806885,-0.482559383,-0.23497963,0.091099992,-0.227192745,0.4845433235168457,2.527269601821899
2.469918013,0.691922665,0.3249595463275909,-0.902331412,1.137438654899597,1.006551623344421,0.7283629179000854,-0.484839231,-0.232704028,0.089006163,-0.220536023,0.4904463589191437,2.530003786087036
2.474916935,0.6380943059921265,0.3530745208263397,-0.903463483,1.161829710006714,0.9633582234382629,0.6511003971099854,-0.486593425,-0.230953112,0.087395109,-0.213910624,0.4959499835968018,2.532398223876953
2.479916811,0.6094098687171936,0.2895618379116058,-0.926477671,1.184277415275574,0.9351522326469421,0.6003949642181396,-0.487175077,-0.230372548,0.08686091,-0.207069457,0.5012233853340149,2.534646987915039
2.484917879,0.6336183547973633,0.1713096797466278,-0.969544888,1.174486875534058,0.9083719253540039,0.5503703951835632,-0.489216655,-0.227508008,0.085343659,-0.200105041,0.5063570141792297,2.536798715591431
2.489919901,0.7032323479652405,0.020636592,-1.012524605,1.127945780754089,0.861471951,0.4983901381492615,-0.491501033,-0.224120066,0.08372505,-0.193184614,0.5112855434417725,2.538851499557495
2.494917393,0.7797404527664185,-0.093493484,-1.054544091,1.061931967735291,0.7643845081329346,0.4632617831230164,-0.493258685,-0.221513271,0.082479641,-0.186464056,0.515728235,2.540877581
2.499915361,0.8383405208587646,-0.188652158,-1.078828931,0.9573212265968323,0.6401762366294861,0.4360012114048004,-0.493841499,-0.2206489,0.082066685,-0.180020109,0.5196037888526917,2.543014049530029
2.504914522,0.7293334007263184,-0.22185199,-1.047982693,0.8149427771568298,0.5351616144180298,0.4048818349838257,-0.494289935,-0.219983831,0.081748948,-0.174390242,0.5226843357086182,2.545131683349609
2.509914398,0.6016587615013123,-0.167246386,-0.98310864,0.6855547428131104,0.4927954971790314,0.365076095,-0.496378928,-0.216786891,0.080455914,-0.169642508,0.5253962874412537,2.547074556350708
2.514915228,0.5505229830741882,-0.043583021,-0.946168959,0.5816692709922791,0.4865942001342773,0.3156672418117523,-0.497986287,-0.214327082,0.079461016,-0.165843621,0.5280227661132813,2.548641681671143
2.51991725,0.561019242,0.037722059,-0.939680338,0.4969420433044434,0.4811717569828033,0.2654018402099609,-0.498519242,-0.213511452,0.079131126,-0.16273199,0.5306335687637329,2.549859046936035
2.524914503,0.5964218378067017,0.073673882,-0.943414748,0.4258460998535156,0.4570962488651276,0.2214736938476563,-0.498929322,-0.212883875,0.0788773,-0.160135016,0.5331307053565979,2.550843000411987
2.529912233,0.6588483452796936,0.021090461,-0.964461982,0.3451845943927765,0.407578319,0.181140736,-0.499760807,-0.21159941,0.078171887,-0.157855496,0.5354282855987549,2.551707268
2.534917831,0.6137799620628357,-0.03281026,-0.9332546,0.2589148283004761,0.3724723160266876,0.1503841429948807,-0.501103818,-0.209522724,0.077000931,-0.15599896,0.5374056100845337,2.552478790283203
2.539918423,0.5544812679290771,-0.038107317,-0.931149065,0.1652750670909882,0.375593364,0.1105502843856812,-0.501549125,-0.208834127,0.076612666,-0.154729307,0.5393283367156982,2.553042888641357
2.544919252,0.5150122046470642,0.00904606,-0.934567094,0.078413546,0.3918518126010895,0.062139206,-0.501891792,-0.208304301,0.07631392,-0.154187113,0.5412333607673645,2.553251028060913
2.549921274,0.528118908,0.040529098,-0.932441771,0.003493112,0.4076894819736481,0.02829659,-0.502005398,-0.208128616,0.076214865,-0.15417473,0.5432398319244385,2.553230762481689
2.554918289,0.5581917762756348,0.065536857,-0.920776784,-0.058259379,0.4078046679496765,0.008090215,-0.503107905,-0.206498578,0.074874647,-0.154559135,0.5452751517295837,2.553096294403076
2.559916258,0.5721734762191772,0.081944659,-0.899188995,-0.120650306,0.4014316201210022,-0.017905781,-0.50347352,-0.205958083,0.074430257,-0.155356675,0.5472943186759949,2.552808523178101
2.564915895,0.567780077,0.073009476,-0.883180499,-0.174573898,0.3946808576583862,-0.050989643,-0.503754854,-0.205542207,0.074088335,-0.156501353,0.549240768,2.552334547042847
2.56991601,0.5388363003730774,0.032199185,-0.872823358,-0.233268753,0.3935217261314392,-0.081007451,-0.503848135,-0.205404311,0.07397496,-0.157932907,0.5511163473129272,2.551714658737183
2.57491684,0.5059398412704468,-0.007659609,-0.873862684,-0.302367359,0.4084120690822601,-0.109063506,-0.50431174,-0.205561385,0.072087057,-0.159726366,0.5529957413673401,2.550958156585693
2.579918861,0.4953772723674774,-0.024967721,-0.876646876,-0.374598324,0.4282626509666443,-0.136667088,-0.504562497,-0.205678582,0.071015485,-0.161946401,0.554945171,2.550028800964355
2.584915876,0.4993980824947357,-0.021460896,-0.871840596,-0.447564334,0.4509070515632629,-0.160234734,-0.504755437,-0.205768749,0.070190981,-0.164646447,0.5570067167282104,2.548928022384644
2.589913845,0.5052969455718994,-0.001487724,-0.867607713,-0.519289613,0.4666192829608917,-0.177172229,-0.504819393,-0.205798656,0.069917597,-0.167819232,0.5591285824775696,2.547687054
2.594912767,0.5032157301902771,0.022385128,-0.858983338,-0.579315066,0.4823479950428009,-0.185974166,-0.504917085,-0.206123546,0.068168737,-0.171372458,0.5613210797309875,2.546360254
2.599912643,0.4923212826251984,0.056834269,-0.850931823,-0.630705714,0.4979162514209747,-0.186548993,-0.504998446,-0.206535697,0.066037431,-0.175262198,0.5635507702827454,2.544996262
2.60491395,0.485450804,0.1126793622970581,-0.848057389,-0.661336541,0.5108475089073181,-0.179972097,-0.50506103,-0.206852794,0.064397536,-0.179394081,0.5658378601074219,2.543615102767944
2.609915972,0.5101281404495239,0.1973153948783875,-0.832498252,-0.669386089,0.5225365161895752,-0.170961365,-0.505081773,-0.206957936,0.063853778,-0.183728725,0.5682283043861389,2.542185544967651
2.614912987,0.5171252489089966,0.2524651288986206,-0.821558118,-0.651994765,0.5258536338806152,-0.149238884,-0.505097747,-0.207038864,0.063435391,-0.187999263,0.5706486701965332,2.540843725204468
2.619911194,0.5252417325973511,0.2865334451198578,-0.815326154,-0.615944088,0.5248079299926758,-0.120971218,-0.504976332,-0.208319888,0.05987655,-0.1920228,0.5730804800987244,2.539646625518799
2.624910116,0.5310762524604797,0.3098468780517578,-0.8167575,-0.567038953,0.5158171653747559,-0.087450184,-0.504882872,-0.20930554,0.05713826,-0.195709288,0.5754988789558411,2.538636445999146
2.629909992,0.5271994471549988,0.31803444,-0.81319201,-0.51058203,0.503741443,-0.057991847,-0.504851878,-0.209632367,0.056230295,-0.199026763,0.5778636932373047,2.537797451019287
2.63491106,0.5256829261779785,0.3003315925598145,-0.816520274,-0.454887629,0.4914437830448151,-0.031051742,-0.504828036,-0.209883839,0.055531681,-0.20191443,0.5801804661750793,2.537148237228394
2.639913321,0.545737088,0.2735812962055206,-0.815851331,-0.405819982,0.4794894158840179,-0.015110953,-0.504725933,-0.210273832,0.053542271,-0.20444642,0.5824945569038391,2.536604642868042
2.644910574,0.5716508030891418,0.2440990507602692,-0.815576196,-0.374391645,0.4701336026191711,-0.016768647,-0.504552066,-0.210883945,0.05023418,-0.206774637,0.5848042368888855,2.536057233810425
2.649908781,0.5859067440032959,0.2152063250541687,-0.820642412,-0.361462712,0.4560564756393433,-0.023797194,-0.504494429,-0.211086243,0.049137279,-0.209013283,0.5870416164398193,2.535493374
2.654907703,0.5948535799980164,0.2098023593425751,-0.820589721,-0.35851872,0.4452550709247589,-0.040522724,-0.504450083,-0.211241901,0.048293289,-0.211298853,0.5892069339752197,2.534822940826416
2.659907579,0.5917534828186035,0.1930242031812668,-0.82699275,-0.371641308,0.4346624612808228,-0.053194977,-0.50443536,-0.211293519,0.048013438,-0.213680193,0.5912967324256897,2.534085512161255
2.664908886,0.5850886106491089,0.1900375187397003,-0.824482977,-0.388027847,0.4257673919200897,-0.057953943,-0.504674673,-0.211766094,0.044260956,-0.21614261,0.5933233499526978,2.533344268798828
2.669917345,0.5721422433853149,0.2064768821001053,-0.819621086,-0.397101939,0.4187192320823669,-0.058742616,-0.504754007,-0.21192278,0.043016706,-0.21869503,0.5952968597412109,2.532603025436401
2.674921513,0.5610247850418091,0.2316844165325165,-0.814428926,-0.39901042,0.4176138043403625,-0.055961058,-0.504815042,-0.212043345,0.04205934,-0.221296147,0.5972518920898438,2.531851053237915
2.679920673,0.5516471862792969,0.2401776015758514,-0.807016492,-0.392514437,0.4248274564743042,-0.046649653,-0.504835308,-0.212083325,0.041741893,-0.223850161,0.5992394089698792,2.531131744384766
2.684919834,0.558800995,0.2502287030220032,-0.802055299,-0.373880953,0.4300652742385864,-0.02675375,-0.505037606,-0.212542892,0.038693897,-0.226261869,0.6012974977493286,2.530514956
2.68991971,0.5621782541275024,0.2660113275051117,-0.791024446,-0.348778963,0.4351751208305359,-0.006726266,-0.505150855,-0.212801382,0.036989447,-0.228512287,0.6034054756164551,2.529997110366821
2.694921017,0.5595291256904602,0.2814247906208038,-0.780577302,-0.31166175,0.4346807897090912,0.016454777,-0.505238056,-0.213000268,0.035677988,-0.230534449,0.6055299043655396,2.529590368270874
2.699923038,0.5559805631637573,0.2916247248649597,-0.77811867,-0.263804853,0.4225549101829529,0.05446735,-0.505266964,-0.213066205,0.035243135,-0.23217763,0.6076292991638184,2.529428243637085
2.704920053,0.5519832372665405,0.2983267903327942,-0.774594247,-0.214210987,0.4145155251026154,0.097373605,-0.505199492,-0.213160604,0.033472702,-0.23342897,0.6097261309623718,2.529534578323364
2.709918022,0.5555699467658997,0.3075779974460602,-0.768954694,-0.157691374,0.4050893485546112,0.1435079872608185,-0.50508666,-0.213235915,0.031437762,-0.234255075,0.6118411421775818,2.529922246932983
2.714917183,0.5743647217750549,0.3192532062530518,-0.766693115,-0.099042386,0.3904716372489929,0.1886386871337891,-0.504999876,-0.213293865,0.029872015,-0.234626323,0.6139601469039917,2.530590057373047
2.719917059,0.5834038257598877,0.3243447542190552,-0.765024483,-0.042135656,0.3699104189872742,0.2286743521690369,-0.504971087,-0.213313073,0.029352842,-0.234576806,0.616025448,2.531507492
2.724918365,0.5787320733070374,0.3160119354724884,-0.762901425,0.021623258,0.3493219912052155,0.2657649517059326,-0.504948914,-0.21332787,0.028953375,-0.234031588,0.6180211901664734,2.532701015472412
2.729920149,0.5899185538291931,0.2866150140762329,-0.762187004,0.070311904,0.3328758180141449,0.2917253971099854,-0.505348086,-0.212528959,0.026865441,-0.233072549,0.6199966669082642,2.534084558486938
2.734917402,0.5944120287895203,0.2684836089611053,-0.760346889,0.115902491,0.3123103976249695,0.3135497570037842,-0.505655169,-0.211914241,0.025258917,-0.231772125,0.6219035983085632,2.53563118
2.739915371,0.5972300171852112,0.2737885415554047,-0.757769763,0.1617504209280014,0.2936568558216095,0.3284752368927002,-0.505756974,-0.211710408,0.024726225,-0.230203882,0.6237279176712036,2.537271261
2.744914293,0.5939468741416931,0.2770800888538361,-0.755463421,0.2037340998649597,0.279828668,0.3448566198348999,-0.505835295,-0.211553589,0.024316356,-0.228381351,0.6254997849464417,2.539024591445923
2.749914169,0.5860419273376465,0.2744743525981903,-0.756179929,0.2456912249326706,0.2681215107440948,0.3651727437973022,-0.506208479,-0.210951552,0.023585465,-0.22622779,0.6272121667861938,2.540941953659058
2.754915237,0.5918430089950562,0.2740408182144165,-0.758195579,0.2912410795688629,0.2439710646867752,0.387155145,-0.506846666,-0.209932163,0.022421474,-0.223761842,0.6288468837738037,2.543017387390137
2.759917736,0.5970807075500488,0.2659704387187958,-0.75799495,0.3298317193984985,0.2098299115896225,0.4153798520565033,-0.507058263,-0.209594145,0.022035517,-0.22094354,0.630337119,2.545337915420532
2.764915466,0.5971148610115051,0.2382439076900482,-0.76050961,0.3681678473949432,0.1730504781007767,0.4468855559825897,-0.507221043,-0.209334061,0.02173855,-0.217730626,0.6316741704940796,2.547925472259521
2.769914389,0.6092044115066528,0.2148497551679611,-0.767104268,0.3926369845867157,0.1360094398260117,0.4660372734069824,-0.507275045,-0.209247828,0.021640081,-0.214243561,0.6328510642051697,2.550705194473267
2.774913311,0.6016203165054321,0.1959301978349686,-0.757778347,0.4061540365219116,0.095238596,0.4838655591011047,-0.508680522,-0.206659824,0.020992178,-0.210579604,0.6338350772857666,2.55365777
2.779913187,0.5995726585388184,0.1862549632787704,-0.760952175,0.4190734624862671,0.069311976,0.4955652952194214,-0.509146512,-0.205801696,0.020777347,-0.206768006,0.6347042322158813,2.556724548339844
2.784914255,0.5936360955238342,0.1872574537992477,-0.768429339,0.4223083555698395,0.040144239,0.5084553956985474,-0.509505093,-0.205141425,0.020612048,-0.202895895,0.6354021430015564,2.559895992279053
2.789917231,0.5871454477310181,0.1896904706954956,-0.778936207,0.4119912385940552,0.025000103,0.5180354714393616,-0.509624004,-0.204922482,0.020557238,-0.199030951,0.6360286474227905,2.563155413
2.794914961,0.5759702920913696,0.1961697340011597,-0.78390497,0.4060120582580566,0.021250276,0.528059185,-0.510748923,-0.20249331,0.020843163,-0.1951866,0.6366130113601685,2.566478252410889
2.799913168,0.5735929012298584,0.1965250968933105,-0.796658456,0.4040398895740509,0.015484205,0.5405731201171875,-0.511377633,-0.201128408,0.021019161,-0.191295162,0.6371600031852722,2.569891452789307
2.804918289,0.5806542038917542,0.1695069968700409,-0.80479753,0.3932135105133057,0.014353739,0.5540750622749329,-0.511861444,-0.200078219,0.021154579,-0.187337771,0.6377121806144714,2.573413848876953
2.809918165,0.5799431800842285,0.1493456661701202,-0.806469321,0.3817044496536255,0.016056938,0.5621418356895447,-0.51202184,-0.199729994,0.021199482,-0.18339394,0.6382870078086853,2.576987028121948
2.814919233,0.5784335136413574,0.1539475917816162,-0.811496913,0.3667751848697662,0.026382923,0.5618363618850708,-0.512790322,-0.198117644,0.021610269,-0.179544553,0.6388781070709229,2.580549716949463
2.819921255,0.5648678541183472,0.1612727642059326,-0.81580478,0.3667598068714142,0.045631688,0.5563717484474182,-0.513695598,-0.196227312,0.022125877,-0.175736278,0.639524519,2.584053039550781
2.82491827,0.56234926,0.159282848,-0.82593751,0.3534844219684601,0.065138586,0.5561391115188599,-0.514392197,-0.194772825,0.022522602,-0.172012612,0.6402631402015686,2.587535619735718
2.829916239,0.5562360882759094,0.1736753880977631,-0.822905838,0.3468635976314545,0.088413022,0.5556991696357727,-0.514623165,-0.194290549,0.022654148,-0.168374911,0.6410698890686035,2.590980052947998
2.8349154,0.5572009682655334,0.1631788164377213,-0.833327949,0.3289693892002106,0.1264949440956116,0.5483443737030029,-0.514800906,-0.19391948,0.022755362,-0.164837316,0.6420635581016541,2.594343900680542
2.839915276,0.5524114370346069,0.1306498944759369,-0.842152536,0.2999524772167206,0.1691043227910995,0.5401662588119507,-0.51589787,-0.191229612,0.02320897,-0.161436424,0.6432468891143799,2.597671270370483
2.844916105,0.5535681843757629,0.1126103699207306,-0.850524843,0.2710066735744476,0.2195955514907837,0.5277966260910034,-0.516741872,-0.18915996,0.023557991,-0.158226758,0.6446589231491089,2.600880861282349
2.849918127,0.5502884984016418,0.1133188828825951,-0.861229777,0.2432314455509186,0.2807193100452423,0.5127167701721191,-0.517021716,-0.188473701,0.023673721,-0.155255273,0.6463392376899719,2.603930711746216
2.85491538,0.5477044582366943,0.1114477664232254,-0.870189965,0.2236090749502182,0.3495157361030579,0.4985639452934265,-0.517237067,-0.187945649,0.023762766,-0.152451307,0.6483348608016968,2.606837749481201
2.859913111,0.561291516,0.095845319,-0.872868419,0.187558725,0.4192433655261993,0.4833287000656128,-0.517981529,-0.18634437,0.023572655,-0.149883837,0.6506837010383606,2.609618425369263
2.864912271,0.5918592214584351,0.067076579,-0.880423248,0.1360120475292206,0.4952924847602844,0.4641054272651672,-0.519234955,-0.183670193,0.023204291,-0.1476181,0.6534464955329895,2.612229585647583
2.869912624,0.5683143138885498,0.045062285,-0.894789517,0.073712088,0.5811130404472351,0.442313015,-0.519650578,-0.182783484,0.023082148,-0.14575541,0.6565275192260742,2.614664316177368
2.874913692,0.5399346351623535,0.090766698,-0.902839839,0.038253248,0.6744482517242432,0.4234128594398499,-0.519970298,-0.18210122,0.022988169,-0.144324422,0.6599947810173035,2.616871118545532
2.879915714,0.5297941565513611,0.096031934,-0.911667466,0.019236052,0.7790899872779846,0.4058496057987213,-0.520076334,-0.181875005,0.022957005,-0.143049181,0.6639571189880371,2.618877888
2.884913206,0.5344584584236145,0.081700981,-0.919393718,-0.026101593,0.8827078342437744,0.3846227824687958,-0.521194458,-0.178458944,0.02050956,-0.142098203,0.6684156656265259,2.620704412460327
2.889910936,0.5376302003860474,0.1299763023853302,-0.917113423,-0.042339474,0.9940124750137329,0.3716834783554077,-0.521565199,-0.177326247,0.019698033,-0.141495064,0.6734060049057007,2.622302293777466
2.894909859,0.5462460517883301,0.101710632,-0.908898354,-0.044302978,1.121563076972961,0.3525740802288055,-0.521850467,-0.176454708,0.019073619,-0.14087835,0.679044783,2.623689175
2.899909973,0.5515719652175903,0.063316718,-0.923094451,-0.090605497,1.232583403587341,0.3366797566413879,-0.521945059,-0.17616573,0.018866574,-0.140550733,0.6852171421051025,2.624933242797852
2.904910803,0.5487899780273438,0.1141041666269302,-0.922274709,-0.099546976,1.351753473,0.3185449838638306,-0.522984564,-0.174029797,0.014557508,-0.140579924,0.6919223666191101,2.625917911529541
2.909913063,0.5382663011550903,0.1232655495405197,-0.918991208,-0.068648688,1.483431339263916,0.2992568612098694,-0.523568451,-0.172848046,0.012101832,-0.140551731,0.6992445588111877,2.626652956008911
2.914910316,0.5433530211448669,0.089397177,-0.933586776,-0.061998367,1.618695497512817,0.2874327003955841,-0.524017692,-0.171938747,0.010212356,-0.140509665,0.7072282433509827,2.627223968505859
2.919908285,0.5621344447135925,0.11622493,-0.938652456,-0.049540758,1.763972640037537,0.2864794135093689,-0.524166644,-0.171637252,0.009585842,-0.140586168,0.7159470319747925,2.627642393112183
2.924907207,0.5282268524169922,0.1163215935230255,-0.941318274,-0.028585194,1.930305123329163,0.2778095602989197,-0.524396718,-0.170543149,0.005198484,-0.140673593,0.7254116535186768,2.627855777740479
2.929907084,0.5330729484558105,0.065824032,-0.957441211,-0.032108452,2.093792676925659,0.2754338383674622,-0.524589419,-0.169311017,-0.000194368,-0.140745893,0.7356682419776917,2.627974749
2.934908152,0.5511330962181091,0.071765155,-0.978009641,-0.043543957,2.291290998458862,0.2719200551509857,-0.524737656,-0.16836299,-0.004343802,-0.141087696,0.7468919157981873,2.627871513366699
2.939916611,0.6031067371368408,0.10396228,-1.026657701,-0.013469486,2.495016813278198,0.2859059274196625,-0.52478677,-0.168048635,-0.005719675,-0.14138636,0.7591456770896912,2.627622604370117
2.944919825,0.4902634024620056,0.1160442233085632,-1.010657072,0.025764823,2.755056858062744,0.2901729047298431,-0.524824619,-0.167806759,-0.006778316,-0.141681507,0.7725098133087158,2.627148389816284
2.94991827,0.4761625826358795,0.1114900782704353,-1.052365541,0.060091063,3.054706335067749,0.2862341403961182,-0.524825454,-0.166794538,-0.016482456,-0.142033905,0.7873266935348511,2.626337289810181
2.954917192,0.4276342988014221,0.1427994668483734,-1.07861793,0.082470328,3.400369406,0.2921588122844696,-0.524826109,-0.1660157,-0.023949133,-0.142584085,0.8037490248680115,2.625193834
2.959917307,0.42385903,0.19350189,-1.120965242,0.093894996,3.787003755569458,0.3174939155578613,-0.524826288,-0.165757447,-0.026424941,-0.14345409,0.8220580816268921,2.623670578
2.964918375,0.4416592419147491,0.2517309188842773,-1.17403388,0.1060073152184486,4.175040245056152,0.3686205744743347,-0.524826467,-0.16555874,-0.028329907,-0.144427657,0.8422714471817017,2.622065782546997
2.969920158,0.4154548645019531,0.3139212727546692,-1.224638462,0.1010729148983955,4.574067115783691,0.4096040725708008,-0.524362862,-0.164621323,-0.036965456,-0.145745605,0.864316463,2.620195627212524
2.974917412,0.415987641,0.3735315799713135,-1.295033813,0.08249861,4.971704006195068,0.5062553286552429,-0.523537338,-0.163018808,-0.051703114,-0.147207305,0.8882818818092346,2.618424415588379
2.97991538,0.4514420926570892,0.4548517465591431,-1.328269362,0.061766014,5.361891269683838,0.6940041780471802,-0.523263574,-0.162487447,-0.056589842,-0.148261175,0.9142661094665527,2.617504358291626
2.98491478,0.4842163622379303,0.6217804551124573,-1.36538136,0.1005299985408783,5.734235763549805,0.9092999696731567,-0.52305299,-0.162078589,-0.060349848,-0.148518682,0.9421631693840027,2.617644548416138
2.989914656,0.636890173,0.6904795169830322,-1.402951121,0.2292969524860382,6.042173385620117,1.109058499336243,-0.522983134,-0.161943018,-0.061596595,-0.147205472,0.9717048406600952,2.618943452835083
2.994915485,0.7421812415122986,0.7147604823112488,-1.427764773,0.4610823392868042,6.350910186767578,1.366629600524902,-0.517647564,-0.15848127,-0.091008686,-0.142869502,1.002975106239319,2.622344493865967
2.999917507,0.8108426332473755,0.7883979678153992,-1.495654345,0.698878288,6.606877326965332,1.585258007049561,-0.515878439,-0.157333419,-0.100761175,-0.135368645,1.035504221916199,2.627955675125122
3.004914761,0.992678165,0.7273293733596802,-1.453797579,0.9560799598693848,6.931884288787842,1.901021003723145,-0.514517188,-0.156450227,-0.108265057,-0.123505816,1.069977521896362,2.637034893035889
3.009912491,1.715490698814392,0.7330543994903564,-1.807871699,1.192517995834351,6.994389057159424,2.187432765960693,-0.514065862,-0.156157374,-0.110753201,-0.10547404,1.104863166809082,2.651249170303345
3.014911652,2.066406726837158,0.7239760160446167,-1.959232688,1.305073022842407,6.826040744781494,2.360999584197998,-0.506618202,-0.15065603,-0.138366118,-0.082783401,1.138406038284302,2.669996023178101
3.019911766,1.896820068359375,0.7465266585350037,-1.801355004,1.391561627,6.774968147277832,2.579792737960815,-0.502391696,-0.147526324,-0.153881207,-0.054107018,1.171419978141785,2.694669246673584
3.024912596,2.002389669418335,0.7671206593513489,-1.941553354,1.438623428344727,6.776016235351563,2.686673402786255,-0.499139696,-0.145118222,-0.165819004,-0.019212097,1.204058885574341,2.725489139556885
3.029914618,2.012306451797485,0.6411100029945374,-1.896925092,1.460084080696106,6.691901683807373,2.801734447479248,-0.498061389,-0.144319743,-0.169777349,0.023925178,1.235668420791626,2.764457225799561
3.034911633,2.000523090362549,0.8491553068161011,-1.868427992,1.483224153518677,6.636116027832031,2.815000772476196,-0.491261989,-0.139152616,-0.186849341,0.073629752,1.266384720802307,2.810251474380493
3.039909601,1.976773023605347,0.8620316982269287,-1.765403152,1.616547465324402,6.472265243530273,2.878819704055786,-0.482987612,-0.132848337,-0.206654161,0.1352377235889435,1.295320987701416,2.867290974
3.044908762,1.729612469673157,0.8676222562789917,-1.611363769,1.868992328643799,6.343161106109619,2.970350742340088,-0.476621032,-0.127997622,-0.221892625,0.2126589119434357,1.322494029998779,2.938844919204712
3.049908876,1.679899454116821,0.754814088,-1.562209249,2.144210815429688,6.112387180328369,2.940849781036377,-0.474510014,-0.12638922,-0.226945415,0.3077625930309296,1.346698641777039,3.026435852050781
3.054909945,1.320103406906128,0.4682989418506622,-1.447386622,2.305911064147949,5.870342731,2.962781190872192,-0.472885698,-0.125151664,-0.230833188,0.4248647391796112,1.367261290550232,3.134988546
3.059911966,1.128229379653931,0.2321096360683441,-1.484940052,2.289438486099243,5.505111694335938,2.794587612,-0.45949012,-0.117033996,-0.252383381,0.5570229291915894,1.383200764656067,-3.024561167
3.064908981,0.8590496778488159,0.120740533,-1.589215159,2.004479169845581,5.120419502258301,2.608234405517578,-0.449183106,-0.110788003,-0.268964797,0.6957256197929382,1.394544124603271,-2.893033743
3.069913149,0.8697479963302612,0.043069858,-1.752443671,1.484485983848572,4.69992733,2.448429822921753,-0.445765495,-0.10871695,-0.274462879,0.8324259519577026,1.401003122329712,-2.760835886
3.07491231,2.134204387664795,0.062483534,-2.089033604,0.6037576794624329,4.301961421966553,2.160705327987671,-0.443135887,-0.107123412,-0.278693289,0.9576496481895447,1.404757857322693,-2.635308027
3.079912186,2.422272443771362,0.2783714532852173,-2.530887842,0.1048704832792282,3.384376525878906,1.949636220932007,-0.434696615,-0.103552215,-0.288451999,1.047791123390198,1.404427766799927,-2.542247772
3.084913492,1.103390216827393,0.6042158603668213,-2.254071712,-0.086926132,2.557567119598389,1.797140002250671,-0.42055136,-0.097727664,-0.304409862,1.112148523330688,1.401787996292114,-2.474792957
3.089915752,0.374858558,0.7502681612968445,-1.772858858,-0.208873823,2.139372349,1.690827965736389,-0.4158611,-0.095796354,-0.309701174,1.167551875114441,1.398576140403748,-2.416173935
3.094912767,0.4013582766056061,0.6723998785018921,-1.654335856,-0.207280502,1.898842096328735,1.660472155,-0.412252218,-0.094310336,-0.3137725,1.216986417770386,1.394500613212585,-2.363679886
3.099910975,0.2848819494247437,0.5395464897155762,-1.628254175,-0.191425666,1.636411666870117,1.627816796302795,-0.411055565,-0.093817599,-0.315122485,1.257309198379517,1.389418601989746,-2.320737123
3.104909897,0.1960473656654358,0.4201953113079071,-1.587699652,-0.368111849,1.379630685,1.557517170906067,-0.399816662,-0.082974091,-0.325410962,1.288222074508667,1.383881807327271,-2.286391973
3.109909773,0.2466526329517365,0.3194485008716583,-1.627898335,-0.6409446,1.028531670570374,1.472244262695313,-0.39609006,-0.07937859,-0.328822434,1.306093931,1.378024458885193,-2.26371336
3.114910603,0.2380331307649612,0.3031487166881561,-1.669062376,-0.903668404,0.5719285011291504,1.373230934143066,-0.39322269,-0.0766121,-0.331447333,1.309050917625427,1.371948838233948,-2.254841566
3.119912863,0.1893489062786102,0.3976913690567017,-1.663018584,-1.126904368,0.061344594,1.255631566047668,-0.392271906,-0.075694785,-0.33231768,1.297410845756531,1.365933299064636,-2.259679317
3.124910116,0.1093258038163185,0.5417221188545227,-1.605564833,-1.271934628,-0.452634037,1.107986092567444,-0.390408069,-0.066080004,-0.335302949,1.272991895675659,1.360153436660767,-2.276737213
3.129908323,0.010333324,0.672366738,-1.515802622,-1.298686385,-0.938089967,0.9483046531677246,-0.389509887,-0.060687378,-0.336865813,1.238392591,1.354492783546448,-2.304155827
3.134907246,-0.096629247,0.7496614456176758,-1.420087934,-1.228928089,-1.368226051,0.7655566930770874,-0.3888188,-0.05653812,-0.338068306,1.196097373962402,1.348845124,-2.339964867
3.139906883,-0.179272711,0.7823756337165833,-1.331716061,-1.106307983,-1.746490717,0.5577347278594971,-0.388589621,-0.055162307,-0.338467032,1.147744775,1.343156814575195,-2.382756948
3.144907713,-0.224782869,0.7771554589271545,-1.263250113,-0.966189086,-2.076567173,0.3275627791881561,-0.390823841,-0.048754256,-0.336838752,1.094551325,1.337342381477356,-2.431326151
3.149909735,-0.228118062,0.7428775429725647,-1.196939468,-0.835845113,-2.370986462,0.077056207,-0.393995434,-0.0412351,-0.334347516,1.037431359291077,1.331320285797119,-2.484702587
3.154906988,-0.220042363,0.6907140612602234,-1.140878797,-0.733560383,-2.637504816,-0.200608626,-0.396435767,-0.03544962,-0.33243072,0.976665735,1.325023174285889,-2.542475462
3.159904718,-0.222719535,0.6290307641029358,-1.096922755,-0.656000137,-2.875696421,-0.493676782,-0.39724496,-0.033531267,-0.331795126,0.912756085,1.318337559700012,-2.604005098
3.164904118,-0.245036423,0.554134727,-1.050462842,-0.600513101,-3.083057165,-0.797104478,-0.39786756,-0.032055221,-0.3313061,0.8463347554206848,1.311121106147766,-2.668568373
