Time,inertial-6253.76535:estCompensatedAccelX,inertial-6253.76535:estCompensatedAccelX:valid,inertial-6253.76535:estCompensatedAccelY,inertial-6253.76535:estCompensatedAccelY:valid,inertial-6253.76535:estCompensatedAccelZ,inertial-6253.76535:estCompensatedAccelZ:valid,inertial-6253.76535:estAngularRateX,inertial-6253.76535:estAngularRateX:valid,inertial-6253.76535:estAngularRateY,inertial-6253.76535:estAngularRateY:valid,inertial-6253.76535:estAngularRateZ,inertial-6253.76535:estAngularRateZ:valid,inertial-6253.76535:estRoll,inertial-6253.76535:estRoll:valid,inertial-6253.76535:estPitch,inertial-6253.76535:estPitch:valid,inertial-6253.76535:estYaw,inertial-6253.76535:estYaw:valid
0,-4.42964983,1,-2.285477877,1,-8.398550987,1,0.15823853,1,-0.104943827,1,0.03767233,1,0.248695001,1,-0.461181641,1,-0.074658997,1
0.003999744,-4.613061905,1,-2.193205833,1,-8.550354958,1,0.172704577,1,-0.088993557,1,0.027639842,1,0.249350697,1,-0.46159637,1,-0.074618965,1
0.00800128,-4.520678997,1,-2.045569181,1,-8.564164162,1,0.182911247,1,-0.076311499,1,0.021448573,1,0.250062257,1,-0.461936474,1,-0.074599437,1
0.01199872,-4.509539604,1,-2.102757215,1,-8.477972984,1,0.180713758,1,-0.060242169,1,0.019407086,1,0.250776649,1,-0.462219059,1,-0.074587926,1
0.015998209,-4.45229578,1,-2.185586691,1,-8.416439056,1,0.184527948,1,-0.053855937,1,0.009257801,1,0.251727283,1,-0.46246624,1,-0.075753592,1
0.019999744,-4.533565044,1,-2.231915236,1,-8.460694313,1,0.181796312,1,-0.040434591,1,0.009345943,1,0.252464145,1,-0.462658525,1,-0.075758778,1
0.023997184,-4.458021641,1,-2.269692421,1,-8.363836288,1,0.179218307,1,-0.037324335,1,0.016057977,1,0.253189772,1,-0.46282506,1,-0.075744383,1
0.027996672,-4.383403778,1,-2.288695335,1,-8.436970711,1,0.189098939,1,-0.016896095,1,-3.58E-05,1,0.253942639,1,-0.462923467,1,-0.075746007,1
0.03199821,-4.342865467,1,-2.295174599,1,-8.428189278,1,0.185912296,1,-0.013583552,1,0.004057838,1,0.254706204,1,-0.462981641,1,-0.075756311,1
0.035995904,-4.430215359,1,-2.313751459,1,-8.358254433,1,0.188761264,1,-0.008849073,1,-0.000465429,1,0.255453557,1,-0.46303153,1,-0.075760096,1
0.039995391,-4.452935696,1,-2.416481495,1,-8.353291512,1,0.175204605,1,-0.003390462,1,0.003051605,1,0.256178916,1,-0.463047743,1,-0.075752236,1
0.043996926,-4.406490326,1,-2.471049547,1,-8.401049614,1,0.166473716,1,0.003021428,1,0.001381787,1,0.25686878,1,-0.463050544,1,-0.07574971,1
0.047994625,-4.38999176,1,-2.536725044,1,-8.302347183,1,0.155990914,1,0.009913728,1,-0.001022843,1,0.257501841,1,-0.4630225,1,-0.075744413,1
0.051993854,-4.475893974,1,-2.58792305,1,-8.443107605,1,0.132484958,1,-0.002019037,1,0.012377473,1,0.258075863,1,-0.46300441,1,-0.075713664,1
0.055995136,-4.154614925,1,-2.624827862,1,-8.058820724,1,0.118754514,1,0.013596145,1,0.005345139,1,0.258538604,1,-0.463011801,1,-0.07567241,1
0.059992831,-4.354046822,1,-2.597194672,1,-8.347061157,1,0.104504101,1,0.009713785,1,0.006263013,1,0.258974344,1,-0.462972075,1,-0.075634971,1
0.063992061,-4.341894627,1,-2.713539839,1,-8.277076721,1,0.08612816,1,0.010329656,1,0.014429653,1,0.259326935,1,-0.462954342,1,-0.075577475,1
0.067993604,-4.396939278,1,-2.633044004,1,-8.331349373,1,0.074686095,1,0.014222305,1,0.015636375,1,0.259615421,1,-0.462917805,1,-0.075498767,1
0.071991041,-4.444770336,1,-2.628940582,1,-8.317097664,1,0.055236451,1,0.018678924,1,0.021232234,1,0.259825081,1,-0.462873995,1,-0.075395778,1
0.075990528,-4.364113331,1,-2.607535362,1,-8.295126915,1,0.037568554,1,0.027460251,1,0.023850199,1,0.259950638,1,-0.462813318,1,-0.075274318,1
0.079992063,-4.372401714,1,-2.653388977,1,-8.329507828,1,0.027735543,1,0.022843856,1,0.029036311,1,0.260014713,1,-0.462750494,1,-0.075131297,1
0.083989501,-4.422291756,1,-2.643536568,1,-8.397979736,1,0.007385675,1,0.018960077,1,0.035188861,1,0.2600016,1,-0.462699622,1,-0.07496646,1
0.087988734,-4.349775314,1,-2.55692029,1,-8.182138443,1,-0.001194352,1,0.032192282,1,0.035454601,1,0.259908825,1,-0.462658584,1,-0.074784838,1
0.09199027,-4.536578655,1,-2.543025494,1,-8.442098618,1,-0.008433888,1,0.035671197,1,0.03478856,1,0.259810567,1,-0.462559879,1,-0.074593954,1
0.095993601,-4.482944012,1,-2.405742645,1,-8.46234417,1,-0.01574523,1,0.041980453,1,0.029064117,1,0.259675264,1,-0.462444872,1,-0.074401081,1
0.099993341,-4.409836769,1,-2.410374165,1,-8.463765144,1,-0.024414141,1,0.048164431,1,0.028612362,1,0.259511292,1,-0.462304145,1,-0.074211799,1
0.103994884,-4.466367245,1,-2.571352005,1,-8.359555244,1,-0.040733654,1,0.053301357,1,0.031784929,1,0.259295464,1,-0.462141424,1,-0.07402847,1
0.107992575,-4.286277771,1,-2.404781103,1,-8.400021553,1,-0.04043293,1,0.052776977,1,0.042538319,1,0.259034246,1,-0.461987883,1,-0.073798396,1
0.111992061,-4.210615635,1,-2.174196959,1,-8.530150414,1,-0.046795096,1,0.037958883,1,0.051255785,1,0.258741498,1,-0.461859345,1,-0.073546991,1
0.115993597,-4.469872475,1,-2.041714907,1,-8.648374557,1,-0.044726994,1,0.031119829,1,0.052831817,1,0.258432746,1,-0.46177581,1,-0.073287271,1
0.119991042,-4.520037174,1,-1.968592525,1,-8.601979256,1,-0.034527339,1,0.040891975,1,0.038214322,1,0.258167297,1,-0.461677253,1,-0.073048837,1
0.123990528,-4.618000507,1,-1.979563117,1,-8.59595871,1,-0.02543181,1,0.049516305,1,0.033453193,1,0.257963508,1,-0.461535841,1,-0.07283365,1
0.127992064,-4.458943844,1,-2.151463032,1,-8.557240486,1,-0.017458277,1,0.056660358,1,0.030540228,1,0.25778687,1,-0.461365372,1,-0.072638705,1
0.131989762,-4.35245657,1,-2.265443563,1,-8.486330986,1,-0.018982239,1,0.057288196,1,0.024307417,1,0.257641882,1,-0.461165607,1,-0.072459869,1
0.135989249,-4.276002884,1,-2.305722713,1,-8.467970848,1,-0.011773607,1,0.044055127,1,0.019424044,1,0.257502049,1,-0.460988373,1,-0.07229735,1
0.139990523,-4.274744034,1,-2.302787542,1,-8.406332016,1,-0.025287643,1,0.0431128,1,0.029509908,1,0.257355362,1,-0.460858971,1,-0.072129689,1
0.143987969,-4.291484833,1,-2.291974306,1,-8.418379784,1,-0.023704184,1,0.040051196,1,0.026188487,1,0.257192552,1,-0.460723996,1,-0.071968056,1
0.147987455,-4.310270309,1,-2.236394405,1,-8.442492485,1,-0.02741622,1,0.040004872,1,0.028503086,1,0.257016361,1,-0.460594416,1,-0.071799718,1
0.151988998,-4.293764114,1,-2.329009295,1,-8.464102745,1,-0.028481958,1,0.034958802,1,0.03185571,1,0.256835997,1,-0.460480154,1,-0.071629427,1
0.155986682,-4.321269035,1,-2.369688511,1,-8.407139778,1,-0.031941846,1,0.031662267,1,0.03554523,1,0.256635964,1,-0.460373998,1,-0.071455263,1
0.159986183,-4.368606091,1,-2.361673594,1,-8.411786079,1,-0.049884778,1,0.037142385,1,0.038891714,1,0.256383479,1,-0.460279167,1,-0.071251951,1
0.163987964,-4.117285728,1,-2.393352032,1,-8.27380085,1,-0.052124202,1,0.038013987,1,0.045388091,1,0.256089717,1,-0.460181296,1,-0.071027927,1
0.167985663,-4.183905125,1,-2.349677801,1,-8.412163734,1,-0.062448446,1,0.03153836,1,0.047254648,1,0.255761117,1,-0.460089743,1,-0.070795864,1
0.171985149,-4.157883644,1,-2.265568733,1,-8.440529823,1,-0.060505133,1,0.025313566,1,0.049877562,1,0.255416304,1,-0.460030437,1,-0.07055904,1
0.175986946,-4.360591888,1,-2.152454138,1,-8.542169571,1,-0.054866865,1,0.030078884,1,0.053703461,1,0.255080849,1,-0.459976405,1,-0.070308328,1
0.179984644,-4.4431777,1,-2.115706444,1,-8.578744888,1,-0.053525228,1,0.028543334,1,0.054850064,1,0.254748762,1,-0.459913224,1,-0.070045203,1
0.183983877,-4.278059006,1,-2.186427832,1,-8.446605682,1,-0.045118812,1,0.03104762,1,0.05585229,1,0.25442487,1,-0.459855735,1,-0.069769271,1
0.187985405,-4.012891293,1,-2.193053722,1,-8.402891159,1,-0.026241075,1,0.025927391,1,0.058899242,1,0.254167467,1,-0.459793746,1,-0.06949614,1
0.19198285,-3.899217844,1,-2.244704247,1,-8.388504028,1,-0.033605643,1,0.007279999,1,0.060864855,1,0.253921866,1,-0.459789127,1,-0.069219582,1
0.195988998,-3.932364941,1,-2.25831008,1,-8.356433868,1,-0.028720403,1,-0.005957859,1,0.063602336,1,0.253678352,1,-0.459842026,1,-0.068952106,1
0.199991047,-4.05969286,1,-2.273203373,1,-8.389888763,1,-0.015495259,1,-0.019080877,1,0.072558105,1,0.253470033,1,-0.45995909,1,-0.068675011,1
0.203988999,-4.045450211,1,-2.150923491,1,-8.440958023,1,-0.027135225,1,-0.035633646,1,0.077717029,1,0.253257573,1,-0.460149288,1,-0.068382777,1
0.207988486,-3.871200085,1,-2.308593273,1,-8.392889023,1,-0.015938172,1,-0.048648946,1,0.072494194,1,0.253041923,1,-0.460390776,1,-0.068108104,1
0.211990014,-4.019276142,1,-2.258495092,1,-8.41722393,1,-0.017194135,1,-0.064451352,1,0.077408217,1,0.252868891,1,-0.460683882,1,-0.067848869,1
0.215987459,-4.095586777,1,-2.174007177,1,-8.453051567,1,-0.028095715,1,-0.08019495,1,0.083662242,1,0.252663076,1,-0.461040407,1,-0.067579053,1
0.219986945,-4.22497654,1,-2.166125774,1,-8.453602791,1,-0.034971986,1,-0.08996138,1,0.090130791,1,0.252404124,1,-0.461454272,1,-0.067305595,1
0.223988473,-4.260691643,1,-2.190926075,1,-8.435917854,1,-0.045841523,1,-0.103395686,1,0.08950454,1,0.252123028,1,-0.461913764,1,-0.067028835,1
0.227986425,-4.267575741,1,-2.421894312,1,-8.434455872,1,-0.064782985,1,-0.103657439,1,0.097484857,1,0.251773298,1,-0.462402016,1,-0.066743359,1
0.231985927,-4.428637028,1,-2.605524302,1,-8.396434784,1,-0.082562752,1,-0.10298647,1,0.105919696,1,0.251331747,1,-0.462909937,1,-0.066417277,1
0.235987201,-4.575531483,1,-2.670204163,1,-8.392191887,1,-0.102397271,1,-0.099648461,1,0.107447468,1,0.250807077,1,-0.463419229,1,-0.066071764,1
0.2399849,-4.505715847,1,-2.622081995,1,-8.355733871,1,-0.122233644,1,-0.097820327,1,0.108542055,1,0.250197858,1,-0.463917702,1,-0.065709263,1
0.243984386,-4.421588898,1,-2.489719152,1,-8.365917206,1,-0.149454296,1,-0.102007233,1,0.111739777,1,0.249487042,1,-0.464409828,1,-0.065344416,1
0.247985914,-4.425746441,1,-2.387996435,1,-8.461434364,1,-0.166753158,1,-0.108828507,1,0.117526166,1,0.248693109,1,-0.464937687,1,-0.064958945,1
0.251983881,-4.481955051,1,-2.263142347,1,-8.441811562,1,-0.189391702,1,-0.106369384,1,0.111074388,1,0.247808993,1,-0.465453774,1,-0.064586379,1
0.255983353,-4.51558876,1,-2.260069847,1,-8.422135353,1,-0.20232667,1,-0.101053782,1,0.114615574,1,0.246848166,1,-0.46596542,1,-0.064210549,1
0.25998491,-4.430711746,1,-2.230609417,1,-8.408714294,1,-0.208170801,1,-0.10416609,1,0.11647889,1,0.245855704,1,-0.466479599,1,-0.063820526,1
0.263982594,-4.226845741,1,-2.289579868,1,-8.364126205,1,-0.228387281,1,-0.113049068,1,0.114585586,1,0.245109767,1,-0.46700713,1,-0.063799039,1
0.267982066,-4.318428516,1,-2.285126925,1,-8.433412552,1,-0.240812242,1,-0.123388797,1,0.11946997,1,0.244021431,1,-0.467500567,1,-0.064382315,1
0.271983624,-4.355791092,1,-2.154765368,1,-8.460801125,1,-0.250922918,1,-0.134324044,1,0.11640282,1,0.242875457,1,-0.468114674,1,-0.063998379,1
0.275981307,-4.498224735,1,-2.019779921,1,-8.544775009,1,-0.255974263,1,-0.134022638,1,0.111640498,1,0.241690829,1,-0.468750119,1,-0.063629836,1
0.27998054,-4.567946434,1,-1.902003407,1,-8.595221519,1,-0.247540146,1,-0.136483014,1,0.102183066,1,0.240527183,1,-0.469374567,1,-0.063309759,1
0.283982068,-4.591421604,1,-1.844575524,1,-8.681787491,1,-0.244670019,1,-0.139400408,1,0.086336769,1,0.239426881,1,-0.470001549,1,-0.063047841,1
0.287979782,-4.63898325,1,-1.854688048,1,-8.570995331,1,-0.242597371,1,-0.133237854,1,0.070664711,1,0.238355279,1,-0.470608801,1,-0.062848292,1
0.291985422,-4.760054588,1,-1.949585915,1,-8.618888855,1,-0.231108293,1,-0.126993269,1,0.062989861,1,0.237338141,1,-0.471175045,1,-0.062699139,1
0.29598695,-4.635385513,1,-2.026564121,1,-8.50767231,1,-0.238205031,1,-0.123407826,1,0.048374396,1,0.23634851,1,-0.471714228,1,-0.062592261,1
0.299984396,-4.55736351,1,-2.100830555,1,-8.492698669,1,-0.243214041,1,-0.126710474,1,0.047711335,1,0.235351577,1,-0.472240925,1,-0.062518395,1
0.303983867,-4.463183403,1,-2.14352107,1,-8.460220337,1,-0.246574968,1,-0.129701465,1,0.048985627,1,0.23433955,1,-0.472776741,1,-0.062447172,1
0.307985395,-4.411206245,1,-2.134260416,1,-8.434889793,1,-0.246509194,1,-0.130307898,1,0.046475235,1,0.233323038,1,-0.473321378,1,-0.062370662,1
0.31198284,-4.541089058,1,-2.153992414,1,-8.413255692,1,-0.245960802,1,-0.131290242,1,0.041435812,1,0.232312128,1,-0.473869026,1,-0.062322035,1
0.315982342,-4.550496578,1,-2.176445484,1,-8.42619133,1,-0.246898234,1,-0.126521558,1,0.040402733,1,0.231303036,1,-0.474415362,1,-0.062277149,1
0.319983602,-4.601570606,1,-2.075528622,1,-8.47949028,1,-0.242140189,1,-0.12870203,1,0.042178284,1,0.230301797,1,-0.47494787,1,-0.062218606,1
0.323981315,-4.556928158,1,-2.056519985,1,-8.449379921,1,-0.242273077,1,-0.123571575,1,0.043058075,1,0.229313463,1,-0.47547543,1,-0.062166423,1
0.327980787,-4.63616848,1,-1.971022129,1,-8.536166191,1,-0.231316745,1,-0.118397444,1,0.033843495,1,0.228342757,1,-0.475978553,1,-0.062117983,1
0.331982344,-4.672333241,1,-1.938772321,1,-8.502274513,1,-0.216888115,1,-0.113609888,1,0.03470714,1,0.227432132,1,-0.476460099,1,-0.062095068,1
0.335980028,-4.543143272,1,-1.898612976,1,-8.560842514,1,-0.208408222,1,-0.113530025,1,0.039728455,1,0.226558253,1,-0.476935416,1,-0.062046204,1
0.339979529,-4.564695358,1,-1.928709745,1,-8.564526558,1,-0.202577829,1,-0.10847266,1,0.036127504,1,0.225711197,1,-0.477408022,1,-0.061998654,1
0.343981057,-4.75579071,1,-1.896083593,1,-8.542456627,1,-0.187121511,1,-0.100414328,1,0.040456582,1,0.22489585,1,-0.477861404,1,-0.061937671,1
0.347978741,-4.646470547,1,-1.87086153,1,-8.499735832,1,-0.160916999,1,-0.091743253,1,0.038973592,1,0.224154666,1,-0.478275806,1,-0.061866663,1
0.351977974,-4.670172691,1,-1.826280117,1,-8.535852432,1,-0.147345439,1,-0.088068075,1,0.03692092,1,0.223506913,1,-0.478665173,1,-0.061793428,1
0.355979532,-4.512376785,1,-1.865893245,1,-8.552787781,1,-0.133454785,1,-0.086157665,1,0.037162587,1,0.222904965,1,-0.479035527,1,-0.061703201,1
0.359976947,-4.577707291,1,-1.972164631,1,-8.496712685,1,-0.129450634,1,-0.085698634,1,0.041350104,1,0.222341865,1,-0.479403853,1,-0.061620105,1
0.363976181,-4.679706097,1,-1.969518542,1,-8.539983749,1,-0.121619381,1,-0.081720337,1,0.04296001,1,0.221804991,1,-0.479764342,1,-0.0615355,1
0.367977738,-4.607023239,1,-1.964570403,1,-8.46688652,1,-0.115677692,1,-0.078799032,1,0.040031038,1,0.221269369,1,-0.480114043,1,-0.061427277,1
0.371975154,-4.589985847,1,-1.952337384,1,-8.479263306,1,-0.104352005,1,-0.076284356,1,0.041953657,1,0.220788181,1,-0.480456114,1,-0.061325438,1
0.375974387,-4.636372089,1,-1.898067236,1,-8.530135155,1,-0.095886633,1,-0.073469102,1,0.035639491,1,0.220338985,1,-0.480778277,1,-0.061229896,1
0.379975945,-4.628385544,1,-1.955644131,1,-8.520475388,1,-0.09109173,1,-0.067011863,1,0.039918676,1,0.219919622,1,-0.48108086,1,-0.061131444,1
0.38397339,-4.708650112,1,-1.971588612,1,-8.526913643,1,-0.084267169,1,-0.066034652,1,0.037821312,1,0.219518766,1,-0.481370032,1,-0.061026756,1
0.387979001,-4.667037964,1,-1.954651117,1,-8.420771599,1,-0.078904323,1,-0.055092193,1,0.037943475,1,0.219147757,1,-0.481639177,1,-0.060929794,1
0.391980559,-4.513446331,1,-1.883212209,1,-8.445212364,1,-0.065818027,1,-0.059190873,1,0.028423665,1,0.218815073,1,-0.481895328,1,-0.060836937,1
0.395977974,-4.585433483,1,-1.93732059,1,-8.507498741,1,-0.05584855,1,-0.056595065,1,0.026904734,1,0.218531951,1,-0.482150823,1,-0.060760852,1
0.399977475,-4.550721645,1,-1.885005116,1,-8.524040222,1,-0.047969431,1,-0.058397595,1,0.028449943,1,0.218294933,1,-0.482402146,1,-0.060689617,1
0.403979003,-4.623333931,1,-1.877484441,1,-8.528834343,1,-0.044620503,1,-0.05613846,1,0.022933988,1,0.218069911,1,-0.482647061,1,-0.060628928,1
0.407976449,-4.586421967,1,-1.830494761,1,-8.390795708,1,-0.040716428,1,-0.054070957,1,0.025669103,1,0.217869729,1,-0.482893497,1,-0.060567882,1
0.41197595,-4.588231564,1,-1.939692974,1,-8.569342613,1,-0.027938858,1,-0.055430841,1,0.025883211,1,0.217701226,1,-0.483125597,1,-0.060503963,1
0.41597721,-4.66763401,1,-1.913218617,1,-8.495830536,1,-0.019203404,1,-0.055578861,1,0.025159469,1,0.217573613,1,-0.483357549,1,-0.060454417,1
0.419974923,-4.620687008,1,-1.867150545,1,-8.453062057,1,-0.01344016,1,-0.053854488,1,0.016964855,1,0.217494041,1,-0.483590573,1,-0.0604189,1
0.423974395,-4.623719215,1,-1.919046998,1,-8.506924629,1,-0.002939589,1,-0.053478062,1,0.016539903,1,0.21743302,1,-0.483811706,1,-0.060399253,1
0.427975684,-4.611086369,1,-1.831610203,1,-8.501442909,1,0.001913699,1,-0.052990701,1,0.011238324,1,0.217413396,1,-0.484030962,1,-0.060389366,1
0.431973368,-4.617274284,1,-1.964093328,1,-8.518956184,1,0.006723829,1,-0.051785592,1,0.012395249,1,0.217438385,1,-0.484242588,1,-0.060395293,1
0.435972869,-4.639787197,1,-1.970549703,1,-8.472002983,1,0.016293673,1,-0.053094603,1,0.011599992,1,0.217477843,1,-0.484454513,1,-0.060393631,1
0.439974666,-4.613929272,1,-2.00126195,1,-8.459132195,1,0.01516925,1,-0.054304749,1,0.009147103,1,0.217550352,1,-0.484669089,1,-0.06040116,1
0.443972617,-4.675041199,1,-1.945945382,1,-8.47799778,1,0.020977763,1,-0.051027052,1,0.009436299,1,0.2176366,1,-0.484881431,1,-0.060419302,1
0.447972089,-4.723999023,1,-1.908146858,1,-8.477669716,1,0.02550102,1,-0.047551855,1,0.009367242,1,0.217742205,1,-0.485081881,1,-0.060439255,1
0.451973647,-4.674333572,1,-1.918707967,1,-8.42087841,1,0.026816601,1,-0.047424063,1,0.003606021,1,0.217855081,1,-0.485269666,1,-0.060467377,1
0.45597133,-4.723441124,1,-1.990453482,1,-8.485757828,1,0.025485432,1,-0.047184821,1,0.007440449,1,0.217970535,1,-0.485456467,1,-0.060493566,1
0.459970564,-4.607330799,1,-2.020150423,1,-8.348639488,1,0.021179942,1,-0.037713151,1,0.004100894,1,0.218060091,1,-0.485632181,1,-0.060508747,1
0.463972092,-4.607447624,1,-1.992222071,1,-8.4360466,1,0.022787001,1,-0.044851173,1,0.009510326,1,0.21816358,1,-0.485801816,1,-0.060526438,1
0.467969805,-4.657874584,1,-2.068341732,1,-8.424080849,1,0.017056556,1,-0.038549181,1,0.014459616,1,0.218237087,1,-0.485972434,1,-0.060518462,1
0.471969277,-4.694599152,1,-2.070275784,1,-8.393202782,1,0.012754465,1,-0.036074299,1,0.00960501,1,0.218295574,1,-0.486124903,1,-0.060512409,1
0.475970805,-4.718547821,1,-2.048344135,1,-8.448969841,1,0.009607099,1,-0.034028232,1,0.017437806,1,0.218322486,1,-0.486272126,1,-0.060480576,1
0.47996825,-4.706005573,1,-1.989216208,1,-8.436396599,1,-0.003418649,1,-0.030066418,1,0.016355608,1,0.218316808,1,-0.486404717,1,-0.060445629,1
0.483967751,-4.629558563,1,-2.001721859,1,-8.472434998,1,0.005044807,1,-0.031420987,1,0.019414311,1,0.218300998,1,-0.486534655,1,-0.060397215,1
0.487975419,-4.663740158,1,-1.947281599,1,-8.405387878,1,-0.000133455,1,-0.026456481,1,0.015417758,1,0.21828568,1,-0.48666054,1,-0.060354333,1
0.491979003,-4.648585796,1,-1.95803535,1,-8.444486618,1,-0.00392793,1,-0.025417568,1,0.018272359,1,0.218262151,1,-0.486785352,1,-0.060308162,1
0.495978743,-4.677936554,1,-1.96214366,1,-8.444513321,1,-0.006382513,1,-0.027016554,1,0.016877247,1,0.218219623,1,-0.486903012,1,-0.060259983,1
0.499980301,-4.74733305,1,-1.936156392,1,-8.436882973,1,-0.005861473,1,-0.023008361,1,0.014069699,1,0.218181431,1,-0.487011492,1,-0.060211632,1
0.503977716,-4.660460472,1,-1.951806784,1,-8.420866013,1,-0.004608416,1,-0.019210236,1,0.015632579,1,0.21813561,1,-0.487107486,1,-0.060166754,1
0.507977188,-4.7897048,1,-1.939420581,1,-8.524044037,1,-0.0177157,1,-0.016234083,1,0.015473349,1,0.218068719,1,-0.48719576,1,-0.060110543,1
0.511978745,-4.655970573,1,-2.038805008,1,-8.449855804,1,-0.009595765,1,-0.014928463,1,0.018772857,1,0.217981711,1,-0.487270087,1,-0.060047086,1
0.515976429,-4.741325378,1,-1.943474174,1,-8.38793087,1,-0.018704319,1,-0.012556518,1,0.017663259,1,0.217994064,1,-0.487405837,1,-0.061024867,1
0.51997596,-4.698209763,1,-1.967167139,1,-8.418456078,1,-0.021905836,1,-0.007028874,1,0.015674226,1,0.217878297,1,-0.487465411,1,-0.060957041,1
0.523977458,-4.694709301,1,-2.00053215,1,-8.394838333,1,-0.025631933,1,-0.009250429,1,0.017263733,1,0.21775119,1,-0.487512469,1,-0.060884766,1
0.527975142,-4.675605297,1,-1.988269806,1,-8.37638855,1,-0.030905716,1,-0.004073712,1,0.022183802,1,0.217590168,1,-0.487551332,1,-0.060802769,1
0.531974673,-4.679330826,1,-2.011087656,1,-8.395687103,1,-0.041965514,1,-0.003544548,1,0.025518827,1,0.217397451,1,-0.487582803,1,-0.060704019,1
0.535975933,-4.678738117,1,-2.010958672,1,-8.42365551,1,-0.042036686,1,-0.000352635,1,0.023479272,1,0.21718125,1,-0.487602115,1,-0.060594417,1
0.539973378,-4.580382824,1,-2.035511494,1,-8.310709,1,-0.051674109,1,0.007660122,1,0.030068384,1,0.216930032,1,-0.48760891,1,-0.060476892,1
0.54397285,-4.712053299,1,-1.912888646,1,-8.451766968,1,-0.051017124,1,0.005122923,1,0.028987486,1,0.216677189,1,-0.487611085,1,-0.060349602,1
0.547974408,-4.681948185,1,-1.97997582,1,-8.387704849,1,-0.055469513,1,0.011404169,1,0.02305121,1,0.216404602,1,-0.487600148,1,-0.060217042,1
0.551972091,-4.668427944,1,-1.944873095,1,-8.386720657,1,-0.052126084,1,0.013721637,1,0.026518093,1,0.216124132,1,-0.487572819,1,-0.060088333,1
0.555971563,-4.649397373,1,-1.974761128,1,-8.381788254,1,-0.061666578,1,0.015127753,1,0.029887443,1,0.215826377,1,-0.48753342,1,-0.059942003,1
0.559973121,-4.530344486,1,-1.993580341,1,-8.324276924,1,-0.069281757,1,0.025554905,1,0.033973087,1,0.215488434,1,-0.487477809,1,-0.059780188,1
0.563970566,-4.639340878,1,-2.036938429,1,-8.37051487,1,-0.080189832,1,0.028018435,1,0.037987761,1,0.215111434,1,-0.487409234,1,-0.059599932,1
0.567970037,-4.617776394,1,-2.075539112,1,-8.384714127,1,-0.090435341,1,0.040084511,1,0.041587774,1,0.21466656,1,-0.48731342,1,-0.059387814,1
0.571971595,-4.68054533,1,-2.032836199,1,-8.401656151,1,-0.098380663,1,0.036232717,1,0.048250828,1,0.214169919,1,-0.487194896,1,-0.059143335,1
0.575969279,-4.626496315,1,-2.037393808,1,-8.365103722,1,-0.10126245,1,0.045805562,1,0.05172608,1,0.213644192,1,-0.487074643,1,-0.058877464,1
0.579969049,-4.678245068,1,-1.996754766,1,-8.357151031,1,-0.103314765,1,0.051466387,1,0.050030679,1,0.213107288,1,-0.486937851,1,-0.058602951,1
0.583976686,-4.61821413,1,-2.000247478,1,-8.38813591,1,-0.103558198,1,0.051278669,1,0.058433849,1,0.212553069,1,-0.48678574,1,-0.058312599,1
0.58798027,-4.559461117,1,-1.988524437,1,-8.444415092,1,-0.102443933,1,0.054438427,1,0.058394566,1,0.211991414,1,-0.48661989,1,-0.05800828,1
0.59198004,-4.566075802,1,-1.954264879,1,-8.492828369,1,-0.104926743,1,0.046821542,1,0.055135678,1,0.211425319,1,-0.486465544,1,-0.05770966,1
0.595981538,-4.623838425,1,-1.88558805,1,-8.51057148,1,-0.107120708,1,0.049295563,1,0.057807524,1,0.210862607,1,-0.486324936,1,-0.057409391,1
0.599978983,-4.558998108,1,-1.876901031,1,-8.494725227,1,-0.102097496,1,0.04806678,1,0.057639431,1,0.210302472,1,-0.486177862,1,-0.057110503,1
0.603978515,-4.66217041,1,-1.878195405,1,-8.51146698,1,-0.107928596,1,0.046365112,1,0.05405733,1,0.209744036,1,-0.486038148,1,-0.056817368,1
0.607980013,-4.629155636,1,-1.850335956,1,-8.487505913,1,-0.102181107,1,0.045573648,1,0.050146453,1,0.209194556,1,-0.485899627,1,-0.05653926,1
0.611977756,-4.655194283,1,-1.766357541,1,-8.531493187,1,-0.103463978,1,0.046987779,1,0.054720622,1,0.208656639,1,-0.48575604,1,-0.056260772,1
0.615977228,-4.540127277,1,-1.690580606,1,-8.395831108,1,-0.102693915,1,0.047765899,1,0.04993917,1,0.208109662,1,-0.485617757,1,-0.055991963,1
0.619978726,-4.668595791,1,-1.699551702,1,-8.630545616,1,-0.094443433,1,0.043536223,1,0.045634761,1,0.207600996,1,-0.485473186,1,-0.055742282,1
0.623976469,-4.660390854,1,-1.789345741,1,-8.47492981,1,-0.089899831,1,0.04203593,1,0.040628303,1,0.20711942,1,-0.485348225,1,-0.055511046,1
0.627975941,-4.608830452,1,-1.631762028,1,-8.543599129,1,-0.088106915,1,0.041577544,1,0.037925657,1,0.206660584,1,-0.485210001,1,-0.055295575,1
0.631977201,-4.614874363,1,-1.823187232,1,-8.50265789,1,-0.082064949,1,0.04194491,1,0.038371798,1,0.206210032,1,-0.485081315,1,-0.055083297,1
0.635974884,-4.628692627,1,-1.819998503,1,-8.560398102,1,-0.083504476,1,0.033519369,1,0.036419231,1,0.205781519,1,-0.4849675,1,-0.054882817,1
0.639974415,-4.576053143,1,-1.838167429,1,-8.512663841,1,-0.082127385,1,0.028913489,1,0.037810083,1,0.20535934,1,-0.484866947,1,-0.054688379,1
0.643975914,-4.676521301,1,-1.847985148,1,-8.587582588,1,-0.081591643,1,0.020035345,1,0.040297184,1,0.204938769,1,-0.484793246,1,-0.054493457,1
0.647973657,-4.512251377,1,-1.871445298,1,-8.469687462,1,-0.077793613,1,0.022962384,1,0.036273967,1,0.20452258,1,-0.484731764,1,-0.05430733,1
0.651973128,-4.57400465,1,-1.812141657,1,-8.482302666,1,-0.074788637,1,0.019525852,1,0.041294325,1,0.204131722,1,-0.484681398,1,-0.054110538,1
0.655974627,-4.639025211,1,-1.809069872,1,-8.521032333,1,-0.068985321,1,0.017619399,1,0.041744255,1,0.203743637,1,-0.484640777,1,-0.053910881,1
0.659972072,-4.534274101,1,-1.898897886,1,-8.46612072,1,-0.071858242,1,0.012771032,1,0.042940654,1,0.203374341,1,-0.484620571,1,-0.05371204,1
0.663971841,-4.592691422,1,-1.894941092,1,-8.534542084,1,-0.06836845,1,0.003421292,1,0.049094722,1,0.202996567,1,-0.484623641,1,-0.053497504,1
0.667973399,-4.670527458,1,-1.847996473,1,-8.588506699,1,-0.073939271,1,0.000615083,1,0.048942689,1,0.202611163,1,-0.484649658,1,-0.053273037,1
0.671971083,-4.610601425,1,-2.0348804,1,-8.382781982,1,-0.067622013,1,0.006532709,1,0.059743352,1,0.202211887,1,-0.484685868,1,-0.053027887,1
0.675970793,-4.602075577,1,-1.887075067,1,-8.414265633,1,-0.065086193,1,-0.000293167,1,0.060767051,1,0.20181264,1,-0.484720916,1,-0.052753564,1
0.679978251,-4.596328259,1,-1.87419939,1,-8.473291397,1,-0.066664174,1,0.00056657,1,0.067798071,1,0.201425299,1,-0.484767318,1,-0.052475695,1
0.683981836,-4.566678524,1,-1.987697959,1,-8.411500931,1,-0.068710886,1,0.001258411,1,0.067795746,1,0.201010659,1,-0.484816074,1,-0.052180748,1
0.687981546,-4.60370779,1,-1.959293246,1,-8.493985176,1,-0.066819623,1,-0.004076981,1,0.073973477,1,0.200586751,1,-0.48489219,1,-0.051871777,1
0.691983104,-4.648768425,1,-1.896578431,1,-8.512586594,1,-0.075053938,1,-0.010389046,1,0.078111179,1,0.200138763,1,-0.484980494,1,-0.051536366,1
0.695980549,-4.723050594,1,-1.771010399,1,-8.550778389,1,-0.081265152,1,-0.020321179,1,0.081031881,1,0.199663281,1,-0.48510161,1,-0.051192906,1
0.699980021,-4.413354874,1,-1.875610232,1,-8.466722488,1,-0.068453684,1,-0.016083794,1,0.078935951,1,0.199202254,1,-0.485220969,1,-0.050856471,1
0.703981578,-4.608540058,1,-1.719943643,1,-8.56259346,1,-0.064760014,1,-0.026571348,1,0.078828059,1,0.198775798,1,-0.485372722,1,-0.050521199,1
0.707979262,-4.571564674,1,-1.695617437,1,-8.560937881,1,-0.062076088,1,-0.034168389,1,0.082840443,1,0.198364049,1,-0.48554647,1,-0.050180189,1
0.711978734,-4.566951275,1,-1.768659472,1,-8.510953903,1,-0.057988826,1,-0.031013507,1,0.094167404,1,0.19795543,1,-0.485747874,1,-0.049810357,1
0.715980053,-4.774501324,1,-1.794967651,1,-8.578999519,1,-0.057651322,1,-0.047280408,1,0.100458853,1,0.197538391,1,-0.485974252,1,-0.049407318,1
0.719977498,-4.714375496,1,-1.691155791,1,-8.474143028,1,-0.068982691,1,-0.045745645,1,0.090648115,1,0.197104588,1,-0.486230016,1,-0.049022991,1
0.723976731,-4.503847599,1,-1.718656301,1,-8.463306427,1,-0.049819965,1,-0.036701996,1,0.091737919,1,0.196704224,1,-0.486452073,1,-0.048648577,1
0.727977991,-4.569169521,1,-1.672850847,1,-8.448267937,1,-0.049234927,1,-0.0409812,1,0.09534546,1,0.196322784,1,-0.486681968,1,-0.048267767,1
0.731975675,-4.54765892,1,-1.704724789,1,-8.469274521,1,-0.047529627,1,-0.035565518,1,0.09576831,1,0.19595696,1,-0.486895889,1,-0.047875721,1
0.735975146,-4.535562038,1,-1.845429182,1,-8.419754028,1,-0.047658969,1,-0.038199101,1,0.096791312,1,0.1955778,1,-0.487118393,1,-0.047474049,1
0.739976704,-4.65909481,1,-1.777546287,1,-8.466191292,1,-0.049656533,1,-0.041369993,1,0.084296398,1,0.195218623,1,-0.487338305,1,-0.047106635,1
0.743974149,-4.774332047,1,-1.691514254,1,-8.679879189,1,-0.054598469,1,-0.053833935,1,0.083388418,1,0.194849357,1,-0.487588316,1,-0.046764437,1
0.747973382,-4.366510868,1,-1.741560102,1,-8.445013046,1,-0.037510112,1,-0.047929071,1,0.0775498,1,0.194516256,1,-0.48784554,1,-0.046462204,1
0.75197494,-4.588714123,1,-1.665939808,1,-8.481312752,1,-0.034429897,1,-0.04925843,1,0.072428033,1,0.194247961,1,-0.488108277,1,-0.046174277,1
0.755972326,-4.604951859,1,-1.752580523,1,-8.4908638,1,-0.033486046,1,-0.058047257,1,0.064937226,1,0.193990782,1,-0.488361746,1,-0.045909144,1
0.759978235,-4.610924721,1,-1.753958225,1,-8.437818527,1,-0.03336231,1,-0.055780981,1,0.065819338,1,0.193735719,1,-0.488631129,1,-0.045656305,1
0.763980031,-4.60350275,1,-1.73519969,1,-8.489944458,1,-0.035544749,1,-0.056430668,1,0.066004962,1,0.193682283,1,-0.488973469,1,-0.045623846,1
0.767977715,-4.695876598,1,-1.699738503,1,-8.611602783,1,-0.034870449,1,-0.064775139,1,0.061592154,1,0.193449125,1,-0.489185184,1,-0.046354782,1
0.771977186,-4.377437592,1,-1.806580067,1,-8.303212166,1,-0.02648358,1,-0.06028777,1,0.06183283,1,0.193200439,1,-0.489481449,1,-0.046129219,1
0.775978744,-4.651464462,1,-1.586501241,1,-8.550590515,1,-0.014989899,1,-0.069911636,1,0.059674423,1,0.193021566,1,-0.48978132,1,-0.045910563,1
0.77998209,-4.62598753,1,-1.561412811,1,-8.540235519,1,-0.011259221,1,-0.064779133,1,0.051009852,1,0.192886427,1,-0.490077168,1,-0.045714848,1
0.783981562,-4.576865196,1,-1.720482111,1,-8.470974922,1,-0.004072986,1,-0.067232706,1,0.051062074,1,0.192773998,1,-0.490371585,1,-0.045542046,1
0.787983119,-4.630440235,1,-1.820757866,1,-8.478910446,1,-0.00582974,1,-0.0640122,1,0.053252839,1,0.192666233,1,-0.490672827,1,-0.045374002,1
0.791980565,-4.766996384,1,-1.764558554,1,-8.59100914,1,-0.00740204,1,-0.074692301,1,0.052214745,1,0.192561343,1,-0.490993142,1,-0.045200158,1
0.795980036,-4.392567635,1,-1.816784859,1,-8.315357208,1,-0.006127788,1,-0.06463737,1,0.056396425,1,0.192434236,1,-0.491312653,1,-0.045010298,1
0.799981594,-4.65197897,1,-1.664007425,1,-8.481577873,1,0.00233504,1,-0.068646632,1,0.053226527,1,0.192349836,1,-0.491615564,1,-0.044831961,1
0.803979278,-4.72785759,1,-1.716968775,1,-8.500835419,1,0.007761552,1,-0.066960774,1,0.058071334,1,0.192285508,1,-0.491916507,1,-0.044648357,1
0.807978749,-4.646552563,1,-1.745874882,1,-8.424987793,1,0.011241376,1,-0.05621488,1,0.05463573,1,0.192234308,1,-0.492200792,1,-0.044456001,1
0.811980009,-4.628694057,1,-1.814148068,1,-8.422893524,1,0.006839371,1,-0.064540923,1,0.05928348,1,0.192178383,1,-0.492480636,1,-0.044255558,1
0.815977752,-4.806771755,1,-1.768121362,1,-8.576688766,1,-0.004748075,1,-0.067395382,1,0.061304599,1,0.192090198,1,-0.492787719,1,-0.044038858,1
0.819976985,-4.437297821,1,-1.935406327,1,-8.329506874,1,-0.005848049,1,-0.061176617,1,0.066536516,1,0.191949964,1,-0.493095756,1,-0.043796897,1
0.823978245,-4.610794544,1,-1.734783053,1,-8.452003479,1,-0.00511741,1,-0.061678041,1,0.063585304,1,0.191830382,1,-0.493382961,1,-0.043562897,1
0.82797569,-4.674185753,1,-1.77884984,1,-8.382476807,1,-0.001178599,1,-0.050861191,1,0.061151057,1,0.191696167,1,-0.493650615,1,-0.043325394,1
0.831975162,-4.637776375,1,-1.779366136,1,-8.379154205,1,-0.006436185,1,-0.047062915,1,0.066127568,1,0.19155775,1,-0.493892968,1,-0.043078039,1
0.83597672,-4.682416916,1,-1.755914569,1,-8.417489052,1,-0.014925913,1,-0.04963195,1,0.068317957,1,0.191393271,1,-0.494135439,1,-0.042821944,1
0.839974165,-4.726543427,1,-1.771070361,1,-8.454817772,1,-0.019942889,1,-0.056143578,1,0.076192118,1,0.191191763,1,-0.494393855,1,-0.042544838,1
0.843973398,-4.436370373,1,-1.740886331,1,-8.375535011,1,-0.018947354,1,-0.046193577,1,0.070857726,1,0.190977529,1,-0.49464345,1,-0.04225437,1
0.847974896,-4.716835976,1,-1.630634904,1,-8.463984489,1,-0.021666273,1,-0.043922506,1,0.060750902,1,0.190773666,1,-0.494877726,1,-0.04199503,1
0.851972342,-4.712419033,1,-1.647304654,1,-8.456766129,1,-0.018035378,1,-0.043892343,1,0.05717111,1,0.190578565,1,-0.495093971,1,-0.041768342,1
0.855971813,-4.663753986,1,-1.623489261,1,-8.476490974,1,-0.022972779,1,-0.042190459,1,0.052796908,1,0.190395892,1,-0.495304793,1,-0.041559543,1
0.859973371,-4.666358948,1,-1.721635222,1,-8.405405045,1,-0.028252251,1,-0.049714077,1,0.054141682,1,0.19019945,1,-0.495528013,1,-0.041355707,1
0.863970816,-4.583130836,1,-1.755700231,1,-8.453338623,1,-0.014213668,1,-0.052240904,1,0.049250018,1,0.190031722,1,-0.495752692,1,-0.041178621,1
0.867970288,-4.65494442,1,-1.661611199,1,-8.502537727,1,-0.010737919,1,-0.052056246,1,0.041346665,1,0.189892277,1,-0.495992601,1,-0.041014675,1
0.871971846,-4.656604767,1,-1.589000702,1,-8.543026924,1,-0.009344609,1,-0.058578558,1,0.035847966,1,0.189795449,1,-0.496242702,1,-0.040889803,1
0.875975192,-4.686405182,1,-1.568534136,1,-8.568087578,1,-0.004501745,1,-0.068863541,1,0.031842228,1,0.189723551,1,-0.496518761,1,-0.040790439,1
0.879974663,-4.654632092,1,-1.756767511,1,-8.418313026,1,-0.004580287,1,-0.075406618,1,0.032237276,1,0.189677611,1,-0.496820062,1,-0.040710669,1
0.883976221,-4.495803356,1,-1.986006856,1,-8.416138649,1,0.011046765,1,-0.073001325,1,0.033908583,1,0.189637825,1,-0.497129202,1,-0.040619254,1
0.887973607,-4.618359089,1,-2.059140682,1,-8.377386093,1,0.005888096,1,-0.078038298,1,0.040151324,1,0.189624295,1,-0.497460216,1,-0.040521033,1
0.891973138,-4.585834026,1,-2.048597813,1,-8.367215157,1,0.004787027,1,-0.083121285,1,0.045943204,1,0.189586937,1,-0.497806191,1,-0.040405408,1
0.895974636,-4.566273689,1,-2.034404039,1,-8.393231392,1,0.000147878,1,-0.090816192,1,0.052101817,1,0.189519703,1,-0.498192072,1,-0.040262967,1
0.899972379,-4.568680286,1,-1.952824116,1,-8.431467056,1,-0.007374453,1,-0.096413195,1,0.058176465,1,0.189429775,1,-0.498604983,1,-0.040103961,1
0.903971851,-4.644898415,1,-1.870784998,1,-8.474955559,1,-0.007305022,1,-0.107396826,1,0.061556131,1,0.189311326,1,-0.499050915,1,-0.039926298,1
0.907973111,-4.639303684,1,-1.801087022,1,-8.430418015,1,-0.022279104,1,-0.112164378,1,0.063019633,1,0.189162508,1,-0.499532908,1,-0.039745882,1
0.911970794,-4.592890739,1,-1.749536514,1,-8.536975861,1,-0.006135172,1,-0.115323216,1,0.06338761,1,0.18902041,1,-0.500019133,1,-0.039559919,1
0.915970325,-4.595475674,1,-1.630328894,1,-8.532736778,1,-0.01122186,1,-0.126003027,1,0.064887173,1,0.188898906,1,-0.50053817,1,-0.039380118,1
0.919971824,-4.640419006,1,-1.502761722,1,-8.570713043,1,0.001724052,1,-0.128807262,1,0.057905439,1,0.188799411,1,-0.501091003,1,-0.039216787,1
0.923969269,-4.729784012,1,-1.434098005,1,-8.564136505,1,0.003674968,1,-0.141233161,1,0.048417673,1,0.188744992,1,-0.501665831,1,-0.039088283,1
0.92796874,-4.788057327,1,-1.4223423,1,-8.585012436,1,0.016035778,1,-0.143248394,1,0.041372515,1,0.188748285,1,-0.502262115,1,-0.039006487,1
0.931970298,-4.773990154,1,-1.485369921,1,-8.598443985,1,0.017052094,1,-0.145501301,1,0.034683697,1,0.188790813,1,-0.50286448,1,-0.038953628,1
0.935967743,-4.777821064,1,-1.551822186,1,-8.643342018,1,0.014697285,1,-0.149113268,1,0.031610653,1,0.188845932,1,-0.503473341,1,-0.038939327,1
0.939966977,-4.772379875,1,-1.574138999,1,-8.656065941,1,0.019381661,1,-0.156861171,1,0.026735106,1,0.188904449,1,-0.504098237,1,-0.038928058,1
0.943968534,-4.684868336,1,-1.577691913,1,-8.652651787,1,0.020113092,1,-0.16809985,1,0.022951785,1,0.188990518,1,-0.504753768,1,-0.038956493,1
0.947966218,-4.767613411,1,-1.643950582,1,-8.602235794,1,0.022710178,1,-0.177383095,1,0.022161029,1,0.189090192,1,-0.505446792,1,-0.0389985,1
0.95196569,-4.742146492,1,-1.693922043,1,-8.637980461,1,0.024485236,1,-0.178064376,1,0.023182904,1,0.189207807,1,-0.506160557,1,-0.039051667,1
0.955967247,-4.702459812,1,-1.68307662,1,-8.656290054,1,0.028102022,1,-0.189349234,1,0.01464058,1,0.189354256,1,-0.506905854,1,-0.039128318,1
0.959964693,-4.757549286,1,-1.688964963,1,-8.70559597,1,0.029704398,1,-0.207792088,1,0.017305592,1,0.189515084,1,-0.507700384,1,-0.039225571,1
0.963964164,-4.682045937,1,-1.67158556,1,-8.716324806,1,0.040373497,1,-0.221131504,1,0.016136799,1,0.189729631,1,-0.508552194,1,-0.039336488,1
0.967965722,-4.688848495,1,-1.626715899,1,-8.74697113,1,0.048687957,1,-0.241075203,1,0.010187787,1,0.189975426,1,-0.509472787,1,-0.039473906,1
0.971963108,-4.746716499,1,-1.587949753,1,-8.703284264,1,0.058434729,1,-0.261179239,1,0.010164376,1,0.190260127,1,-0.510465026,1,-0.03963121,1
0.975968778,-4.700610161,1,-1.568779111,1,-8.748631477,1,0.075882353,1,-0.274782717,1,0.009750114,1,0.190625578,1,-0.511526942,1,-0.03981787,1
0.979970276,-4.618728638,1,-1.47928822,1,-8.863138199,1,0.098703898,1,-0.293482304,1,0.006146422,1,0.19107987,1,-0.512647212,1,-0.040026922,1
0.983968019,-4.565099239,1,-1.36711657,1,-9.029245377,1,0.153009892,1,-0.32262069,1,0.001405509,1,0.191692173,1,-0.513859212,1,-0.040276982,1
0.987967491,-4.488959789,1,-1.177621961,1,-9.116119385,1,0.213630259,1,-0.35795173,1,-0.005931627,1,0.192580938,1,-0.515191853,1,-0.040595688,1
0.991968751,-4.530265808,1,-1.032654524,1,-9.198834419,1,0.284603536,1,-0.389253944,1,-0.014997366,1,0.193788007,1,-0.51665175,1,-0.040972427,1
0.995966434,-4.495429993,1,-1.317384243,1,-9.170915604,1,0.324032664,1,-0.423217744,1,-0.015636718,1,0.195210099,1,-0.518233657,1,-0.041412141,1
0.999965966,-4.202880383,1,-1.725115418,1,-9.331076622,1,0.383244336,1,-0.461564839,1,-0.018076831,1,0.19686839,1,-0.519951761,1,-0.041891702,1
1.003967524,-4.332348347,1,-2.029099703,1,-9.397146225,1,0.411481589,1,-0.504550517,1,-0.00660237,1,0.198702484,1,-0.521836638,1,-0.042372886,1
1.007965207,-4.229394913,1,-1.975747228,1,-9.598105431,1,0.418118179,1,-0.549836159,1,0.009389631,1,0.200615063,1,-0.523896515,1,-0.042844307,1
1.011964679,-3.9874928,1,-2.629555941,1,-9.686638832,1,0.313978255,1,-0.614459693,1,0.025593013,1,0.202278495,1,-0.52619189,1,-0.043316383,1
1.015966177,-4.442583561,1,-2.212232828,1,-9.6212883,1,0.334001541,1,-0.684083283,1,0.036968172,1,0.203823119,1,-0.528691769,1,-0.044768166,1
1.019963861,-4.573316097,1,-2.435736895,1,-9.49650383,1,0.338074744,1,-0.728312671,1,0.057306577,1,0.205388248,1,-0.531507015,1,-0.045218408,1
1.023963094,-4.598003387,1,-1.901174664,1,-9.475019455,1,0.33003214,1,-0.780467808,1,0.070201308,1,0.206950545,1,-0.534510612,1,-0.045650177,1
1.027964711,-4.640503883,1,-1.913006067,1,-9.408848763,1,0.339251786,1,-0.81908673,1,0.077513434,1,0.208497688,1,-0.537703454,1,-0.046082672,1
1.031962395,-4.65258646,1,-2.062156677,1,-9.452906609,1,0.325597852,1,-0.86242789,1,0.092249542,1,0.210048154,1,-0.54107058,1,-0.046522751,1
1.035961866,-4.62063694,1,-2.096230745,1,-9.422052383,1,0.328640282,1,-0.901531577,1,0.099646971,1,0.211573035,1,-0.544606626,1,-0.046941392,1
1.039963365,-4.617915154,1,-2.08630228,1,-9.500657082,1,0.309639961,1,-0.960257471,1,0.116954386,1,0.213086024,1,-0.54834038,1,-0.047368925,1
1.04396081,-4.63993597,1,-2.250657797,1,-9.477096558,1,0.303857744,1,-1.012726068,1,0.134425223,1,0.214518353,1,-0.552308381,1,-0.047793772,1
1.047960281,-4.611456394,1,-2.26666522,1,-9.506374359,1,0.298086762,1,-1.072249174,1,0.141152829,1,0.2159338,1,-0.556491137,1,-0.04820906,1
1.051961899,-4.662273884,1,-2.393607855,1,-9.570577621,1,0.24842824,1,-1.132110596,1,0.16772151,1,0.217265844,1,-0.56091845,1,-0.048607398,1
1.055959344,-4.697921753,1,-2.305540562,1,-9.466535568,1,0.246256486,1,-1.195894599,1,0.181885302,1,0.218451351,1,-0.565621018,1,-0.048996445,1
1.059958816,-4.595890045,1,-2.005732059,1,-9.790355682,1,0.255093962,1,-1.252494812,1,0.197070464,1,0.219652459,1,-0.570567012,1,-0.049372658,1
1.063960314,-4.55313015,1,-2.223992586,1,-10.40865707,1,0.318836182,1,-1.350291848,1,0.225392252,1,0.221019298,1,-0.575820684,1,-0.049753431,1
1.067957759,-4.209876537,1,-2.618530273,1,-10.88707352,1,0.249594316,1,-1.477066994,1,0.256321043,1,0.222386762,1,-0.581548929,1,-0.050103273,1
1.071963429,-4.256801128,1,-2.526808262,1,-10.18096638,1,0.289093703,1,-1.605606914,1,0.27562049,1,0.22362265,1,-0.587804735,1,-0.050501477,1
1.075964928,-4.330256462,1,-2.49001956,1,-10.54488468,1,0.300081879,1,-1.722432375,1,0.304868966,1,0.225104168,1,-0.594549656,1,-0.05092863,1
1.079962611,-4.612319946,1,-2.365113735,1,-10.54291725,1,0.249719456,1,-1.849188805,1,0.331324577,1,0.226437554,1,-0.601807952,1,-0.05136092,1
1.083962083,-4.617928982,1,-2.393630505,1,-10.93079853,1,0.215956569,1,-1.985475183,1,0.353753388,1,0.227646932,1,-0.609586477,1,-0.051838156,1
1.0879637,-4.110832214,1,-2.231011152,1,-10.69319057,1,0.168945163,1,-2.149000645,1,0.358616948,1,0.228702366,1,-0.617941976,1,-0.052425165,1
1.091961384,-4.290584087,1,-2.144531965,1,-10.91420937,1,0.199162468,1,-2.304189205,1,0.37945351,1,0.229877636,1,-0.626966357,1,-0.053145003,1
1.095960855,-4.258375645,1,-1.961242795,1,-10.83226109,1,0.231736347,1,-2.466002703,1,0.385370255,1,0.231228933,1,-0.636602163,1,-0.053984787,1
1.099962115,-4.306943893,1,-1.846083283,1,-10.9870863,1,0.212413326,1,-2.626751184,1,0.401371419,1,0.232736021,1,-0.646876752,1,-0.055001106,1
1.103959799,-4.425684929,1,-1.847327828,1,-10.84462738,1,0.242394432,1,-2.801517963,1,0.403414518,1,0.234359324,1,-0.657817602,1,-0.056193274,1
1.10795927,-4.627876282,1,-1.654856205,1,-11.04147625,1,0.258310765,1,-2.954356194,1,0.420400679,1,0.236236081,1,-0.6693995,1,-0.057577096,1
1.111960888,-5.089694977,1,-1.786778688,1,-11.02163887,1,0.293812066,1,-3.109242439,1,0.435006648,1,0.238284796,1,-0.681586444,1,-0.05909748,1
1.115958571,-6.31584692,1,-2.026372194,1,-11.69265556,1,0.34522593,1,-3.247292042,1,0.475653946,1,0.240597531,1,-0.694376469,1,-0.060731251,1
1.119957805,-5.409598351,1,-2.241411924,1,-12.10396385,1,0.402796388,1,-3.399735689,1,0.485765457,1,0.243169099,1,-0.707715571,1,-0.062408689,1
1.123959303,-4.628260136,1,-2.154877186,1,-11.11792088,1,0.420779586,1,-3.59194088,1,0.502046049,1,0.24613747,1,-0.721766472,1,-0.064403005,1
1.127956986,-5.565912724,1,-2.206773758,1,-11.60485649,1,0.45890972,1,-3.740640402,1,0.53684634,1,0.24930121,1,-0.736507177,1,-0.066519044,1
1.131956458,-6.521010399,1,-2.177604914,1,-11.60876179,1,0.514561594,1,-3.839127302,1,0.570860505,1,0.252735436,1,-0.751757562,1,-0.068733118,1
1.135958076,-7.285666466,1,-2.607115507,1,-11.74689865,1,0.569084704,1,-3.91038084,1,0.614287317,1,0.256448358,1,-0.767352223,1,-0.070954628,1
1.139955401,-7.90545845,1,-3.241639853,1,-12.26386547,1,0.529800057,1,-4.000856876,1,0.662449419,1,0.260215789,1,-0.7832973,1,-0.073165797,1
1.143954992,-8.374587059,1,-3.698703289,1,-12.52700901,1,0.471213132,1,-4.057064056,1,0.720955074,1,0.263731986,1,-0.799578071,1,-0.075319014,1
1.147956491,-7.988155365,1,-3.837567329,1,-12.03870869,1,0.445790291,1,-4.133406639,1,0.776434362,1,0.267044574,1,-0.816165984,1,-0.077343479,1
1.151953936,-7.606594563,1,-4.084672451,1,-11.92828369,1,0.400145322,1,-4.226801872,1,0.838945806,1,0.270180136,1,-0.833148479,1,-0.07929074,1
1.155953407,-7.634207726,1,-4.685575008,1,-11.89810371,1,0.315687865,1,-4.297893047,1,0.92001909,1,0.272948861,1,-0.850515842,1,-0.081072688,1
1.159954906,-7.321168423,1,-4.095946789,1,-11.88729382,1,0.267688364,1,-4.412172794,1,0.993311703,1,0.275282979,1,-0.868312478,1,-0.082653157,1
1.163952351,-7.846704483,1,-4.518323421,1,-11.89441299,1,0.279430956,1,-4.49050045,1,1.071309924,1,0.27746141,1,-0.88656956,1,-0.084036283,1
1.167957783,-8.320884705,1,-5.131874561,1,-11.7796917,1,0.189459741,1,-4.537390709,1,1.151340842,1,0.279279351,1,-0.905157924,1,-0.085146993,1
1.171959281,-8.18085289,1,-4.686537743,1,-11.51341629,1,0.120765552,1,-4.603229046,1,1.219854116,1,0.280521929,1,-0.924021363,1,-0.085948922,1
1.175957203,-8.23316288,1,-4.556241512,1,-11.3156004,1,0.097225912,1,-4.646847725,1,1.303839922,1,0.28134048,1,-0.94320339,1,-0.086429022,1
1.179956794,-8.150588036,1,-4.727469921,1,-11.12356472,1,0.073195986,1,-4.684714317,1,1.372605801,1,0.281746864,1,-0.962621629,1,-0.086514547,1
1.183958292,-8.019457817,1,-4.833403587,1,-10.87191105,1,0.042336345,1,-4.716155529,1,1.443919897,1,0.28171736,1,-0.98224771,1,-0.086193889,1
1.187955976,-8.144382477,1,-4.788488865,1,-10.70757198,1,0.007314241,1,-4.725506783,1,1.514983416,1,0.281153262,1,-1.002028704,1,-0.085404329,1
1.191955447,-8.078104019,1,-4.713114738,1,-10.33226585,1,-0.017226951,1,-4.733284473,1,1.582640052,1,0.279989064,1,-1.021928906,1,-0.084066719,1
1.195956945,-8.078098297,1,-4.478162289,1,-9.917752266,1,-0.020594703,1,-4.723199844,1,1.645089984,1,0.278257132,1,-1.041899443,1,-0.0821383,1
1.199954629,-8.1432724,1,-4.288120747,1,-9.578483582,1,-0.016904572,1,-4.692419052,1,1.688999414,1,0.27595979,1,-1.061843276,1,-0.079583324,1
1.20395422,-7.930092335,1,-3.956265211,1,-9.36436367,1,0.018406058,1,-4.631764889,1,1.719407201,1,0.273176402,1,-1.081644535,1,-0.076417886,1
1.207955718,-7.659670353,1,-3.602813482,1,-9.027750015,1,0.067050673,1,-4.556129932,1,1.726503849,1,0.270043194,1,-1.101207972,1,-0.07268896,1
1.211953402,-6.989841461,1,-3.262491703,1,-8.821700096,1,0.113371298,1,-4.461868286,1,1.708513498,1,0.266674161,1,-1.120434999,1,-0.068536773,1
1.215952873,-6.999391079,1,-2.682368517,1,-8.51361084,1,0.177475378,1,-4.320854187,1,1.666245818,1,0.26320973,1,-1.139167786,1,-0.064060785,1
1.219954491,-5.715438843,1,-2.819324493,1,-9.049668312,1,0.227355003,1,-4.141527653,1,1.616955042,1,0.25967297,1,-1.157224894,1,-0.059288438,1
1.223951817,-4.67105484,1,-3.363494635,1,-9.136205673,1,0.242904127,1,-3.894647121,1,1.543747425,1,0.255901992,1,-1.174392581,1,-0.054147895,1
1.22795105,-3.852461576,1,-4.672811031,1,-10.34775066,1,0.222168148,1,-3.566512108,1,1.444042683,1,0.25183928,1,-1.190379381,1,-0.048771076,1
1.231952667,-1.352030277,1,-3.901848078,1,-12.56443214,1,0.298241228,1,-3.06802392,1,1.338048816,1,0.247520477,1,-1.204626083,1,-0.043040063,1
1.235950112,-7.400053501,1,-4.157928944,1,-12.59725666,1,0.366249204,1,-2.553072929,1,1.293058872,1,0.242633983,1,-1.216813684,1,-0.036368959,1
1.239949822,-9.230779648,1,-4.680522919,1,-14.7893858,1,0.308268487,1,-1.950173855,1,1.20763278,1,0.236420244,1,-1.226785302,1,-0.028345827,1
1.243951321,-6.080340862,1,-3.988073111,1,-14.85906219,1,0.422632962,1,-1.309293032,1,1.013909698,1,0.229872182,1,-1.234153986,1,-0.019894592,1
1.247948766,-3.367735863,1,-3.839138031,1,-13.10497093,1,0.537801087,1,-0.707139552,1,0.818698585,1,0.224162772,1,-1.238877177,1,-0.011782508,1
1.251948237,-1.391007423,1,-4.570075512,1,-12.39848614,1,0.519138515,1,-0.250287473,1,0.698694408,1,0.218906611,1,-1.241373777,1,-0.003972275,1
1.255949855,0.128011167,1,-5.005432606,1,-11.70218277,1,0.475469887,1,0.093672469,1,0.625700414,1,0.213512391,1,-1.242220163,1,0.003828825,1
1.2599473,1.342374802,1,-5.225375652,1,-10.77205181,1,0.426459461,1,0.346210152,1,0.607084334,1,0.207740828,1,-1.241854429,1,0.011837932,1
1.263946772,2.17505908,1,-5.296247482,1,-9.86333847,1,0.339403063,1,0.533638597,1,0.62194103,1,0.201232508,1,-1.240627646,1,0.020356897,1
1.267954469,2.732890129,1,-5.007891655,1,-9.177293777,1,0.228917763,1,0.674884856,1,0.657813728,1,0.194152385,1,-1.238691807,1,0.02829344,1
1.271958232,2.886325359,1,-4.421104431,1,-8.773625374,1,0.118301325,1,0.799490869,1,0.689888179,1,0.185588241,1,-1.236289144,1,0.038072772,1
1.275958061,2.652267933,1,-3.855571747,1,-8.49180603,1,0.050339326,1,0.923154116,1,0.711464465,1,0.176254779,1,-1.233408809,1,0.048305992,1
1.279959559,2.282967091,1,-3.285072803,1,-8.31551075,1,0.028747402,1,1.044887662,1,0.718023598,1,0.166491926,1,-1.230020165,1,0.058812808,1
1.283957243,1.910678148,1,-2.793844461,1,-8.180951118,1,0.04698392,1,1.185155392,1,0.693836093,1,0.156798944,1,-1.226069808,1,0.069253489,1
1.287956715,1.569292665,1,-2.417285442,1,-8.140583992,1,0.092650332,1,1.346872687,1,0.651408672,1,0.147566423,1,-1.221472979,1,0.079363495,1
1.291957974,1.241693139,1,-2.361363173,1,-8.100158691,1,0.147314772,1,1.515676975,1,0.589084148,1,0.139126539,1,-1.216174841,1,0.08885707,1
1.29595542,0.951720417,1,-2.512160301,1,-8.085296631,1,0.187890485,1,1.691349268,1,0.51935184,1,0.131597817,1,-1.210112929,1,0.097613834,1
1.299954653,0.712740421,1,-2.751453161,1,-7.978019714,1,0.21749562,1,1.889189839,1,0.446149707,1,0.124970958,1,-1.203267217,1,0.105576955,1
1.30395627,0.538730323,1,-2.980482101,1,-7.864147186,1,0.210669294,1,2.072096825,1,0.374391884,1,0.11916893,1,-1.195605636,1,0.112720579,1
1.307953954,0.460674107,1,-3.146124125,1,-7.767914772,1,0.180691734,1,2.252996206,1,0.290005326,1,0.114131168,1,-1.187162042,1,0.119002528,1
1.311953187,0.371151,1,-3.314751625,1,-7.680311203,1,0.137545571,1,2.434756517,1,0.209389821,1,0.109772332,1,-1.17794764,1,0.124400653,1
1.315954685,0.238080829,1,-3.397736073,1,-7.612560749,1,0.077723466,1,2.599921465,1,0.130922019,1,0.105984233,1,-1.168010354,1,0.128971666,1
1.319952369,0.132436976,1,-3.414519548,1,-7.544285297,1,0.018462943,1,2.75281167,1,0.050081383,1,0.102783784,1,-1.157404304,1,0.132658526,1
1.323951602,0.049275294,1,-3.272652626,1,-7.548100471,1,-0.032007854,1,2.890286684,1,-0.044814285,1,0.100151926,1,-1.146173239,1,0.135508448,1
1.3279531,-0.134913549,1,-3.01483202,1,-7.558914661,1,-0.059177592,1,3.012571573,1,-0.137076378,1,0.098211356,1,-1.134392738,1,0.137438998,1
1.331950545,-0.382645428,1,-2.803854227,1,-7.558390617,1,-0.072983101,1,3.120464325,1,-0.23873423,1,0.097008243,1,-1.122099876,1,0.138460711,1
1.335950136,-0.664614677,1,-2.654244184,1,-7.56471777,1,-0.068156295,1,3.229743004,1,-0.351401359,1,0.096622825,1,-1.109336615,1,0.138576075,1
1.339951634,-0.949273109,1,-2.581964493,1,-7.579560757,1,-0.046614353,1,3.322945833,1,-0.458781362,1,0.097073413,1,-1.096139073,1,0.137811482,1
1.34394908,-1.182719707,1,-2.610811234,1,-7.537080288,1,-0.03258257,1,3.406629086,1,-0.573732138,1,0.09835019,1,-1.082541347,1,0.136194244,1
1.347948551,-1.39090991,1,-2.743396521,1,-7.594452858,1,-0.014389357,1,3.484675407,1,-0.68385148,1,0.100344166,1,-1.068572044,1,0.133820876,1
1.351950049,-1.655182123,1,-2.846540928,1,-7.614997864,1,-0.002294231,1,3.550494909,1,-0.786164284,1,0.103004634,1,-1.054270387,1,0.130742595,1
1.355947495,-1.894860744,1,-2.898198366,1,-7.674170017,1,0.004039575,1,3.611470699,1,-0.898538589,1,0.106205061,1,-1.039667249,1,0.127044365,1
1.359946966,-2.163907766,1,-2.923968077,1,-7.731594086,1,0.001738742,1,3.665355206,1,-1.00023818,1,0.109900519,1,-1.024793506,1,0.122748047,1
1.363954425,-2.421939611,1,-2.993684769,1,-7.795351505,1,-0.006155489,1,3.704571009,1,-1.10840714,1,0.114028677,1,-1.009674072,1,0.117891155,1
1.367958069,-2.735692501,1,-3.021576643,1,-7.857833385,1,-0.011894417,1,3.735804558,1,-1.217094541,1,0.118507974,1,-0.994345248,1,0.112538397,1
1.371957779,-3.003603697,1,-3.074686766,1,-7.911767483,1,-0.025381494,1,3.769687653,1,-1.315744519,1,0.123299204,1,-0.978827357,1,0.106698513,1
1.375959039,-3.286633015,1,-3.0891366,1,-7.930087566,1,-0.04103741,1,3.791576385,1,-1.413491249,1,0.128313988,1,-0.963140845,1,0.100464083,1
1.379956722,-3.591202736,1,-3.077813387,1,-7.969089508,1,-0.050940089,1,3.812222242,1,-1.498918533,1,0.133492962,1,-0.947296202,1,0.093888901,1
1.383956194,-3.76539588,1,-2.905964851,1,-7.988293171,1,-0.037491333,1,3.813700676,1,-1.578504801,1,0.138808578,1,-0.931347847,1,0.087056942,1
1.387957811,-4.009562969,1,-2.752855539,1,-8.073781967,1,-0.009953427,1,3.809911728,1,-1.658053875,1,0.144346043,1,-0.915336728,1,0.079995148,1
1.391955495,-4.248286247,1,-2.64767766,1,-8.170337677,1,0.042700604,1,3.784796238,1,-1.717598677,1,0.150106356,1,-0.899320602,1,0.072764538,1
1.395954967,-4.434561253,1,-2.629676342,1,-8.290173531,1,0.105155244,1,3.750887871,1,-1.775308371,1,0.156100944,1,-0.883359134,1,0.065429538,1
1.399956465,-4.702281952,1,-2.700954676,1,-8.461136818,1,0.185692772,1,3.706527472,1,-1.814776778,1,0.162357301,1,-0.867486119,1,0.058048289,1
1.40395391,-5.209908485,1,-2.866741419,1,-8.637766838,1,0.262221783,1,3.663524866,1,-1.849568963,1,0.168830931,1,-0.851744533,1,0.050691139,1
1.407953382,-5.891578197,1,-3.177796364,1,-8.879618645,1,0.315702945,1,3.63484478,1,-1.874379277,1,0.17543377,1,-0.8360883,1,0.043411892,1
1.411954999,-6.703460217,1,-3.498212099,1,-9.150903702,1,0.349884301,1,3.637590647,1,-1.89909482,1,0.182044759,1,-0.820445657,1,0.036261808,1
1.415952325,-7.515127182,1,-3.686637402,1,-9.458507538,1,0.362127304,1,3.65119648,1,-1.922880411,1,0.188565418,1,-0.804727316,1,0.029255988,1
1.419951916,-8.357815742,1,-3.8481915,1,-9.649263382,1,0.360334426,1,3.69990778,1,-1.948299527,1,0.194921806,1,-0.788831413,1,0.02239209,1
1.423953414,-9.034161568,1,-4.006733418,1,-9.870114326,1,0.340735555,1,3.768182755,1,-1.982310772,1,0.20105131,1,-0.772642851,1,0.015679857,1
1.427951097,-9.469620705,1,-4.098666191,1,-9.960830688,1,0.30689013,1,3.849152088,1,-2.027567863,1,0.206924811,1,-0.756101012,1,0.009080469,1
1.431950569,-9.725487709,1,-4.07852459,1,-10.04219151,1,0.257511556,1,3.929142475,1,-2.074931622,1,0.212485358,1,-0.739163756,1,0.002561085,1
1.435952187,-9.88186264,1,-4.074865818,1,-10.01918316,1,0.207821727,1,3.998656034,1,-2.123261213,1,0.217724606,1,-0.7218678,1,-0.003912948,1
1.439949512,-9.932091713,1,-3.873973846,1,-10.04618073,1,0.161787078,1,4.054042816,1,-2.177047491,1,0.222682342,1,-0.704260528,1,-0.010359216,1
1.443949103,-9.983555794,1,-3.900332928,1,-10.04924488,1,0.126862094,1,4.082223892,1,-2.221145868,1,0.22738944,1,-0.68644011,1,-0.016800163,1
1.447950602,-10.15618896,1,-3.939793825,1,-9.865062714,1,0.079041988,1,4.092712402,1,-2.267595291,1,0.231831476,1,-0.6684708,1,-0.023240473,1
1.451948285,-10.35430813,1,-3.885291576,1,-9.734273911,1,0.022913244,1,4.098857403,1,-2.304080486,1,0.235980898,1,-0.650409281,1,-0.029688271,1
1.455947995,-10.74713993,1,-3.848218679,1,-9.700081825,1,-0.0337683,1,4.099860191,1,-2.345840693,1,0.239820957,1,-0.632279515,1,-0.036138341,1
1.459955454,-11.14795876,1,-3.662758827,1,-9.608845711,1,-0.087176204,1,4.097436428,1,-2.387259722,1,0.243371397,1,-0.614098012,1,-0.042630095,1
1.463959098,-11.45101738,1,-3.216076612,1,-9.478405952,1,-0.117222771,1,4.086596966,1,-2.432095766,1,0.246675357,1,-0.595880508,1,-0.049169526,1
1.467958808,-11.58327103,1,-2.670276642,1,-9.377447128,1,-0.132372722,1,4.053544044,1,-2.477972269,1,0.249839827,1,-0.577677786,1,-0.055798065,1
1.471960068,-11.69303036,1,-2.243539572,1,-9.324918747,1,-0.102366678,1,4.000948429,1,-2.517421007,1,0.252989173,1,-0.559574544,1,-0.062526889,1
1.475957751,-11.9817276,1,-2.079402685,1,-9.124345779,1,-0.068792745,1,3.926876545,1,-2.534189224,1,0.256190896,1,-0.54168427,1,-0.069313541,1
1.479957223,-12.1989994,1,-2.077155113,1,-8.878163338,1,-0.035155937,1,3.838837624,1,-2.527793407,1,0.259430379,1,-0.524076462,1,-0.076096632,1
1.48395884,-12.37541771,1,-1.990180373,1,-8.561137199,1,-0.022040119,1,3.729436874,1,-2.490157843,1,0.262606055,1,-0.506867588,1,-0.082762025,1
1.487956524,-12.46884251,1,-1.899710536,1,-8.276549339,1,-0.005004182,1,3.611534834,1,-2.434029579,1,0.265648544,1,-0.490120083,1,-0.089226268,1
1.491955996,-12.50390053,1,-1.691233277,1,-8.012203217,1,-0.005344274,1,3.466396809,1,-2.34993124,1,0.268505186,1,-0.473936528,1,-0.095436826,1
1.495957732,-12.46740341,1,-1.605148673,1,-7.816173553,1,-0.005450665,1,3.296206236,1,-2.237540722,1,0.271113724,1,-0.458452106,1,-0.101309009,1
1.499955416,-12.64553738,1,-1.562632322,1,-7.670875072,1,0.023451896,1,3.122509718,1,-2.114625454,1,0.27353555,1,-0.443741858,1,-0.106787279,1
1.503954649,-13.11160564,1,-1.369452715,1,-7.708904266,1,0.05882265,1,2.941154242,1,-1.978811026,1,0.275838435,1,-0.42985034,1,-0.111840971,1
1.507956266,-13.77084255,1,-1.319854259,1,-7.630858898,1,0.091016315,1,2.776676178,1,-1.849826217,1,0.278048843,1,-0.416755587,1,-0.116491489,1
1.51195395,-14.508111,1,-1.570705533,1,-7.598426819,1,0.131201923,1,2.658308744,1,-1.723357201,1,0.280182213,1,-0.404347777,1,-0.120714828,1
1.515953183,-15.13703728,1,-1.845653296,1,-7.557585716,1,0.153470129,1,2.581027985,1,-1.611666799,1,0.28212136,1,-0.392383039,1,-0.124810942,1
1.519954681,-15.5322752,1,-2.115760326,1,-7.410397053,1,0.139370367,1,2.532155037,1,-1.515841961,1,0.283997476,1,-0.380830348,1,-0.128216878,1
1.523952365,-15.79224968,1,-2.408358812,1,-7.289423943,1,0.117089048,1,2.502959013,1,-1.42150116,1,0.285626203,1,-0.369521141,1,-0.131241947,1
1.527951837,-15.94984436,1,-2.67564249,1,-7.220617294,1,0.072294533,1,2.484796286,1,-1.331065178,1,0.286937654,1,-0.358396709,1,-0.133877039,1
1.531953454,-16.22279549,1,-3.053495646,1,-7.079945087,1,0.011149736,1,2.483246803,1,-1.252850771,1,0.287901998,1,-0.347403705,1,-0.136163846,1
1.535950899,-16.37762833,1,-3.254419088,1,-6.741832733,1,-0.060430337,1,2.495682716,1,-1.172865868,1,0.288446188,1,-0.336481988,1,-0.138093933,1
1.539950371,-16.33584785,1,-3.37128067,1,-6.383025646,1,-0.132643968,1,2.521871567,1,-1.096464157,1,0.288564622,1,-0.325571001,1,-0.139668822,1
1.543951869,-16.26290894,1,-3.172675371,1,-6.052444935,1,-0.185167149,1,2.543473959,1,-1.033022285,1,0.288320541,1,-0.314647496,1,-0.140935853,1
1.547949314,-16.05078125,1,-2.65985775,1,-5.724439144,1,-0.213509887,1,2.55400157,1,-0.979044259,1,0.287817538,1,-0.303720206,1,-0.141939402,1
1.551948786,-15.75627518,1,-2.198984623,1,-5.379475594,1,-0.198647127,1,2.544055939,1,-0.948880732,1,0.287226558,1,-0.292839646,1,-0.142770767,1
1.555950046,-15.42381191,1,-1.644248128,1,-5.029442787,1,-0.139504611,1,2.516569376,1,-0.922255814,1,0.286759377,1,-0.282064915,1,-0.143517494,1
1.55995369,-15.13430405,1,-1.205837965,1,-4.614224434,1,-0.053434152,1,2.464896202,1,-0.912588716,1,0.28657493,1,-0.271461904,1,-0.144253165,1
1.563953161,-14.71367931,1,-0.927154005,1,-4.211741447,1,0.040177505,1,2.392794609,1,-0.908388197,1,0.286754072,1,-0.261108786,1,-0.145020559,1
1.567954421,-14.21358204,1,-0.736804485,1,-3.72630167,1,0.125676617,1,2.293972969,1,-0.901418626,1,0.287301511,1,-0.251092762,1,-0.145873979,1
1.571952105,-13.59084511,1,-0.672212481,1,-3.319943905,1,0.197165564,1,2.169906139,1,-0.887011766,1,0.288176656,1,-0.241510853,1,-0.146797299,1
1.575951576,-13.08782578,1,-0.570452154,1,-3.010455132,1,0.233929127,1,2.021145105,1,-0.861732185,1,0.289286017,1,-0.232476026,1,-0.147792682,1
1.579952955,-12.74772549,1,-0.507898748,1,-2.779933453,1,0.240217179,1,1.858292699,1,-0.832365274,1,0.290476143,1,-0.224059582,1,-0.148850918,1
1.583950639,-12.50294495,1,-0.328861475,1,-2.671282291,1,0.230269775,1,1.692443609,1,-0.793210268,1,0.291664481,1,-0.216322988,1,-0.149958238,1
1.58795011,-12.38168621,1,-0.112204157,1,-2.595949411,1,0.210931852,1,1.515302539,1,-0.75064671,1,0.292775005,1,-0.209294632,1,-0.151079565,1
1.591951609,-12.22708893,1,0.100904793,1,-2.560237885,1,0.169641629,1,1.343715429,1,-0.704971313,1,0.29377383,1,-0.202975869,1,-0.152235806,1
1.595949054,-12.08968449,1,0.202276736,1,-2.558976173,1,0.122886859,1,1.170603633,1,-0.661500633,1,0.29459402,1,-0.197361842,1,-0.153421983,1
1.599948525,-11.9663105,1,0.276514113,1,-2.546389818,1,0.06252934,1,0.996709049,1,-0.608437836,1,0.295199692,1,-0.192474246,1,-0.154616848,1
1.603950024,-11.91999626,1,0.245095894,1,-2.601871967,1,0.002682288,1,0.837122202,1,-0.554625273,1,0.295554876,1,-0.188284874,1,-0.155795291,1
1.607947826,-11.78034401,1,0.272143215,1,-2.642257452,1,-0.073317349,1,0.682864189,1,-0.488233238,1,0.295627445,1,-0.184775457,1,-0.15692161,1
1.61194706,-11.67658329,1,0.292127907,1,-2.658215523,1,-0.142458111,1,0.539164901,1,-0.42302677,1,0.295386434,1,-0.181914374,1,-0.157966837,1
1.615948558,-11.52869034,1,0.219291568,1,-2.833876848,1,-0.206503391,1,0.397773415,1,-0.346495867,1,0.294844151,1,-0.179674029,1,-0.158899829,1
1.619946241,-11.39156342,1,0.187429562,1,-2.939626217,1,-0.259317607,1,0.269875318,1,-0.266720355,1,0.294045866,1,-0.17804423,1,-0.159691662,1
1.623945713,-11.3281126,1,0.15575701,1,-3.114230394,1,-0.296527445,1,0.143030718,1,-0.186237007,1,0.293044627,1,-0.17699039,1,-0.160329208,1
1.627947211,-11.18048477,1,0.11282666,1,-3.230764627,1,-0.32171908,1,0.029437652,1,-0.104148991,1,0.291889429,1,-0.176496446,1,-0.16078423,1
1.631944656,-11.01016426,1,-0.048527841,1,-3.40880847,1,-0.334985286,1,-0.077260584,1,-0.017774867,1,0.290638208,1,-0.176514536,1,-0.161051005,1
1.635944247,-10.84604168,1,-0.298979163,1,-3.610574961,1,-0.347544312,1,-0.179756045,1,0.063819841,1,0.289281011,1,-0.17703487,1,-0.161114767,1
1.639945745,-10.58560944,1,-0.610737145,1,-3.802475691,1,-0.360021442,1,-0.27553156,1,0.164093584,1,0.28783381,1,-0.178034052,1,-0.16093564,1
1.643943191,-10.33027935,1,-0.89327842,1,-4.029307842,1,-0.364207506,1,-0.366351813,1,0.252901584,1,0.286301553,1,-0.179495439,1,-0.160495624,1
1.647942662,-10.1290617,1,-1.084410787,1,-4.235870838,1,-0.369958997,1,-0.447812289,1,0.348137677,1,0.284695476,1,-0.181393668,1,-0.159787476,1
1.65194416,-9.983459473,1,-1.34006989,1,-4.453624249,1,-0.374579459,1,-0.522984207,1,0.433354825,1,0.283029675,1,-0.183688626,1,-0.158817396,1
1.655947804,-9.867835999,1,-1.680123806,1,-4.622337341,1,-0.366905749,1,-0.585744262,1,0.516356587,1,0.281323671,1,-0.186354086,1,-0.15758498,1
1.659947276,-9.728391647,1,-1.948215485,1,-4.873859882,1,-0.363146096,1,-0.632636845,1,0.591521144,1,0.2795856,1,-0.189308912,1,-0.156108454,1
1.663948774,-9.447616577,1,-2.137169838,1,-5.071246624,1,-0.346210629,1,-0.674168408,1,0.652445138,1,0.277848184,1,-0.192501575,1,-0.154402494,1
1.667946458,-9.167380333,1,-2.286653042,1,-5.213078499,1,-0.328126729,1,-0.708603621,1,0.694574475,1,0.276134908,1,-0.195904195,1,-0.152528256,1
1.67194593,-8.89662075,1,-2.462545395,1,-5.419194698,1,-0.30119589,1,-0.739150941,1,0.727116406,1,0.274484128,1,-0.199474171,1,-0.150543302,1
1.675947309,-7.58503437,1,-2.969729185,1,-6.392931938,1,-0.307653636,1,-0.791352332,1,0.73420471,1,0.272893131,1,-0.203183979,1,-0.148506463,1
1.679944992,1.024432421,1,-5.632328987,1,-17.74314117,1,-0.56012696,1,-1.353272676,1,0.730804622,1,0.270853281,1,-0.207893744,1,-0.146772251,1
1.683944464,2.503530979,1,-6.373504162,1,-16.65138245,1,-0.626900256,1,-2.016968489,1,0.820861876,1,0.268118531,1,-0.215355337,1,-0.145588413,1
1.687945962,5.338007927,1,-6.904809475,1,-10.2601347,1,-0.520351946,1,-1.929634809,1,0.924642324,1,0.265485436,1,-0.224072039,1,-0.144471884,1
1.691943645,16.99540138,1,-7.657986164,1,-14.60771179,1,-0.512309909,1,-1.868673801,1,0.826013267,1,0.26320374,1,-0.232226551,1,-0.1428857,1
1.695943117,3.5677948,1,-5.749684811,1,-16.41001511,1,-0.65121752,1,-1.900519729,1,0.598411143,1,0.260675967,1,-0.240228608,1,-0.142055631,1
1.699944735,0.500188112,1,-3.042403221,1,-11.51359558,1,-0.516887307,1,-1.899942875,1,0.445465297,1,0.258203208,1,-0.248098433,1,-0.141969562,1
1.703942418,-2.059117794,1,-1.64684093,1,-8.766759872,1,-0.32831642,1,-2.013230085,1,0.226721525,1,0.256735921,1,-0.25597018,1,-0.142696157,1
1.707941651,-2.6416471,1,-0.746104717,1,-8.418233871,1,-0.19638212,1,-2.224734306,1,0.133384094,1,0.256042421,1,-0.264316082,1,-0.14420177,1
1.711943388,-3.385754108,1,-0.909429193,1,-9.109617233,1,-0.100263879,1,-2.427919626,1,0.083931439,1,0.255991071,1,-0.273466915,1,-0.146245152,1
1.715941072,-4.976183891,1,-0.936953187,1,-10.69471455,1,-0.009314474,1,-2.48004055,1,0.073519818,1,0.256414473,1,-0.283075601,1,-0.148529753,1
1.719940662,-6.90291357,1,-0.486001164,1,-12.13734531,1,0.06711714,1,-2.421295404,1,0.115922891,1,0.25716722,1,-0.292677015,1,-0.15077205,1
1.723942399,-8.98597908,1,-0.110227689,1,-13.32409954,1,0.08172033,1,-2.273916245,1,0.208739966,1,0.258038878,1,-0.30193615,1,-0.152637318,1
1.727940083,-10.65843391,1,0.10381493,1,-13.73892212,1,0.073814809,1,-2.030842781,1,0.330507636,1,0.258690178,1,-0.31055212,1,-0.153856114,1
1.731939554,-11.61104679,1,0.335232288,1,-13.72169209,1,0.088643961,1,-1.765089393,1,0.439035773,1,0.259168208,1,-0.318282217,1,-0.154331252,1
1.735941172,-11.38113308,1,0.755469024,1,-13.02014256,1,0.11638511,1,-1.50538516,1,0.505872965,1,0.259524465,1,-0.32507965,1,-0.154150173,1
1.739938855,-10.17986679,1,0.664369643,1,-12.42399311,1,0.160886869,1,-1.28563416,1,0.489019662,1,0.259887457,1,-0.330966741,1,-0.153603613,1
1.743938327,-8.687544823,1,-0.413885236,1,-11.70881176,1,0.213577151,1,-1.126528502,1,0.412266582,1,0.260459989,1,-0.336089313,1,-0.15305984,1
1.747939825,-7.102186203,1,-1.685059786,1,-10.82732964,1,0.259884864,1,-1.020141006,1,0.313745201,1,0.26131326,1,-0.340613067,1,-0.152736858,1
1.751937509,-5.680971146,1,-2.734133005,1,-10.01093102,1,0.294252634,1,-0.95961386,1,0.221762881,1,0.262420624,1,-0.344703317,1,-0.152723819,1
1.755943179,-4.715038776,1,-3.115725279,1,-9.303531647,1,0.295079976,1,-0.938856363,1,0.159041673,1,0.263691992,1,-0.348554164,1,-0.152992934,1
1.759944677,-4.140417576,1,-3.047374964,1,-9.010551453,1,0.296944886,1,-0.93029207,1,0.127485022,1,0.265037209,1,-0.352302074,1,-0.153443903,1
1.763942599,-3.833582401,1,-2.690695763,1,-8.939328194,1,0.293074995,1,-0.9289428,1,0.115083456,1,0.266390592,1,-0.35602212,1,-0.153994605,1
1.76794219,-3.795871496,1,-2.305666208,1,-8.936307907,1,0.293432564,1,-0.919721842,1,0.114353113,1,0.267736375,1,-0.359639347,1,-0.154763848,1
1.77194345,-3.69513917,1,-2.358165741,1,-8.854279518,1,0.29289645,1,-0.911454558,1,0.121286586,1,0.269096851,1,-0.363288522,1,-0.155315921,1
1.775941133,-3.819919825,1,-2.614997149,1,-8.633601189,1,0.287371904,1,-0.900529444,1,0.135075301,1,0.270438194,1,-0.366919816,1,-0.155816406,1
1.779940367,-4.042799473,1,-3.125741482,1,-8.586348534,1,0.279426157,1,-0.890696168,1,0.148314565,1,0.271741092,1,-0.370521367,1,-0.156267509,1
1.783942103,-4.026269913,1,-3.600099564,1,-8.72455883,1,0.246161506,1,-0.867023349,1,0.154377893,1,0.272938073,1,-0.374050617,1,-0.156640097,1
1.787939787,-4.234079838,1,-4.2053895,1,-8.411117554,1,0.204452679,1,-0.843194246,1,0.16841875,1,0.273960054,1,-0.377533913,1,-0.156967327,1
1.79193902,-4.356284142,1,-4.55740881,1,-8.345495224,1,0.138816431,1,-0.818065941,1,0.183469176,1,0.274725497,1,-0.380919665,1,-0.157201603,1
1.795940638,-4.402339935,1,-4.733717918,1,-8.238604546,1,0.062035736,1,-0.779443264,1,0.213171288,1,0.275167048,1,-0.38421315,1,-0.157307789,1
1.799938083,-4.430127621,1,-4.539473057,1,-8.165474892,1,-0.016711885,1,-0.741595507,1,0.235431656,1,0.275244355,1,-0.387380064,1,-0.157273039,1
1.803937554,-4.321196556,1,-4.28088665,1,-8.140206337,1,-0.087272711,1,-0.706270993,1,0.26553148,1,0.274956554,1,-0.39044255,1,-0.157082409,1
1.807939053,-4.217015743,1,-3.909131765,1,-8.205168724,1,-0.157397658,1,-0.676505208,1,0.296945423,1,0.274328887,1,-0.393409073,1,-0.156726286,1
1.811936736,-4.041285515,1,-3.629392624,1,-8.335853577,1,-0.22002995,1,-0.654141545,1,0.327555418,1,0.273371816,1,-0.396303535,1,-0.156217143,1
1.815936565,-4.125353336,1,-3.381503582,1,-8.417600632,1,-0.285341203,1,-0.625436962,1,0.348266959,1,0.272108346,1,-0.399129361,1,-0.155550972,1
1.819938064,-4.221832275,1,-3.278427601,1,-8.451389313,1,-0.336989909,1,-0.606696248,1,0.367978156,1,0.270558804,1,-0.401886523,1,-0.154764786,1
1.823935509,-4.27714777,1,-3.201521158,1,-8.515346527,1,-0.388382107,1,-0.58302474,1,0.37462011,1,0.268753588,1,-0.40457359,1,-0.153882518,1
1.82793498,-4.29872179,1,-3.022418022,1,-8.681128502,1,-0.420969874,1,-0.567855299,1,0.372928113,1,0.266769141,1,-0.407182097,1,-0.152961493,1
1.831936479,-4.304288387,1,-2.717974186,1,-8.736914635,1,-0.449050397,1,-0.55852145,1,0.365930587,1,0.264667153,1,-0.409739852,1,-0.152056888,1
1.835934162,-4.222055435,1,-2.266127825,1,-8.876825333,1,-0.458327174,1,-0.551885664,1,0.358250499,1,0.26249209,1,-0.412259877,1,-0.151155815,1
1.839933753,-4.227221489,1,-1.760481119,1,-9.100385666,1,-0.457503825,1,-0.541350961,1,0.354937464,1,0.260293812,1,-0.414745778,1,-0.150259286,1
1.843935251,-4.416916847,1,-1.457616448,1,-9.258579254,1,-0.441521525,1,-0.527970314,1,0.352499187,1,0.258135438,1,-0.417179435,1,-0.149378851,1
1.847932935,-4.448682785,1,-0.997501612,1,-9.369235992,1,-0.426036268,1,-0.50780803,1,0.333341628,1,0.256043017,1,-0.41953361,1,-0.148494691,1
1.851938605,-4.559062481,1,-0.940327585,1,-9.382130623,1,-0.392249286,1,-0.48849678,1,0.311760426,1,0.254077494,1,-0.421787351,1,-0.14768225,1
1.855940104,-4.602175236,1,-1.065984964,1,-9.323836327,1,-0.350614399,1,-0.47142908,1,0.298507869,1,0.252271295,1,-0.423943728,1,-0.146908432,1
1.859937787,-4.440074444,1,-1.194244027,1,-9.262695313,1,-0.324866414,1,-0.453794807,1,0.28402558,1,0.250616848,1,-0.426021487,1,-0.146174744,1
1.86393702,-4.229660988,1,-1.374815226,1,-9.082612038,1,-0.292857379,1,-0.453914255,1,0.273628443,1,0.24909611,1,-0.428052276,1,-0.145478085,1
1.867938519,-4.120996475,1,-1.557934165,1,-8.897724152,1,-0.274436384,1,-0.457297295,1,0.263379872,1,0.247687533,1,-0.430079341,1,-0.144823313,1
1.871936202,-4.091832638,1,-1.781336665,1,-8.823858261,1,-0.266711503,1,-0.466666698,1,0.265090674,1,0.246350899,1,-0.432123363,1,-0.14418155,1
1.875935793,-4.056164265,1,-2.01253438,1,-8.763030052,1,-0.274858296,1,-0.473207653,1,0.282090425,1,0.244996578,1,-0.434210598,1,-0.143514261,1
1.879937291,-4.004649162,1,-2.199354649,1,-8.644168854,1,-0.291992068,1,-0.481031746,1,0.300267965,1,0.243550688,1,-0.436335713,1,-0.142772555,1
1.883934736,-3.983571529,1,-2.38682127,1,-8.528356552,1,-0.317293763,1,-0.486855149,1,0.308538675,1,0.242011264,1,-0.438511461,1,-0.141975701,1
1.887933969,-4.051965237,1,-2.559172392,1,-8.436047554,1,-0.340540946,1,-0.491990179,1,0.320570946,1,0.240344331,1,-0.440714657,1,-0.141143531,1
1.891935468,-4.021972656,1,-2.756379604,1,-8.327610016,1,-0.374482244,1,-0.500314116,1,0.33404842,1,0.238535613,1,-0.442946017,1,-0.140258595,1
1.895932913,-3.991875648,1,-2.823848963,1,-8.303404808,1,-0.409036428,1,-0.497946709,1,0.338997185,1,0.236564502,1,-0.445197999,1,-0.139323935,1
1.899932384,-3.973061085,1,-2.819234848,1,-8.322040558,1,-0.451720685,1,-0.502797663,1,0.351338178,1,0.234422371,1,-0.447477192,1,-0.138353005,1
1.903928041,-4.057313919,1,-2.759390354,1,-8.272168159,1,-0.50552386,1,-0.502180219,1,0.355095506,1,0.232073084,1,-0.449768335,1,-0.137341112,1
1.907925487,-4.209155083,1,-2.762132406,1,-8.31274128,1,-0.547429502,1,-0.503024638,1,0.366048723,1,0.229521751,1,-0.452049971,1,-0.136300758,1
1.911925197,-4.34575367,1,-3.049892187,1,-8.331501961,1,-0.592051685,1,-0.497098893,1,0.380901158,1,0.226756424,1,-0.454329789,1,-0.135191306,1
1.915921211,-4.981600761,1,-3.301680088,1,-8.497528076,1,-0.64874649,1,-0.452434003,1,0.399542123,1,0.2237169,1,-0.456537873,1,-0.133950159,1
1.919918537,-5.958921909,1,-3.698295593,1,-8.620191574,1,-0.696261585,1,-0.370241821,1,0.423505247,1,0.220413178,1,-0.458518863,1,-0.132553682,1
1.923918366,-6.976173878,1,-2.811858416,1,-9.15772438,1,-0.689733207,1,-0.284477592,1,0.363079458,1,0.216971576,1,-0.460153341,1,-0.131123155,1
1.927914023,-7.325664997,1,-0.438006371,1,-9.660897255,1,-0.58626318,1,-0.175110787,1,0.26245898,1,0.213928267,1,-0.461324185,1,-0.130007342,1
1.931911707,-3.615389585,1,-0.471785992,1,-8.400087357,1,-0.583789289,1,-0.176571533,1,0.250992656,1,0.211181521,1,-0.462186784,1,-0.129058644,1
1.935911179,-4.526114941,1,-0.848326445,1,-9.149500847,1,-0.571872234,1,-0.20743084,1,0.230271667,1,0.208467975,1,-0.463148594,1,-0.128168494,1
1.939912677,-6.077717304,1,-0.690744877,1,-9.661979675,1,-0.502528071,1,-0.149379238,1,0.153456882,1,0.206015423,1,-0.464005947,1,-0.127508238,1
1.94391036,-4.580395699,1,-1.735693693,1,-8.432678223,1,-0.484212935,1,-0.115999095,1,0.150908336,1,0.203818858,1,-0.464630306,1,-0.126968756,1
1.947909832,-4.5111413,1,-2.012212276,1,-8.514346123,1,-0.461470842,1,-0.122782975,1,0.147968233,1,0.201681927,1,-0.465233684,1,-0.126418054,1
1.951911688,-4.764300823,1,-1.763715506,1,-8.886276245,1,-0.44053632,1,-0.100841448,1,0.132990792,1,0.199643791,1,-0.465784848,1,-0.125901312,1
1.95590961,-4.475907803,1,-1.43014133,1,-8.723443031,1,-0.424920797,1,-0.091128536,1,0.124913067,1,0.19769907,1,-0.466262311,1,-0.125424713,1
1.959909081,-4.559613705,1,-1.327606559,1,-8.773766518,1,-0.402602643,1,-0.087408125,1,0.115728483,1,0.195845276,1,-0.466708034,1,-0.124977916,1
1.963904738,-4.62486887,1,-1.316216111,1,-8.873238564,1,-0.379130274,1,-0.086810552,1,0.096899562,1,0.194116652,1,-0.467137247,1,-0.124591663,1
1.967902184,-4.484113216,1,-1.4067626,1,-8.732686043,1,-0.354413003,1,-0.079949431,1,0.087813199,1,0.19250077,1,-0.467543542,1,-0.124254175,1
1.971901655,-4.532316685,1,-1.509294868,1,-8.753238678,1,-0.332086116,1,-0.079191446,1,0.075480036,1,0.190997079,1,-0.467916876,1,-0.123961747,1
1.975897551,-4.471208096,1,-1.532325745,1,-8.732991219,1,-0.315059066,1,-0.075195819,1,0.068895034,1,0.18959251,1,-0.468293369,1,-0.123711787,1
1.979894996,-4.488120079,1,-1.584170461,1,-8.706735611,1,-0.301853299,1,-0.073157616,1,0.056293927,1,0.188254446,1,-0.468640238,1,-0.123494722,1
1.983894587,-4.560584545,1,-1.547806144,1,-8.709359169,1,-0.288966537,1,-0.077331506,1,0.058926914,1,0.186988577,1,-0.468978405,1,-0.123305224,1
1.987896085,-4.482858658,1,-1.553097367,1,-8.575259209,1,-0.269279838,1,-0.068304762,1,0.053364933,1,0.185776412,1,-0.469306648,1,-0.123120852,1
1.99189353,-4.626608849,1,-1.597810507,1,-8.633861542,1,-0.258385003,1,-0.059908185,1,0.048298281,1,0.184634462,1,-0.469592422,1,-0.122949868,1
1.995893002,-4.604855061,1,-1.673779368,1,-8.623908997,1,-0.248480767,1,-0.057695217,1,0.043538198,1,0.183551252,1,-0.469855368,1,-0.122791335,1
1.9998945,-4.603838921,1,-1.67243135,1,-8.586449623,1,-0.2386273,1,-0.048760306,1,0.045413762,1,0.182505116,1,-0.470093489,1,-0.122634165,1
2.003891945,-4.563680649,1,-1.695558548,1,-8.571927071,1,-0.228464052,1,-0.04281142,1,0.041679114,1,0.181502268,1,-0.470303208,1,-0.122480974,1
2.007891417,-4.52772522,1,-1.65988028,1,-8.506824493,1,-0.211395606,1,-0.039606925,1,0.037417419,1,0.180551991,1,-0.470505476,1,-0.122335605,1
2.011887074,-4.592083454,1,-1.617753863,1,-8.601688385,1,-0.199323475,1,-0.034944057,1,0.035876691,1,0.179678723,1,-0.470673859,1,-0.122197062,1
2.015884876,-4.610701084,1,-1.652611732,1,-8.610590935,1,-0.192553908,1,-0.031816848,1,0.038917128,1,0.179341167,1,-0.471464127,1,-0.12289039,1
2.019884348,-4.584256172,1,-1.68079114,1,-8.569719315,1,-0.183868214,1,-0.024970807,1,0.040107597,1,0.17851609,1,-0.471616834,1,-0.122741364,1
2.023879766,-4.588397503,1,-1.638860345,1,-8.585449219,1,-0.176613763,1,-0.024627967,1,0.037630249,1,0.177724317,1,-0.471741706,1,-0.122580089,1
2.027877331,-4.562436104,1,-1.649012089,1,-8.5571661,1,-0.171804756,1,-0.019127464,1,0.049730875,1,0.176952913,1,-0.471860051,1,-0.12240652,1
2.031876802,-4.622326851,1,-1.671402574,1,-8.669226646,1,-0.167470172,1,-0.023590183,1,0.044812724,1,0.176191553,1,-0.471965432,1,-0.122219436,1
2.035872459,-4.484047413,1,-1.576168776,1,-8.583452225,1,-0.153564811,1,-0.016689694,1,0.047553066,1,0.175464794,1,-0.472070396,1,-0.122032024,1
2.039870024,-4.61665535,1,-1.559414387,1,-8.638346672,1,-0.149789333,1,-0.018919399,1,0.046773687,1,0.174773186,1,-0.472168654,1,-0.121843457,1
2.043869495,-4.530885696,1,-1.5432688,1,-8.598818779,1,-0.141186804,1,-0.024810381,1,0.042525377,1,0.174099818,1,-0.472280592,1,-0.121655725,1
2.047871113,-4.389986515,1,-1.542382956,1,-8.481321335,1,-0.133237198,1,-0.019764118,1,0.048424367,1,0.173459589,1,-0.472410053,1,-0.121472836,1
2.051868916,-4.469997406,1,-1.520043135,1,-8.66426754,1,-0.112244502,1,-0.022667918,1,0.048966788,1,0.172886789,1,-0.472521722,1,-0.121283747,1
2.055868387,-4.485169411,1,-1.485720754,1,-8.639940262,1,-0.107482783,1,-0.02036312,1,0.04831418,1,0.172359005,1,-0.472649604,1,-0.121097431,1
2.059870005,-4.471547604,1,-1.455473304,1,-8.580811501,1,-0.106881917,1,-0.028068824,1,0.044533476,1,0.171857208,1,-0.472786099,1,-0.120923325,1
2.063867331,-4.321481228,1,-1.585818529,1,-8.475165367,1,-0.093003228,1,-0.019686619,1,0.044933878,1,0.171373308,1,-0.472907603,1,-0.12073683,1
2.067866802,-4.421740055,1,-1.577075243,1,-8.718453407,1,-0.081309855,1,-0.025884679,1,0.043289561,1,0.170946732,1,-0.473025709,1,-0.120556466,1
2.071862459,-4.430770397,1,-1.504969716,1,-8.607686043,1,-0.066895381,1,-0.024420286,1,0.041888084,1,0.170570895,1,-0.473163337,1,-0.120383538,1
2.075860023,-4.452735901,1,-1.435611606,1,-8.67343235,1,-0.069625109,1,-0.027950868,1,0.046377033,1,0.170207068,1,-0.473303109,1,-0.1201979,1
2.079859734,-4.531463146,1,-1.518417478,1,-8.68222332,1,-0.066291645,1,-0.03581908,1,0.049591281,1,0.169842765,1,-0.473456889,1,-0.120007098,1
2.083855629,-4.548906803,1,-1.614092946,1,-8.638103485,1,-0.069179662,1,-0.032061584,1,0.05488747,1,0.169477612,1,-0.473624349,1,-0.119794175,1
2.087852955,-4.496245861,1,-1.684371471,1,-8.601320267,1,-0.055914253,1,-0.025218569,1,0.061350837,1,0.169119284,1,-0.473779351,1,-0.119567044,1
2.091852903,-4.48540163,1,-1.524304867,1,-8.681415558,1,-0.057634234,1,-0.030041628,1,0.062307253,1,0.168781057,1,-0.473934054,1,-0.119318627,1
2.09584856,-4.527178764,1,-1.496680975,1,-8.675404549,1,-0.058675278,1,-0.037896849,1,0.05918492,1,0.168439418,1,-0.474108249,1,-0.119066261,1
2.099846125,-4.428616047,1,-1.523965716,1,-8.591654778,1,-0.053926777,1,-0.03713901,1,0.064397864,1,0.168090925,1,-0.474296093,1,-0.118814953,1
2.103845596,-4.368286133,1,-1.479759693,1,-8.487117767,1,-0.054331545,1,-0.033505172,1,0.061517119,1,0.167754322,1,-0.47448355,1,-0.118563443,1
2.107841015,-4.457674026,1,-1.52021718,1,-8.675974846,1,-0.056041725,1,-0.03286707,1,0.052866369,1,0.167438105,1,-0.474648803,1,-0.118322387,1
2.111838818,-4.532287598,1,-1.679469824,1,-8.682508469,1,-0.059889026,1,-0.029720403,1,0.052608889,1,0.1671177,1,-0.474801481,1,-0.11812374,1
2.115838289,-4.449733257,1,-1.654070735,1,-8.656664848,1,-0.073766783,1,-0.038398243,1,0.064760149,1,0.166743413,1,-0.474981219,1,-0.117887817,1
2.119839907,-4.37871933,1,-1.647697926,1,-8.479722023,1,-0.075007282,1,-0.03934769,1,0.066788569,1,0.166322693,1,-0.475183249,1,-0.117613502,1
2.123837709,-4.425318718,1,-1.614783406,1,-8.700793266,1,-0.065212823,1,-0.040064104,1,0.068149619,1,0.165929571,1,-0.475381196,1,-0.117340662,1
2.127837181,-4.433797836,1,-1.453899264,1,-8.697221756,1,-0.076440834,1,-0.048356041,1,0.073126882,1,0.16552642,1,-0.47560972,1,-0.11706347,1
2.131832838,-4.498012543,1,-1.549135208,1,-8.674075127,1,-0.081334628,1,-0.057463121,1,0.080317035,1,0.165067628,1,-0.475868464,1,-0.116754889,1
2.135830164,-4.30933094,1,-1.513663769,1,-8.510233879,1,-0.081004359,1,-0.058809467,1,0.079665273,1,0.164601013,1,-0.476155013,1,-0.116442181,1
2.139829874,-4.405146599,1,-1.578552961,1,-8.746786118,1,-0.061146718,1,-0.058210324,1,0.081588216,1,0.164187953,1,-0.476426184,1,-0.116138361,1
2.143831253,-4.380521774,1,-1.479197145,1,-8.765227318,1,-0.066594161,1,-0.07016398,1,0.08290033,1,0.163791165,1,-0.476737678,1,-0.115820892,1
2.147829056,-4.457243443,1,-1.549212337,1,-8.854633331,1,-0.07047987,1,-0.09087687,1,0.085262135,1,0.163367882,1,-0.477108002,1,-0.115499236,1
2.151828766,-4.197390079,1,-1.560505033,1,-8.508096695,1,-0.075247489,1,-0.10005521,1,0.089857139,1,0.162908614,1,-0.477562189,1,-0.115180247,1
2.155824423,-4.431844711,1,-1.516081333,1,-8.848867416,1,-0.056239918,1,-0.109881788,1,0.095708832,1,0.16249609,1,-0.478023052,1,-0.114840366,1
2.159821749,-4.423095703,1,-1.478269219,1,-8.850150108,1,-0.076292761,1,-0.123879746,1,0.098128349,1,0.162073195,1,-0.478551596,1,-0.114496611,1
2.163821459,-4.446752548,1,-1.533202052,1,-8.852789879,1,-0.093442261,1,-0.158280209,1,0.100519277,1,0.161587566,1,-0.479177415,1,-0.114152879,1
2.167817116,-4.392678738,1,-1.583768725,1,-8.541538239,1,-0.093976088,1,-0.168851301,1,0.095871322,1,0.161061183,1,-0.479898483,1,-0.113839276,1
2.17181468,-4.395871162,1,-1.398535252,1,-8.843299866,1,-0.07674744,1,-0.173766419,1,0.096141391,1,0.160597324,1,-0.480624914,1,-0.113539644,1
2.17581439,-4.331886768,1,-1.382756829,1,-8.9534235,1,-0.071469985,1,-0.191301987,1,0.097384952,1,0.160143539,1,-0.48139292,1,-0.113232613,1
2.179816008,-4.401997089,1,-1.420548677,1,-9.072758675,1,-0.077477083,1,-0.228195712,1,0.101748861,1,0.15971072,1,-0.482278705,1,-0.112939842,1
2.183813572,-4.502342701,1,-1.521091223,1,-9.114958763,1,-0.06313546,1,-0.265798539,1,0.097998545,1,0.159289047,1,-0.483329535,1,-0.112667464,1
2.187813282,-4.055256367,1,-1.234594107,1,-9.169771194,1,-5.80E-05,1,-0.301219046,1,0.099430814,1,0.15904662,1,-0.484517574,1,-0.112434186,1
2.191808939,-4.219871044,1,-1.313618422,1,-9.147335052,1,-0.001024572,1,-0.332188398,1,0.108847246,1,0.158940569,1,-0.485832006,1,-0.112199023,1
2.195806742,-4.441245079,1,-1.331920624,1,-9.121733665,1,0.013287303,1,-0.368222415,1,0.099186167,1,0.158878952,1,-0.487276554,1,-0.111990988,1
2.199806213,-4.414068699,1,-1.370342016,1,-9.015490532,1,0.024682527,1,-0.401879817,1,0.094877005,1,0.15888238,1,-0.488853484,1,-0.111838125,1
2.203802109,-4.346324444,1,-1.300142884,1,-9.040531158,1,0.038275477,1,-0.439652592,1,0.094692923,1,0.158947363,1,-0.490575135,1,-0.111705214,1
2.207799911,-4.366129398,1,-1.314288735,1,-9.064836502,1,0.049947981,1,-0.4647156,1,0.09364178,1,0.159083113,1,-0.492410123,1,-0.111603715,1
2.211799383,-4.437607288,1,-1.279007435,1,-9.042093277,1,0.062196396,1,-0.497577548,1,0.089541264,1,0.159273952,1,-0.494372308,1,-0.11153309,1
2.215795279,-4.460639477,1,-1.324899197,1,-9.09781456,1,0.068736494,1,-0.530349791,1,0.087860137,1,0.159524605,1,-0.496462405,1,-0.111507371,1
2.219792604,-4.624535084,1,-1.301762938,1,-9.228788376,1,0.073578551,1,-0.584832549,1,0.0956394,1,0.159807801,1,-0.498717219,1,-0.111491576,1
2.223792076,-4.157990932,1,-1.277505279,1,-8.547470093,1,0.070357755,1,-0.605415285,1,0.089555688,1,0.160075009,1,-0.501151323,1,-0.111512125,1
2.227787733,-4.481628418,1,-1.24111712,1,-9.184604645,1,0.115298524,1,-0.630866706,1,0.071499132,1,0.160525456,1,-0.503633201,1,-0.111600757,1
2.231785536,-4.508004665,1,-1.197486758,1,-8.899318695,1,0.121240996,1,-0.661511183,1,0.068945773,1,0.16105935,1,-0.50623256,1,-0.111755028,1
2.235785246,-4.579311848,1,-1.348857284,1,-8.917640686,1,0.140151799,1,-0.688705206,1,0.073847979,1,0.161666498,1,-0.508945584,1,-0.111927494,1
2.239786863,-4.566480637,1,-1.346832156,1,-8.950661659,1,0.141696155,1,-0.722244561,1,0.067685932,1,0.162330657,1,-0.511776567,1,-0.112130947,1
2.243790388,-4.572453022,1,-1.433239579,1,-8.976174355,1,0.150796279,1,-0.752024829,1,0.069207788,1,0.163040757,1,-0.514729142,1,-0.112364724,1
2.247790098,-4.785624981,1,-1.545585632,1,-9.026053429,1,0.152324557,1,-0.793554187,1,0.075250722,1,0.163781404,1,-0.517826498,1,-0.112627342,1
2.251791716,-4.347326279,1,-1.588180423,1,-8.733353615,1,0.162181318,1,-0.814331591,1,0.07276164,1,0.16450794,1,-0.521057487,1,-0.112888329,1
2.25578928,-4.636045933,1,-1.594043851,1,-9.066095352,1,0.169538036,1,-0.852651358,1,0.075566672,1,0.165324837,1,-0.524397671,1,-0.113177709,1
2.259789228,-4.692063332,1,-1.688446879,1,-8.981441498,1,0.174542993,1,-0.890327275,1,0.081540033,1,0.166161835,1,-0.527888477,1,-0.113481589,1
2.263785124,-4.689330578,1,-1.692759633,1,-8.998939514,1,0.157092318,1,-0.926998496,1,0.095466614,1,0.167012051,1,-0.531319916,1,-0.11379759,1
2.267782927,-4.716952801,1,-1.755156875,1,-8.916734695,1,0.154433087,1,-0.969402552,1,0.107142963,1,0.167766258,1,-0.53505832,1,-0.114270993,1
2.271782398,-4.753297806,1,-1.791281819,1,-8.967556953,1,0.141132876,1,-1.006273031,1,0.11203555,1,0.168502331,1,-0.539026916,1,-0.114539407,1
2.275778055,-4.841686249,1,-1.75223434,1,-8.961928368,1,0.12807174,1,-1.049132228,1,0.118703574,1,0.169177622,1,-0.543159902,1,-0.114805818,1
2.279775858,-4.827786446,1,-1.813092947,1,-8.94879055,1,0.108886629,1,-1.085310936,1,0.132628694,1,0.169791639,1,-0.54744947,1,-0.115062237,1
2.28377533,-4.812039375,1,-1.865667343,1,-9.074649811,1,0.106402397,1,-1.125577331,1,0.144278944,1,0.170345172,1,-0.551899314,1,-0.115297273,1
2.287771225,-4.785535336,1,-2.065468788,1,-9.425189972,1,0.101694703,1,-1.184927225,1,0.170772329,1,0.170870304,1,-0.556560457,1,-0.115478598,1
2.291769028,-4.836600304,1,-2.226506948,1,-9.312456131,1,0.066240966,1,-1.252026677,1,0.188514322,1,0.171282172,1,-0.561486781,1,-0.115623586,1
2.295768738,-4.687841415,1,-2.08687067,1,-9.129673958,1,0.025623495,1,-1.314844728,1,0.205183104,1,0.17150712,1,-0.566686392,1,-0.115722947,1
2.299770594,-5.049001217,1,-2.046452045,1,-9.340992928,1,0.034100171,1,-1.36157608,1,0.22396563,1,0.171698332,1,-0.572111607,1,-0.115812927,1
2.303768396,-4.859659672,1,-2.031995296,1,-9.582820892,1,-0.00181249,1,-1.421204448,1,0.24054119,1,0.171777219,1,-0.577745855,1,-0.115844548,1
2.307767868,-4.929781914,1,-2.072715521,1,-9.770216942,1,-0.009489111,1,-1.506256342,1,0.262422085,1,0.171772793,1,-0.583680809,1,-0.115859404,1
2.311769247,-4.933315754,1,-1.935834527,1,-9.826289177,1,-0.038318455,1,-1.588524818,1,0.277193308,1,0.171688601,1,-0.589965701,1,-0.115854479,1
2.31576705,-5.013760567,1,-2.030518532,1,-9.949887276,1,-0.027572632,1,-1.681262612,1,0.301946908,1,0.171530217,1,-0.596606076,1,-0.115828454,1
2.319766998,-4.88432312,1,-2.079689503,1,-9.984378815,1,-0.021168353,1,-1.778885722,1,0.325138539,1,0.171402425,1,-0.603648007,1,-0.11577265,1
2.323762894,-4.991481304,1,-1.982698083,1,-10.17837238,1,-0.058682993,1,-1.880364656,1,0.35342142,1,0.171178743,1,-0.611087441,1,-0.115669794,1
2.327760696,-4.915932655,1,-1.99841702,1,-10.22107506,1,-0.051962443,1,-1.99071753,1,0.379139334,1,0.170867965,1,-0.618969083,1,-0.115528084,1
2.331760406,-4.972362041,1,-1.936559439,1,-10.21309662,1,-0.080870315,1,-2.108500957,1,0.388769507,1,0.170509964,1,-0.627312422,1,-0.115392447,1
2.335756063,-4.843566895,1,-1.686537266,1,-10.20568466,1,-0.101251297,1,-2.221568346,1,0.413213551,1,0.170076057,1,-0.636109948,1,-0.115238532,1
2.339759588,-4.984363556,1,-1.663256049,1,-10.42752361,1,-0.079280511,1,-2.354782581,1,0.439219832,1,0.169598535,1,-0.645409703,1,-0.115074396,1
2.343759298,-4.881144047,1,-1.57798326,1,-10.22777843,1,-0.114827961,1,-2.469207525,1,0.444257438,1,0.169133589,1,-0.655218005,1,-0.114939459,1
2.347755194,-4.943863392,1,-1.384155869,1,-10.36869335,1,-0.136201397,1,-2.601085901,1,0.468320251,1,0.168532506,1,-0.66552192,1,-0.114821397,1
2.351752996,-4.918407917,1,-1.442015529,1,-10.55642986,1,-0.0775913,1,-2.719103098,1,0.478802025,1,0.168028206,1,-0.676326692,1,-0.11471542,1
2.355752707,-4.973035336,1,-1.398922563,1,-10.37440014,1,-0.077648476,1,-2.868816137,1,0.501604378,1,0.167676777,1,-0.687659621,1,-0.114609994,1
2.359754324,-4.971948624,1,-1.575129867,1,-10.52692413,1,-0.096837088,1,-3.005543947,1,0.537282228,1,0.167246878,1,-0.699590266,1,-0.114501432,1
2.363751888,-5.193168163,1,-1.704518795,1,-10.64279652,1,-0.094810478,1,-3.149001122,1,0.574181795,1,0.166746795,1,-0.712106049,1,-0.114314161,1
2.36775136,-5.010513306,1,-1.737731338,1,-10.53475189,1,-0.088411435,1,-3.304673195,1,0.608191073,1,0.166205481,1,-0.725200534,1,-0.114046723,1
2.371747017,-4.898525238,1,-1.895674825,1,-10.5444994,1,-0.12852852,1,-3.489400148,1,0.630441844,1,0.165585339,1,-0.739006281,1,-0.113779694,1
2.37574482,-4.614153862,1,-1.988401055,1,-10.57270527,1,-0.113447078,1,-3.637446404,1,0.692242324,1,0.164849684,1,-0.753505766,1,-0.113410406,1
2.379744291,-4.938292503,1,-2.273116827,1,-10.2949276,1,-0.081152283,1,-3.772837877,1,0.735413671,1,0.164081618,1,-0.768602669,1,-0.112884842,1
2.383746147,-5.157510281,1,-2.661217928,1,-10.49320602,1,-0.056538701,1,-3.849848032,1,0.767027378,1,0.163334101,1,-0.784084797,1,-0.112209089,1
2.38774395,-5.718893528,1,-3.271265268,1,-11.34727287,1,-0.109164029,1,-4.170046806,1,0.801076055,1,0.162491962,1,-0.800388932,1,-0.111507162,1
2.39174366,-4.959461689,1,-2.620522976,1,-10.90635967,1,-0.131906554,1,-4.382670403,1,0.885747373,1,0.16145061,1,-0.817882359,1,-0.110710815,1
2.395739555,-5.260210991,1,-2.559663773,1,-10.96323013,1,-0.17655775,1,-4.592788219,1,0.954724073,1,0.15998964,1,-0.836157203,1,-0.109554783,1
2.399737358,-5.413740158,1,-2.6980865,1,-11.03961658,1,-0.213435665,1,-4.81482935,1,1.021449208,1,0.158138946,1,-0.855358005,1,-0.108142734,1
2.403737068,-5.093565464,1,-2.601503372,1,-10.71161842,1,-0.22077094,1,-5.03135252,1,1.093708992,1,0.156010181,1,-0.875494361,1,-0.106480576,1
2.407732725,-5.309502602,1,-2.680976868,1,-10.64752293,1,-0.194884673,1,-5.202728748,1,1.159415603,1,0.153614536,1,-0.89640373,1,-0.10446094,1
2.411730528,-5.284447193,1,-2.47217679,1,-10.53975296,1,-0.157562658,1,-5.335238934,1,1.225733757,1,0.150951087,1,-0.917964578,1,-0.101968504,1
2.415730238,-5.471087933,1,-2.369313002,1,-10.45982838,1,-0.1516767,1,-5.483002663,1,1.293886185,1,0.148030102,1,-0.940103054,1,-0.099086203,1
2.419731855,-5.283147812,1,-2.350603104,1,-10.58794117,1,-0.134734616,1,-5.607906342,1,1.397997618,1,0.144540533,1,-0.962854922,1,-0.095489182,1
2.423729658,-5.851745129,1,-2.194075346,1,-10.65031528,1,-0.200884134,1,-5.701922417,1,1.520220399,1,0.140049025,1,-0.986045957,1,-0.090890661,1
2.427729368,-6.117535114,1,-2.125376225,1,-10.18823433,1,-0.42952776,1,-5.779201984,1,1.628930688,1,0.134057269,1,-1.009668112,1,-0.085171595,1
2.431725025,-8.161705971,1,-1.867857099,1,-10.89178467,1,-0.530835688,1,-5.868099213,1,1.646602392,1,0.126273528,1,-1.033610225,1,-0.07839828,1
2.435728788,-9.815437317,1,-1.856948972,1,-11.20929623,1,-0.452937067,1,-5.92379427,1,1.558948159,1,0.11830736,1,-1.057816267,1,-0.071479782,1
2.439728975,-10.21878719,1,-1.641697645,1,-11.4708643,1,-0.341200978,1,-6.021658421,1,1.503055215,1,0.110592991,1,-1.08224225,1,-0.06449385,1
2.443724871,-10.0191412,1,-1.482170105,1,-11.65321636,1,-0.20482628,1,-6.117828846,1,1.462263107,1,0.103086464,1,-1.107016444,1,-0.057299856,1
2.447722435,-10.19485188,1,-1.237070441,1,-12.12731171,1,-0.063379347,1,-6.224833965,1,1.438915849,1,0.095702112,1,-1.132153392,1,-0.049668767,1
2.451722145,-10.00030804,1,-1.37736702,1,-12.12919903,1,0.045307536,1,-6.345587254,1,1.426026344,1,0.088188767,1,-1.157721519,1,-0.041470319,1
2.455717802,-9.927327156,1,-1.631781101,1,-12.35439301,1,0.157796264,1,-6.479099274,1,1.455145836,1,0.080128007,1,-1.183771968,1,-0.032262206,1
2.459715605,-10.25088501,1,-1.692359209,1,-12.56943512,1,0.193753526,1,-6.621046066,1,1.475649714,1,0.070983835,1,-1.210328341,1,-0.021675283,1
2.463715315,-10.75455284,1,-1.85422802,1,-12.15985298,1,0.196206734,1,-6.727428913,1,1.506806254,1,0.060154743,1,-1.237369299,1,-0.009308757,1
2.46771121,-11.33980751,1,-1.789439917,1,-12.04088879,1,0.198995054,1,-6.79572773,1,1.515769601,1,0.047028124,1,-1.264716625,1,0.005332406,1
2.471709013,-11.84980297,1,-1.921833992,1,-12.04471302,1,0.179517463,1,-6.81563139,1,1.518278003,1,0.031170402,1,-1.292172909,1,0.022672301,1
2.475708723,-11.66642284,1,-2.507264137,1,-12.07094193,1,0.129217967,1,-6.837975025,1,1.550478458,1,0.01136757,1,-1.319606066,1,0.043846846,1
2.479710579,-11.49182892,1,-3.520877361,1,-12.3401947,1,-0.021083705,1,-6.889342785,1,1.588528991,1,-0.014553797,1,-1.347056985,1,0.07078018,1
2.483708143,-12.10743904,1,-4.29597187,1,-11.39488029,1,-0.245681718,1,-6.918235302,1,1.589922309,1,-0.049064152,1,-1.374475956,1,0.105495289,1
2.487707853,-13.2764864,1,-3.205974579,1,-11.64324093,1,-0.397419125,1,-6.909006596,1,1.572731495,1,-0.095473848,1,-1.401611209,1,0.151350826,1
2.49170351,-15.09606171,1,-1.634616971,1,-11.20797729,1,-0.355986148,1,-6.787469387,1,1.44221437,1,-0.157146737,1,-1.428061128,1,0.212219208,1
2.495701313,-16.37860107,1,-0.966100216,1,-10.83523178,1,-0.182529032,1,-6.613024235,1,1.290263653,1,-0.239802673,1,-1.4532938,1,0.294472277,1
2.499701262,-16.72960472,1,-0.593096793,1,-9.709183693,1,0.085344858,1,-6.425684929,1,1.147957921,1,-0.356069386,1,-1.476825118,1,0.411143035,1
2.503697157,-17.2748661,1,-0.015300978,1,-9.259327888,1,0.439271271,1,-6.150329113,1,1.039784551,1,-0.531393409,1,-1.497760415,1,0.58809489,1
2.50769496,-17.27331734,1,-0.761496425,1,-8.08866787,1,0.809652388,1,-5.784267902,1,0.984921217,1,-0.807265759,1,-1.514187098,1,0.867077947,1
2.51169467,-15.96433258,1,-1.869395256,1,-7.862961292,1,1.075851202,1,-5.289209366,1,0.975919664,1,-1.203682542,1,-1.522922754,1,1.267807841,1
2.515690327,-12.56505489,1,-2.667584896,1,-7.524123192,1,1.247980356,1,-4.868384838,1,0.928544521,1,-1.628925204,1,-1.522275805,1,1.698119879,1
2.519688129,-9.188811302,1,-3.531048059,1,-6.964683533,1,1.33366704,1,-4.499598503,1,0.857391596,1,-1.957987309,1,-1.514552832,1,2.032793999,1
2.52368784,-2.370844126,1,-3.621648073,1,-8.215284348,1,1.475174427,1,-4.065745831,1,0.771040201,1,-2.172349691,1,-1.503474236,1,2.253155231,1
2.527683496,4.252691746,1,-1.294225216,1,-11.78660202,1,1.951537848,1,-3.420940876,1,0.911604822,1,-2.300053596,1,-1.49162674,1,2.387906551,1
2.531681299,-13.65414047,1,-2.098829031,1,-12.60184956,1,2.385240316,1,-2.5709548,1,1.655437589,1,-2.352670193,1,-1.47966671,1,2.44977355,1
2.535687208,-27.93171883,1,-6.675168991,1,-18.81810951,1,2.088455439,1,-1.336399317,1,1.668633103,1,-2.351448298,1,-1.46918726,1,2.457502365,1
2.539689064,-17.47944641,1,-7.04404974,1,-19.32436371,1,1.948029041,1,-0.165684417,1,1.494406581,1,-2.322219849,1,-1.462691665,1,2.436231613,1
2.543686867,-7.957060337,1,-5.756621838,1,-14.95336151,1,1.790609479,1,0.554659128,1,1.605170488,1,-2.27180934,1,-1.458644867,1,2.393022776,1
2.547686577,-0.688566208,1,-6.138625622,1,-12.54267311,1,1.675004244,1,1.054827332,1,1.762828112,1,-2.206022024,1,-1.455371737,1,2.333791018,1
2.551682472,1.742408395,1,-6.205303669,1,-11.3367672,1,1.498830438,1,1.446206927,1,1.873295546,1,-2.129357576,1,-1.452161431,1,2.263011694,1
2.555680275,0.140862957,1,-5.173103333,1,-11.02204704,1,1.333356977,1,1.757581949,1,1.908690333,1,-2.046468735,1,-1.448745608,1,2.185205936,1
2.559679985,-1.456552744,1,-3.325193882,1,-10.67075157,1,1.280206561,1,1.992278934,1,1.896021247,1,-1.960919738,1,-1.444980741,1,2.104231358,1
2.56367588,-1.600556135,1,-1.853059173,1,-10.13163185,1,1.377261877,1,2.182316303,1,1.83495152,1,-1.874741793,1,-1.440788031,1,2.022670507,1
2.567673683,-0.758635283,1,-1.249585629,1,-9.375769615,1,1.558949232,1,2.355204344,1,1.719821095,1,-1.789146543,1,-1.436245918,1,1.942241311,1
2.571673632,-0.124146208,1,-1.517295241,1,-8.641975403,1,1.718386769,1,2.534926891,1,1.562412977,1,-1.70433414,1,-1.431479931,1,1.86326015,1
2.575669527,0.038407389,1,-2.17021966,1,-8.130788803,1,1.810997963,1,2.72116971,1,1.387357473,1,-1.620125055,1,-1.42656219,1,1.78534019,1
2.579667091,-0.190255284,1,-2.823663235,1,-7.797167778,1,1.845110774,1,2.900691748,1,1.203214645,1,-1.536464572,1,-1.421458364,1,1.708180904,1
2.58366704,-0.259226531,1,-3.539798975,1,-7.528709888,1,1.808795214,1,3.081753731,1,1.02647984,1,-1.45338726,1,-1.416098595,1,1.631555557,1
2.587662935,-0.097207777,1,-4.17110014,1,-7.226157188,1,1.713615179,1,3.244049311,1,0.848994255,1,-1.371392727,1,-1.410393834,1,1.555689692,1
2.5916605,0.200577855,1,-4.470472336,1,-6.949699879,1,1.539809108,1,3.403102636,1,0.672908247,1,-1.290896297,1,-1.404280305,1,1.480713248,1
2.59566021,0.439490736,1,-4.510260582,1,-6.662971497,1,1.335294485,1,3.550263405,1,0.485951364,1,-1.212333679,1,-1.39770472,1,1.40683794,1
2.599662066,0.50532496,1,-4.256632328,1,-6.446889877,1,1.134739161,1,3.681915283,1,0.306213081,1,-1.13604629,1,-1.390648842,1,1.334361911,1
2.603660107,0.569326878,1,-3.792938948,1,-6.291311741,1,0.955422819,1,3.79396081,1,0.09384805,1,-1.062214136,1,-1.383136511,1,1.263513684,1
2.607660055,0.43947649,1,-3.376049519,1,-6.241723061,1,0.798181891,1,3.890533924,1,-0.117709488,1,-0.990757704,1,-1.375207067,1,1.194288135,1
2.611655951,0.415243357,1,-2.924546719,1,-6.072353363,1,0.674360871,1,3.972854137,1,-0.348387599,1,-0.921668351,1,-1.36689353,1,1.126805544,1
2.615653515,0.451488912,1,-2.422301531,1,-5.969689846,1,0.580745995,1,4.062344074,1,-0.583275378,1,-0.854605913,1,-1.358195662,1,1.060816884,1
2.619653463,0.368830591,1,-1.90290451,1,-5.975854874,1,0.516562343,1,4.122763634,1,-0.816496313,1,-0.789392412,1,-1.349101901,1,0.996273518,1
2.623649359,0.420258433,1,-1.65289855,1,-5.87334156,1,0.483815372,1,4.17641449,1,-1.058412194,1,-0.726054549,1,-1.339625597,1,0.933319271,1
2.627646923,0.170453563,1,-1.249028087,1,-5.937427044,1,0.472276956,1,4.203313351,1,-1.290889382,1,-0.664524078,1,-1.329756498,1,0.871987402,1
2.631652832,0.066026516,1,-1.151519895,1,-5.837304592,1,0.459941983,1,4.237352371,1,-1.510759592,1,-0.604803145,1,-1.319478035,1,0.81232667,1
2.635654926,-0.076577455,1,-1.052673697,1,-5.872358322,1,0.456790626,1,4.261117458,1,-1.706122518,1,-0.547109485,1,-1.308717966,1,0.754576147,1
2.639652967,-0.304976642,1,-1.007040977,1,-5.866634846,1,0.461351484,1,4.27974844,1,-1.874502778,1,-0.491690308,1,-1.297444224,1,0.699016809,1
2.643652678,-0.624274194,1,-1.022432804,1,-6.021910667,1,0.464262992,1,4.296345234,1,-2.024585962,1,-0.438660383,1,-1.285620332,1,0.645776808,1
2.647648573,-1.024112821,1,-0.961903095,1,-6.216747761,1,0.460254371,1,4.321000576,1,-2.154650688,1,-0.388208747,1,-1.273191929,1,0.595036745,1
2.651646137,-1.463377953,1,-0.792278051,1,-6.466094494,1,0.453526378,1,4.348975182,1,-2.260902882,1,-0.340408087,1,-1.260131955,1,0.546859562,1
2.655645847,-2.036762476,1,-0.567123592,1,-6.727461338,1,0.458053619,1,4.392600536,1,-2.356777191,1,-0.295253456,1,-1.246413708,1,0.501246333,1
2.659647703,-2.550684214,1,-0.344201118,1,-6.965690613,1,0.465407223,1,4.450837612,1,-2.438497305,1,-0.252675295,1,-1.231972456,1,0.458155721,1
2.663645744,-3.102950096,1,-0.28564316,1,-7.283232212,1,0.507700324,1,4.526890278,1,-2.510243177,1,-0.212578818,1,-1.216781139,1,0.417586446,1
2.667645454,-3.566749334,1,-0.216056496,1,-7.573129654,1,0.547932565,1,4.613722324,1,-2.561201334,1,-0.174913615,1,-1.200804949,1,0.379569352,1
2.67164135,-3.942559719,1,-0.386459321,1,-7.837743282,1,0.575140119,1,4.695677757,1,-2.577576399,1,-0.139791802,1,-1.184032917,1,0.344189286,1
2.675639153,-4.238167286,1,-0.407479465,1,-8.071842194,1,0.567562997,1,4.78946352,1,-2.572030306,1,-0.107398868,1,-1.166481972,1,0.311572671,1
2.679638863,-4.531974316,1,-0.497820705,1,-8.19377327,1,0.551427186,1,4.888702869,1,-2.541241407,1,-0.077864043,1,-1.148159146,1,0.281768322,1
2.683634758,-4.817678452,1,-0.456696719,1,-8.283659935,1,0.532474041,1,4.987940311,1,-2.489726543,1,-0.051139094,1,-1.129085064,1,0.254725367,1
2.687632561,-5.038470745,1,-0.364423454,1,-8.492560387,1,0.514453292,1,5.091627598,1,-2.420056581,1,-0.027183313,1,-1.109332085,1,0.230418652,1
2.691632271,-5.296046734,1,-0.151514336,1,-8.6513834,1,0.513907909,1,5.180568218,1,-2.337767839,1,-0.00581889,1,-1.08894217,1,0.208732277,1
2.695627928,-5.500600815,1,-0.00671751,1,-8.826946259,1,0.53982693,1,5.265586853,1,-2.240112782,1,0.013197199,1,-1.068015933,1,0.189530298,1
2.699625969,-5.734763145,1,0.208177418,1,-9.017431259,1,0.593892276,1,5.342948437,1,-2.155625343,1,0.030219996,1,-1.046612501,1,0.172580436,1
2.703625679,-6.061339855,1,0.712851882,1,-9.292762756,1,0.669720948,1,5.421721458,1,-2.07117939,1,0.045612846,1,-1.02477479,1,0.157634482,1
2.707621336,-6.167703152,1,0.346935004,1,-9.171070099,1,0.750407636,1,5.489274979,1,-1.999138355,1,0.059639059,1,-1.002551317,1,0.144431815,1
2.711619139,-6.443714619,1,0.583274543,1,-9.540737152,1,0.851170957,1,5.555570602,1,-1.925003529,1,0.072593503,1,-0.979993165,1,0.132801086,1
2.715618849,-6.317302704,1,0.35774678,1,-9.65803051,1,0.90384382,1,5.619680405,1,-1.872486949,1,0.084581256,1,-0.957117856,1,0.12251468,1
2.719620705,-6.587535381,1,0.014169439,1,-9.896921158,1,0.969043553,1,5.664677143,1,-1.812369943,1,0.095690437,1,-0.933982372,1,0.113439977,1
2.723618507,-6.707695007,1,-0.543842494,1,-9.943691254,1,0.999330878,1,5.719367981,1,-1.753679156,1,0.105988912,1,-0.910609365,1,0.105468564,1
2.727617979,-6.781425953,1,-0.941827774,1,-10.12981701,1,1.004293323,1,5.774273872,1,-1.696392417,1,0.115418166,1,-0.887004733,1,0.098540187,1
2.731619835,-6.852246761,1,-1.168654203,1,-10.27071476,1,0.994035065,1,5.825818539,1,-1.63942647,1,0.124037772,1,-0.863171637,1,0.092526302,1
2.735617638,-6.819686413,1,-1.210731149,1,-10.48888874,1,0.98987323,1,5.866360188,1,-1.596341729,1,0.131908402,1,-0.839157224,1,0.087325536,1
2.739617586,-6.880804062,1,-1.133426905,1,-10.75358772,1,1.000275254,1,5.899918556,1,-1.558599353,1,0.139236256,1,-0.814985394,1,0.082782634,1
2.743613482,-6.826125145,1,-0.834896982,1,-11.01870728,1,1.040479183,1,5.924298286,1,-1.541888952,1,0.146185309,1,-0.790685892,1,0.078791909,1
2.747611046,-6.89588356,1,-0.785308659,1,-11.39580059,1,1.110104203,1,5.933106899,1,-1.534454942,1,0.15299952,1,-0.766320109,1,0.075216822,1
2.751611233,-7.128103256,1,-1.10955143,1,-11.51102448,1,1.19169867,1,5.945004463,1,-1.526203156,1,0.159800172,1,-0.741893828,1,0.071986452,1
2.755607128,-7.118035316,1,-1.484124064,1,-11.90025139,1,1.241571665,1,5.951213837,1,-1.531849265,1,0.166600242,1,-0.717414618,1,0.069080703,1
2.759610891,-7.280940533,1,-1.715252995,1,-12.15920925,1,1.292680502,1,5.950413227,1,-1.536725283,1,0.17338863,1,-0.69291079,1,0.06642852,1
2.76361084,-7.509894371,1,-2.160284042,1,-12.34594536,1,1.319592834,1,5.928171635,1,-1.551248789,1,0.180158243,1,-0.668438494,1,0.063981451,1
2.767606735,-7.771105289,1,-2.573063374,1,-12.5023632,1,1.321245074,1,5.899529934,1,-1.580101371,1,0.186899543,1,-0.643925726,1,0.062207978,1
2.771604776,-8.129306793,1,-2.846387863,1,-12.70871449,1,1.282574296,1,5.856184006,1,-1.633849978,1,0.193480462,1,-0.619613826,1,0.059898309,1
2.775604486,-8.539566994,1,-3.143629313,1,-12.99479961,1,1.224521518,1,5.796318531,1,-1.700971484,1,0.199866056,1,-0.59545666,1,0.057483044,1
2.779606342,-9.132609367,1,-3.328867912,1,-13.44122791,1,1.154388309,1,5.730733395,1,-1.787046432,1,0.206062317,1,-0.57147485,1,0.05487401,1
2.783604145,-10.00450516,1,-3.302474499,1,-13.96221066,1,1.096360922,1,5.665094852,1,-1.886145711,1,0.212095812,1,-0.547660112,1,0.051979315,1
2.787603855,-11.0729351,1,-3.103712797,1,-14.51823711,1,1.056355238,1,5.602327824,1,-2.005299807,1,0.218046263,1,-0.523991704,1,0.048738252,1
2.791599512,-12.32262707,1,-2.87445426,1,-15.05246735,1,1.054406881,1,5.563720226,1,-2.134717226,1,0.22405006,1,-0.500399768,1,0.045097306,1
2.795597315,-13.58257008,1,-2.57865572,1,-15.51264286,1,1.088301539,1,5.553307056,1,-2.276105165,1,0.230235592,1,-0.476761669,1,0.041045364,1
2.799597025,-14.73429775,1,-2.278310299,1,-15.91917229,1,1.142606497,1,5.542403698,1,-2.424764633,1,0.236706674,1,-0.45300293,1,0.036551673,1
2.80359292,-15.71021748,1,-2.213085651,1,-16.29935074,1,1.19798243,1,5.529670715,1,-2.579572201,1,0.243485868,1,-0.429109186,1,0.031624146,1
2.807590723,-16.72046661,1,-2.33413291,1,-16.53227615,1,1.223972797,1,5.514413834,1,-2.722882271,1,0.250500917,1,-0.405108035,1,0.026285339,1
2.811590433,-17.81899261,1,-2.780049801,1,-16.56347466,1,1.223886967,1,5.506271839,1,-2.825516701,1,0.257554531,1,-0.380987763,1,0.020653838,1
2.815586329,-18.66326714,1,-3.182530165,1,-16.42489243,1,1.167634487,1,5.501134396,1,-2.90288496,1,0.264439613,1,-0.356761605,1,0.014874275,1
2.819583893,-19.26143646,1,-3.466819048,1,-16.1260376,1,1.085474014,1,5.473752022,1,-2.943171501,1,0.270914525,1,-0.332505524,1,0.009064682,1
2.82358408,-19.48093414,1,-3.632227182,1,-15.66146278,1,0.972396195,1,5.443468094,1,-2.939344883,1,0.276828527,1,-0.308285058,1,0.003358934,1
2.827585697,-19.42431259,1,-3.700811386,1,-15.13269138,1,0.862173617,1,5.381238461,1,-2.905447245,1,0.282112002,1,-0.284236193,1,-0.002148848,1
2.8315835,-19.21854401,1,-3.759310246,1,-14.54443073,1,0.744875729,1,5.295009613,1,-2.854785919,1,0.286739022,1,-0.260502189,1,-0.007411002,1
2.835583448,-19.03215981,1,-3.653089285,1,-13.86432457,1,0.6360057,1,5.180842876,1,-2.789286137,1,0.290728986,1,-0.237191886,1,-0.012416996,1
2.839585304,-19.20020485,1,-3.668982267,1,-13.00664902,1,0.520944297,1,5.044181824,1,-2.721529961,1,0.294115067,1,-0.214423224,1,-0.017191615,1
2.843583345,-19.50119591,1,-3.961894512,1,-12.0150671,1,0.384888679,1,4.897295952,1,-2.649134159,1,0.296866417,1,-0.192267671,1,-0.021775335,1
2.847583294,-20.15424538,1,-4.484747887,1,-10.67743492,1,0.224530578,1,4.767184734,1,-2.565194368,1,0.298873663,1,-0.170732841,1,-0.026149146,1
2.851579189,-20.84163475,1,-4.363503456,1,-9.447255135,1,0.052617915,1,4.604896545,1,-2.462546587,1,0.300097972,1,-0.149835914,1,-0.030272376,1
2.855576992,-21.28707886,1,-4.529015064,1,-7.551107407,1,-0.080976479,1,4.434561729,1,-2.347230673,1,0.300561309,1,-0.129719362,1,-0.034152903,1
2.859577179,-21.09123039,1,-4.264685154,1,-6.017861843,1,-0.164219052,1,4.2491045,1,-2.209242105,1,0.300484538,1,-0.110427581,1,-0.037737403,1
2.863573074,-20.93095016,1,-3.171018362,1,-4.489402771,1,-0.174906105,1,4.02919054,1,-2.075480223,1,0.300129801,1,-0.092078499,1,-0.041045345,1
2.867570877,-20.5606041,1,-1.731956482,1,-3.104881287,1,-0.057955854,1,3.760864973,1,-1.939577818,1,0.299883425,1,-0.074811324,1,-0.044117909,1
2.871570826,-20.30650139,1,-0.117185809,1,-1.9041816,1,0.174973935,1,3.450004101,1,-1.800725937,1,0.300278902,1,-0.058807991,1,-0.047000334,1
2.875566959,-20.0843544,1,1.388852239,1,-0.677164316,1,0.516121149,1,3.106595755,1,-1.668039322,1,0.301778346,1,-0.044219643,1,-0.049739491,1
2.879564762,-19.95914268,1,2.436543226,1,0.379745066,1,0.913448155,1,2.743264198,1,-1.5379529,1,0.304737926,1,-0.031147923,1,-0.052380655,1
2.883564472,-19.76859283,1,3.109668016,1,1.369716406,1,1.297725677,1,2.360727072,1,-1.3986485,1,0.309238315,1,-0.019638125,1,-0.05490065,1
2.887560368,-19.65495682,1,3.252410889,1,2.21360898,1,1.599241138,1,1.985225201,1,-1.257524371,1,0.315093815,1,-0.009737873,1,-0.057289757,1
2.891558409,-19.53252029,1,2.976616383,1,2.876822233,1,1.763366938,1,1.609160542,1,-1.112200379,1,0.321869254,1,-0.001429019,1,-0.059538696,1
2.895558119,-19.41304207,1,2.358442783,1,3.420585155,1,1.751578569,1,1.244402766,1,-0.961686134,1,0.32894522,1,0.00530613,1,-0.061646085,1
2.899560213,-19.19713211,1,1.764913559,1,3.734367609,1,1.536544204,1,0.890665412,1,-0.819390953,1,0.335552275,1,0.010510882,1,-0.063619182,1
2.903558254,-18.90194702,1,1.309219956,1,3.894812346,1,1.169227839,1,0.550590634,1,-0.679190338,1,0.340980947,1,0.014228773,1,-0.065485902,1
2.907557964,-18.60935402,1,1.06634748,1,3.858717203,1,0.705838442,1,0.228154033,1,-0.54947871,1,0.344719827,1,0.016520664,1,-0.067279525,1
2.91155386,-18.32323265,1,1.058284879,1,3.624337673,1,0.233922303,1,-0.077932902,1,-0.427773893,1,0.346557826,1,0.017462587,1,-0.069015794,1
2.915551424,-18.16533089,1,1.22036016,1,3.257865191,1,-0.212142944,1,-0.372492194,1,-0.318043739,1,0.346543729,1,0.017122099,1,-0.070730485,1
2.919551373,-17.87782097,1,1.508274198,1,2.855032682,1,-0.570616663,1,-0.643184662,1,-0.220640346,1,0.344921768,1,0.015572455,1,-0.072434552,1
2.923553228,-17.5381546,1,1.677643418,1,2.35445857,1,-0.814910829,1,-0.892067254,1,-0.12326099,1,0.342095107,1,0.012904538,1,-0.074121006,1
2.927551031,-17.09539223,1,1.662262678,1,1.699133039,1,-0.95090723,1,-1.130437374,1,-0.031554926,1,0.338514388,1,0.009183002,1,-0.075762808,1
2.93155098,-16.62039185,1,1.449075937,1,1.035552382,1,-0.993775904,1,-1.358319521,1,0.069259793,1,0.334594339,1,0.004461861,1,-0.077335216,1
2.935546875,-16.07363892,1,0.963709652,1,0.30585441,1,-0.978939235,1,-1.572080374,1,0.173912421,1,0.330636501,1,-0.001234684,1,-0.078791909,1
2.939550877,-15.58723736,1,0.293933064,1,-0.373344332,1,-0.931992948,1,-1.783386469,1,0.280694902,1,0.326818347,1,-0.007883292,1,-0.080093369,1
2.943551064,-15.03907299,1,-0.540502071,1,-1.019364357,1,-0.893361151,1,-1.97807765,1,0.392380625,1,0.323180735,1,-0.015440577,1,-0.081228703,1
2.947547197,-14.37078476,1,-1.486778736,1,-1.858769655,1,-0.877539814,1,-2.155273199,1,0.504267335,1,0.319659382,1,-0.023846935,1,-0.082144223,1
2.951545,-13.82117367,1,-2.401788712,1,-2.92449069,1,-0.878449976,1,-2.320573568,1,0.606866241,1,0.316166192,1,-0.033053882,1,-0.082841456,1
2.955544949,-13.15088463,1,-2.981844425,1,-3.757045031,1,-0.888278663,1,-2.462634325,1,0.697449565,1,0.312649965,1,-0.042965263,1,-0.083313644,1
2.959546566,0.91156584,1,-5.750828743,1,-16.52920341,1,-0.883429229,1,-2.976403952,1,0.85619694,1,0.309132755,1,-0.053881526,1,-0.083627209,1
2.963544607,13.18310261,1,-4.167954922,1,-29.04369545,1,-0.750976145,1,-5.134124756,1,0.935605228,1,0.306093961,1,-0.070972823,1,-0.085028462,1
2.967544317,18.38851166,1,-9.363336563,1,-13.30121899,1,-0.941517532,1,-4.51588726,1,0.891961753,1,0.302615881,1,-0.090778157,1,-0.087762795,1
2.971540451,24.42088318,1,-17.71379089,1,-17.06755066,1,-1.089699745,1,-3.879548073,1,1.273939371,1,0.299221814,1,-0.107593797,1,-0.087995924,1
2.975538492,5.806059837,1,-13.4675169,1,-4.784208775,1,-1.568440676,1,-4.034189224,1,1.237687469,1,0.293513805,1,-0.124383107,1,-0.087943502,1
2.979538202,4.538018703,1,-3.58343339,1,-4.481054783,1,-1.188612342,1,-4.237634182,1,1.208399534,1,0.28806442,1,-0.141452298,1,-0.087924033,1
2.983534098,-0.775622606,1,3.682463169,1,-6.002280712,1,-0.986888826,1,-4.913885593,1,0.932295322,1,0.283768833,1,-0.160197571,1,-0.088870347,1
2.987532139,-7.351742268,1,5.576273918,1,-8.872981071,1,-0.485666305,1,-5.512310982,1,0.466430724,1,0.281336397,1,-0.181054816,1,-0.092083126,1
2.991531849,-12.24188805,1,1.243641496,1,-11.67306519,1,-0.153310567,1,-5.839195728,1,0.272502273,1,0.281184167,1,-0.203348845,1,-0.097180128,1
2.995527744,-15.29181862,1,-4.124417305,1,-14.21279335,1,-0.404011935,1,-5.723062515,1,0.457206577,1,0.281273782,1,-0.226064876,1,-0.102413572,1
2.999525309,-17.3287735,1,-5.322564125,1,-17.04784584,1,-0.746926427,1,-5.259616852,1,0.804316342,1,0.279861391,1,-0.247916505,1,-0.106206194,1
3.003525257,-17.75807571,1,-3.530250549,1,-17.55014038,1,-1.04827714,1,-4.706365585,1,1.124976754,1,0.276702136,1,-0.26815033,1,-0.108018719,1
3.007521391,-17.42972755,1,0.203784108,1,-15.76677608,1,-1.101809382,1,-4.13222599,1,1.333982825,1,0.27233687,1,-0.286500275,1,-0.108033039,1
3.011518955,-17.85819054,1,4.375489712,1,-15.45549393,1,-0.96010077,1,-3.614960432,1,1.395043731,1,0.26783523,1,-0.302883953,1,-0.106813394,1
3.015518904,-17.62825584,1,4.439143658,1,-16.03510284,1,-0.749676585,1,-3.152050734,1,1.326975584,1,0.2637541,1,-0.31722641,1,-0.104458518,1
3.01952076,-16.81817818,1,0.953988671,1,-15.45506477,1,-0.520677567,1,-2.669628859,1,1.209747553,1,0.2605775,1,-0.329768658,1,-0.102453113,1
3.023524761,-14.78983593,1,-2.681242466,1,-13.04274464,1,-0.415736258,1,-2.224327803,1,1.092272401,1,0.258086085,1,-0.340408742,1,-0.100407243,1
3.027525187,-11.76638699,1,-4.997525215,1,-10.40845299,1,-0.432422906,1,-1.862173557,1,1.004581213,1,0.255681932,1,-0.349349529,1,-0.098300762,1
3.03152132,-8.186828613,1,-5.148253441,1,-9.258416176,1,-0.493231416,1,-1.641724706,1,0.905224025,1,0.253134757,1,-0.357063413,1,-0.096224084,1
3.035519123,-5.773061752,1,-4.519518852,1,-8.775958061,1,-0.546520412,1,-1.535138845,1,0.818633556,1,0.250376403,1,-0.364049375,1,-0.09433677,1
3.03951931,-4.81651783,1,-3.299636602,1,-8.764082909,1,-0.553579807,1,-1.491777658,1,0.734669685,1,0.247608498,1,-0.370676696,1,-0.092717789,1
3.043515205,-4.800356865,1,-2.406302452,1,-8.890861511,1,-0.575273991,1,-1.456027746,1,0.721214771,1,0.244821444,1,-0.377104521,1,-0.091246597,1
3.047513008,-4.919260502,1,-1.118643403,1,-9.163282394,1,-0.568728626,1,-1.403630733,1,0.730296731,1,0.241940737,1,-0.383359879,1,-0.089687832,1
3.051513195,-5.359174728,1,-0.234985724,1,-9.710084915,1,-0.555445373,1,-1.334697008,1,0.726924896,1,0.239060193,1,-0.389384031,1,-0.088039629,1
3.055509329,-5.808612823,1,-0.601886213,1,-9.742488861,1,-0.535933435,1,-1.248810649,1,0.714697182,1,0.236221418,1,-0.395084321,1,-0.086320788,1
3.059507132,-6.43652153,1,-1.256138325,1,-9.765444756,1,-0.510733545,1,-1.155849814,1,0.688079596,1,0.233454183,1,-0.400417984,1,-0.08456818,1
3.063507318,-6.340185165,1,-2.082412004,1,-9.354366302,1,-0.512987077,1,-1.055765152,1,0.661925673,1,0.230722606,1,-0.405352563,1,-0.082835034,1
3.067503691,-5.755229473,1,-2.292526722,1,-9.410744667,1,-0.521926761,1,-0.963088334,1,0.627311766,1,0.227971926,1,-0.409854412,1,-0.081092484,1
3.071501493,-5.28613472,1,-2.29583168,1,-9.204362869,1,-0.515984714,1,-0.907677412,1,0.590392172,1,0.225231677,1,-0.414047033,1,-0.079422802,1
3.075501204,-4.892873287,1,-2.102826357,1,-9.125983238,1,-0.524281383,1,-0.879439473,1,0.554995358,1,0.222521007,1,-0.418030024,1,-0.077851765,1
3.079503298,-4.872440815,1,-2.05155611,1,-9.074493408,1,-0.540197909,1,-0.85921973,1,0.53250891,1,0.219788179,1,-0.421900094,1,-0.076370396,1
3.083501339,-5.087851048,1,-2.023998737,1,-9.01415062,1,-0.541764796,1,-0.828848481,1,0.517512083,1,0.217021689,1,-0.425649911,1,-0.07492134,1
3.087501287,-5.246403694,1,-1.946372151,1,-9.075315475,1,-0.548063576,1,-0.785667598,1,0.505030513,1,0.21425584,1,-0.429249406,1,-0.073481768,1
3.091497421,-5.225243092,1,-2.077377558,1,-9.062038422,1,-0.552596688,1,-0.738632143,1,0.497575939,1,0.211459056,1,-0.432643771,1,-0.072035156,1
3.095495462,-5.021281242,1,-2.155188084,1,-8.951530457,1,-0.550759554,1,-0.696694374,1,0.483163804,1,0.208648756,1,-0.435855985,1,-0.070576511,1
3.099495649,-4.864425659,1,-2.307341099,1,-8.844701767,1,-0.564357221,1,-0.672409058,1,0.47728318,1,0.205799222,1,-0.438926458,1,-0.069118433,1
3.103491783,-4.680640697,1,-2.346674919,1,-8.655571938,1,-0.569307745,1,-0.652240276,1,0.483335346,1,0.202902213,1,-0.441910833,1,-0.067640334,1
3.107489824,-4.597247124,1,-2.240743876,1,-8.733546257,1,-0.582917333,1,-0.627944648,1,0.471731842,1,0.199957311,1,-0.444799036,1,-0.066142537,1
3.111489773,-4.745449066,1,-2.053237677,1,-8.768609047,1,-0.579633772,1,-0.618165612,1,0.465694368,1,0.196981207,1,-0.447621822,1,-0.064642422,1
3.115485907,-4.82925272,1,-1.781491995,1,-8.845187187,1,-0.585131526,1,-0.599729836,1,0.454210848,1,0.194012001,1,-0.450364053,1,-0.06316302,1
3.119490147,-4.814490318,1,-1.550245404,1,-8.870688438,1,-0.56902796,1,-0.582190394,1,0.437054396,1,0.191067353,1,-0.453034997,1,-0.061716124,1
3.123490095,-4.859241486,1,-1.420573592,1,-8.988964081,1,-0.560205877,1,-0.56691277,1,0.423225939,1,0.18820408,1,-0.455615014,1,-0.060319412,1
3.127485991,-7.707083702,1,1.202654243,1,-10.49446583,1,-0.444785416,1,-0.510202765,1,0.283007741,1,0.185603738,1,-0.458040655,1,-0.059196997,1
3.131483793,-9.174876213,1,0.44112277,1,-10.61098385,1,-0.347077399,1,-0.168826535,1,0.385359019,1,0.183565333,1,-0.459581316,1,-0.057959016,1
3.135483742,-4.408012867,1,-0.102820657,1,-8.661074638,1,-0.310056686,1,-0.182032064,1,0.306687087,1,0.181632116,1,-0.460462153,1,-0.056576949,1
3.139485598,-2.785386801,1,-1.219747066,1,-8.399804115,1,-0.281570941,1,-0.246026218,1,0.282616466,1,0.179951802,1,-0.461522371,1,-0.055476733,1
3.143483639,-4.281549931,1,-1.946979523,1,-9.027043343,1,-0.267654926,1,-0.248118401,1,0.282828301,1,0.178396195,1,-0.462717801,1,-0.054440327,1
3.147483349,-5.426505566,1,-1.375327229,1,-9.071081161,1,-0.260874212,1,-0.207042053,1,0.269692481,1,0.176875502,1,-0.463807762,1,-0.05339196,1
3.151479483,-5.510532379,1,-0.997400939,1,-8.976795197,1,-0.251579642,1,-0.184741467,1,0.24329786,1,0.175395876,1,-0.4647533,1,-0.052397363,1
3.155477524,-5.0813241,1,-1.152443409,1,-8.93522644,1,-0.224704728,1,-0.165777504,1,0.21847266,1,0.174042284,1,-0.465605795,1,-0.051514518,1
3.159477234,-4.551455021,1,-1.031184316,1,-8.930204391,1,-0.204115734,1,-0.165762424,1,0.205418065,1,0.172826171,1,-0.466402769,1,-0.050711565,1
3.163473368,-4.420353889,1,-1.171083927,1,-8.851446152,1,-0.19237937,1,-0.169098482,1,0.193791941,1,0.171691015,1,-0.467200577,1,-0.049961764,1
3.167471409,-4.532047272,1,-1.403374672,1,-8.820047379,1,-0.18058975,1,-0.162230507,1,0.194595248,1,0.170608252,1,-0.467991829,1,-0.049233213,1
3.171471596,-4.304221153,1,-1.737966299,1,-8.64418602,1,-0.18147926,1,-0.160810947,1,0.192051992,1,0.169550732,1,-0.468761533,1,-0.048496209,1
3.17546773,-4.821921349,1,-1.696565509,1,-8.753222466,1,-0.172172964,1,-0.150033534,1,0.192697138,1,0.168517113,1,-0.469511569,1,-0.047769826,1
3.179465771,-4.739089012,1,-1.774857879,1,-8.577383041,1,-0.170409605,1,-0.143543974,1,0.188359588,1,0.167494565,1,-0.470222026,1,-0.047040787,1
3.183465719,-4.644151211,1,-1.71491158,1,-8.593241692,1,-0.178313494,1,-0.144959822,1,0.174193203,1,0.166490585,1,-0.470897645,1,-0.046357226,1
3.187461615,-4.564478874,1,-1.807461023,1,-8.512328148,1,-0.172011614,1,-0.127664655,1,0.179133445,1,0.165479094,1,-0.471547633,1,-0.045670908,1
3.191459894,-4.510140896,1,-1.765017748,1,-8.51597023,1,-0.168069705,1,-0.114190154,1,0.186277717,1,0.164476439,1,-0.472145766,1,-0.044951841,1
3.195459843,-4.695837021,1,-1.783565879,1,-8.503158569,1,-0.171019495,1,-0.108581021,1,0.182648495,1,0.163455725,1,-0.472699255,1,-0.044211693,1
3.199461937,-4.763655186,1,-1.878069401,1,-8.429742813,1,-0.169101328,1,-0.085880607,1,0.183354005,1,0.162426919,1,-0.473199964,1,-0.043469623,1
3.203459978,-4.933234215,1,-1.939977527,1,-8.470482826,1,-0.168885767,1,-0.072079696,1,0.178488493,1,0.161404863,1,-0.473631561,1,-0.042716105,1
3.207460165,-4.778582096,1,-1.825673223,1,-8.428459167,1,-0.170449421,1,-0.050446592,1,0.18201299,1,0.160391435,1,-0.473986745,1,-0.041974846,1
3.21145606,-4.778493404,1,-1.683926582,1,-8.385215759,1,-0.176326662,1,-0.041902684,1,0.164422274,1,0.159353718,1,-0.474283934,1,-0.04123611,1
3.215460062,-4.776279449,1,-1.547077298,1,-8.438786507,1,-0.183222532,1,-0.031897482,1,0.159614354,1,0.158317626,1,-0.474534333,1,-0.040546142,1
3.219460011,-4.735182762,1,-1.544288039,1,-8.410824776,1,-0.183260158,1,-0.010208854,1,0.151389956,1,0.157278493,1,-0.474716127,1,-0.039870095,1
3.223456144,-4.688263416,1,-1.395022392,1,-8.495908737,1,-0.175577298,1,0.003232591,1,0.143332109,1,0.15626274,1,-0.47481668,1,-0.039216921,1
3.227454185,-4.767041683,1,-1.22020483,1,-8.480959892,1,-0.174741954,1,0.011667173,1,0.130201221,1,0.15528436,1,-0.474875867,1,-0.038604368,1
3.231454134,-4.567688942,1,-1.188305736,1,-8.458282471,1,-0.163917884,1,0.024607282,1,0.120089315,1,0.154343858,1,-0.474865437,1,-0.038041253,1
3.235450268,-4.735454082,1,-1.198336601,1,-8.52186203,1,-0.164065883,1,0.037918661,1,0.113931797,1,0.153437436,1,-0.474802256,1,-0.037493106,1
3.239448309,-4.733338833,1,-1.161107779,1,-8.599124908,1,-0.156640738,1,0.048799958,1,0.093812279,1,0.152569368,1,-0.474692434,1,-0.037004635,1
3.243448257,-4.55585289,1,-1.057470918,1,-8.499272346,1,-0.159711912,1,0.057663631,1,0.080980308,1,0.151738122,1,-0.474526554,1,-0.036576927,1
3.247444391,-4.700704098,1,-1.006642938,1,-8.600244522,1,-0.16273348,1,0.060681704,1,0.063847974,1,0.15092957,1,-0.474329531,1,-0.036209866,1
3.251442432,-4.719130039,1,-1.038647413,1,-8.607517242,1,-0.151859254,1,0.068182357,1,0.048439499,1,0.150170475,1,-0.474110901,1,-0.03591964,1
3.255442619,-4.575736046,1,-0.991378307,1,-8.644511223,1,-0.146387741,1,0.063597105,1,0.030372351,1,0.149476349,1,-0.473876476,1,-0.035695009,1
3.259444714,-4.550827503,1,-0.996471703,1,-8.715847015,1,-0.146265626,1,0.056659866,1,0.015284681,1,0.148831338,1,-0.473649412,1,-0.035555571,1
3.263442755,-4.503025532,1,-0.985143661,1,-8.721559525,1,-0.130424723,1,0.050083075,1,0.005690061,1,0.146604598,1,-0.479991645,1,-0.04770118,1
3.267442703,-4.456668377,1,-0.981975198,1,-8.737602234,1,-0.119607054,1,0.029116049,1,-0.013672587,1,0.146080598,1,-0.479691803,1,-0.047043789,1
3.271438599,-4.402973652,1,-0.910570204,1,-8.76424408,1,-0.106393807,1,0.016009383,1,-0.022770062,1,0.145666957,1,-0.479592532,1,-0.047099996,1
3.27543664,-4.43253231,1,-1.048328638,1,-8.782110214,1,-0.091370247,1,0.002302614,1,-0.029314967,1,0.145329878,1,-0.479542404,1,-0.047211554,1
3.279436588,-4.433086395,1,-1.201350331,1,-8.743701935,1,-0.08339332,1,0.000242763,1,-0.032893911,1,0.145049855,1,-0.479520619,1,-0.047351141,1
3.283432484,-4.548763752,1,-1.369672179,1,-8.823719025,1,-0.082416415,1,-0.008514008,1,-0.034396235,1,0.1447853,1,-0.479518056,1,-0.047506832,1
3.287430763,-4.357356071,1,-1.452659726,1,-8.660282135,1,-0.087344989,1,-0.009752513,1,-0.037927531,1,0.144527659,1,-0.479544759,1,-0.047680464,1
3.291430712,-4.491471767,1,-1.367130756,1,-8.795132637,1,-0.084728323,1,-0.009155625,1,-0.035585236,1,0.144266248,1,-0.479560345,1,-0.047858175,1
3.295426607,-4.435792923,1,-1.350501299,1,-8.714763641,1,-0.084973127,1,-0.011298397,1,-0.042765431,1,0.144008309,1,-0.479589045,1,-0.048034951,1
3.29942441,-4.344432354,1,-1.353063226,1,-8.521681786,1,-0.052973583,1,-0.000216091,1,-0.051794309,1,0.14381969,1,-0.479567945,1,-0.048242848,1
3.303424597,-4.710430622,1,-1.640555143,1,-8.754987717,1,-0.092207342,1,-0.022071596,1,-0.021446222,1,0.143623322,1,-0.479597449,1,-0.048419949,1
3.307420731,-4.357116699,1,-1.324717879,1,-8.606847763,1,-0.076486722,1,-0.017565783,1,-0.021156525,1,0.143329859,1,-0.479652613,1,-0.048523638,1
3.311418533,-4.491434097,1,-1.526061177,1,-8.719913483,1,-0.073567547,1,-0.026517037,1,-0.01278394,1,0.143073618,1,-0.479735434,1,-0.048614357,1
3.315424681,-4.469695091,1,-1.444620609,1,-8.625572205,1,-0.076436691,1,-0.033748418,1,-0.011139741,1,0.142797425,1,-0.4798446,1,-0.048682284,1
3.319427013,-4.489081383,1,-1.45100379,1,-8.635137558,1,-0.076680787,1,-0.031528097,1,-0.003805392,1,0.142511681,1,-0.479975104,1,-0.048728731,1
3.323425293,-4.532472134,1,-1.502014875,1,-8.564564705,1,-0.083077066,1,-0.033235636,1,0.010664259,1,0.142184898,1,-0.480101496,1,-0.04873018,1
3.327425241,-4.42424202,1,-1.511393309,1,-8.63637352,1,-0.070824161,1,-0.026227769,1,0.019564802,1,0.141867563,1,-0.48022154,1,-0.048689052,1
