Time,inertial-6253.76535:estCompensatedAccelX,inertial-6253.76535:estCompensatedAccelX:valid,inertial-6253.76535:estCompensatedAccelY,inertial-6253.76535:estCompensatedAccelY:valid,inertial-6253.76535:estCompensatedAccelZ,inertial-6253.76535:estCompensatedAccelZ:valid,inertial-6253.76535:estAngularRateX,inertial-6253.76535:estAngularRateX:valid,inertial-6253.76535:estAngularRateY,inertial-6253.76535:estAngularRateY:valid,inertial-6253.76535:estAngularRateZ,inertial-6253.76535:estAngularRateZ:valid,inertial-6253.76535:estRoll,inertial-6253.76535:estRoll:valid,inertial-6253.76535:estPitch,inertial-6253.76535:estPitch:valid,inertial-6253.76535:estYaw,inertial-6253.76535:estYaw:valid
0,-4.883336067,1,-3.335708618,1,-8.081588745,1,0.133861825,1,-0.080799937,1,-0.067759752,1,0.283369482,1,-0.537809193,1,-0.182224676,1
0.003997696,-4.979784966,1,-3.231791496,1,-8.090219498,1,0.109798327,1,-0.08265882,1,-0.063536085,1,0.284067571,1,-0.538049042,1,-0.182617217,1
0.008003328,-5.031092644,1,-3.146203279,1,-8.052827835,1,0.096479312,1,-0.075810432,1,-0.049672991,1,0.284663141,1,-0.538296342,1,-0.182972863,1
0.012005376,-4.932389736,1,-3.048810482,1,-8.072055817,1,0.079055846,1,-0.079722337,1,-0.03971798,1,0.285164446,1,-0.538540959,1,-0.183266684,1
0.016003327,-4.85003233,1,-2.962340593,1,-8.072451591,1,0.068570435,1,-0.0759665,1,-0.030834414,1,0.285595953,1,-0.538801908,1,-0.18353194,1
0.020003073,-4.784527302,1,-2.831473827,1,-8.156575203,1,0.058810428,1,-0.081429757,1,-0.024966627,1,0.285975218,1,-0.539068878,1,-0.183763489,1
0.024005121,-4.849730968,1,-2.78924799,1,-8.192077637,1,0.055846948,1,-0.086869836,1,-0.018097747,1,0.286316872,1,-0.539364874,1,-0.183972344,1
0.028003072,-4.923539162,1,-2.695361614,1,-8.196619987,1,0.051370908,1,-0.090857357,1,-0.021514403,1,0.286629498,1,-0.539682686,1,-0.184176639,1
0.032002561,-4.939825058,1,-2.609350443,1,-8.152699471,1,0.047477763,1,-0.09221641,1,-0.019742427,1,0.286919862,1,-0.540023327,1,-0.184379771,1
0.036004353,-5.007603645,1,-2.522961617,1,-8.110298157,1,0.041415181,1,-0.092248224,1,-0.013022341,1,0.287195981,1,-0.540360272,1,-0.184583083,1
0.040002048,-4.996952534,1,-2.525211573,1,-8.087014198,1,0.04393049,1,-0.094904087,1,-0.021504527,1,0.28747946,1,-0.540704846,1,-0.184796736,1
0.044001792,-4.953223705,1,-2.542661905,1,-8.144269943,1,0.042018693,1,-0.098170884,1,-0.01729984,1,0.287767708,1,-0.54104799,1,-0.185018197,1
0.048003584,-4.91181612,1,-2.578863144,1,-8.074443817,1,0.042302515,1,-0.100373454,1,-0.023768241,1,0.288046062,1,-0.54140389,1,-0.185237721,1
0.052001536,-4.929883003,1,-2.786663294,1,-8.117292404,1,0.042182658,1,-0.101738267,1,-0.019121483,1,0.288330436,1,-0.541767657,1,-0.185465142,1
0.05600128,-4.866631508,1,-2.894603729,1,-8.041918755,1,0.025188947,1,-0.103063434,1,-0.016353987,1,0.288575172,1,-0.542135596,1,-0.18567723,1
0.060002815,-4.935042858,1,-2.943095446,1,-7.960810661,1,0.022279575,1,-0.099869989,1,-0.009909631,1,0.288780421,1,-0.542514682,1,-0.185870633,1
0.064000256,-4.960942745,1,-2.816367388,1,-7.914588451,1,0.016403196,1,-0.095046423,1,-0.007477665,1,0.288939327,1,-0.542883933,1,-0.186039791,1
0.067999743,-5.000742435,1,-2.572206259,1,-7.9641366,1,0.01926407,1,-0.095860444,1,-0.010201396,1,0.289096206,1,-0.543241262,1,-0.186207965,1
0.072001278,-5.008167744,1,-2.363122463,1,-7.972562313,1,0.020300033,1,-0.092422076,1,-0.008797389,1,0.289261192,1,-0.543594658,1,-0.186375096,1
0.07599923,-4.96214819,1,-2.324660063,1,-8.057260513,1,0.026102543,1,-0.094912753,1,-0.014871606,1,0.289458215,1,-0.543938518,1,-0.186559916,1
0.079998717,-4.967462063,1,-2.301547289,1,-8.053380966,1,0.031937301,1,-0.096130811,1,-0.021645863,1,0.289673418,1,-0.544275284,1,-0.18676658,1
0.08400026,-5.038774014,1,-2.434939146,1,-7.995922565,1,0.037459627,1,-0.090088122,1,-0.023710724,1,0.289931655,1,-0.544602633,1,-0.186999366,1
0.087998211,-5.09186697,1,-2.509833336,1,-7.959026337,1,0.03893581,1,-0.086777903,1,-0.025388228,1,0.2902008,1,-0.544911802,1,-0.187227011,1
0.091997698,-5.074719906,1,-2.601605415,1,-7.957476616,1,0.03561933,1,-0.081482552,1,-0.026071439,1,0.290472597,1,-0.545204103,1,-0.187457651,1
0.095999233,-5.03181076,1,-2.596572399,1,-7.96107626,1,0.0415099,1,-0.077106752,1,-0.027060229,1,0.290747762,1,-0.54546988,1,-0.187687069,1
0.099996924,-5.049378872,1,-2.645773172,1,-7.928176403,1,0.034855917,1,-0.076059751,1,-0.028074725,1,0.29101786,1,-0.545730531,1,-0.187911466,1
0.103996418,-5.043754578,1,-2.680482626,1,-7.905138493,1,0.030195419,1,-0.067252688,1,-0.021794548,1,0.29125616,1,-0.545969248,1,-0.188127324,1
0.107998207,-5.092125416,1,-2.714305878,1,-7.869765759,1,0.025342187,1,-0.061210264,1,-0.022588568,1,0.291469097,1,-0.546194792,1,-0.188315615,1
0.111996159,-5.113658905,1,-2.684467554,1,-7.821192741,1,0.023711657,1,-0.052704256,1,-0.018695042,1,0.291661024,1,-0.546392977,1,-0.188490063,1
0.115995646,-5.141931057,1,-2.645386219,1,-7.823586941,1,0.018261228,1,-0.046897605,1,-0.019270977,1,0.291826338,1,-0.546555281,1,-0.188643187,1
0.119997181,-5.092485905,1,-2.576132298,1,-7.877673626,1,0.026485464,1,-0.040124901,1,-0.018636744,1,0.291987419,1,-0.546694934,1,-0.188780308,1
0.123994879,-5.087656498,1,-2.573919535,1,-7.904163361,1,0.021590862,1,-0.034980074,1,-0.01817327,1,0.29215312,1,-0.546812057,1,-0.188915238,1
0.128000513,-5.135667801,1,-2.618304014,1,-7.858375549,1,0.025760463,1,-0.026199395,1,-0.017827483,1,0.292301506,1,-0.546906531,1,-0.189039886,1
0.132002309,-5.134516716,1,-2.659428358,1,-7.88958168,1,0.021060964,1,-0.026750902,1,-0.016251612,1,0.292447686,1,-0.546992242,1,-0.189157113,1
0.136000007,-5.116505146,1,-2.649549961,1,-7.890082359,1,0.019642854,1,-0.019104857,1,-0.016711066,1,0.292586505,1,-0.54705286,1,-0.189258054,1
0.139999747,-5.146614552,1,-2.594355583,1,-7.945554733,1,0.022851055,1,-0.016542099,1,-0.017523263,1,0.292726278,1,-0.547102034,1,-0.189357549,1
0.144001529,-5.116100311,1,-2.554787159,1,-7.970880508,1,0.025153194,1,-0.013658524,1,-0.019445736,1,0.29286772,1,-0.54713589,1,-0.189448506,1
0.147999227,-5.074437141,1,-2.524991751,1,-8.03797245,1,0.024722407,1,-0.006339165,1,-0.01750806,1,0.293023586,1,-0.547154367,1,-0.189549506,1
0.151998982,-5.093445301,1,-2.508249521,1,-8.050224304,1,0.0292584,1,-0.012168957,1,-0.023788627,1,0.29319483,1,-0.5471735,1,-0.189655155,1
0.156000763,-5.071510792,1,-2.59732008,1,-8.058655739,1,0.028981227,1,-0.011217158,1,-0.027774476,1,0.293374121,1,-0.54718852,1,-0.189778879,1
0.159998462,-5.07696867,1,-2.612317562,1,-8.07491684,1,0.025057144,1,-0.009007832,1,-0.020143313,1,0.293538541,1,-0.547204077,1,-0.189897344,1
0.163997948,-5.078994274,1,-2.658033609,1,-8.061507225,1,0.024106164,1,-0.00596381,1,-0.022985067,1,0.293702751,1,-0.547215343,1,-0.190010637,1
0.167999491,-5.059326649,1,-2.687151909,1,-8.019722939,1,0.022058483,1,-0.006713577,1,-0.023818817,1,0.293836176,1,-0.5472157,1,-0.19011429,1
0.171997443,-5.041884899,1,-2.787154913,1,-8.01559639,1,0.012962785,1,0.00026234,1,-0.016748387,1,0.29394266,1,-0.547214448,1,-0.190205112,1
0.175996929,-5.068498135,1,-2.857093334,1,-7.993602753,1,0.002288824,1,-0.003333632,1,-0.014018829,1,0.294014871,1,-0.547204137,1,-0.190287977,1
0.179998457,-5.124615669,1,-2.900371075,1,-7.933628559,1,-0.010665109,1,0.001310026,1,-0.009551499,1,0.294844627,1,-0.546986699,1,-0.190990478,1
0.183996156,-5.132122993,1,-2.852104902,1,-7.913142204,1,-0.016109139,1,0.006084693,1,-0.000931262,1,0.294805229,1,-0.546967208,1,-0.191011444,1
0.187995911,-5.126814365,1,-2.756312609,1,-7.971927166,1,-0.02411437,1,0.014286155,1,-0.005557232,1,0.294718325,1,-0.546923339,1,-0.191005304,1
0.191997439,-5.111967087,1,-2.6528368,1,-7.965923786,1,-0.028441729,1,0.018912271,1,0.005727264,1,0.294597805,1,-0.546869457,1,-0.190974116,1
0.195995137,-5.090821743,1,-2.57164669,1,-8.01913166,1,-0.022503039,1,0.018608209,1,0.010249129,1,0.294470012,1,-0.546804726,1,-0.190914482,1
0.199994624,-5.07839489,1,-2.634644985,1,-8.039027214,1,-0.016188601,1,0.018289009,1,0.015037615,1,0.294351101,1,-0.546752095,1,-0.190825537,1
0.20399642,-5.06581068,1,-2.696890593,1,-8.056697845,1,-0.004006507,1,0.010320002,1,0.025137164,1,0.294248044,1,-0.546715379,1,-0.1907074,1
0.207994118,-5.003511906,1,-2.734597921,1,-8.045168877,1,-0.006923238,1,0.007855553,1,0.03307033,1,0.294143945,1,-0.546707273,1,-0.190551132,1
0.211993605,-5.027346134,1,-2.750567198,1,-8.004524231,1,-0.006492527,1,0.010911102,1,0.040722966,1,0.294026583,1,-0.546705127,1,-0.190370977,1
0.215995386,-5.071293354,1,-2.708336353,1,-8.05583477,1,-0.009565381,1,0.011865012,1,0.045420781,1,0.293884575,1,-0.546714783,1,-0.190152869,1
0.219993085,-5.085003376,1,-2.590401888,1,-8.016133308,1,-0.012705138,1,0.010430563,1,0.051342696,1,0.293722808,1,-0.546725392,1,-0.189918116,1
0.223992571,-5.171962738,1,-2.555905581,1,-8.01776123,1,-0.007183104,1,0.01440163,1,0.049883828,1,0.293560505,1,-0.546736419,1,-0.189670816,1
0.227994114,-5.113842964,1,-2.559770823,1,-8.009521484,1,-0.007546993,1,0.015418777,1,0.053394206,1,0.293394864,1,-0.546740174,1,-0.189414114,1
0.231991813,-5.07074976,1,-2.474854946,1,-8.057775497,1,0.005810676,1,0.014277213,1,0.056494493,1,0.293254763,1,-0.546749532,1,-0.189152986,1
0.235991552,-5.03530407,1,-2.480264664,1,-8.110251427,1,0.009443608,1,0.010142589,1,0.057541385,1,0.29313463,1,-0.54676789,1,-0.188884392,1
0.239993095,-5.011220932,1,-2.553124905,1,-8.113332748,1,0.016691547,1,0.010295155,1,0.064843893,1,0.293038398,1,-0.546801627,1,-0.188595742,1
0.243990526,-5.141311646,1,-2.576987982,1,-8.10661602,1,0.028386459,1,0.006323755,1,0.074171528,1,0.292964429,1,-0.546851873,1,-0.188284829,1
0.247990265,-4.714308262,1,-2.415188789,1,-7.957679749,1,0.026589919,1,0.015719652,1,0.066094436,1,0.29287082,1,-0.546896636,1,-0.18793574,1
0.251997948,-5.146883488,1,-2.455513716,1,-8.013443947,1,0.030875944,1,0.00600794,1,0.057256475,1,0.292834878,1,-0.546933115,1,-0.187646091,1
0.2560018,-5.111141682,1,-2.350752354,1,-8.051426888,1,0.031645693,1,0.013426584,1,0.050239295,1,0.292824805,1,-0.546960175,1,-0.187389597,1
0.260001779,-5.111626148,1,-2.283354282,1,-8.001145363,1,0.030186791,1,0.019751392,1,0.039879039,1,0.292820156,1,-0.546954215,1,-0.187163159,1
0.264003336,-5.074500084,1,-2.342614889,1,-8.019872665,1,0.025540341,1,0.022342717,1,0.02903587,1,0.292838275,1,-0.546925128,1,-0.186987922,1
0.26800102,-5.084962368,1,-2.484450102,1,-8.039307594,1,0.027647354,1,0.023271265,1,0.018515797,1,0.292873144,1,-0.546869755,1,-0.186845377,1
0.272000521,-5.018692493,1,-2.578951597,1,-8.061038971,1,0.019612296,1,0.026824543,1,0.017448163,1,0.292903662,1,-0.546795487,1,-0.186731905,1
0.276002049,-4.985739231,1,-2.52968955,1,-8.036561966,1,0.018096689,1,0.02732637,1,0.009972659,1,0.292927355,1,-0.546712637,1,-0.186629713,1
0.279999733,-4.965151787,1,-2.604831934,1,-7.99864006,1,0.015260547,1,0.029157886,1,0.00995349,1,0.292950749,1,-0.546621382,1,-0.186544418,1
0.283999503,-4.953701973,1,-2.680792332,1,-8.06411171,1,0.005691399,1,0.022859642,1,0.007122348,1,0.292960048,1,-0.546527922,1,-0.186470449,1
0.288001031,-4.972496986,1,-2.66372633,1,-8.064279556,1,0.007060375,1,0.029344808,1,0.006021171,1,0.29295975,1,-0.546431184,1,-0.186413363,1
0.291998714,-5.017179966,1,-2.663299799,1,-8.042356491,1,-0.001823123,1,0.030218471,1,0.003821971,1,0.292935371,1,-0.54633528,1,-0.186346933,1
0.295998216,-5.045826435,1,-2.651224136,1,-7.990152359,1,-0.003708486,1,0.028263343,1,0.004288898,1,0.292893887,1,-0.546233058,1,-0.186289549,1
0.300000012,-5.025780678,1,-2.575608015,1,-7.955042362,1,-0.007959026,1,0.031622835,1,0.000416549,1,0.292842329,1,-0.546131074,1,-0.186233044,1
0.303997695,-5.041360378,1,-2.487451315,1,-7.959812641,1,-0.006650424,1,0.028523203,1,-0.001109011,1,0.292800069,1,-0.546017289,1,-0.186202154,1
0.307997197,-4.978680134,1,-2.370283365,1,-8.014259338,1,-0.003776765,1,0.028711719,1,-0.000321621,1,0.292757988,1,-0.545901835,1,-0.186164111,1
0.311998963,-4.915480614,1,-2.363715172,1,-8.032867432,1,-0.004038191,1,0.021891648,1,-0.00647089,1,0.292743891,1,-0.54579699,1,-0.186154768,1
0.315996677,-4.884222507,1,-2.432900906,1,-8.090780258,1,0.002762793,1,0.026132504,1,-0.011361348,1,0.292762935,1,-0.54568994,1,-0.186160535,1
0.319996148,-4.879552364,1,-2.481395483,1,-8.101646423,1,0.009442753,1,0.020971237,1,-0.014169211,1,0.292804331,1,-0.545588732,1,-0.186188519,1
0.323997945,-4.898088455,1,-2.502565384,1,-8.137242317,1,0.00602855,1,0.016642107,1,-0.012373166,1,0.292844683,1,-0.545493305,1,-0.186215937,1
0.327995658,-4.891872406,1,-2.48999095,1,-8.134273529,1,0.009346136,1,0.012271522,1,-0.013900788,1,0.292890579,1,-0.545424521,1,-0.186248675,1
0.331995398,-4.94418478,1,-2.486965418,1,-8.130958557,1,0.006197116,1,0.012696163,1,-0.010249935,1,0.292936713,1,-0.545361042,1,-0.186286569,1
0.335996926,-4.928839207,1,-2.531915665,1,-8.131191254,1,0.005323315,1,0.010100293,1,-0.006812651,1,0.292978108,1,-0.545310378,1,-0.186312348,1
0.339994609,-4.907840252,1,-2.667747498,1,-8.068029404,1,0.003076984,1,0.006488883,1,-0.009574914,1,0.293006927,1,-0.545267701,1,-0.186338767,1
0.343994379,-4.922278404,1,-2.701306105,1,-8.071634293,1,-0.005871711,1,0.004839778,1,-0.006558638,1,0.293016523,1,-0.54523617,1,-0.186361685,1
0.347996145,-4.879223347,1,-2.781646013,1,-8.041884422,1,-0.008935882,1,0.007559231,1,-0.003223316,1,0.292995721,1,-0.545210063,1,-0.186373681,1
0.351993859,-4.890072823,1,-2.800944805,1,-8.033886909,1,-0.017501,1,0.003581704,1,0.003769077,1,0.292931557,1,-0.545192301,1,-0.186357573,1
0.355993599,-4.894704342,1,-2.860919237,1,-8.074131966,1,-0.032710761,1,0.002504571,1,0.015993483,1,0.292817235,1,-0.54518652,1,-0.186316535,1
0.359995127,-4.951376915,1,-2.83377099,1,-8.038339615,1,-0.041857973,1,0.004678979,1,0.018725742,1,0.292635888,1,-0.545189083,1,-0.186240494,1
0.363993078,-5.002418518,1,-2.818768263,1,-8.024074554,1,-0.04939935,1,0.006763229,1,0.019667646,1,0.292400807,1,-0.545187771,1,-0.186139375,1
0.367992818,-5.030670166,1,-2.765189409,1,-8.02135849,1,-0.056912057,1,0.006781015,1,0.027824368,1,0.292126596,1,-0.54519099,1,-0.186022937,1
0.372000515,-5.038049221,1,-2.739189148,1,-8.060370445,1,-0.062797099,1,0.007002908,1,0.029866878,1,0.291811138,1,-0.545199096,1,-0.185880333,1
0.376004338,-5.00052309,1,-2.704830647,1,-8.079183578,1,-0.075077206,1,0.00491558,1,0.031359833,1,0.291463703,1,-0.54520905,1,-0.185732752,1
0.380004108,-4.941557884,1,-2.767527819,1,-8.0748806,1,-0.071598716,1,0.00881467,1,0.034949467,1,0.291082799,1,-0.545225859,1,-0.185573816,1
0.384005636,-4.963029861,1,-2.815581799,1,-8.07886219,1,-0.082573436,1,0.003555302,1,0.039617203,1,0.290685266,1,-0.545240521,1,-0.185405686,1
0.388003588,-4.976007462,1,-2.88641715,1,-8.039370537,1,-0.093262434,1,0.004556579,1,0.047237348,1,0.290235221,1,-0.545267045,1,-0.185209066,1
0.392003059,-4.983733177,1,-2.94378686,1,-7.983028412,1,-0.103803352,1,0.005870342,1,0.051333711,1,0.289725095,1,-0.54530549,1,-0.184987724,1
0.396004856,-4.95467186,1,-2.974285126,1,-7.978360653,1,-0.114235312,1,0.00454931,1,0.057607468,1,0.289156079,1,-0.545342505,1,-0.184735924,1
0.400002569,-4.910251141,1,-2.933998585,1,-8.044552803,1,-0.12466538,1,0.00838522,1,0.068243079,1,0.288516074,1,-0.54539305,1,-0.184443638,1
0.404002041,-4.924231529,1,-2.974719048,1,-8.069926262,1,-0.135806188,1,0.001804566,1,0.073787369,1,0.28782171,1,-0.545449018,1,-0.184116721,1
0.408003837,-4.96295929,1,-3.046514273,1,-8.091991425,1,-0.148562104,1,0.002283285,1,0.079710893,1,0.28706184,1,-0.54551667,1,-0.183759555,1
0.41200155,-4.961491108,1,-3.137297869,1,-8.045969009,1,-0.166748866,1,0.004242881,1,0.090815105,1,0.286221981,1,-0.545597792,1,-0.183365494,1
0.416001022,-5.0239048,1,-3.2489779,1,-8.021079063,1,-0.179218426,1,0.003892207,1,0.102742828,1,0.285302013,1,-0.545699835,1,-0.182921857,1
0.420002818,-4.991054535,1,-3.264959335,1,-8.018292427,1,-0.1999055,1,0.008255844,1,0.112147979,1,0.284288794,1,-0.545796633,1,-0.182429612,1
0.424000502,-4.992080688,1,-3.225253344,1,-8.010038376,1,-0.214782134,1,0.011644123,1,0.126490429,1,0.283172309,1,-0.545889556,1,-0.181885824,1
0.428000242,-4.943011761,1,-3.172520161,1,-8.085758209,1,-0.228128761,1,0.013333815,1,0.132464409,1,0.282619357,1,-0.545781136,1,-0.181394175,1
0.432002038,-4.947227955,1,-3.078752995,1,-8.113489151,1,-0.246414557,1,0.013212572,1,0.137830764,1,0.28132391,1,-0.54582417,1,-0.181168213,1
0.435999751,-4.971282959,1,-2.987707615,1,-8.158215523,1,-0.259793997,1,0.013045209,1,0.145587981,1,0.279966742,1,-0.545935333,1,-0.18050383,1
0.439999491,-5.099070549,1,-2.955784798,1,-8.11211586,1,-0.270385921,1,0.008767163,1,0.15112932,1,0.278544992,1,-0.546061575,1,-0.179819956,1
0.444001287,-5.040830135,1,-2.891667843,1,-8.095458984,1,-0.282205939,1,0.008978778,1,0.156587914,1,0.277077675,1,-0.546195865,1,-0.179115906,1
0.447998971,-5.050593376,1,-2.808479309,1,-8.104402542,1,-0.292263448,1,0.008473678,1,0.165418819,1,0.275557101,1,-0.54633975,1,-0.178380117,1
0.451998711,-5.006203651,1,-2.688317299,1,-8.13312149,1,-0.295654118,1,0.008513005,1,0.169465214,1,0.273983002,1,-0.546488166,1,-0.177610636,1
0.456000268,-5.047646523,1,-2.597541094,1,-8.108847618,1,-0.303900033,1,0.008559484,1,0.174049243,1,0.272372961,1,-0.546635032,1,-0.17683132,1
0.459997952,-5.060059547,1,-2.465138674,1,-8.099442482,1,-0.30464685,1,0.008908612,1,0.180170223,1,0.27072984,1,-0.54678756,1,-0.176022545,1
0.463997692,-5.064988136,1,-2.295659065,1,-8.138243675,1,-0.30480516,1,0.006134166,1,0.174781948,1,0.269092292,1,-0.546949029,1,-0.175214097,1
0.46799922,-5.07240963,1,-2.128394127,1,-8.11147213,1,-0.295963079,1,0.005355045,1,0.172080591,1,0.267484963,1,-0.547118425,1,-0.174426571,1
0.471997172,-5.088821888,1,-1.967868924,1,-8.147260666,1,-0.283852637,1,-0.001874252,1,0.173490524,1,0.26591748,1,-0.547296703,1,-0.17364718,1
0.475996673,-5.104642391,1,-1.854310513,1,-8.191146851,1,-0.273467064,1,-0.003729482,1,0.162470058,1,0.264411569,1,-0.547484875,1,-0.172891602,1
0.479998201,-5.167742252,1,-1.73850131,1,-8.192804337,1,-0.257840931,1,-0.005329476,1,0.156859577,1,0.262977213,1,-0.547669888,1,-0.172167435,1
0.483995914,-5.103871822,1,-1.719261765,1,-8.225623131,1,-0.237434834,1,-0.011833216,1,0.15098612,1,0.261630386,1,-0.547867358,1,-0.171476707,1
0.487995386,-5.11391449,1,-1.683514476,1,-8.263008118,1,-0.216622025,1,-0.015369277,1,0.141188771,1,0.260387123,1,-0.548072278,1,-0.170833305,1
0.492003083,-5.102994442,1,-1.711347699,1,-8.242881775,1,-0.19852443,1,-0.020530466,1,0.137202144,1,0.259239405,1,-0.548285782,1,-0.170233592,1
0.496006906,-5.031211853,1,-1.767509222,1,-8.25547123,1,-0.190005824,1,-0.02722544,1,0.125673592,1,0.258162409,1,-0.548514426,1,-0.169665903,1
0.500006676,-5.04934454,1,-1.938596249,1,-8.223643303,1,-0.175191134,1,-0.031447288,1,0.124298908,1,0.257160753,1,-0.548751533,1,-0.169132143,1
0.504008472,-5.07572794,1,-2.066045761,1,-8.20276165,1,-0.16904366,1,-0.036079042,1,0.120516799,1,0.25620684,1,-0.549001575,1,-0.168624878,1
0.508006394,-5.070466518,1,-2.235164404,1,-8.159929276,1,-0.167341352,1,-0.034762487,1,0.118226089,1,0.25527969,1,-0.549259007,1,-0.168122098,1
0.512005866,-5.108524799,1,-2.410969496,1,-8.126393318,1,-0.165623248,1,-0.038203992,1,0.119560122,1,0.254372269,1,-0.549524724,1,-0.167633682,1
0.516007662,-5.059306622,1,-2.447480679,1,-8.117050171,1,-0.166462794,1,-0.031826578,1,0.121289223,1,0.253445327,1,-0.549779296,1,-0.167135343,1
0.520005405,-5.075902939,1,-2.443486452,1,-8.101758003,1,-0.172547102,1,-0.034805041,1,0.122265317,1,0.252495736,1,-0.550034165,1,-0.166625619,1
0.524005115,-5.06842041,1,-2.429924488,1,-8.106012344,1,-0.17619589,1,-0.033189058,1,0.129560828,1,0.251522392,1,-0.550300777,1,-0.166100949,1
0.528006673,-5.117445469,1,-2.3699646,1,-8.104959488,1,-0.177005827,1,-0.034905467,1,0.127416074,1,0.250529677,1,-0.550563037,1,-0.165547803,1
0.532004356,-5.114307404,1,-2.307230711,1,-8.080821037,1,-0.183013737,1,-0.035127569,1,0.132559925,1,0.249516159,1,-0.550822198,1,-0.164992616,1
0.536004066,-5.115970612,1,-2.270532131,1,-8.123519897,1,-0.180314004,1,-0.032735396,1,0.140039638,1,0.248482481,1,-0.551084578,1,-0.164412737,1
0.540005624,-5.09486866,1,-2.235114098,1,-8.07230854,1,-0.18174459,1,-0.031807672,1,0.13223432,1,0.24745363,1,-0.551344812,1,-0.163836643,1
0.544003308,-5.122944832,1,-2.261301517,1,-8.090353012,1,-0.182467952,1,-0.034338828,1,0.140374616,1,0.246416539,1,-0.551604807,1,-0.163245037,1
0.548003078,-5.068614006,1,-2.275357962,1,-8.104970932,1,-0.18030867,1,-0.031850319,1,0.137051374,1,0.245385081,1,-0.551867843,1,-0.162662178,1
0.552004874,-5.094943523,1,-2.272025824,1,-8.110934258,1,-0.183680966,1,-0.029745052,1,0.137502804,1,0.244345382,1,-0.552120805,1,-0.162063465,1
0.556002796,-5.062628746,1,-2.22303462,1,-8.109413147,1,-0.186151356,1,-0.02778269,1,0.139149398,1,0.243298799,1,-0.552362502,1,-0.161469296,1
0.560002327,-5.109884262,1,-2.202032566,1,-8.073726654,1,-0.180775613,1,-0.026483236,1,0.13385576,1,0.242249772,1,-0.552608192,1,-0.160877511,1
0.564004123,-5.155896187,1,-2.151958942,1,-8.044707298,1,-0.179415256,1,-0.024713432,1,0.136468723,1,0.241214439,1,-0.552835464,1,-0.16028522,1
0.568002045,-5.114465714,1,-2.09681797,1,-8.017057419,1,-0.180820435,1,-0.020362273,1,0.136695266,1,0.240187302,1,-0.553046286,1,-0.159689963,1
0.572001517,-5.115721703,1,-2.042444229,1,-8.039927483,1,-0.179598078,1,-0.017741561,1,0.130353495,1,0.23916477,1,-0.553247035,1,-0.159112871,1
0.576003075,-5.158120155,1,-1.98083663,1,-8.029112816,1,-0.172870919,1,-0.009144296,1,0.129243821,1,0.23815915,1,-0.553422809,1,-0.158539921,1
0.580000758,-5.132234097,1,-1.94417572,1,-8.00178051,1,-0.168156445,1,-0.007291571,1,0.122021742,1,0.237176314,1,-0.553573906,1,-0.157978535,1
0.584000528,-5.177722454,1,-1.886433721,1,-8.019412041,1,-0.16422838,1,0.00225479,1,0.116273515,1,0.236220598,1,-0.553697646,1,-0.157425284,1
0.588002324,-5.173615932,1,-1.834248424,1,-8.027123451,1,-0.158107385,1,0.002030502,1,0.111658633,1,0.235301137,1,-0.553803384,1,-0.156904131,1
0.592000008,-5.2196455,1,-1.85338819,1,-8.027867317,1,-0.154272825,1,0.00672944,1,0.105253316,1,0.234419733,1,-0.553885043,1,-0.156400561,1
0.596000016,-5.176622868,1,-1.834659934,1,-8.019515991,1,-0.141076684,1,0.010465374,1,0.102822907,1,0.233565778,1,-0.553946853,1,-0.155917928,1
0.600001812,-5.111843586,1,-1.884457707,1,-8.038611412,1,-0.141015127,1,0.014155502,1,0.095686376,1,0.232751682,1,-0.553985953,1,-0.155450299,1
0.603999496,-5.100754261,1,-2.000321627,1,-8.02902317,1,-0.140398517,1,0.018735463,1,0.09445852,1,0.231953889,1,-0.554014266,1,-0.155001983,1
0.607998967,-5.089704037,1,-2.088553667,1,-7.963931561,1,-0.137091339,1,0.022773745,1,0.092637047,1,0.231169209,1,-0.554020882,1,-0.154560745,1
0.612006903,-5.131988049,1,-2.17974782,1,-8.042712212,1,-0.137262315,1,0.027752239,1,0.092672527,1,0.230396718,1,-0.554000556,1,-0.154117242,1
0.616010725,-5.103343487,1,-2.182613611,1,-8.023206711,1,-0.143734217,1,0.033266392,1,0.085171677,1,0.229603902,1,-0.553964913,1,-0.153667957,1
0.620010734,-5.104051113,1,-2.140387774,1,-8.022784233,1,-0.140154377,1,0.032361414,1,0.09289556,1,0.228809893,1,-0.553912759,1,-0.15322195,1
0.62401253,-5.096623898,1,-2.043906927,1,-8.026988983,1,-0.138561219,1,0.039462287,1,0.089914992,1,0.228021547,1,-0.55385977,1,-0.152778789,1
0.628010511,-5.065918446,1,-2.031923532,1,-8.037364006,1,-0.138944715,1,0.035304733,1,0.092034705,1,0.227233872,1,-0.553792775,1,-0.152328372,1
0.632010221,-5.065987587,1,-2.029596567,1,-8.085260391,1,-0.135736927,1,0.04057011,1,0.085498109,1,0.226446599,1,-0.553721607,1,-0.151876405,1
0.636012018,-5.046086788,1,-2.07363081,1,-8.079989433,1,-0.134339646,1,0.04154665,1,0.083137296,1,0.225679278,1,-0.553635299,1,-0.151439786,1
0.640009701,-5.06802702,1,-1.983612418,1,-8.111205101,1,-0.132514119,1,0.043598238,1,0.081118628,1,0.224917486,1,-0.553542018,1,-0.151006341,1
0.644009471,-5.014950752,1,-1.969420075,1,-8.119848251,1,-0.13001588,1,0.03995277,1,0.082032427,1,0.224171922,1,-0.553455353,1,-0.150581807,1
0.648011267,-5.057393551,1,-1.950401902,1,-8.111480713,1,-0.130505875,1,0.043271367,1,0.08325275,1,0.223426491,1,-0.553363144,1,-0.150152802,1
0.652009189,-5.054861069,1,-1.924916148,1,-8.128817558,1,-0.1265935,1,0.041363653,1,0.081145994,1,0.222698599,1,-0.553279877,1,-0.149744362,1
0.656008959,-5.060229301,1,-1.948843122,1,-8.155391693,1,-0.122499175,1,0.038338631,1,0.080495059,1,0.222000182,1,-0.553193271,1,-0.149349034,1
0.660010517,-5.090297699,1,-1.950136423,1,-8.144345284,1,-0.118639261,1,0.041848343,1,0.072063021,1,0.221311018,1,-0.553102434,1,-0.148946971,1
0.6640082,-5.088991642,1,-1.99381578,1,-8.120207787,1,-0.117704779,1,0.041669078,1,0.075724766,1,0.220633894,1,-0.553010166,1,-0.148559362,1
0.66800791,-5.058189392,1,-1.940366507,1,-8.132369995,1,-0.109928004,1,0.03604437,1,0.080013767,1,0.219970942,1,-0.552929699,1,-0.148171589,1
0.672009468,-5.067862988,1,-1.864397049,1,-8.150610924,1,-0.10641329,1,0.037079465,1,0.075243793,1,0.219328031,1,-0.5528602,1,-0.147781223,1
0.676007152,-5.035344124,1,-1.747909069,1,-8.160593987,1,-0.102594972,1,0.03214895,1,0.07247097,1,0.218720704,1,-0.552788556,1,-0.147412568,1
0.680006683,-5.043379307,1,-1.715449333,1,-8.191326141,1,-0.093021385,1,0.025729511,1,0.070943885,1,0.218435436,1,-0.552595198,1,-0.147504717,1
0.68400842,-5.053164005,1,-1.684828639,1,-8.19492054,1,-0.084650293,1,0.02468835,1,0.061917722,1,0.217921704,1,-0.552555799,1,-0.147185907,1
0.688006401,-5.098012447,1,-1.695448995,1,-8.260819435,1,-0.081075393,1,0.018693842,1,0.057562098,1,0.217438176,1,-0.552530527,1,-0.146884367,1
0.692006171,-5.087483883,1,-1.804121137,1,-8.235901833,1,-0.072451711,1,0.016155865,1,0.058173023,1,0.216993034,1,-0.552515328,1,-0.146599069,1
0.696008205,-5.025704384,1,-1.905494213,1,-8.257127762,1,-0.065066926,1,0.011457606,1,0.051090784,1,0.216570213,1,-0.55250144,1,-0.146331593,1
0.700006127,-5.022144794,1,-1.979769111,1,-8.309418678,1,-0.067179553,1,0.014847944,1,0.05718492,1,0.216169327,1,-0.552497745,1,-0.146072522,1
0.704005659,-5.024113178,1,-2.027759314,1,-8.260592461,1,-0.069902904,1,0.010111042,1,0.055033356,1,0.215756103,1,-0.552504122,1,-0.1458029,1
0.708007395,-5.080788136,1,-2.004037857,1,-8.226428986,1,-0.06515196,1,0.007742913,1,0.058493234,1,0.215350538,1,-0.552511632,1,-0.145540908,1
0.712005138,-5.122507572,1,-2.037666321,1,-8.197401047,1,-0.070222706,1,0.007055665,1,0.051483177,1,0.214942202,1,-0.552523911,1,-0.145277217,1
0.716004848,-5.106105328,1,-2.056722164,1,-8.179162025,1,-0.069570653,1,0.010793282,1,0.053575717,1,0.214526117,1,-0.55253011,1,-0.145018339,1
0.720006645,-5.133732796,1,-1.997982979,1,-8.177215576,1,-0.067748562,1,0.007955086,1,0.054803342,1,0.214123294,1,-0.552550256,1,-0.144762978,1
0.724004328,-5.157493114,1,-1.928007483,1,-8.171125412,1,-0.06875281,1,0.006960523,1,0.050245918,1,0.213710994,1,-0.552561879,1,-0.144514635,1
0.728004098,-5.13784647,1,-1.829189897,1,-8.192456245,1,-0.067170888,1,0.006507485,1,0.049627103,1,0.213319018,1,-0.55257684,1,-0.144283161,1
0.732011795,-5.13514328,1,-1.799266815,1,-8.179172516,1,-0.062607624,1,0.007886411,1,0.046748899,1,0.21293664,1,-0.552591145,1,-0.144053102,1
0.736015379,-5.128457546,1,-1.786026835,1,-8.195913315,1,-0.058545958,1,0.002149132,1,0.041997187,1,0.212585345,1,-0.552607477,1,-0.143847048,1
0.74001509,-5.122888565,1,-1.73464179,1,-8.238433838,1,-0.050704043,1,0.003328302,1,0.035580441,1,0.212270424,1,-0.552629709,1,-0.1436591,1
0.744016647,-5.091444969,1,-1.763347983,1,-8.21057415,1,-0.045501031,1,0.002195537,1,0.034792505,1,0.211982086,1,-0.552644908,1,-0.143485308,1
0.748014569,-5.089327812,1,-1.786106229,1,-8.20684433,1,-0.039665505,1,0.001000244,1,0.031788759,1,0.211730942,1,-0.55266732,1,-0.143331721,1
0.752014339,-5.057145119,1,-1.857721448,1,-8.195713997,1,-0.040724672,1,0.00014948,1,0.0288733,1,0.211495101,1,-0.552693903,1,-0.143186375,1
0.756015897,-5.035876751,1,-1.929849267,1,-8.190376282,1,-0.036855727,1,0.000672198,1,0.029268032,1,0.211263642,1,-0.552718401,1,-0.143053293,1
0.760013819,-5.041134834,1,-1.940265059,1,-8.164741516,1,-0.03832671,1,-0.002632052,1,0.029992716,1,0.211044848,1,-0.552745759,1,-0.142918363,1
0.76401329,-5.063727379,1,-1.99835062,1,-8.148663521,1,-0.037581913,1,0.002800109,1,0.03183189,1,0.210824594,1,-0.552766025,1,-0.142780125,1
0.768014848,-5.069489956,1,-2.02012229,1,-8.146648407,1,-0.042383853,1,-0.00046838,1,0.029727763,1,0.210589677,1,-0.552788734,1,-0.142635316,1
0.772012532,-5.053090572,1,-2.025388956,1,-8.135379791,1,-0.043278351,1,0.005245917,1,0.030808778,1,0.21034117,1,-0.552801549,1,-0.142486751,1
0.776012003,-5.090450764,1,-2.023459673,1,-8.152796745,1,-0.045149308,1,0.007176607,1,0.032413132,1,0.210088834,1,-0.552806079,1,-0.142333031,1
0.7800138,-5.102478027,1,-1.968661666,1,-8.17762661,1,-0.047052018,1,0.007905238,1,0.03032651,1,0.209824443,1,-0.552808225,1,-0.142184138,1
0.784011543,-5.088461399,1,-1.945277095,1,-8.162810326,1,-0.047509205,1,0.003804812,1,0.033909693,1,0.209553316,1,-0.552803397,1,-0.142023101,1
0.788011014,-5.124492645,1,-1.873074651,1,-8.174391747,1,-0.045375612,1,0.007528408,1,0.028511433,1,0.209290683,1,-0.552802086,1,-0.141870856,1
0.792012811,-5.079015255,1,-1.884744644,1,-8.162348747,1,-0.048008382,1,0.012945662,1,0.032134824,1,0.209028363,1,-0.552789032,1,-0.141717792,1
0.796010494,-5.077680588,1,-1.836833,1,-8.194074631,1,-0.043420821,1,0.003072699,1,0.025291899,1,0.208786145,1,-0.552774489,1,-0.141584188,1
0.800009966,-5.072773457,1,-1.793863297,1,-8.194374084,1,-0.035097074,1,0.005332345,1,0.029752599,1,0.208553255,1,-0.55277127,1,-0.141448259,1
0.804011762,-5.070757389,1,-1.753167152,1,-8.195737839,1,-0.03477126,1,0.003850245,1,0.022002488,1,0.208345667,1,-0.552769303,1,-0.141329825,1
0.808009446,-5.047125816,1,-1.726839542,1,-8.20412159,1,-0.027176842,1,0.003507324,1,0.027726984,1,0.208163098,1,-0.5527758,1,-0.141219616,1
0.812009215,-5.049575806,1,-1.719566703,1,-8.204921722,1,-0.024759637,1,-0.00134573,1,0.021845665,1,0.208005175,1,-0.552793562,1,-0.141117498,1
0.816011012,-5.050887108,1,-1.796637535,1,-8.228506088,1,-0.019995734,1,-0.004260652,1,0.016119128,1,0.207878754,1,-0.552817345,1,-0.14103578,1
0.820008934,-5.04737854,1,-1.76111114,1,-8.188209534,1,-0.014012543,1,-0.00609123,1,0.011825169,1,0.207783982,1,-0.552850723,1,-0.140978009,1
0.824008703,-5.05690527,1,-1.766887665,1,-8.17206955,1,-0.013057811,1,-0.005618311,1,0.010478701,1,0.207706869,1,-0.552882195,1,-0.140936792,1
0.828010261,-5.101342678,1,-1.704034686,1,-8.139736176,1,-0.009357263,1,-0.00619206,1,0.007627224,1,0.207646146,1,-0.552916586,1,-0.140891314,1
0.832007945,-5.078715801,1,-1.713820934,1,-8.147729874,1,0.001781025,1,-0.004680304,1,0.0016457,1,0.207616597,1,-0.552951515,1,-0.140881181,1
0.836007655,-5.090959549,1,-1.719907522,1,-8.14430809,1,-0.003624906,1,-0.006682614,1,-0.002225006,1,0.207608372,1,-0.552978277,1,-0.140880033,1
0.840009212,-5.124688625,1,-1.745395303,1,-8.144314766,1,0.002440429,1,-0.004491856,1,0.002159951,1,0.207611978,1,-0.553002656,1,-0.140886158,1
0.844006896,-5.090612411,1,-1.797774076,1,-8.122182846,1,0.010013184,1,-0.009422672,1,-0.006298818,1,0.207645282,1,-0.553033352,1,-0.140904441,1
0.848006427,-5.095430851,1,-1.88724041,1,-8.10824585,1,0.009026438,1,-0.007811378,1,-0.007732064,1,0.20769763,1,-0.553060293,1,-0.140939862,1
0.852014065,-5.078050613,1,-1.849794507,1,-8.119875908,1,0.009245537,1,-0.006727654,1,-0.009608761,1,0.207756385,1,-0.553082585,1,-0.140982389,1
0.856017947,-5.050366402,1,-1.823670745,1,-8.16886425,1,0.015316527,1,-0.008018109,1,-0.010838147,1,0.207837299,1,-0.553107202,1,-0.141031086,1
0.860017657,-5.013675213,1,-1.842592001,1,-8.193415642,1,0.014186399,1,-0.009572488,1,-0.01140833,1,0.207925543,1,-0.55312556,1,-0.14109686,1
0.864019215,-5.034368038,1,-1.856650114,1,-8.196194649,1,0.017162127,1,-0.007229218,1,-0.013664506,1,0.208014622,1,-0.55314517,1,-0.141157418,1
0.868016899,-5.012159824,1,-1.962850928,1,-8.177142143,1,0.015189039,1,-0.005853888,1,-0.012486184,1,0.208114833,1,-0.55316925,1,-0.141229048,1
0.87201637,-5.027869701,1,-2.030000687,1,-8.187990189,1,0.018610675,1,-0.010073385,1,-0.009000571,1,0.208211213,1,-0.553190053,1,-0.141289964,1
0.876018167,-5.054528713,1,-2.093034983,1,-8.213262558,1,0.012322048,1,-0.007951119,1,-0.006368532,1,0.208281592,1,-0.553224742,1,-0.141332313,1
0.88001585,-5.047614098,1,-2.142571449,1,-8.206189156,1,0.00446551,1,-0.006285897,1,0.000468269,1,0.208328843,1,-0.553250313,1,-0.141365945,1
0.884015381,-5.075880527,1,-2.078325987,1,-8.19757843,1,-0.001285561,1,-0.007227479,1,-0.003440595,1,0.208336204,1,-0.553282142,1,-0.141373828,1
0.888017178,-5.144495964,1,-2.024180412,1,-8.164825439,1,-0.005381104,1,-0.007561189,1,0.004836655,1,0.208325654,1,-0.553312302,1,-0.14137812,1
0.892014861,-5.106215477,1,-1.96129775,1,-8.156100273,1,-0.00559177,1,-0.006272675,1,0.008127879,1,0.208298936,1,-0.553336918,1,-0.141365185,1
0.896014333,-5.134278774,1,-1.919541955,1,-8.158276558,1,-0.009451203,1,-0.00824868,1,0.009075372,1,0.208259389,1,-0.553365588,1,-0.141325876,1
0.900016129,-5.085739136,1,-1.835331202,1,-8.182907104,1,-0.003317006,1,-0.00566862,1,0.008029833,1,0.208217204,1,-0.553401768,1,-0.14129588,1
0.904013813,-5.118408203,1,-1.736867547,1,-8.174977303,1,-0.001862776,1,-0.006952506,1,0.008358365,1,0.208183363,1,-0.553438008,1,-0.141257882,1
0.908013821,-5.103016376,1,-1.754531145,1,-8.207063675,1,0.003014451,1,-0.007567536,1,0.005244424,1,0.208178341,1,-0.553468883,1,-0.141245052,1
0.912015617,-5.117649555,1,-1.781042695,1,-8.166752815,1,0.005221667,1,-0.009059245,1,0.001980517,1,0.208174348,1,-0.553505361,1,-0.141226992,1
0.9160133,-5.093512535,1,-1.847339034,1,-8.184288025,1,0.008493306,1,-0.008322044,1,0.001732148,1,0.208197623,1,-0.553547621,1,-0.141226441,1
0.92001307,-5.070379257,1,-1.831718445,1,-8.189718246,1,0.007470035,1,-0.011521763,1,0.001372227,1,0.208242908,1,-0.553588748,1,-0.141227424,1
0.924014866,-5.035705566,1,-1.893818259,1,-8.213524818,1,0.01175075,1,-0.013342157,1,0.004523543,1,0.208279043,1,-0.553636432,1,-0.141222194,1
0.92801255,-5.067345142,1,-1.922883511,1,-8.226403236,1,0.011850603,1,-0.0179698,1,0.001489174,1,0.208632216,1,-0.553556681,1,-0.141278192,1
0.932012022,-5.094648361,1,-1.976147652,1,-8.175543785,1,0.012784374,1,-0.016368892,1,0.001348498,1,0.208669573,1,-0.55356431,1,-0.141694769,1
0.936013579,-5.05971384,1,-1.925923824,1,-8.15425396,1,0.014067545,1,-0.019090071,1,-0.000441055,1,0.208735377,1,-0.55363363,1,-0.141713634,1
0.940011263,-5.07236433,1,-1.879208326,1,-8.206711769,1,0.016341563,1,-0.015043491,1,0.000306501,1,0.208802089,1,-0.553703547,1,-0.141723424,1
0.944010735,-5.130724907,1,-1.907267094,1,-8.171847343,1,0.015497497,1,-0.017988186,1,-0.004952439,1,0.20887576,1,-0.553771019,1,-0.141753018,1
0.948012292,-5.116618156,1,-1.90768373,1,-8.173667908,1,0.015528967,1,-0.014423427,1,0.001661251,1,0.208956346,1,-0.553837419,1,-0.141773939,1
0.952009976,-5.143462658,1,-1.931882381,1,-8.16893959,1,0.015273803,1,-0.018626558,1,-0.003117197,1,0.209031194,1,-0.553905249,1,-0.141796634,1
0.956009448,-5.108153343,1,-1.999236107,1,-8.131976128,1,0.01157492,1,-0.017960133,1,-0.000862854,1,0.209103495,1,-0.553961694,1,-0.141817361,1
0.960011005,-5.110174656,1,-1.988393903,1,-8.120473862,1,0.011896652,1,-0.016973682,1,-0.001076924,1,0.209162995,1,-0.5540362,1,-0.1418318,1
0.964008689,-5.08395052,1,-1.978191972,1,-8.155478477,1,0.014433174,1,-0.01468045,1,-0.003911553,1,0.20922409,1,-0.554093122,1,-0.141850606,1
0.96800822,-5.08309412,1,-1.900376797,1,-8.167322159,1,0.014375254,1,-0.016609877,1,-0.00126489,1,0.209289744,1,-0.554159522,1,-0.141873926,1
0.972015858,-5.094297409,1,-1.856555104,1,-8.173883438,1,0.015039294,1,-0.017271239,1,-0.003751128,1,0.209356651,1,-0.554224253,1,-0.141899064,1
0.97601974,-5.019065857,1,-1.86831224,1,-8.205505371,1,0.019204378,1,-0.019435532,1,-0.002997656,1,0.209426731,1,-0.554292917,1,-0.141923994,1
0.98001945,-5.002986431,1,-1.907236695,1,-8.227435112,1,0.014970397,1,-0.021036349,1,0.000922898,1,0.209504604,1,-0.554371774,1,-0.141957581,1
0.984021246,-5.056965351,1,-1.891154408,1,-8.236554146,1,0.016987007,1,-0.023873819,1,-0.001108662,1,0.209584475,1,-0.554453135,1,-0.14198938,1
0.98801893,-5.055683613,1,-1.949014902,1,-8.243897438,1,0.015737345,1,-0.019360878,1,-0.005249654,1,0.209676325,1,-0.554539382,1,-0.142026171,1
0.992018461,-5.067013264,1,-1.88775754,1,-8.180111885,1,0.014086365,1,-0.02897587,1,-0.00233202,1,0.209760442,1,-0.554630518,1,-0.142069951,1
0.996020198,-5.103266716,1,-1.919664145,1,-8.235943794,1,0.02150861,1,-0.024767151,1,-0.003449554,1,0.209846929,1,-0.554733872,1,-0.142110169,1
1.00001812,-5.115273476,1,-1.942706823,1,-8.202421188,1,0.017571295,1,-0.030945575,1,0.000792964,1,0.209943786,1,-0.55484432,1,-0.142147034,1
1.004017949,-5.101612091,1,-1.915376663,1,-8.214761734,1,0.02054451,1,-0.029549459,1,-0.003000563,1,0.210037723,1,-0.554962456,1,-0.142193407,1
1.008019686,-5.121520519,1,-1.911126971,1,-8.210186005,1,0.020954628,1,-0.031127611,1,-0.001702252,1,0.210139334,1,-0.555083692,1,-0.142228797,1
1.012017369,-5.102954388,1,-1.903164268,1,-8.209884644,1,0.018694595,1,-0.030432595,1,-0.003146847,1,0.210242391,1,-0.555201709,1,-0.142276704,1
1.016017199,-5.123132229,1,-1.950417161,1,-8.182644844,1,0.018356228,1,-0.033596985,1,-0.003282057,1,0.210345745,1,-0.555319965,1,-0.142324105,1
1.020018935,-5.102394581,1,-1.987890005,1,-8.151963234,1,0.018783461,1,-0.03585634,1,0.000539822,1,0.210442886,1,-0.555445194,1,-0.1423641,1
1.024016619,-5.107989788,1,-2.005983591,1,-8.119330406,1,0.015738672,1,-0.032304469,1,-0.001552537,1,0.210532978,1,-0.555576205,1,-0.142404512,1
1.028016329,-5.115787029,1,-2.016602039,1,-8.13177681,1,0.017033525,1,-0.030401206,1,0.004654311,1,0.210605532,1,-0.555703044,1,-0.142426491,1
1.032017946,-5.102750301,1,-2.02016449,1,-8.114102364,1,0.01360204,1,-0.033891991,1,0.00370651,1,0.210676089,1,-0.555838048,1,-0.142449558,1
1.03601563,-5.099078655,1,-2.037330866,1,-8.122396469,1,0.009028581,1,-0.034020573,1,0.00561888,1,0.210735887,1,-0.55596447,1,-0.142466307,1
1.040015578,-5.117654324,1,-2.008246422,1,-8.119073868,1,0.00920542,1,-0.034107994,1,0.005951582,1,0.210769936,1,-0.556093872,1,-0.142467305,1
1.044017196,-5.133550644,1,-1.957567334,1,-8.158473015,1,0.005295372,1,-0.028707039,1,0.004180282,1,0.210799813,1,-0.556217551,1,-0.142469287,1
1.048015118,-5.146193504,1,-1.881739616,1,-8.144750595,1,0.006093846,1,-0.028982714,1,0.00850673,1,0.210826203,1,-0.556333482,1,-0.142471761,1
1.052014589,-5.174212456,1,-1.858146071,1,-8.144610405,1,0.008201731,1,-0.023531647,1,0.004207004,1,0.210854322,1,-0.556440413,1,-0.142468438,1
1.056016088,-5.167402267,1,-1.779213905,1,-8.11369133,1,0.008771678,1,-0.026429851,1,0.003588396,1,0.210897729,1,-0.556539476,1,-0.142484054,1
1.060013771,-5.219143867,1,-1.748676896,1,-8.111024857,1,0.015587957,1,-0.02494368,1,0.001872154,1,0.210959285,1,-0.556637466,1,-0.142499283,1
1.064013362,-5.184043407,1,-1.773712635,1,-8.094166756,1,0.019573821,1,-0.019863112,1,-0.00078131,1,0.211031109,1,-0.556728363,1,-0.142518982,1
1.068015099,-5.194350719,1,-1.837831497,1,-8.062856674,1,0.022723384,1,-0.017970128,1,-0.001465568,1,0.211128384,1,-0.55680567,1,-0.142548203,1
1.072012782,-5.196807384,1,-1.838375211,1,-8.107377052,1,0.021379389,1,-0.020713639,1,-0.004839927,1,0.211237758,1,-0.55687058,1,-0.1425834,1
1.076012254,-5.173437119,1,-1.857894778,1,-8.077168465,1,0.021458413,1,-0.016151166,1,-0.005072263,1,0.211346552,1,-0.556950271,1,-0.142621487,1
1.08001411,-5.188067913,1,-1.919162393,1,-8.039258003,1,0.019211117,1,-0.012042584,1,-0.00824411,1,0.211456612,1,-0.556995809,1,-0.142664373,1
1.084011793,-5.1750741,1,-1.943079114,1,-8.000761032,1,0.020114478,1,-0.014866424,1,-0.005156594,1,0.211562485,1,-0.557037234,1,-0.142701,1
1.088011265,-5.224106789,1,-1.936190844,1,-8.009054184,1,0.014272594,1,-0.00728181,1,-0.006985127,1,0.211661443,1,-0.557063937,1,-0.142747208,1
1.092018962,-5.190798283,1,-1.922278047,1,-8.025021553,1,0.014022396,1,-0.005696099,1,-0.005177301,1,0.211747184,1,-0.55707854,1,-0.142789498,1
1.096022725,-5.230041027,1,-1.89090693,1,-8.005472183,1,0.016379688,1,0.005530166,1,-0.00717134,1,0.211830333,1,-0.557073057,1,-0.142823994,1
1.100022793,-5.225727081,1,-1.894015074,1,-7.998182774,1,0.016338507,1,0.007334739,1,-0.011638197,1,0.211908594,1,-0.557047427,1,-0.142862588,1
1.104024529,-5.236050129,1,-1.958389163,1,-7.993039131,1,0.013526649,1,0.012432184,1,-0.011012081,1,0.211993232,1,-0.556996763,1,-0.142908826,1
1.108022213,-5.180369854,1,-1.938326836,1,-8.03281498,1,0.012895082,1,0.022179672,1,-0.014114282,1,0.21206899,1,-0.55691576,1,-0.142950252,1
1.112022042,-5.158622742,1,-1.931933403,1,-8.066697121,1,0.01448488,1,0.02423347,1,-0.013605302,1,0.21214655,1,-0.556819201,1,-0.142986044,1
1.11602354,-5.112373352,1,-2.011548042,1,-8.030857086,1,0.013525036,1,0.030081164,1,-0.012922776,1,0.21221821,1,-0.556709051,1,-0.143017173,1
1.120021224,-5.095769882,1,-2.059072733,1,-8.093482018,1,0.008046861,1,0.030658767,1,-0.013204541,1,0.21226795,1,-0.556574285,1,-0.143051937,1
1.124020696,-5.1181283,1,-2.055617571,1,-8.120347023,1,0.004685387,1,0.032461606,1,-0.010187354,1,0.212314472,1,-0.556442559,1,-0.143075556,1
1.128022313,-5.104824066,1,-2.041242361,1,-8.099953651,1,0.003486876,1,0.036194008,1,-0.009942834,1,0.212325618,1,-0.556301177,1,-0.143086731,1
1.132019997,-5.125834465,1,-1.922000051,1,-8.129188538,1,-0.000900347,1,0.035404362,1,-0.008345223,1,0.212336302,1,-0.556156516,1,-0.143093422,1
1.136019468,-5.117816925,1,-1.938642621,1,-8.130776405,1,-0.000705431,1,0.035650428,1,-0.007921124,1,0.212345079,1,-0.556003928,1,-0.143101752,1
1.140020967,-5.088344097,1,-1.918100476,1,-8.132063866,1,-0.002048149,1,0.036576685,1,-0.007586485,1,0.212343201,1,-0.555849314,1,-0.143101677,1
1.14401865,-5.088193893,1,-1.919070959,1,-8.169910431,1,0.00685499,1,0.038584527,1,-0.011220985,1,0.212356374,1,-0.555688798,1,-0.143101543,1
1.148018718,-5.08379364,1,-1.891385913,1,-8.209149361,1,0.000985804,1,0.037404727,1,-0.009055628,1,0.212370306,1,-0.555525899,1,-0.143101498,1
1.152020216,-5.118896484,1,-1.906902671,1,-8.175909042,1,0.00680985,1,0.040989831,1,-0.008165535,1,0.212395787,1,-0.555371225,1,-0.143106431,1
1.1560179,-5.067423344,1,-1.902765274,1,-8.198517799,1,0.006310625,1,0.03423721,1,-0.011454519,1,0.212423772,1,-0.555221796,1,-0.143116891,1
1.160017371,-5.071086884,1,-1.868939281,1,-8.197176933,1,0.008425009,1,0.03197217,1,-0.008247776,1,0.212471038,1,-0.55507642,1,-0.143134937,1
1.164019465,-5.062726498,1,-1.851024389,1,-8.193741798,1,0.011633717,1,0.028884085,1,-0.008924235,1,0.212523788,1,-0.554941773,1,-0.143145338,1
1.168017387,-5.043239117,1,-1.843845725,1,-8.23107338,1,0.020959681,1,0.027344858,1,-0.009189755,1,0.212593764,1,-0.554825842,1,-0.143162638,1
1.172016859,-5.070687294,1,-1.883998752,1,-8.245159149,1,0.023003677,1,0.023116974,1,-0.013072687,1,0.212697178,1,-0.554714859,1,-0.143195152,1
1.176018715,-5.062771797,1,-1.909446716,1,-8.243376732,1,0.021377338,1,0.02381645,1,-0.012940364,1,0.212805077,1,-0.554614425,1,-0.143226281,1
1.180016398,-5.014183521,1,-1.926329136,1,-8.221858978,1,0.023626236,1,0.017563768,1,-0.012078688,1,0.213354111,1,-0.554376721,1,-0.143767536,1
1.18401587,-5.04101944,1,-1.951607347,1,-8.23182869,1,0.025592318,1,0.016677139,1,-0.013142198,1,0.213462442,1,-0.554295361,1,-0.143796638,1
1.188017607,-5.046502113,1,-2.007859468,1,-8.210673332,1,0.026007332,1,0.013526495,1,-0.009216709,1,0.213581815,1,-0.554229617,1,-0.143838421,1
1.192015409,-5.04308939,1,-2.020794153,1,-8.18513298,1,0.020980835,1,0.014121081,1,-0.007057104,1,0.213683113,1,-0.554169595,1,-0.14385967,1
1.19601512,-5.038897038,1,-1.981989145,1,-8.191505432,1,0.018076731,1,0.008633473,1,-0.00690781,1,0.213783368,1,-0.55412215,1,-0.143887639,1
1.200016856,-5.10243988,1,-1.993118167,1,-8.177958488,1,0.021607779,1,0.008895477,1,-0.004942142,1,0.213863179,1,-0.554078162,1,-0.143894359,1
1.20401454,-5.097511768,1,-2.038155794,1,-8.151363373,1,0.015905017,1,0.00651428,1,-0.00222983,1,0.213941693,1,-0.554044724,1,-0.143906802,1
1.208014369,-5.067260742,1,-2.018569469,1,-8.153450966,1,0.016117586,1,0.007478387,1,-0.002754291,1,0.214005783,1,-0.554007769,1,-0.143914238,1
1.212015867,-5.091043949,1,-1.970841169,1,-8.16902256,1,0.011438733,1,0.00706012,1,-0.001066643,1,0.214064226,1,-0.553968132,1,-0.143917918,1
1.216019511,-5.077431202,1,-1.969960213,1,-8.162590027,1,0.012445777,1,0.003984126,1,-0.000131688,1,0.214114338,1,-0.553949475,1,-0.143909782,1
1.220019221,-5.125700474,1,-1.878615499,1,-8.132774353,1,0.010051388,1,0.007804576,1,-0.000201184,1,0.21415773,1,-0.553922117,1,-0.143898353,1
1.22402072,-5.125644207,1,-1.967383742,1,-8.108698845,1,0.013699283,1,0.006568718,1,-0.004122871,1,0.214204103,1,-0.55388552,1,-0.143896237,1
1.228018403,-5.119299889,1,-1.957810879,1,-8.116209984,1,0.011772318,1,0.012110478,1,-0.00020801,1,0.214260563,1,-0.553856552,1,-0.14390178,1
1.232017875,-5.139480591,1,-1.928168774,1,-8.149136543,1,0.014277547,1,0.008384261,1,-0.004440134,1,0.214307353,1,-0.553810358,1,-0.143896386,1
1.236019492,-5.091270447,1,-1.937867045,1,-8.151741028,1,0.012552131,1,0.009633476,1,-0.003638207,1,0.214377776,1,-0.553773522,1,-0.143912315,1
1.240017176,-5.125389576,1,-1.905843377,1,-8.153244972,1,0.018841846,1,0.007038515,1,-0.001572299,1,0.214434132,1,-0.553735971,1,-0.143903717,1
1.244016886,-5.117163658,1,-1.983234286,1,-8.155767441,1,0.017274518,1,0.007192337,1,-0.002951817,1,0.214508221,1,-0.553700924,1,-0.143907532,1
1.24801898,-5.134709358,1,-2.006500006,1,-8.153120995,1,0.015685514,1,0.0122522,1,-0.002964576,1,0.214574859,1,-0.553661108,1,-0.143907547,1
1.25201714,-5.062649727,1,-1.997234702,1,-8.142603874,1,0.016345289,1,0.014919458,1,-0.0078665,1,0.214652821,1,-0.553602159,1,-0.143916056,1
1.256016612,-5.118392944,1,-2.040266514,1,-8.175822258,1,0.01451664,1,0.015723241,1,-0.003475623,1,0.214716256,1,-0.553546786,1,-0.143923879,1
1.260018468,-5.104084492,1,-2.00001049,1,-8.13333416,1,0.017332742,1,0.017856792,1,-0.004580917,1,0.214775637,1,-0.553480208,1,-0.143918216,1
1.264016151,-5.116297245,1,-1.949526429,1,-8.133832932,1,0.016642489,1,0.017342448,1,-0.002790638,1,0.214838147,1,-0.553409696,1,-0.143919364,1
1.268015623,-5.125967979,1,-1.836822033,1,-8.122487068,1,0.017591257,1,0.018753769,1,-0.001135697,1,0.214907333,1,-0.553340137,1,-0.143915087,1
1.27201736,-5.119913578,1,-1.829256415,1,-8.191603661,1,0.02292984,1,0.020982189,1,-0.005757213,1,0.214983195,1,-0.55326128,1,-0.143913507,1
1.276015162,-5.111079693,1,-1.800062776,1,-8.148850441,1,0.023863265,1,0.018528527,1,-0.004973386,1,0.215079501,1,-0.553184688,1,-0.143923119,1
1.280014634,-5.117043495,1,-1.776965499,1,-8.180607796,1,0.031545892,1,0.012562651,1,-0.011044487,1,0.215203762,1,-0.553112566,1,-0.143950582,1
1.284016371,-5.090702057,1,-1.760813236,1,-8.180557251,1,0.036358282,1,0.01395358,1,-0.018823236,1,0.215371519,1,-0.553040624,1,-0.144000977,1
1.288014293,-5.086802959,1,-1.840321302,1,-8.218377113,1,0.038630519,1,0.022275925,1,-0.019042348,1,0.215556175,1,-0.55295682,1,-0.144059017,1
1.292014122,-5.144632816,1,-1.905447364,1,-8.183502197,1,0.050756112,1,0.015649369,1,-0.021885976,1,0.215766057,1,-0.552868128,1,-0.14413172,1
1.296015859,-5.135126114,1,-1.896817327,1,-8.156153679,1,0.044289753,1,0.019412909,1,-0.02667203,1,0.215999827,1,-0.552788794,1,-0.1442191,1
1.300013542,-5.139968872,1,-1.856322765,1,-8.150363922,1,0.053631686,1,0.01928653,1,-0.028856754,1,0.216252074,1,-0.552690029,1,-0.144331738,1
1.30401361,-5.08796072,1,-1.853789568,1,-8.116613388,1,0.052944805,1,0.014342222,1,-0.030204533,1,0.216528282,1,-0.552594244,1,-0.144453049,1
1.308015108,-5.13537693,1,-1.82088697,1,-8.091532707,1,0.060486425,1,0.022906274,1,-0.030224485,1,0.216829374,1,-0.552491069,1,-0.144585013,1
1.312012792,-5.096451283,1,-1.810545444,1,-8.124346733,1,0.065388031,1,0.018042793,1,-0.04068863,1,0.217165515,1,-0.552377045,1,-0.144736364,1
1.316012502,-5.134590626,1,-1.791903496,1,-8.160805702,1,0.073309019,1,0.022612695,1,-0.048566386,1,0.217541754,1,-0.552251041,1,-0.144920349,1
1.320014358,-5.124892235,1,-1.801393867,1,-8.141401291,1,0.084280461,1,0.026968094,1,-0.050756417,1,0.217959255,1,-0.552115619,1,-0.145123765,1
1.32401228,-5.109706879,1,-1.815314531,1,-8.11690712,1,0.088784568,1,0.026191521,1,-0.054139338,1,0.218412876,1,-0.551964581,1,-0.145340472,1
1.32801199,-5.104017735,1,-1.889214516,1,-8.16976738,1,0.089639686,1,0.026225714,1,-0.060678657,1,0.218892336,1,-0.551819205,1,-0.145581335,1
1.332013607,-5.096323013,1,-1.973517656,1,-8.124628067,1,0.093190692,1,0.025315709,1,-0.059785109,1,0.219387427,1,-0.551669836,1,-0.145827502,1
1.33601737,-5.092843056,1,-2.048394918,1,-8.131427765,1,0.092110552,1,0.025319571,1,-0.056795262,1,0.219879702,1,-0.551520288,1,-0.146063328,1
1.3400172,-5.087068558,1,-2.052164793,1,-8.1456604,1,0.08822383,1,0.026691208,1,-0.054026946,1,0.220367953,1,-0.551369846,1,-0.146291092,1
1.344018698,-5.112460613,1,-2.123047113,1,-8.168942451,1,0.08387015,1,0.024786975,1,-0.051949307,1,0.220824555,1,-0.551215291,1,-0.146501094,1
1.34801662,-5.079705238,1,-2.212590933,1,-8.165349007,1,0.079651348,1,0.029437954,1,-0.048359662,1,0.221255645,1,-0.551050425,1,-0.146703452,1
1.352016091,-5.077638149,1,-2.278898001,1,-8.163871765,1,0.070210665,1,0.026669148,1,-0.042026926,1,0.221654013,1,-0.550897062,1,-0.146878362,1
1.356017947,-5.055160999,1,-2.27385807,1,-8.154875755,1,0.068621866,1,0.030851036,1,-0.040161185,1,0.22202298,1,-0.550748646,1,-0.147038415,1
1.360015631,-5.063132763,1,-2.29882884,1,-8.161764145,1,0.052586224,1,0.029390916,1,-0.030006362,1,0.22232601,1,-0.550603211,1,-0.147164166,1
1.364015102,-5.065094471,1,-2.285171986,1,-8.180436134,1,0.050338283,1,0.029828593,1,-0.029124457,1,0.222584039,1,-0.550458729,1,-0.147269964,1
1.368016839,-5.02091074,1,-2.323256731,1,-8.157082558,1,0.036841802,1,0.032195672,1,-0.021659359,1,0.222803786,1,-0.550316513,1,-0.147355363,1
1.372014642,-5.058479786,1,-2.248184919,1,-8.167865753,1,0.031020606,1,0.031626385,1,-0.013456631,1,0.222969264,1,-0.550178289,1,-0.147401437,1
1.376014113,-5.034962177,1,-2.228885651,1,-8.144485474,1,0.025144629,1,0.03149813,1,-0.01239188,1,0.223094076,1,-0.550036788,1,-0.147428498,1
1.38001585,-5.074683666,1,-2.210441351,1,-8.137693405,1,0.016243177,1,0.028365793,1,-0.006614548,1,0.223187819,1,-0.549915195,1,-0.147443682,1
1.384013772,-5.076766968,1,-2.211630821,1,-8.167921066,1,0.012859349,1,0.027916826,1,-0.002748477,1,0.223241135,1,-0.549796402,1,-0.147431791,1
1.388013601,-4.990410805,1,-2.216010094,1,-8.191699982,1,0.008689345,1,0.027194709,1,-0.004343999,1,0.223273739,1,-0.549683928,1,-0.147412017,1
1.392015338,-5.009515762,1,-2.163452148,1,-8.181416512,1,0.005193988,1,0.023949521,1,0.005777138,1,0.22328338,1,-0.549586535,1,-0.147381216,1
1.396013021,-4.959959507,1,-2.199787378,1,-8.20930481,1,-0.002805887,1,0.019411635,1,0.007821457,1,0.223252416,1,-0.549511313,1,-0.147324845,1
1.400012851,-4.954899311,1,-2.299884558,1,-8.216422081,1,-0.00827988,1,0.016389893,1,0.014521994,1,0.223194689,1,-0.549449801,1,-0.147254854,1
1.404014349,-4.997517586,1,-2.29357338,1,-8.228452682,1,-0.017527599,1,0.014090735,1,0.021102656,1,0.223083466,1,-0.549401104,1,-0.147158235,1
1.408011794,-5.011549473,1,-2.293446064,1,-8.245354652,1,-0.022099542,1,0.011960123,1,0.023133678,1,0.222953111,1,-0.549373209,1,-0.147047222,1
1.412011504,-5.024914742,1,-2.209212065,1,-8.231194496,1,-0.027188996,1,0.010912811,1,0.02823003,1,0.222782418,1,-0.549352109,1,-0.14692089,1
1.41601336,-5.045257568,1,-2.154518366,1,-8.268417358,1,-0.031178808,1,0.010375199,1,0.033689685,1,0.222575426,1,-0.549342334,1,-0.14676398,1
1.420011282,-5.025202751,1,-2.090393066,1,-8.225722313,1,-0.035778258,1,0.002543458,1,0.033038974,1,0.222370818,1,-0.549354553,1,-0.146614596,1
1.424010754,-5.051379681,1,-2.03900075,1,-8.247746468,1,-0.031402525,1,0.002173057,1,0.035868593,1,0.222156346,1,-0.549367845,1,-0.146453887,1
1.428012252,-5.062013149,1,-2.039928436,1,-8.246491432,1,-0.03398791,1,-0.003173159,1,0.031706214,1,0.222467169,1,-0.549256742,1,-0.146410093,1
1.432009935,-5.026679993,1,-2.027513742,1,-8.269886017,1,-0.035279181,1,-0.003025774,1,0.032500163,1,0.222248435,1,-0.549244404,1,-0.146667212,1
1.436009526,-5.055088043,1,-2.007037401,1,-8.257487297,1,-0.030315548,1,-0.007895489,1,0.030974317,1,0.222044021,1,-0.549300909,1,-0.146526009,1
1.440011024,-5.062455177,1,-1.992786169,1,-8.235369682,1,-0.031183984,1,-0.01640564,1,0.034146722,1,0.2218557,1,-0.549374521,1,-0.146396488,1
1.444008946,-5.034715176,1,-1.990858555,1,-8.258324623,1,-0.029722286,1,-0.010950833,1,0.034480594,1,0.221668288,1,-0.549452186,1,-0.146260262,1
1.448008418,-5.00217104,1,-1.994104028,1,-8.201726913,1,-0.026867637,1,-0.02000995,1,0.030654002,1,0.221486405,1,-0.549536884,1,-0.14613688,1
1.452010274,-5.029752731,1,-2.039067268,1,-8.20859623,1,-0.026289789,1,-0.018644489,1,0.027428038,1,0.221326053,1,-0.549632609,1,-0.146028727,1
1.456013799,-5.025489807,1,-2.060492992,1,-8.246494293,1,-0.031868044,1,-0.021593168,1,0.02876167,1,0.221156284,1,-0.549724996,1,-0.145916566,1
1.46001327,-5.02660656,1,-2.084308863,1,-8.219266891,1,-0.026177488,1,-0.021545352,1,0.029380955,1,0.220987812,1,-0.54983294,1,-0.145813838,1
1.464015126,-5.028988838,1,-2.164275408,1,-8.196183205,1,-0.030238187,1,-0.024855902,1,0.029608611,1,0.220812127,1,-0.5499475,1,-0.145697296,1
1.46801281,-4.988369942,1,-2.187763214,1,-8.227348328,1,-0.033703376,1,-0.0228907,1,0.034977302,1,0.220619932,1,-0.55007112,1,-0.145571604,1
1.472012281,-5.009003639,1,-2.185910225,1,-8.200250626,1,-0.035285383,1,-0.021807814,1,0.034335967,1,0.220418453,1,-0.55018872,1,-0.145446628,1
1.476014137,-5.025547028,1,-2.147642612,1,-8.200271606,1,-0.046625033,1,-0.026408633,1,0.035370428,1,0.220181987,1,-0.550311744,1,-0.145301729,1
1.480011821,-5.042656422,1,-2.078038454,1,-8.160076141,1,-0.04324919,1,-0.028627159,1,0.03875934,1,0.219925731,1,-0.550445676,1,-0.145149633,1
1.484011531,-5.064602375,1,-2.044398308,1,-8.148322105,1,-0.042089012,1,-0.024431814,1,0.044250067,1,0.219661295,1,-0.550585032,1,-0.144982889,1
1.488013268,-5.091415882,1,-2.076591492,1,-8.149474144,1,-0.045466974,1,-0.030568244,1,0.043305904,1,0.219390363,1,-0.550732613,1,-0.144815132,1
1.492010951,-5.078169823,1,-2.097371101,1,-8.127261162,1,-0.045841746,1,-0.026455238,1,0.046107065,1,0.219114587,1,-0.550869823,1,-0.144639313,1
1.49601078,-5.072244644,1,-2.127474785,1,-8.109429359,1,-0.048715118,1,-0.021759283,1,0.046796534,1,0.218820646,1,-0.551011145,1,-0.144450277,1
1.500012517,-5.052668571,1,-2.089441538,1,-8.125858307,1,-0.050467253,1,-0.021392159,1,0.046260055,1,0.218517289,1,-0.551138461,1,-0.144261286,1
1.504010201,-5.029596806,1,-2.047600508,1,-8.101758003,1,-0.053578012,1,-0.019980015,1,0.044773985,1,0.218201414,1,-0.551258922,1,-0.144061133,1
1.50801003,-5.088582516,1,-2.015416861,1,-8.118104935,1,-0.056253869,1,-0.020348106,1,0.048731085,1,0.217869639,1,-0.551374137,1,-0.14385204,1
1.512011528,-5.071908474,1,-1.99294436,1,-8.154186249,1,-0.05882822,1,-0.016331742,1,0.048751242,1,0.217533916,1,-0.551491201,1,-0.143640205,1
1.51600945,-5.097733498,1,-1.937755704,1,-8.131498337,1,-0.049736239,1,-0.017302861,1,0.04937591,1,0.217201933,1,-0.551603019,1,-0.143425763,1
1.52000916,-5.09354353,1,-1.911279202,1,-8.156456947,1,-0.054625712,1,-0.015755303,1,0.048814896,1,0.216890275,1,-0.55170542,1,-0.143223181,1
1.524010777,-5.12947464,1,-1.901388526,1,-8.162538528,1,-0.048921458,1,-0.016681731,1,0.044925306,1,0.216580957,1,-0.55179882,1,-0.143028378,1
1.528008461,-5.112108707,1,-1.986799479,1,-8.132972717,1,-0.049981009,1,-0.01222105,1,0.046640575,1,0.216282174,1,-0.551893055,1,-0.142837182,1
1.532007933,-5.100990295,1,-1.999573231,1,-8.147176743,1,-0.052055597,1,-0.013943995,1,0.044890396,1,0.215977192,1,-0.55198288,1,-0.14264515,1
1.536009431,-5.104230404,1,-1.95048511,1,-8.182179451,1,-0.049328923,1,-0.012218321,1,0.040920597,1,0.215674013,1,-0.552061975,1,-0.14245823,1
1.540007114,-5.13008213,1,-1.970418215,1,-8.150444984,1,-0.050998352,1,-0.00969443,1,0.040755287,1,0.215378791,1,-0.552146018,1,-0.14228034,1
1.544006944,-5.096356392,1,-1.966471434,1,-8.159814835,1,-0.05150779,1,-0.012362527,1,0.042597476,1,0.215088904,1,-0.552221894,1,-0.142105132,1
1.54800868,-5.125573158,1,-1.929415703,1,-8.137276649,1,-0.05258463,1,-0.008681942,1,0.036987122,1,0.214790463,1,-0.552294135,1,-0.141931683,1
1.552006602,-5.068641186,1,-1.938107133,1,-8.156060219,1,-0.047657121,1,-0.011949665,1,0.038627326,1,0.214508355,1,-0.552360952,1,-0.141764566,1
1.556006193,-5.033686638,1,-1.960201383,1,-8.195146561,1,-0.050494444,1,-0.006970445,1,0.044131678,1,0.214219272,1,-0.552430451,1,-0.141588479,1
1.560008168,-5.065592289,1,-1.943149447,1,-8.18261528,1,-0.050040916,1,-0.011787526,1,0.036579512,1,0.213934928,1,-0.552503228,1,-0.141415372,1
1.564006448,-5.04795599,1,-1.998477101,1,-8.131545067,1,-0.04811734,1,-0.009229369,1,0.035829142,1,0.213661253,1,-0.552580118,1,-0.141250387,1
1.568005919,-5.003430367,1,-2.008677483,1,-8.187339783,1,-0.045553934,1,-0.014520311,1,0.040567525,1,0.213394329,1,-0.552671075,1,-0.141091183,1
1.572007895,-4.989111423,1,-2.026697159,1,-8.225281715,1,-0.045515545,1,-0.012498005,1,0.03721137,1,0.213130265,1,-0.552761257,1,-0.140920252,1
1.576011539,-4.988193512,1,-2.001928568,1,-8.251703262,1,-0.046806991,1,-0.019578747,1,0.041656993,1,0.212858617,1,-0.552856922,1,-0.140759543,1
1.580011249,-5.037631512,1,-1.913696051,1,-8.208837509,1,-0.044405758,1,-0.017741831,1,0.040237658,1,0.212588534,1,-0.552964389,1,-0.140595838,1
1.584013104,-5.041511059,1,-1.92735374,1,-8.227080345,1,-0.046197891,1,-0.025361773,1,0.036249895,1,0.212334558,1,-0.553076029,1,-0.140434697,1
1.588011026,-5.039869785,1,-1.832696557,1,-8.245864868,1,-0.038803823,1,-0.027238566,1,0.03737171,1,0.212082416,1,-0.553207219,1,-0.140282094,1
1.592010736,-5.044167995,1,-1.806075096,1,-8.216794014,1,-0.03543007,1,-0.029684091,1,0.037676323,1,0.2118451,1,-0.553348482,1,-0.140127748,1
1.596012235,-5.087171078,1,-1.811256409,1,-8.220442772,1,-0.036395941,1,-0.034242302,1,0.037861273,1,0.211637869,1,-0.553508222,1,-0.139988065,1
1.60000968,-5.07505846,1,-1.819515347,1,-8.221121788,1,-0.02614573,1,-0.03666902,1,0.036638699,1,0.211435139,1,-0.55367285,1,-0.139851138,1
1.604009271,-5.085997581,1,-1.861273408,1,-8.23015976,1,-0.029350376,1,-0.037492964,1,0.036886647,1,0.211266086,1,-0.553851604,1,-0.139722109,1
1.608010769,-5.101976395,1,-1.952155828,1,-8.27294445,1,-0.023243947,1,-0.041019853,1,0.034088738,1,0.211093709,1,-0.554034948,1,-0.139597684,1
1.612008691,-5.055509567,1,-1.941707611,1,-8.212258339,1,-0.021595607,1,-0.046740476,1,0.037024591,1,0.210942134,1,-0.554236174,1,-0.139476374,1
1.616008759,-5.069674969,1,-1.946644902,1,-8.208857536,1,-0.022787824,1,-0.043519728,1,0.03724356,1,0.210789382,1,-0.554439127,1,-0.139352366,1
1.620010257,-5.123170853,1,-1.878232837,1,-8.214868546,1,-0.019475639,1,-0.050124615,1,0.033636272,1,0.210634544,1,-0.554660022,1,-0.139228329,1
1.624008179,-5.136945248,1,-1.8285712,1,-8.201102257,1,-0.018626656,1,-0.048297092,1,0.032321967,1,0.210502177,1,-0.554880321,1,-0.13912566,1
1.628007889,-5.123584747,1,-1.834319592,1,-8.24744606,1,-0.015414966,1,-0.05090747,1,0.026104949,1,0.210392043,1,-0.5551036,1,-0.139042839,1
1.632009506,-5.133107185,1,-1.969045162,1,-8.275484085,1,-0.014454574,1,-0.050812248,1,0.024556363,1,0.210290611,1,-0.555326998,1,-0.1389689,1
1.63600719,-5.153632641,1,-1.959723353,1,-8.25257206,1,-0.015567893,1,-0.053744841,1,0.023931939,1,0.210195482,1,-0.555556059,1,-0.138912305,1
1.640006661,-5.165977478,1,-1.955231547,1,-8.223934174,1,-0.019891255,1,-0.050933938,1,0.022318143,1,0.210092366,1,-0.555774033,1,-0.138849765,1
1.644008398,-5.270383358,1,-1.99410665,1,-8.130994797,1,-0.021976585,1,-0.052984945,1,0.023227075,1,0.209981963,1,-0.555994034,1,-0.13880232,1
1.648006201,-5.324782848,1,-2.027988195,1,-8.159915924,1,-0.031096237,1,-0.044950597,1,0.024228293,1,0.209847867,1,-0.556199431,1,-0.138750061,1
1.652005672,-5.220812321,1,-2.049883604,1,-8.047072411,1,-0.035945762,1,-0.043360759,1,0.024244752,1,0.209681913,1,-0.556383908,1,-0.138687432,1
1.656007171,-5.144804001,1,-2.047599792,1,-7.978168964,1,-0.035742391,1,-0.039052345,1,0.02225966,1,0.209505066,1,-0.55655843,1,-0.13862811,1
1.660004854,-5.096935749,1,-2.063511133,1,-8.081251144,1,-0.045609508,1,-0.038165115,1,0.025645247,1,0.209295303,1,-0.556726456,1,-0.138540298,1
1.664004326,-5.044677258,1,-1.981263876,1,-8.218360901,1,-0.045564752,1,-0.036048178,1,0.028943222,1,0.209064052,1,-0.556891024,1,-0.138436973,1
1.668006182,-5.087388515,1,-1.975868225,1,-8.237648964,1,-0.04820244,1,-0.035184357,1,0.035349604,1,0.208822474,1,-0.557066441,1,-0.138322353,1
1.672003865,-5.141282082,1,-1.987088203,1,-8.251542091,1,-0.050599027,1,-0.040641218,1,0.035788976,1,0.208560616,1,-0.557244837,1,-0.138202295,1
1.676003575,-5.220313072,1,-1.978225708,1,-8.171474457,1,-0.052368093,1,-0.045131139,1,0.032866053,1,0.208288088,1,-0.557442963,1,-0.138085976,1
1.680005431,-4.99027586,1,-1.941091895,1,-8.105871201,1,-0.05092752,1,-0.046640322,1,0.037528884,1,0.208481207,1,-0.5574525,1,-0.138473019,1
1.684003115,-4.849173546,1,-1.956977606,1,-8.280117035,1,-0.045989655,1,-0.063425764,1,0.042480446,1,0.208219379,1,-0.557700813,1,-0.138339058,1
1.688002825,-4.808743,1,-2.015224934,1,-8.515980721,1,-0.040539425,1,-0.072363481,1,0.049908746,1,0.207960129,1,-0.558003306,1,-0.138185918,1
1.692004323,-4.737548828,1,-1.947839856,1,-8.553873062,1,-0.040725742,1,-0.09061183,1,0.051038262,1,0.207709834,1,-0.558367014,1,-0.138029918,1
1.696007967,-4.815620422,1,-1.915529132,1,-8.584574699,1,-0.030092778,1,-0.106016129,1,0.056840412,1,0.207482472,1,-0.558794975,1,-0.137881741,1
1.700007677,-4.815795422,1,-1.83054924,1,-8.655974388,1,-0.01618436,1,-0.130493149,1,0.054958548,1,0.207313374,1,-0.559306145,1,-0.137737036,1
1.704009175,-4.879474163,1,-1.878261566,1,-8.66275692,1,-0.010594425,1,-0.150631562,1,0.061306968,1,0.207180515,1,-0.559907258,1,-0.137599796,1
1.708007216,-4.898053169,1,-1.848411679,1,-8.699287415,1,-7.47E-06,1,-0.1687617,1,0.065315209,1,0.207087427,1,-0.560586035,1,-0.13746582,1
1.712006688,-4.813015461,1,-1.885633826,1,-8.766942978,1,0.01120388,1,-0.190002635,1,0.063359,1,0.20704405,1,-0.561336279,1,-0.137338877,1
1.716008186,-4.775232315,1,-2.038614988,1,-8.886611938,1,0.023319548,1,-0.219514862,1,0.067998707,1,0.207058847,1,-0.56219399,1,-0.137230098,1
1.72000587,-4.62185812,1,-1.897588491,1,-9.040306091,1,0.03289495,1,-0.25330466,1,0.072464749,1,0.207119837,1,-0.563165724,1,-0.13713266,1
1.724005342,-4.641010284,1,-1.945396781,1,-9.138658524,1,0.058722757,1,-0.294328362,1,0.0785776,1,0.207261667,1,-0.564293146,1,-0.137046605,1
1.728007197,-4.460763931,1,-2.005590439,1,-9.425520897,1,0.087545522,1,-0.345599353,1,0.094184883,1,0.207495347,1,-0.565611959,1,-0.136957347,1
1.732005119,-3.839387178,1,-2.444333553,1,-9.847586632,1,0.114709839,1,-0.427476168,1,0.119496651,1,0.207847372,1,-0.5672068,1,-0.136840522,1
1.736004591,-3.20612669,1,-2.631222725,1,-10.32830143,1,0.138394669,1,-0.560131729,1,0.166956007,1,0.2082434,1,-0.569254398,1,-0.136658788,1
1.740006447,-2.733007669,1,-3.223310709,1,-10.86639309,1,0.193190679,1,-0.735071003,1,0.245532557,1,0.208742976,1,-0.571955204,1,-0.136358619,1
1.74400413,-2.412153721,1,-3.997502089,1,-11.00924969,1,0.266279727,1,-0.918583751,1,0.360285282,1,0.209337294,1,-0.575444639,1,-0.135779321,1
1.74800384,-2.589366674,1,-4.339578152,1,-10.66878605,1,0.32194373,1,-1.074222088,1,0.476864964,1,0.209972307,1,-0.579694748,1,-0.134797424,1
1.752005577,-3.087203026,1,-4.117440701,1,-10.75101089,1,0.441198409,1,-1.216692567,1,0.564431489,1,0.210778266,1,-0.58462882,1,-0.133508593,1
1.75600338,-3.903352976,1,-4.648258686,1,-11.12820721,1,0.467641681,1,-1.297438145,1,0.621682167,1,0.211788028,1,-0.590048254,1,-0.131972656,1
1.76000309,-4.39136982,1,-4.552618027,1,-11.7801733,1,0.492641419,1,-1.386297941,1,0.68107003,1,0.21272473,1,-0.595849693,1,-0.130271643,1
1.764004827,-5.145967007,1,-5.001494884,1,-12.65087414,1,0.504744828,1,-1.458031535,1,0.747540236,1,0.213652685,1,-0.601992548,1,-0.128367782,1
1.76800251,-3.683850288,1,-5.191630363,1,-12.57120705,1,0.475773484,1,-1.559634089,1,0.786188245,1,0.214404091,1,-0.608534515,1,-0.126277789,1
1.772002339,-4.229123116,1,-5.844087601,1,-12.24516773,1,0.523992538,1,-1.689454913,1,0.854360163,1,0.215146646,1,-0.615592539,1,-0.124051832,1
1.776003838,-7.425025463,1,-6.7807374,1,-13.12516117,1,0.385837406,1,-1.759137273,1,0.90694499,1,0.21561572,1,-0.623102069,1,-0.121622361,1
1.780001283,-7.757142544,1,-7.179826736,1,-12.81437588,1,0.217581674,1,-1.811126828,1,0.867167234,1,0.215368763,1,-0.630837321,1,-0.119200192,1
1.784000754,-7.373719692,1,-6.833090782,1,-12.46536732,1,0.092328995,1,-1.88129425,1,0.870566189,1,0.214674518,1,-0.638774931,1,-0.11696925,1
1.78800261,-7.377016544,1,-6.403501987,1,-12.28516769,1,-0.015541358,1,-2.001930475,1,0.905840755,1,0.213450685,1,-0.647102535,1,-0.114704847,1
1.792000294,-9.337722778,1,-6.214862347,1,-13.30365467,1,-0.085357651,1,-2.024213552,1,1.030085802,1,0.211666316,1,-0.655816853,1,-0.112084106,1
1.796000004,-9.263349533,1,-7.394849777,1,-13.13744068,1,-0.21494329,1,-2.019786119,1,1.155042529,1,0.209079668,1,-0.664650917,1,-0.108834244,1
1.80000174,-8.162964821,1,-6.625133991,1,-13.44905376,1,-0.413363308,1,-2.023022413,1,1.212311506,1,0.20552282,1,-0.673511624,1,-0.105039187,1
1.803999782,-10.01838589,1,-7.469017029,1,-13.15614986,1,-0.607373774,1,-1.990990877,1,1.208171368,1,0.200855583,1,-0.682305217,1,-0.101032607,1
1.807999492,-9.948300362,1,-7.165696621,1,-12.62823296,1,-0.787065685,1,-2.135919094,1,1.334551096,1,0.195344433,1,-0.691376448,1,-0.096702814,1
1.81200099,-8.678340912,1,-7.547516823,1,-13.17923164,1,-1.070768356,1,-2.18642807,1,1.421815991,1,0.188468248,1,-0.700939655,1,-0.091767244,1
1.816004634,-10.06666565,1,-6.831095219,1,-12.95621395,1,-1.32755506,1,-2.207547665,1,1.398244739,1,0.180271447,1,-0.710634887,1,-0.086572297,1
1.820004344,-16.57884979,1,-2.096936464,1,-15.84423828,1,-1.274575233,1,-1.980691075,1,1.28092742,1,0.171625629,1,-0.719945967,1,-0.081516169,1
1.824005842,-15.77635193,1,-2.206973791,1,-18.50091171,1,-0.915665567,1,-1.494631171,1,1.152909279,1,0.16405341,1,-0.727609634,1,-0.076690525,1
1.828003526,-12.91210651,1,-3.542209625,1,-18.6862278,1,-0.724629641,1,-1.055009246,1,1.085125327,1,0.157590255,1,-0.733345926,1,-0.071857773,1
1.832003117,-8.819646835,1,-4.554595947,1,-17.85488892,1,-0.607723475,1,-0.742846251,1,1.004655123,1,0.151664972,1,-0.737492681,1,-0.067010425,1
1.836004853,-4.916220665,1,-5.934249878,1,-16.43120575,1,-0.534160912,1,-0.598175883,1,0.959277868,1,0.146260753,1,-0.740694165,1,-0.062326163,1
1.840002537,-0.988547623,1,-6.679678917,1,-15.24934769,1,-0.58505255,1,-0.576181889,1,0.987776041,1,0.140829802,1,-0.743537903,1,-0.057560049,1
1.844002008,0.751995742,1,-6.410949707,1,-14.48233128,1,-0.697906315,1,-0.649301708,1,1.068312645,1,0.13480112,1,-0.746519923,1,-0.0524639,1
1.848003864,1.518756628,1,-5.699368,1,-14.11774826,1,-0.763724983,1,-0.7580387,1,1.150377274,1,0.128119335,1,-0.749893785,1,-0.046964549,1
1.852001548,1.793688536,1,-4.7979002,1,-14.60620403,1,-0.792995393,1,-0.790262282,1,1.22049284,1,0.120955735,1,-0.753591418,1,-0.041020934,1
1.856001019,2.354690552,1,-4.475133419,1,-13.76307774,1,-0.704548538,1,-0.856437087,1,1.292986035,1,0.11362756,1,-0.75742799,1,-0.034723774,1
1.860003114,1.850910187,1,-4.022269726,1,-14.5222578,1,-0.60134232,1,-0.846183538,1,1.362584352,1,0.106356129,1,-0.761433721,1,-0.027949655,1
1.864001036,1.557135463,1,-4.372768402,1,-14.89660931,1,-0.513653278,1,-0.76403141,1,1.378186226,1,0.099223599,1,-0.765218556,1,-0.020852249,1
1.868000746,1.721292734,1,-4.582722664,1,-15.05507946,1,-0.429796815,1,-0.620463133,1,1.352554202,1,0.092346802,1,-0.768491089,1,-0.013662659,1
1.872002602,2.124504328,1,-4.779459476,1,-14.89915943,1,-0.357120395,1,-0.458477139,1,1.317213893,1,0.08581619,1,-0.771124303,1,-0.006517848,1
1.876000524,3.044007301,1,-4.96923399,1,-14.60699558,1,-0.311945885,1,-0.309002817,1,1.266157627,1,0.07959459,1,-0.773082197,1,0.000483182,1
1.880000234,3.834953308,1,-5.212015152,1,-14.19935417,1,-0.300461322,1,-0.162542731,1,1.211586475,1,0.073606081,1,-0.774402499,1,0.007297693,1
1.884001851,4.634603977,1,-5.331634998,1,-13.87325287,1,-0.302638799,1,-0.046994556,1,1.142255902,1,0.067849226,1,-0.775149703,1,0.013816675,1
1.887999535,5.457517147,1,-5.165223122,1,-13.44160652,1,-0.302181602,1,0.069759369,1,1.062675953,1,0.062315412,1,-0.775378466,1,0.019978514,1
1.891999006,6.040408134,1,-4.924623966,1,-12.97545815,1,-0.294435471,1,0.156475797,1,0.984254122,1,0.057094902,1,-0.775177479,1,0.025729543,1
1.896000504,6.46371603,1,-4.564610958,1,-12.64231968,1,-0.260671586,1,0.225672215,1,0.894531727,1,0.052274592,1,-0.774618328,1,0.031023804,1
1.899998426,6.539171219,1,-4.25223732,1,-12.3293848,1,-0.207848027,1,0.311436921,1,0.808015466,1,0.04794655,1,-0.773714185,1,0.035859123,1
1.903997898,6.565274715,1,-3.992506504,1,-12.08263588,1,-0.138852447,1,0.396057159,1,0.708354473,1,0.044234384,1,-0.772453129,1,0.040184628,1
1.907999516,6.466568947,1,-3.847958326,1,-11.83483601,1,-0.05954203,1,0.495875031,1,0.613765836,1,0.041206703,1,-0.77077949,1,0.043958265,1
1.911997199,6.443752289,1,-3.712398529,1,-11.5548315,1,0.013549543,1,0.603746891,1,0.50435394,1,0.038861778,1,-0.768673539,1,0.047186013,1
1.915996671,6.564276218,1,-3.654471636,1,-11.40408802,1,0.081474461,1,0.701736271,1,0.392987996,1,0.037216388,1,-0.766123295,1,0.049824692,1
1.919998169,6.509576321,1,-3.502298832,1,-11.18059158,1,0.135271445,1,0.80673033,1,0.281024575,1,0.036251079,1,-0.763159037,1,0.051863045,1
1.923995852,6.473844528,1,-3.189574003,1,-10.98494816,1,0.18503505,1,0.906168401,1,0.169270933,1,0.035915259,1,-0.759776831,1,0.053284615,1
1.927995443,6.734128475,1,-2.926550627,1,-10.82993031,1,0.232103482,1,0.992775917,1,0.04377358,1,0.036223788,1,-0.755996466,1,0.054056332,1
1.93199718,6.649600983,1,-2.766379356,1,-10.78454781,1,0.268717021,1,1.07331109,1,-0.073002286,1,0.037149448,1,-0.751826286,1,0.053916253,1
1.936000824,6.625339985,1,-2.531826973,1,-10.75140858,1,0.301631629,1,1.135424495,1,-0.194405541,1,0.038637076,1,-0.747389734,1,0.053408474,1
1.940000296,6.39707756,1,-2.320020199,1,-10.73572826,1,0.325951844,1,1.205596209,1,-0.309593678,1,0.040653516,1,-0.742668927,1,0.052283872,1
1.944002032,6.452597141,1,-2.061930895,1,-10.76674843,1,0.362042218,1,1.252252221,1,-0.438751191,1,0.043202624,1,-0.737692833,1,0.050538708,1
1.947999716,6.135422707,1,-1.733255386,1,-10.83640957,1,0.381853253,1,1.305769444,1,-0.551637411,1,0.046271883,1,-0.732498229,1,0.048171714,1
1.951999187,5.8136549,1,-1.465757489,1,-10.85554314,1,0.408618271,1,1.352946639,1,-0.662417412,1,0.049786702,1,-0.727065504,1,0.045260958,1
1.956001043,5.406774998,1,-1.280989408,1,-10.93488216,1,0.430794775,1,1.417244434,1,-0.765723765,1,0.053730283,1,-0.721389174,1,0.041837547,1
1.959998727,5.161767483,1,-1.211724043,1,-10.94496059,1,0.438360155,1,1.485524058,1,-0.867834508,1,0.058020987,1,-0.715410411,1,0.037940811,1
1.963998437,4.921655655,1,-1.119764328,1,-10.9906826,1,0.433298826,1,1.565554619,1,-0.947614968,1,0.062581845,1,-0.709092915,1,0.033634547,1
1.968000293,4.712031841,1,-0.974519849,1,-11.09406185,1,0.427313477,1,1.63901794,1,-1.018288136,1,0.067307949,1,-0.702448606,1,0.029013867,1
1.971997976,4.458528042,1,-0.846695602,1,-11.15889168,1,0.419007897,1,1.715452075,1,-1.076572776,1,0.072121412,1,-0.695465446,1,0.024161356,1
1.975997686,4.138051033,1,-0.608456254,1,-11.17231846,1,0.410881668,1,1.798483729,1,-1.121413112,1,0.076977983,1,-0.688130736,1,0.019149732,1
1.979999542,3.853076696,1,-0.350261778,1,-11.06880856,1,0.407384098,1,1.893946052,1,-1.164726019,1,0.081859693,1,-0.680410743,1,0.014010553,1
1.983997226,3.603301287,1,-0.170893103,1,-10.92618656,1,0.399498999,1,1.984852791,1,-1.190079689,1,0.086710788,1,-0.672286212,1,0.00882908,1
1.987996936,3.413435221,1,-0.107226938,1,-10.76101589,1,0.396844923,1,2.078615665,1,-1.209692121,1,0.091516703,1,-0.663767874,1,0.003655772,1
1.991998434,3.246749401,1,-0.013696124,1,-10.54464436,1,0.391929626,1,2.167147398,1,-1.210146546,1,0.096200973,1,-0.654866755,1,-0.001423778,1
1.995996475,3.062008619,1,0.133624598,1,-10.29580498,1,0.388038784,1,2.25700736,1,-1.20588553,1,0.100756995,1,-0.645597339,1,-0.006377452,1
1.999996185,2.888230562,1,0.124750204,1,-10.07383633,1,0.381078988,1,2.332630157,1,-1.193024039,1,0.105151087,1,-0.635973573,1,-0.011150275,1
2.003997803,2.603564262,1,0.165828079,1,-9.873673439,1,0.384556502,1,2.412119865,1,-1.176792264,1,0.109389901,1,-0.62602818,1,-0.015734879,1
2.007995605,2.335134983,1,0.159514174,1,-9.682601929,1,0.386363387,1,2.488615751,1,-1.160343885,1,0.113481343,1,-0.615763366,1,-0.020114513,1
2.011995077,1.937421799,1,0.069729522,1,-9.364958763,1,0.383779943,1,2.567764997,1,-1.153118849,1,0.117431954,1,-0.605183959,1,-0.024310816,1
2.015996933,1.548829436,1,-0.078208484,1,-9.03703022,1,0.379643172,1,2.641437292,1,-1.15405488,1,0.121255793,1,-0.594285667,1,-0.02836418,1
2.019995213,1.042321444,1,-0.315325111,1,-8.637158394,1,0.357940674,1,2.699710846,1,-1.170449495,1,0.124937624,1,-0.583118916,1,-0.032331336,1
2.023994684,0.622407556,1,-0.388968915,1,-8.324990273,1,0.331834078,1,2.741421223,1,-1.192127466,1,0.128471643,1,-0.57172209,1,-0.036279403,1
2.027996302,0.443679124,1,-0.187278867,1,-8.342685699,1,0.290587246,1,2.775651217,1,-1.228261352,1,0.131865188,1,-0.560156941,1,-0.040259045,1
2.031994104,-0.415712982,1,-0.254219413,1,-7.605015755,1,0.262693793,1,2.778589249,1,-1.267024517,1,0.135096624,1,-0.548486769,1,-0.044345338,1
2.035993576,-0.381675512,1,-0.333951086,1,-7.214709282,1,0.255733997,1,2.772660971,1,-1.281995773,1,0.13826701,1,-0.536776721,1,-0.048466861,1
2.039995432,-0.806874752,1,-0.112549722,1,-6.942608356,1,0.242866755,1,2.748273611,1,-1.310521483,1,0.141371682,1,-0.525113046,1,-0.05263456,1
2.043992996,-1.56246686,1,-0.128697649,1,-6.835682869,1,0.245060951,1,2.730901241,1,-1.332908154,1,0.1444415,1,-0.513512194,1,-0.05687179,1
2.047992468,-2.055198193,1,-0.052588858,1,-6.624943256,1,0.259706885,1,2.709509134,1,-1.338757992,1,0.147502676,1,-0.501965523,1,-0.06110758,1
2.051994324,-2.878219604,1,0.146223724,1,-6.591629982,1,0.278915435,1,2.682629585,1,-1.34826684,1,0.150594577,1,-0.490518451,1,-0.065334499,1
2.055998325,-3.676251411,1,0.315416634,1,-6.577673435,1,0.317744911,1,2.670264482,1,-1.351345062,1,0.15374729,1,-0.47912237,1,-0.069533929,1
2.059998274,-4.448489189,1,0.362290502,1,-6.532824993,1,0.360758752,1,2.668070555,1,-1.352136254,1,0.156997696,1,-0.467728704,1,-0.07367076,1
2.063999653,-5.356949806,1,0.459058553,1,-6.518382072,1,0.412118733,1,2.690828085,1,-1.353202939,1,0.160361588,1,-0.456296444,1,-0.077741958,1
2.067997456,-6.166842937,1,0.615666866,1,-6.381688118,1,0.453168392,1,2.728132963,1,-1.356772184,1,0.163831204,1,-0.444730699,1,-0.081738666,1
2.071997166,-6.598366737,1,0.686439216,1,-6.137333393,1,0.502662539,1,2.763746262,1,-1.353049397,1,0.167401746,1,-0.433002114,1,-0.085642122,1
2.075998783,-6.864452839,1,0.748138428,1,-5.945658684,1,0.533211112,1,2.795060873,1,-1.339489102,1,0.171037704,1,-0.421138018,1,-0.08942119,1
2.079996109,-6.940038204,1,0.778209746,1,-5.746874332,1,0.565105319,1,2.80376935,1,-1.31203115,1,0.174687564,1,-0.409194022,1,-0.093027696,1
2.083995819,-6.84677124,1,0.819934189,1,-5.544864178,1,0.585656643,1,2.787494659,1,-1.266721606,1,0.178312168,1,-0.397272617,1,-0.096411481,1
2.087997437,-6.820059299,1,0.872499168,1,-5.366268158,1,0.612112641,1,2.751088858,1,-1.207723022,1,0.181897104,1,-0.385481,1,-0.099531256,1
2.091995478,-6.785518169,1,0.828922272,1,-5.184662342,1,0.633326411,1,2.683126926,1,-1.130012393,1,0.185430467,1,-0.373932064,1,-0.102335818,1
2.095994949,-6.842974663,1,0.837449193,1,-5.047929764,1,0.645017982,1,2.598754168,1,-1.037265897,1,0.188864246,1,-0.36274007,1,-0.104799673,1
2.099996567,-6.826138496,1,0.752574265,1,-4.927981853,1,0.660240114,1,2.495372057,1,-0.937037289,1,0.192203522,1,-0.351983637,1,-0.106878966,1
2.103994608,-7.048177719,1,0.712265313,1,-4.893241882,1,0.689696848,1,2.389145374,1,-0.828263044,1,0.195467204,1,-0.341721058,1,-0.108559273,1
2.10799408,-7.316797256,1,0.640431583,1,-4.907438278,1,0.717375815,1,2.275605202,1,-0.719060659,1,0.198699176,1,-0.331965834,1,-0.109836362,1
2.111995697,-7.66686964,1,0.559068143,1,-4.949590683,1,0.748489618,1,2.174788713,1,-0.613144577,1,0.201923221,1,-0.322713226,1,-0.110720508,1
2.1159935,-8.105242729,1,0.675861359,1,-5.178477287,1,0.790808499,1,2.04665947,1,-0.535668373,1,0.205170006,1,-0.313976347,1,-0.111284472,1
2.119992971,-8.775650978,1,0.611299813,1,-5.396487236,1,0.832201242,1,1.92803812,1,-0.467216194,1,0.208519071,1,-0.305784911,1,-0.11162895,1
2.123994827,-9.573633194,1,0.580571353,1,-5.812151909,1,0.884760082,1,1.810468912,1,-0.417212963,1,0.211999461,1,-0.298108101,1,-0.111809701,1
2.127992868,-10.42480278,1,0.611873984,1,-6.136443615,1,0.940326691,1,1.715545177,1,-0.391249925,1,0.215681568,1,-0.290889502,1,-0.111896813,1
2.13199234,-11.29894543,1,0.431483686,1,-6.486764908,1,0.994880497,1,1.631397009,1,-0.386015177,1,0.2195777,1,-0.284028888,1,-0.111963488,1
2.135994196,-12.22408009,1,0.11163038,1,-6.719399929,1,1.031211257,1,1.582467914,1,-0.382847607,1,0.223667458,1,-0.277417332,1,-0.112052068,1
2.13999176,-13.01794434,1,-0.457832456,1,-6.987197399,1,1.038567901,1,1.566594601,1,-0.384533197,1,0.227841482,1,-0.270941138,1,-0.112152994,1
2.143991709,-13.31518841,1,-1.252328515,1,-7.168178558,1,1.004896522,1,1.570032358,1,-0.373073488,1,0.231947035,1,-0.264485031,1,-0.112201929,1
2.147993565,-13.2049551,1,-1.627892852,1,-7.177548885,1,0.952400684,1,1.572063088,1,-0.34397307,1,0.235851854,1,-0.258035958,1,-0.112138875,1
2.151991367,-12.79632664,1,-1.699975729,1,-7.17002821,1,0.876827955,1,1.558127165,1,-0.302144527,1,0.239454463,1,-0.251637518,1,-0.111922532,1
2.155991077,-12.30376148,1,-1.45115602,1,-6.96614933,1,0.827273309,1,1.516894341,1,-0.250510007,1,0.242763609,1,-0.245395571,1,-0.111515373,1
2.159992933,-12.03260803,1,-1.371686459,1,-6.587331295,1,0.789988458,1,1.45125699,1,-0.180802196,1,0.245840833,1,-0.23941581,1,-0.110904485,1
2.163990498,-12.04965496,1,-1.381001949,1,-6.100699425,1,0.760071695,1,1.356636047,1,-0.114872374,1,0.248740166,1,-0.233825326,1,-0.11008326,1
2.167990208,-12.4293108,1,-1.465090156,1,-5.545846939,1,0.735185862,1,1.238618374,1,-0.050337918,1,0.251501471,1,-0.22870636,1,-0.109099649,1
2.171992064,-12.94957066,1,-1.687823653,1,-4.94741869,1,0.699056685,1,1.096950412,1,-0.005179311,1,0.254125834,1,-0.224160463,1,-0.108010292,1
2.175995827,-13.47194958,1,-1.919376373,1,-4.42092514,1,0.656808436,1,0.933715582,1,0.043524098,1,0.256586373,1,-0.220247164,1,-0.106876887,1
2.179995537,-14.29708481,1,-1.874508739,1,-3.956121206,1,0.61365515,1,0.762958646,1,0.063581049,1,0.258839011,1,-0.216976538,1,-0.105904371,1
2.183997154,-15.04694462,1,-1.698762178,1,-3.584367514,1,0.588403761,1,0.583371043,1,0.070930071,1,0.261034161,1,-0.214445725,1,-0.104922652,1
2.187994957,-15.96358013,1,-1.27762115,1,-3.23211813,1,0.596009851,1,0.401304245,1,0.063719794,1,0.263230532,1,-0.212614834,1,-0.104137629,1
2.191994429,-16.88186646,1,-0.669092059,1,-2.910879135,1,0.649756968,1,0.215298131,1,0.026907757,1,0.265611142,1,-0.211465329,1,-0.10363514,1
2.195995808,-17.88329315,1,-0.211487979,1,-2.535673618,1,0.745750666,1,0.031375557,1,-0.037392482,1,0.268376589,1,-0.210989147,1,-0.10351786,1
2.19999361,-18.82237244,1,-0.121652611,1,-2.042640686,1,0.832327545,1,-0.142049789,1,-0.112427995,1,0.271621078,1,-0.211116686,1,-0.103875965,1
2.203993082,-19.42388725,1,-0.543999255,1,-1.557565212,1,0.894064546,1,-0.294115961,1,-0.189192176,1,0.275265515,1,-0.211796239,1,-0.104717754,1
2.207994699,-19.51581573,1,-1.222036004,1,-0.974972486,1,0.88851124,1,-0.440173477,1,-0.247017577,1,0.279103577,1,-0.2129675,1,-0.105979182,1
2.211992264,-19.23859596,1,-1.767171502,1,-0.35249573,1,0.833195269,1,-0.592301548,1,-0.287746847,1,0.282904029,1,-0.214659899,1,-0.107623599,1
2.215991735,-18.92503357,1,-1.713208199,1,0.099449076,1,0.750903308,1,-0.768876851,1,-0.313583523,1,0.286495566,1,-0.216925472,1,-0.109594978,1
2.219993591,-18.64271545,1,-1.547925591,1,0.586360812,1,0.668362677,1,-0.94713527,1,-0.314726502,1,0.289824367,1,-0.219850391,1,-0.11183919,1
2.223991394,-18.19092178,1,-1.335455656,1,1.033833504,1,0.575849235,1,-1.135204673,1,-0.290007412,1,0.292840898,1,-0.223484546,1,-0.1142525,1
2.227990866,-17.68079948,1,-1.228829265,1,1.282863379,1,0.499859273,1,-1.330778122,1,-0.232060403,1,0.295544982,1,-0.227898866,1,-0.116744131,1
2.231992483,3.168402672,1,-9.377900124,1,-8.19132328,1,-0.438744217,1,-2.030129671,1,-0.073816106,1,0.296651214,1,-0.233850345,1,-0.119199209,1
2.235990286,-37.93498993,1,-6.965118408,1,6.30753994,1,-1.069447041,1,-3.288197994,1,0.238016412,1,0.294428766,1,-0.244420871,1,-0.122398868,1
2.239989996,-4.839463711,1,-0.005307651,1,8.217760086,1,-1.259036303,1,-3.438016653,1,0.656245232,1,0.289913058,1,-0.257738471,1,-0.124473788,1
2.243991852,16.92147446,1,3.356879473,1,-4.400206566,1,-0.825492978,1,-4.270022869,1,0.623438239,1,0.286398709,1,-0.273122787,1,-0.126322284,1
2.247989416,-11.23684788,1,-0.704124451,1,-11.40697479,1,-1.035103917,1,-5.050035,1,0.657339096,1,0.283520192,1,-0.291955411,1,-0.129403055,1
2.251989365,-18.17622375,1,-3.888798237,1,-16.68460274,1,-1.184055924,1,-4.648026943,1,0.798391342,1,0.279780149,1,-0.311578453,1,-0.132117301,1
2.255990982,-12.19252872,1,-4.828208923,1,-21.80820274,1,-1.187496543,1,-4.110207081,1,0.780958056,1,0.27573061,1,-0.329274476,1,-0.133964688,1
2.259988785,-12.85027981,1,-3.567117453,1,-21.984478,1,-1.100862503,1,-3.607628584,1,0.867553413,1,0.271368176,1,-0.344983935,1,-0.13505435,1
2.263988495,-15.61295414,1,-0.71762979,1,-21.69820786,1,-0.691268086,1,-3.295195341,1,0.919074833,1,0.267967999,1,-0.359179318,1,-0.135182574,1
2.267990112,-16.75831032,1,-0.641752958,1,-19.19188118,1,-0.63133651,1,-3.032836199,1,0.960981488,1,0.265208662,1,-0.372336656,1,-0.134959161,1
2.271987915,-14.19609642,1,1.872736692,1,-16.08337021,1,-0.521662414,1,-2.985063791,1,1.160159349,1,0.262506217,1,-0.385023117,1,-0.133893013,1
2.275987625,-15.28453064,1,1.270281196,1,-14.36856937,1,-0.393856317,1,-3.036889553,1,1.268247128,1,0.260040343,1,-0.397932291,1,-0.132191226,1
2.279989481,-16.81543922,1,0.295324504,1,-13.1327076,1,-0.28537643,1,-2.937046289,1,1.340738416,1,0.257859766,1,-0.410884559,1,-0.130013198,1
2.283987522,-17.55600166,1,-1.229973435,1,-12.35096455,1,-0.236607477,1,-2.687484026,1,1.343945265,1,0.255785227,1,-0.423165172,1,-0.127466187,1
2.287986994,-17.99948311,1,-2.47529006,1,-11.56490421,1,-0.217316911,1,-2.389110565,1,1.32358408,1,0.253673553,1,-0.434318751,1,-0.12461514,1
2.291988373,-16.80644226,1,-3.937648773,1,-9.888396263,1,-0.2371068,1,-2.027843475,1,1.218645692,1,0.251472205,1,-0.444168925,1,-0.121582508,1
2.295986176,-12.94856167,1,-5.603002071,1,-9.26294899,1,-0.298290789,1,-1.725286841,1,1.132840276,1,0.249161482,1,-0.452560067,1,-0.118608825,1
2.299992085,-9.76434803,1,-5.634843826,1,-7.230813503,1,-0.388323545,1,-1.572259307,1,1.123815179,1,0.246426791,1,-0.460062951,1,-0.115513071,1
2.303994179,-5.526309013,1,-5.585955143,1,-6.89977932,1,-0.499573648,1,-1.526830912,1,1.126053333,1,0.243241176,1,-0.467121184,1,-0.112324588,1
2.307991982,-3.146155119,1,-4.643492222,1,-6.229294777,1,-0.594005883,1,-1.602693319,1,1.166850209,1,0.239533022,1,-0.474302083,1,-0.108986922,1
2.311991453,-1.803468704,1,-4.035823345,1,-6.396948814,1,-0.689879537,1,-1.690239549,1,1.184644699,1,0.23538585,1,-0.481802225,1,-0.105581872,1
2.315993309,-3.303202629,1,-3.737783432,1,-7.658887386,1,-0.820686579,1,-1.776995659,1,1.259048223,1,0.230701059,1,-0.489673823,1,-0.102036513,1
2.31999135,-6.066074848,1,-3.24244523,1,-8.124837875,1,-0.927195787,1,-1.743018866,1,1.27379179,1,0.225392565,1,-0.497702956,1,-0.098230474,1
2.32399106,-8.349718094,1,-2.364372492,1,-8.965051651,1,-0.98651427,1,-1.601384044,1,1.271910667,1,0.219642341,1,-0.505394101,1,-0.094231792,1
2.327992916,-8.922887802,1,-1.112359762,1,-8.843618393,1,-0.953359604,1,-1.424885988,1,1.232304335,1,0.213724345,1,-0.512351096,1,-0.090133697,1
2.33199048,-17.13565254,1,-0.395677835,1,-11.16335583,1,-1.018627882,1,-1.166925311,1,1.184071302,1,0.207794443,1,-0.518532217,1,-0.085905343,1
2.335990191,-16.53826332,1,3.405842543,1,-11.27410603,1,-0.807783484,1,-0.556065142,1,0.972407639,1,0.201997593,1,-0.522772789,1,-0.081863187,1
2.339992046,-10.42707729,1,6.12869072,1,-10.93362904,1,-0.561972976,1,-0.282001346,1,0.774937987,1,0.197511688,1,-0.525013983,1,-0.078269735,1
2.343989849,-7.472507954,1,4.140879154,1,-9.325352669,1,-0.38495788,1,-0.163262472,1,0.716882825,1,0.194028199,1,-0.526425064,1,-0.075131468,1
2.347989559,-3.414232969,1,2.002276182,1,-8.825523376,1,-0.215354711,1,-0.27930665,1,0.613272786,1,0.191414177,1,-0.527774751,1,-0.072250202,1
2.351991415,-3.713811398,1,-0.705132186,1,-10.78444672,1,-0.220472217,1,-0.33229351,1,0.406386465,1,0.189527258,1,-0.529386938,1,-0.0701885,1
2.355988979,-4.782209873,1,-3.535312653,1,-9.871304512,1,-0.205296099,1,-0.277940571,1,0.332234055,1,0.187951639,1,-0.530884326,1,-0.068805739,1
2.359988689,-5.320607662,1,-3.132661343,1,-8.983097076,1,-0.177619711,1,-0.241738528,1,0.321333587,1,0.18652837,1,-0.532124996,1,-0.067531571,1
2.363990307,-5.4578228,1,-2.821685076,1,-9.030414581,1,-0.183017656,1,-0.243699744,1,0.279915452,1,0.185244903,1,-0.533286214,1,-0.066365317,1
2.367987871,-4.876291275,1,-2.89776969,1,-9.027560234,1,-0.237120241,1,-0.251865268,1,0.240559429,1,0.183887169,1,-0.534448802,1,-0.065392554,1
2.37198782,-5.690135956,1,-2.093040705,1,-9.056058884,1,-0.241490185,1,-0.256528825,1,0.231482953,1,0.182476625,1,-0.535625637,1,-0.064532481,1
2.375989437,-7.161903858,1,-1.764791608,1,-9.2370224,1,-0.214932039,1,-0.213646218,1,0.203905448,1,0.181151718,1,-0.536720216,1,-0.063738331,1
2.379987478,-6.040638924,1,-1.195818305,1,-8.809062004,1,-0.154093698,1,-0.184197843,1,0.168769494,1,0.18005994,1,-0.537603736,1,-0.063051701,1
2.383987188,-5.075832367,1,-1.316363335,1,-8.725841522,1,-0.135044545,1,-0.22046791,1,0.148145437,1,0.179181814,1,-0.538523018,1,-0.062496949,1
2.387988806,-5.700172424,1,-1.885896921,1,-9.219517708,1,-0.128788337,1,-0.207085118,1,0.129636884,1,0.178414583,1,-0.539453149,1,-0.062032938,1
2.391986609,-5.17842865,1,-2.645160913,1,-8.820034981,1,-0.114378609,1,-0.228851229,1,0.107195891,1,0.177751616,1,-0.540386438,1,-0.061683279,1
2.39598608,-4.77440834,1,-2.282701015,1,-8.661484718,1,-0.128937215,1,-0.253922254,1,0.10571672,1,0.177132264,1,-0.541426063,1,-0.061403591,1
2.399987936,-4.617936611,1,-1.909594893,1,-8.847085953,1,-0.120064773,1,-0.258933425,1,0.13083981,1,0.176437557,1,-0.542512119,1,-0.061069049,1
2.403985739,-4.092495441,1,-1.615077734,1,-8.953296661,1,-0.120639183,1,-0.279300779,1,0.146834284,1,0.175729543,1,-0.543654978,1,-0.060629733,1
2.40798521,-4.380521297,1,-1.600006819,1,-9.190320015,1,-0.115979321,1,-0.327102005,1,0.148983151,1,0.175014734,1,-0.544963121,1,-0.060184531,1
2.411987305,-5.046015263,1,-1.982973099,1,-9.029978752,1,-0.096293978,1,-0.322426289,1,0.157117978,1,0.174353614,1,-0.546331763,1,-0.059750382,1
2.415985346,-5.275739193,1,-1.549649715,1,-9.232516289,1,-0.075049371,1,-0.339724511,1,0.163233146,1,0.173753053,1,-0.547737539,1,-0.059265159,1
2.419991016,-5.181587696,1,-1.088047862,1,-8.770752907,1,-0.033618681,1,-0.337188721,1,0.158168063,1,0.173295215,1,-0.54918766,1,-0.058798369,1
2.423992872,-5.131344318,1,-1.070576668,1,-8.984938622,1,-0.005107888,1,-0.358749479,1,0.165764213,1,0.172987118,1,-0.550664186,1,-0.058338981,1
2.427990675,-4.727321148,1,-1.458951116,1,-8.715121269,1,0.012776811,1,-0.369830996,1,0.173154816,1,0.172348812,1,-0.55790174,1,-0.059417028,1
2.431990623,-4.867803574,1,-1.809375644,1,-8.490522385,1,0.006631141,1,-0.39955318,1,0.187108025,1,0.172092661,1,-0.559485316,1,-0.058819551,1
2.435992241,-5.161765099,1,-2.18176055,1,-8.120037079,1,-0.013960369,1,-0.391983479,1,0.200062633,1,0.171760723,1,-0.561166584,1,-0.058228187,1
2.439990044,-5.327337742,1,-2.483545542,1,-7.94021368,1,-0.028289676,1,-0.373352975,1,0.222658455,1,0.171326801,1,-0.562824428,1,-0.05755968,1
2.443989754,-5.350139618,1,-2.465946436,1,-7.970219135,1,-0.05418114,1,-0.334342599,1,0.252681017,1,0.170697093,1,-0.564367354,1,-0.056745473,1
2.44799161,-5.22028923,1,-2.43217206,1,-8.010894775,1,-0.072244659,1,-0.339797109,1,0.261668891,1,0.169957995,1,-0.565853357,1,-0.055820625,1
2.451989174,-6.822086811,1,-2.032955885,1,-7.83782959,1,-0.066516571,1,-0.331235498,1,0.30118525,1,0.169096544,1,-0.567374289,1,-0.054773249,1
2.455989361,-5.111124039,1,-2.32775116,1,-7.827247143,1,-0.05668607,1,-0.307834536,1,0.324080378,1,0.1682145,1,-0.568807006,1,-0.05356117,1
2.459990978,-5.702505589,1,-1.760624766,1,-8.069919586,1,-0.032724325,1,-0.30797869,1,0.342507154,1,0.167313367,1,-0.57025975,1,-0.052229531,1
2.463989019,-5.236596107,1,-1.638694525,1,-8.001978874,1,-0.032636181,1,-0.308841586,1,0.368671447,1,0.166396186,1,-0.571693838,1,-0.050800025,1
2.467988729,-5.172832489,1,-1.667906523,1,-8.291705132,1,-0.014612244,1,-0.308055282,1,0.393249542,1,0.165460303,1,-0.573149323,1,-0.049233932,1
2.471990347,-5.376331806,1,-1.569424629,1,-8.209673882,1,-0.003635899,1,-0.314415783,1,0.405485004,1,0.164525658,1,-0.574654281,1,-0.047613107,1
2.47598815,-5.26568222,1,-1.69406867,1,-8.35333252,1,0.0056765,1,-0.323149562,1,0.399310946,1,0.163639843,1,-0.576158941,1,-0.045945328,1
2.479987621,-5.415369034,1,-1.182145238,1,-8.505807877,1,0.036390003,1,-0.333822817,1,0.397680581,1,0.162825957,1,-0.577719092,1,-0.044320881,1
2.483989239,-5.339504719,1,-0.986505389,1,-8.718463898,1,0.057067562,1,-0.342427611,1,0.38316524,1,0.162164211,1,-0.579313338,1,-0.042756662,1
2.487987041,-5.438210964,1,-1.30901134,1,-8.691598892,1,0.074123897,1,-0.367441356,1,0.370157927,1,0.161599606,1,-0.580947101,1,-0.041242272,1
2.491986513,-5.485934734,1,-1.523996592,1,-8.566019058,1,0.072733447,1,-0.384524375,1,0.357962847,1,0.161116168,1,-0.582680047,1,-0.039816774,1
2.495988131,-5.517477989,1,-1.441568017,1,-8.48227787,1,0.093205363,1,-0.405027509,1,0.346486509,1,0.160689965,1,-0.584471345,1,-0.038446832,1
2.499986172,-5.322209358,1,-1.649185181,1,-8.630237579,1,0.075405896,1,-0.427784353,1,0.33707273,1,0.160328329,1,-0.586323678,1,-0.03712938,1
2.503985882,-5.436972618,1,-1.666911602,1,-8.843482018,1,0.0513006,1,-0.470834941,1,0.329993784,1,0.15988785,1,-0.588302076,1,-0.035886582,1
2.507987738,-5.409038067,1,-1.38801682,1,-9.255624771,1,0.069444731,1,-0.505887568,1,0.322150528,1,0.159498438,1,-0.590437233,1,-0.034722444,1
2.511985302,-5.248133659,1,-1.337452412,1,-9.436278343,1,0.091377318,1,-0.561980307,1,0.324035704,1,0.159187943,1,-0.592747927,1,-0.033596717,1
2.515985012,-5.309318066,1,-1.348757625,1,-9.709732056,1,0.095642611,1,-0.642671883,1,0.312635571,1,0.158973053,1,-0.595323205,1,-0.032546498,1
2.519986629,-5.181897163,1,-1.665960073,1,-9.587098122,1,0.095587701,1,-0.713125288,1,0.315000236,1,0.158816963,1,-0.598195016,1,-0.031562526,1
2.523984432,-5.323329926,1,-1.767120242,1,-9.874042511,1,0.076493919,1,-0.798410296,1,0.302594662,1,0.158650324,1,-0.601366818,1,-0.030658124,1
2.527984142,-4.712959766,1,-1.747936726,1,-9.551220894,1,0.071963847,1,-0.875931978,1,0.296020776,1,0.158496812,1,-0.604864061,1,-0.029863503,1
2.531985998,-5.123767376,1,-1.861815691,1,-9.908209801,1,0.066416815,1,-0.950370669,1,0.298580676,1,0.158349708,1,-0.608664691,1,-0.029135399,1
2.535983801,-5.160362244,1,-1.738394141,1,-10.0843935,1,0.080571242,1,-1.027743578,1,0.298662484,1,0.158258721,1,-0.612764835,1,-0.028465593,1
2.539989948,-5.057430267,1,-2.172930717,1,-10.05832005,1,0.030628085,1,-1.108243585,1,0.305274427,1,0.158129573,1,-0.61716938,1,-0.027826365,1
2.543992043,-5.391793728,1,-1.620461583,1,-10.29530048,1,0.022120783,1,-1.197970748,1,0.295160294,1,0.157905996,1,-0.621925354,1,-0.02727871,1
2.547990084,-5.154511929,1,-1.744226694,1,-10.59135723,1,0.029148024,1,-1.282760262,1,0.302168936,1,0.157722831,1,-0.627004027,1,-0.026788056,1
2.551989794,-5.038651466,1,-2.207547188,1,-10.26896572,1,-0.008096335,1,-1.393831491,1,0.302305728,1,0.157517746,1,-0.632480502,1,-0.02634063,1
2.555991411,-5.095778942,1,-1.843306422,1,-10.4928627,1,-5.83E-05,1,-1.494991064,1,0.293942273,1,0.157286629,1,-0.638376951,1,-0.026010584,1
2.559988976,-4.850595951,1,-1.903154612,1,-10.73451042,1,0.017098477,1,-1.595096707,1,0.297415346,1,0.157173902,1,-0.644660115,1,-0.025749588,1
2.563988447,-4.981753826,1,-2.109947443,1,-10.99187851,1,0.013084394,1,-1.7212497,1,0.28321138,1,0.157160863,1,-0.651406229,1,-0.025612487,1
2.567990065,-4.895971298,1,-1.999691486,1,-11.25924301,1,0.00625378,1,-1.866824985,1,0.275286525,1,0.157202169,1,-0.658664584,1,-0.025644071,1
2.571987867,-5.36538744,1,-2.266404152,1,-12.09525776,1,-0.035559855,1,-2.026440144,1,0.273226649,1,0.157288581,1,-0.666510224,1,-0.025828816,1
2.575987339,-3.735673189,1,-1.995937109,1,-11.73574352,1,-0.078598335,1,-2.224513054,1,0.259842277,1,0.157268092,1,-0.675079405,1,-0.026178883,1
2.579988956,-4.067071915,1,-1.578369975,1,-12.49801636,1,-0.042770237,1,-2.433835268,1,0.244331211,1,0.157410577,1,-0.684449553,1,-0.026800547,1
2.583986759,-4.165899754,1,-2.486671686,1,-12.7486887,1,-0.034103192,1,-2.637775421,1,0.26894322,1,0.157751456,1,-0.694616735,1,-0.027556723,1
2.587986231,-4.544320107,1,-3.342752695,1,-12.81555748,1,-0.078896478,1,-2.857763529,1,0.299940854,1,0.15804404,1,-0.705664635,1,-0.028343428,1
2.591988325,-3.567739487,1,-3.147478819,1,-12.65912342,1,-0.114155844,1,-3.076120377,1,0.321743876,1,0.158189803,1,-0.717570603,1,-0.029204827,1
2.595986128,-4.650635719,1,-3.442116499,1,-13.99827957,1,-0.104455628,1,-3.300000429,1,0.375046372,1,0.158316955,1,-0.730380714,1,-0.030059112,1
2.5999856,-3.795552254,1,-3.453011751,1,-12.84736633,1,-0.122972295,1,-3.553491354,1,0.451002508,1,0.158361077,1,-0.744179428,1,-0.030772654,1
2.603987455,-2.820401907,1,-4.017133713,1,-13.40054607,1,-0.143370241,1,-3.795641899,1,0.501846433,1,0.15824163,1,-0.758993804,1,-0.031376436,1
2.607985258,-3.849663496,1,-4.260043621,1,-13.46792984,1,-0.166388035,1,-4.045993805,1,0.607110977,1,0.157893553,1,-0.774852753,1,-0.031776216,1
2.61198473,-2.586720943,1,-4.047385693,1,-12.40888405,1,-0.185337126,1,-4.278909683,1,0.696526647,1,0.157242283,1,-0.791693449,1,-0.03183705,1
2.615986347,-2.082026482,1,-4.890104771,1,-12.46163845,1,-0.182341859,1,-4.547338486,1,0.813105702,1,0.15628846,1,-0.809630454,1,-0.031509306,1
2.61998415,-2.957791567,1,-5.528473854,1,-12.89099503,1,-0.190476701,1,-4.820770264,1,0.992908537,1,0.154844597,1,-0.828684092,1,-0.030578047,1
2.62398386,-3.237436533,1,-5.330974102,1,-12.2275362,1,-0.199274272,1,-5.040342808,1,1.1943506,1,0.152584016,1,-0.848841131,1,-0.028607497,1
2.627985716,-2.116946697,1,-4.693388939,1,-11.81386471,1,-0.190193504,1,-5.302546024,1,1.344350934,1,0.149593219,1,-0.870063782,1,-0.025672665,1
2.63198328,-2.907576084,1,-3.612955093,1,-11.98562622,1,-0.205632463,1,-5.598513126,1,1.471943974,1,0.146016315,1,-0.892459989,1,-0.022016967,1
2.63598299,-4.412463665,1,-2.523249626,1,-12.00883865,1,-0.201446548,1,-5.8005023,1,1.520251393,1,0.141780183,1,-0.915877879,1,-0.017678931,1
2.639984608,-5.972028255,1,-1.782755852,1,-12.18136024,1,-0.201850459,1,-5.908881187,1,1.57155025,1,0.137117535,1,-0.939902306,1,-0.012871408,1
2.64398241,-4.565587521,1,-1.372273207,1,-11.46753883,1,-0.222816125,1,-6.154575825,1,1.628876805,1,0.131914809,1,-0.964624763,1,-0.007512562,1
2.647982121,-3.396737814,1,-1.457295775,1,-11.22687531,1,-0.242220774,1,-6.39147234,1,1.625809789,1,0.12615481,1,-0.990353465,1,-0.001722014,1
2.651983976,-5.002908707,1,-0.179290369,1,-11.18816185,1,-0.197215572,1,-6.570278168,1,1.627549052,1,0.120103419,1,-1.016886592,1,0.00438916,1
2.655982018,-7.428925991,1,-0.029947989,1,-10.45101833,1,-0.13197647,1,-6.635830402,1,1.537603259,1,0.113998003,1,-1.043904901,1,0.010713357,1
2.659987926,-5.772707939,1,0.114377052,1,-10.65053749,1,-0.071831599,1,-6.861938,1,1.671255112,1,0.107697882,1,-1.071401358,1,0.01752826,1
2.663990021,-7.871720791,1,0.722539425,1,-10.46699715,1,-0.032164756,1,-6.918297291,1,1.644681454,1,0.100351445,1,-1.099517465,1,0.025600953,1
2.6679883,-9.576755524,1,1.159840941,1,-11.09349442,1,0.038466513,1,-7.007185459,1,1.547631741,1,0.092847466,1,-1.127870202,1,0.033996575,1
2.671987772,-11.16889477,1,0.186226875,1,-8.941270828,1,0.11147362,1,-6.876734734,1,1.494344354,1,0.085472226,1,-1.156119585,1,0.042447016,1
2.675989151,-9.035815239,1,-0.095163248,1,-8.462679863,1,0.226883128,1,-6.689681053,1,1.489294767,1,0.077205472,1,-1.183643222,1,0.052131344,1
2.679986954,-7.08667326,1,0.370923251,1,-11.81811523,1,0.406266987,1,-6.648917675,1,1.386422038,1,0.068726413,1,-1.210536361,1,0.062600158,1
2.683986425,-6.28528738,1,-0.755777836,1,-6.848457813,1,0.379680216,1,-6.600135803,1,1.446790695,1,0.059428483,1,-1.23720479,1,0.0739756,1
2.687988281,-10.88035583,1,-0.616979122,1,-9.806385994,1,0.453137666,1,-6.580846786,1,1.287387967,1,0.048708923,1,-1.263905764,1,0.087063871,1
2.691985846,-16.54555702,1,-0.03701498,1,-8.179389954,1,0.470776588,1,-6.147624969,1,1.155244589,1,0.038189173,1,-1.289603353,1,0.099982411,1
2.695985317,-15.50201511,1,-0.834130645,1,-6.599585056,1,0.442133725,1,-5.872618198,1,1.141515136,1,0.026318053,1,-1.313737631,1,0.114242926,1
2.699987411,-12.82600212,1,-1.733134866,1,-5.52440691,1,0.349623829,1,-5.674405575,1,1.068244696,1,0.011877229,1,-1.336860776,1,0.13074097,1
2.703985453,-16.24814796,1,-1.53512454,1,-4.805781364,1,0.297094047,1,-5.398137569,1,0.971823394,1,-0.004505306,1,-1.359108686,1,0.148834616,1
2.707984924,-18.74529457,1,-1.461509824,1,-5.386629581,1,0.317599803,1,-4.973198891,1,0.912350535,1,-0.022994535,1,-1.379799724,1,0.168969929,1
2.711987019,-17.69324684,1,-1.806332469,1,-4.575201035,1,0.268950075,1,-4.538793564,1,0.938976049,1,-0.045517154,1,-1.398664594,1,0.193056822,1
2.71598506,-14.73475552,1,-4.001624584,1,-3.061738729,1,0.144912601,1,-4.222262383,1,0.986083984,1,-0.074157976,1,-1.415948987,1,0.222978041,1
2.719985008,-14.15154076,1,-5.338676453,1,-2.885261059,1,-0.089701176,1,-3.951376438,1,0.972825229,1,-0.110765852,1,-1.431850791,1,0.26012063,1
2.723986626,-15.50550175,1,-4.94231987,1,-2.43653965,1,-0.360986114,1,-3.653973103,1,0.896758139,1,-0.155104235,1,-1.446460962,1,0.303913713,1
2.727984667,-12.90841484,1,-4.74945879,1,-1.663703322,1,-0.595192254,1,-3.372754097,1,0.959391296,1,-0.208737314,1,-1.459591031,1,0.355994135,1
2.731984377,-10.5574379,1,-4.112751961,1,-0.437406659,1,-0.846930087,1,-3.24157238,1,1.095460057,1,-0.279465407,1,-1.471412778,1,0.424229294,1
2.735986233,-11.52824593,1,-2.835927725,1,0.068550199,1,-1.072291732,1,-3.139445543,1,1.10959363,1,-0.371542335,1,-1.482110262,1,0.512811661,1
2.739983797,-10.82254982,1,-1.156771183,1,1.106936932,1,-1.15454185,1,-3.013062716,1,1.171042919,1,-0.485236585,1,-1.491437674,1,0.622435391,1
2.743983507,-12.57744884,1,-1.618265629,1,1.349894166,1,-1.227742314,1,-2.909593821,1,1.260028362,1,-0.627897084,1,-1.498939633,1,0.760721564,1
2.747985363,-16.11424446,1,-1.000623822,1,0.576276243,1,-1.319049239,1,-2.651216507,1,1.22426331,1,-0.792457819,1,-1.504173517,1,0.920568705,1
2.751983404,-17.06354332,1,-0.450671643,1,-0.090028457,1,-1.357774138,1,-2.240402937,1,1.141492605,1,-0.959703267,1,-1.506826162,1,1.082774043,1
2.755983114,-13.40129185,1,1.803615808,1,-3.748528004,1,-1.153146148,1,-1.716660619,1,1.180912971,1,-1.108405352,1,-1.5069139,1,1.226651192,1
2.75998497,-14.41936016,1,4.026618481,1,-7.169976711,1,-0.836085677,1,-1.144226193,1,1.25082314,1,-1.222936869,1,-1.504709244,1,1.337476611,1
2.763983011,-17.66280556,1,2.862733603,1,-5.06481123,1,-0.66874665,1,-0.772061646,1,1.34984374,1,-1.301014423,1,-1.500884533,1,1.412747979,1
2.76798296,-25.20924568,1,1.778354883,1,-7.269536495,1,-0.500315547,1,-0.483562708,1,1.193511724,1,-1.354960561,1,-1.496501088,1,1.464472055,1
2.771984339,-26.98913002,1,0.209259972,1,-9.406411171,1,-0.335525751,1,0.159164548,1,1.09452486,1,-1.37776494,1,-1.492211461,1,1.485684156,1
2.77598238,-15.5511713,1,-2.885122776,1,-8.051121712,1,-0.263508081,1,0.50016433,1,1.061499953,1,-1.371302962,1,-1.48769784,1,1.478021026,1
2.77998805,-8.992275238,1,-2.661332846,1,-7.190460682,1,-0.242832199,1,0.314656675,1,1.023398399,1,-1.362801671,1,-1.483276844,1,1.468475461,1
2.783989668,-9.072201729,1,-3.516125441,1,-6.901931286,1,-0.29587698,1,0.084655739,1,1.029234648,1,-1.364784837,1,-1.479108453,1,1.4694134,1
2.787987471,-8.9323349,1,-4.772895336,1,-7.408222675,1,-0.417978555,1,-0.158269346,1,1.090791345,1,-1.376539588,1,-1.474987507,1,1.479804277,1
2.791986942,-8.91791153,1,-5.798964024,1,-8.048458099,1,-0.581130624,1,-0.41868487,1,1.148855209,1,-1.398439527,1,-1.470785737,1,1.499815583,1
2.795988798,-9.053009987,1,-6.891655445,1,-8.55890274,1,-0.749145806,1,-0.714288831,1,1.20921576,1,-1.429994822,1,-1.466476679,1,1.528874636,1
2.799986362,-8.313550949,1,-7.33991766,1,-9.189099312,1,-0.925796747,1,-1.043589354,1,1.277415752,1,-1.471317768,1,-1.461972117,1,1.567070007,1
2.803985834,-7.799819469,1,-7.830584049,1,-9.703326225,1,-1.121887445,1,-1.411926866,1,1.379633069,1,-1.522754669,1,-1.457037807,1,1.614698887,1
2.80798769,-7.100927353,1,-8.017029762,1,-10.32142448,1,-1.340773582,1,-1.794373512,1,1.523867846,1,-1.583306909,1,-1.451353788,1,1.670707464,1
2.811985493,-6.357357979,1,-8.276649475,1,-11.05702114,1,-1.536233187,1,-2.160949707,1,1.692480206,1,-1.650681615,1,-1.444572449,1,1.732795954,1
2.815985203,-6.324043751,1,-8.886294365,1,-12.22698975,1,-1.738817453,1,-2.51009059,1,1.873678923,1,-1.721853137,1,-1.436401486,1,1.797963977,1
2.819987059,-6.386006832,1,-9.408099174,1,-13.8031559,1,-1.941568375,1,-2.823927641,1,2.064740658,1,-1.793541908,1,-1.426679611,1,1.862913251,1
2.823984861,-6.773049355,1,-9.200500488,1,-15.82616138,1,-2.108573914,1,-3.106388807,1,2.250796795,1,-1.863142848,1,-1.41529882,1,1.925090551,1
2.827984571,-7.910672188,1,-8.195394516,1,-18.13812065,1,-2.2013309,1,-3.360174417,1,2.414626122,1,-1.928571582,1,-1.402307153,1,1.982616305,1
2.831986427,-9.952641487,1,-7.470517635,1,-19.90401077,1,-2.187695742,1,-3.541213036,1,2.569059849,1,-1.98830092,1,-1.387830138,1,2.034335852,1
2.83598423,-11.38299942,1,-7.203078747,1,-20.69915009,1,-2.051021814,1,-3.605079174,1,2.6613276,1,-2.040549755,1,-1.372213364,1,2.078897715,1
2.83998394,-14.52149391,1,-7.251377583,1,-21.90449142,1,-1.915506124,1,-3.598896503,1,2.730849981,1,-2.084854841,1,-1.355883598,1,2.116086245,1
2.843985319,-15.29913425,1,-8.437303543,1,-21.51418686,1,-1.846545577,1,-3.39983654,1,2.75014019,1,-2.121015549,1,-1.339305758,1,2.145463467,1
2.84798336,-14.37537479,1,-9.25688076,1,-21.47472954,1,-1.845772505,1,-3.159055233,1,2.729572773,1,-2.149716139,1,-1.323018909,1,2.167424917,1
2.85198307,-13.03413582,1,-9.894968033,1,-20.8981781,1,-1.884210587,1,-2.898906946,1,2.697345495,1,-2.172595501,1,-1.307250738,1,2.183362007,1
2.855984926,-12.46798134,1,-9.57618618,1,-20.56234932,1,-1.900380135,1,-2.59637022,1,2.657260418,1,-2.190490484,1,-1.29216063,1,2.194070578,1
2.859983206,-12.43538189,1,-8.440382004,1,-20.34197998,1,-1.867406726,1,-2.249698639,1,2.577670574,1,-2.203905821,1,-1.277984262,1,2.200177908,1
2.863982916,-12.74396038,1,-6.918602943,1,-20.17297173,1,-1.756276965,1,-1.893058658,1,2.474773884,1,-2.213275433,1,-1.264924765,1,2.202373028,1
2.867984295,-12.63251591,1,-5.894752502,1,-19.95503616,1,-1.56552887,1,-1.51116538,1,2.371642113,1,-2.218731642,1,-1.253092527,1,2.201096058,1
2.871982098,-11.61192703,1,-5.345734119,1,-19.84498596,1,-1.311660051,1,-1.168636918,1,2.274813414,1,-2.220456839,1,-1.24245131,1,2.196834087,1
2.875981808,-10.06663895,1,-5.05807209,1,-19.52779579,1,-1.051575661,1,-0.859877467,1,2.208740473,1,-2.218877792,1,-1.232857466,1,2.190155268,1
2.879983664,-8.279238701,1,-5.334178448,1,-18.80893707,1,-0.807124138,1,-0.590908349,1,2.15555954,1,-2.21432209,1,-1.224148035,1,2.181361437,1
2.883981228,-7.430994511,1,-5.695384026,1,-18.00723076,1,-0.550348043,1,-0.328478098,1,2.123109818,1,-2.207099438,1,-1.216184616,1,2.170791626,1
2.8879807,-5.757816315,1,-5.897384644,1,-17.63699532,1,-0.355792552,1,-0.142625973,1,2.090073109,1,-2.197580338,1,-1.208836555,1,2.158710241,1
2.891982555,-4.31771183,1,-6.023917675,1,-16.81126976,1,-0.211112812,1,0.011857965,1,2.064408779,1,-2.186612368,1,-1.201928377,1,2.145757675,1
2.895980597,-3.491618633,1,-6.323446751,1,-16.28307533,1,-0.089398414,1,0.115596339,1,2.043012857,1,-2.174588919,1,-1.195354104,1,2.132217646,1
2.899986267,-3.404397726,1,-6.77269125,1,-15.64703465,1,0.014615711,1,0.232339352,1,2.028234482,1,-2.161762476,1,-1.18900609,1,2.118263245,1
2.903987885,-3.42239809,1,-6.794945717,1,-15.16754246,1,0.090794802,1,0.349080384,1,1.998718739,1,-2.148158073,1,-1.182917356,1,2.103825569,1
2.907985687,-3.610047102,1,-6.827548981,1,-14.5660696,1,0.148754597,1,0.473205477,1,1.958079457,1,-2.133928776,1,-1.177141309,1,2.088956594,1
2.911985636,-3.954640388,1,-6.746163368,1,-13.91966915,1,0.184283406,1,0.624414265,1,1.888061523,1,-2.119129419,1,-1.17175281,1,2.073642492,1
2.915987253,-4.055164337,1,-6.554196835,1,-13.47056007,1,0.201008961,1,0.796401799,1,1.799786925,1,-2.103667259,1,-1.166883588,1,2.057691097,1
2.919984818,-4.136723995,1,-5.996103287,1,-13.04919052,1,0.215340286,1,0.987805784,1,1.66919744,1,-2.087600946,1,-1.162647843,1,2.041114569,1
2.923984528,-3.606606007,1,-5.342842102,1,-12.62338161,1,0.238315955,1,1.168620348,1,1.508996367,1,-2.070896387,1,-1.159181595,1,2.023885489,1
2.927986383,-3.168138504,1,-4.777918339,1,-12.11040211,1,0.29262045,1,1.353136301,1,1.328998923,1,-2.053570509,1,-1.156555295,1,2.006133556,1
2.931984186,-2.589640379,1,-4.254232407,1,-11.66993618,1,0.360026121,1,1.531303883,1,1.129175067,1,-2.035301447,1,-1.154811144,1,1.987875581,1
2.935983896,-2.187516451,1,-3.580606461,1,-11.21342373,1,0.437922716,1,1.714569449,1,0.908401549,1,-2.016451836,1,-1.15399754,1,1.969008327,1
2.939985514,-1.646121264,1,-2.945782423,1,-10.89484024,1,0.535741091,1,1.897612572,1,0.663346887,1,-1.996724844,1,-1.15419507,1,1.94955945,1
2.943983316,-1.448646545,1,-2.428951979,1,-10.51086044,1,0.643554091,1,2.083733559,1,0.399079621,1,-1.975938559,1,-1.155452132,1,1.929407597,1
2.947983027,-1.327753901,1,-1.73359561,1,-10.25095749,1,0.76002419,1,2.279895306,1,0.118216783,1,-1.9538939,1,-1.157836795,1,1.908388734,1
2.951984644,-1.175193429,1,-1.177204847,1,-9.919331551,1,0.887093127,1,2.478674173,1,-0.165583432,1,-1.930346251,1,-1.161370754,1,1.886292338,1
2.955982685,-1.251761794,1,-0.831142068,1,-9.75466156,1,1.026707172,1,2.691473246,1,-0.44437778,1,-1.904912472,1,-1.166039348,1,1.86275816,1
2.959982157,-1.514948964,1,-0.441338003,1,-9.537394524,1,1.168002129,1,2.910838842,1,-0.733162642,1,-1.877251029,1,-1.171803951,1,1.837476134,1
2.963983536,-1.794805884,1,-0.161950737,1,-9.270442963,1,1.297433734,1,3.128611088,1,-1.012422562,1,-1.847011328,1,-1.178621173,1,1.810045958,1
2.967981577,-2.115056753,1,0.095187493,1,-9.117731094,1,1.406866074,1,3.362384796,1,-1.291988969,1,-1.813810587,1,-1.186412692,1,1.780024767,1
2.971981049,-1.965893149,1,0.206608832,1,-8.787387848,1,1.498492956,1,3.576265812,1,-1.545820475,1,-1.777290463,1,-1.195044398,1,1.746967912,1
2.975983143,-2.032704115,1,0.175108418,1,-8.540892601,1,1.567606211,1,3.785927534,1,-1.785701752,1,-1.737147331,1,-1.204332232,1,1.710481048,1
2.979980946,-1.745368242,1,0.280491173,1,-8.323569298,1,1.619756937,1,3.974704981,1,-1.998456001,1,-1.692981839,1,-1.214056849,1,1.670081377,1
2.983980656,-1.540145755,1,0.47123009,1,-8.195059776,1,1.665511966,1,4.136172295,1,-2.184883833,1,-1.644636154,1,-1.223978996,1,1.625580907,1
2.987982512,-1.456642747,1,0.582065463,1,-8.131879807,1,1.690294027,1,4.276647091,1,-2.347613573,1,-1.591839075,1,-1.233853102,1,1.576668024,1
2.991980553,-1.644116998,1,0.70663327,1,-8.16078186,1,1.726677418,1,4.396502495,1,-2.484083891,1,-1.534462929,1,-1.243382812,1,1.523207784,1
2.995980024,-2.356360435,1,0.87241739,1,-8.169358253,1,1.759117484,1,4.530563831,1,-2.60691309,1,-1.472230673,1,-1.252341628,1,1.464923263,1
2.99998188,-3.176882744,1,1.004201651,1,-8.300805092,1,1.772055864,1,4.664352417,1,-2.732848406,1,-1.404775739,1,-1.260500908,1,1.401421309,1
3.003979445,-4.181371212,1,0.877666712,1,-8.431042671,1,1.765123963,1,4.826045036,1,-2.847962856,1,-1.331889033,1,-1.267616391,1,1.332392693,1
3.007979155,-4.846884727,1,0.66144681,1,-8.544988632,1,1.732055664,1,4.981767654,1,-2.96325779,1,-1.253648877,1,-1.273417234,1,1.257822871,1
3.01198101,-5.442977905,1,0.415263265,1,-8.671391487,1,1.675416946,1,5.158630848,1,-3.069237947,1,-1.170424581,1,-1.277596354,1,1.177963376,1
3.015979052,-5.947061539,1,0.292010188,1,-8.835867882,1,1.598207831,1,5.341585159,1,-3.171366215,1,-1.082981229,1,-1.279833317,1,1.093495965,1
3.019984722,-6.408916473,1,0.431185573,1,-9.057351112,1,1.522704124,1,5.521457672,1,-3.261980772,1,-0.992408156,1,-1.279867649,1,1.005467296,1
3.023986101,-6.96718359,1,0.727265954,1,-9.211209297,1,1.457438469,1,5.700889587,1,-3.339742422,1,-0.900233448,1,-1.27746582,1,0.915440083,1
3.027983904,-7.126822948,1,1.174241662,1,-9.329427719,1,1.412686944,1,5.881544113,1,-3.428468943,1,-0.807978749,1,-1.272447467,1,0.824991763,1
3.031983852,-7.050126553,1,1.579864502,1,-9.386551857,1,1.394618273,1,6.025023937,1,-3.489450932,1,-0.717455864,1,-1.26478529,1,0.736048222,1
3.035985708,-6.890276909,1,2.054861784,1,-9.507371902,1,1.398249507,1,6.129797459,1,-3.544270992,1,-0.630425096,1,-1.254555106,1,0.650496721,1
3.039983511,-6.819096088,1,2.276959896,1,-9.407892227,1,1.428119659,1,6.217536449,1,-3.58280015,1,-0.548218131,1,-1.241925478,1,0.56977123,1
3.043983221,-6.99886179,1,2.357650757,1,-9.336100578,1,1.47597456,1,6.293168068,1,-3.59369421,1,-0.471622765,1,-1.227068543,1,0.494782716,1
3.0479846,-7.160974979,1,2.07918787,1,-9.201800346,1,1.528401375,1,6.350349426,1,-3.593592167,1,-0.401037335,1,-1.210217834,1,0.42599985,1
3.051982641,-7.1252141,1,1.595628142,1,-9.193304062,1,1.556728244,1,6.387350559,1,-3.571326494,1,-0.336678326,1,-1.191613913,1,0.363598794,1
3.055982351,-7.114296913,1,1.094936252,1,-9.209510803,1,1.567258596,1,6.398253918,1,-3.527382851,1,-0.278559208,1,-1.171535254,1,0.30754137,1
3.059983969,-7.247790813,1,0.692600071,1,-9.321214676,1,1.562916875,1,6.419800282,1,-3.465650082,1,-0.226371333,1,-1.150198817,1,0.257478029,1
3.063981771,-7.666985035,1,0.50685811,1,-9.458855629,1,1.55322814,1,6.438254833,1,-3.40382576,1,-0.179668397,1,-1.127780676,1,0.212925926,1
3.067981243,-8.051172256,1,0.451149881,1,-9.693605423,1,1.529486418,1,6.48979187,1,-3.340545177,1,-0.137897581,1,-1.104393005,1,0.173298895,1
3.071983337,-8.206197739,1,0.550447047,1,-10.06241798,1,1.527610183,1,6.538012505,1,-3.256969452,1,-0.100556627,1,-1.080093503,1,0.138109028,1
3.075981379,-8.37833786,1,0.993006229,1,-10.56075859,1,1.559665322,1,6.594274521,1,-3.165205717,1,-0.067144066,1,-1.054997444,1,0.10700357,1
3.07998085,-8.888044357,1,1.708743095,1,-11.09209538,1,1.647339106,1,6.67525053,1,-3.070906878,1,-0.037054177,1,-1.029154539,1,0.079572074,1
3.083982706,-9.72694397,1,2.535079956,1,-11.31162643,1,1.811668396,1,6.808213234,1,-2.968234062,1,-0.009662308,1,-1.002482533,1,0.055467654,1
3.087980509,-10.70924664,1,3.092656374,1,-11.32350636,1,2.02015996,1,6.990332603,1,-2.86860466,1,0.015603634,1,-0.974856853,1,0.034382284,1
3.09197998,-11.34492493,1,3.370005131,1,-11.30915928,1,2.245692015,1,7.203908443,1,-2.78180933,1,0.039187219,1,-0.94617039,1,0.016016027,1
3.095981836,-11.79662895,1,3.115016937,1,-11.01235771,1,2.462121487,1,7.431727886,1,-2.694472075,1,0.061330635,1,-0.916380942,1,0.000157351,1
3.099979639,-12.24252701,1,2.317093849,1,-10.56765079,1,2.643205881,1,7.660356998,1,-2.600465059,1,0.082149386,1,-0.885517597,1,-0.013355033,1
3.103979349,-12.01884651,1,1.368471861,1,-10.16137886,1,2.752568722,1,7.837818146,1,-2.503991604,1,0.101626828,1,-0.853711367,1,-0.024695318,1
3.107980967,-11.59769917,1,0.321627468,1,-9.76348114,1,2.77616787,1,7.95323801,1,-2.413824797,1,0.1196924,1,-0.821213007,1,-0.034099136,1
3.111978769,-11.38358021,1,-0.704380512,1,-9.419547081,1,2.715311527,1,8.014053345,1,-2.314985275,1,0.1362039,1,-0.788311481,1,-0.041743428,1
3.115978479,-11.02856541,1,-1.280807018,1,-9.264800072,1,2.613185883,1,8.019867897,1,-2.222852468,1,0.151138857,1,-0.755248368,1,-0.047864936,1
3.119980335,-11.12595272,1,-1.724466324,1,-9.142818451,1,2.486078739,1,7.960485458,1,-2.15650034,1,0.164644882,1,-0.722311497,1,-0.052752815,1
3.123978138,-11.56346416,1,-1.901209474,1,-9.153370857,1,2.340328693,1,7.86849308,1,-2.121954203,1,0.176882088,1,-0.689663351,1,-0.056738816,1
3.12797761,-12.27561378,1,-2.016688108,1,-9.445928574,1,2.205193758,1,7.753057957,1,-2.129573822,1,0.188107833,1,-0.657386303,1,-0.060166914,1
3.131979465,-13.14273834,1,-1.994188786,1,-9.834460258,1,2.074222565,1,7.626914978,1,-2.173555613,1,0.198553607,1,-0.625544846,1,-0.063319914,1
3.135977745,-14.20246887,1,-1.852616191,1,-10.29825878,1,1.963322401,1,7.485124588,1,-2.258926153,1,0.208416909,1,-0.594165802,1,-0.06645795,1
3.139983654,-15.33961868,1,-1.995301723,1,-10.60235882,1,1.882617712,1,7.366535187,1,-2.37422204,1,0.217910409,1,-0.56317234,1,-0.069759972,1
3.14398551,-16.31548882,1,-2.012679338,1,-11.05102634,1,1.826795936,1,7.250176907,1,-2.501699448,1,0.227182627,1,-0.532501876,1,-0.073343158,1
3.147983551,-17.29784584,1,-2.025885582,1,-11.36854267,1,1.796493411,1,7.12947607,1,-2.651334763,1,0.236376911,1,-0.502141774,1,-0.077284805,1
3.151983261,-18.30941582,1,-2.313128948,1,-11.53072548,1,1.795330405,1,6.991151333,1,-2.798867464,1,0.245597214,1,-0.472120345,1,-0.081636682,1
3.155984879,-19.24967575,1,-2.582260847,1,-11.65235138,1,1.793757319,1,6.84726572,1,-2.936393023,1,0.254871011,1,-0.442461938,1,-0.086382322,1
3.159982681,-20.54270744,1,-2.793659449,1,-11.44477844,1,1.799127102,1,6.682917118,1,-3.083179474,1,0.264197707,1,-0.413218498,1,-0.091538884,1
3.163982391,-21.98513222,1,-2.665223837,1,-11.05134201,1,1.782748938,1,6.488637924,1,-3.227669001,1,0.273554087,1,-0.38445732,1,-0.097146347,1
3.167984486,-23.34731674,1,-3.075879097,1,-10.2392416,1,1.768235922,1,6.276727676,1,-3.344783306,1,0.282849431,1,-0.356297672,1,-0.103191301,1
3.171982288,-24.60125351,1,-3.672330856,1,-9.119872093,1,1.726283073,1,6.027256966,1,-3.430911541,1,0.291987419,1,-0.328849435,1,-0.109598085,1
3.17598176,-25.60146332,1,-3.882974863,1,-7.991621017,1,1.659205675,1,5.726158619,1,-3.490628004,1,0.300842643,1,-0.302310944,1,-0.116305344,1
3.179983616,-26.56069756,1,-3.063452482,1,-6.918908119,1,1.587326527,1,5.362800121,1,-3.528512239,1,0.309177607,1,-0.276861668,1,-0.123457335,1
3.183981657,-27.81167984,1,-1.101026416,1,-6.000066757,1,1.585103869,1,4.969834328,1,-3.5405128,1,0.317416131,1,-0.25284642,1,-0.130803287,1
3.187981129,-29.46927071,1,1.570729256,1,-5.068147182,1,1.700432301,1,4.55302,1,-3.559870481,1,0.325793803,1,-0.230287224,1,-0.138473004,1
3.191982746,-31.27023888,1,4.245919704,1,-4.149956226,1,1.925840497,1,4.136254311,1,-3.558555841,1,0.334766924,1,-0.209229022,1,-0.146509185,1
3.195980549,-33.16972733,1,5.693449974,1,-2.775731087,1,2.249932528,1,3.745968342,1,-3.50924468,1,0.344732463,1,-0.189659402,1,-0.154770911,1
3.199980259,-34.9090004,1,5.60630846,1,-1.264533401,1,2.587010145,1,3.398311377,1,-3.391942739,1,0.355897695,1,-0.171497434,1,-0.162986666,1
3.203982115,-35.88011932,1,3.948853254,1,0.470047921,1,2.755905867,1,3.055106401,1,-3.190244675,1,0.367908776,1,-0.154757485,1,-0.170844346,1
3.207979679,-35.78779602,1,2.129087448,1,2.045991659,1,2.739122629,1,2.684004545,1,-2.890871286,1,0.379991353,1,-0.139601186,1,-0.178060547,1
3.211979866,-35.31724548,1,0.471572578,1,3.549931049,1,2.533641815,1,2.304424763,1,-2.530428171,1,0.391434908,1,-0.126271769,1,-0.184427634,1
3.215981483,-34.57201004,1,0.409700602,1,4.527070522,1,2.205227375,1,1.901597023,1,-2.123104811,1,0.401593596,1,-0.114911675,1,-0.189808175,1
3.219979525,-34.42456055,1,0.889643788,1,5.520662308,1,1.826419353,1,1.528141737,1,-1.684922099,1,0.410127223,1,-0.105609827,1,-0.194132,1
3.223978996,-34.04378891,1,2.049997568,1,6.4189291,1,1.45819962,1,1.197895646,1,-1.219815373,1,0.417011678,1,-0.098279059,1,-0.197285011,1
3.227980852,-33.22854233,1,3.161752939,1,7.185272217,1,1.143167019,1,0.909773171,1,-0.751990318,1,0.422374696,1,-0.092829697,1,-0.199178189,1
3.231978655,-32.27767563,1,3.888243198,1,7.956830502,1,0.900245488,1,0.66428715,1,-0.282746941,1,0.42650494,1,-0.089123063,1,-0.199780315,1
3.235978127,-31.07892227,1,4.449293137,1,8.386378288,1,0.710888922,1,0.452658176,1,0.166712806,1,0.429652125,1,-0.087000668,1,-0.199067503,1
3.239979982,-30.19579124,1,4.53625679,1,8.646495819,1,0.577599466,1,0.274462998,1,0.597836614,1,0.432031512,1,-0.086320758,1,-0.197061583,1
3.243978024,-29.73987961,1,4.22923851,1,8.723220825,1,0.492130727,1,0.127469659,1,1.02412796,1,0.433876991,1,-0.086959898,1,-0.193758443,1
3.247977734,-29.20446205,1,4.046355724,1,8.638278008,1,0.461008042,1,0.011904446,1,1.415141702,1,0.435376942,1,-0.088765413,1,-0.189187795,1
3.251979351,-28.07691383,1,3.491230011,1,8.790049553,1,0.460000217,1,-0.101072401,1,1.759642005,1,0.436695963,1,-0.091612116,1,-0.183463052,1
3.255977154,-26.33821869,1,2.574478149,1,8.907528877,1,0.461715758,1,-0.230707899,1,2.060560942,1,0.43790853,1,-0.095454685,1,-0.176768944,1
3.259976625,-24.27667809,1,1.427182555,1,8.658679962,1,0.457615077,1,-0.375544518,1,2.312045336,1,0.439024299,1,-0.100266375,1,-0.169306397,1
3.26398468,7.378553867,1,-17.3744278,1,-11.65946674,1,-1.16894877,1,-1.196327925,1,2.565046549,1,0.437873423,1,-0.106865041,1,-0.16154848,1
3.267988682,-35.86198425,1,-25.82539177,1,14.43556976,1,-3.905967951,1,-2.806548357,1,2.756457567,1,0.426929533,1,-0.118708521,1,-0.155551895,1
3.27198863,-29.91399765,1,-21.72395897,1,28.98358154,1,-6.152656078,1,-3.840161562,1,3.408795595,1,0.405613124,1,-0.135837302,1,-0.149400339,1
3.275990725,1.167997122,1,0.938252807,1,20.15796089,1,-6.581449509,1,-4.920972347,1,3.613265514,1,0.378922611,1,-0.157482564,1,-0.143043682,1
3.279988766,-15.12555695,1,16.28324127,1,10.10179043,1,-6.569275379,1,-6.266469002,1,3.666070938,1,0.35144183,1,-0.183638155,1,-0.137299046,1
3.283988237,-25.38570023,1,26.66124153,1,-7.637523174,1,-4.831085205,1,-6.816119194,1,3.056291342,1,0.327799201,1,-0.213023722,1,-0.132991105,1
3.287990093,-35.8229332,1,17.03114891,1,-26.94734192,1,-4.08537817,1,-6.751241207,1,2.009219646,1,0.309606075,1,-0.242230952,1,-0.132144809,1
3.291987658,-25.38043404,1,9.780272484,1,-39.61515045,1,-2.549973965,1,-6.401290894,1,1.175146461,1,0.297858626,1,-0.268917084,1,-0.133609533,1
3.295987368,-48.87467575,1,-0.091566376,1,-47.16180038,1,-2.492810249,1,-5.918225288,1,1.214112997,1,0.288428843,1,-0.294250607,1,-0.13671276,1
3.299989462,-42.58682251,1,0.40461272,1,-45.1113472,1,-2.251523256,1,-5.43364954,1,1.733354688,1,0.279358476,1,-0.317445099,1,-0.137412399,1
3.303987741,-38.62360764,1,10.67501926,1,-38.58463669,1,-2.109918833,1,-5.318923473,1,2.478048801,1,0.269874424,1,-0.340457499,1,-0.134897605,1
3.307987452,-32.56901169,1,10.19129086,1,-31.19194603,1,-1.763152719,1,-4.982999325,1,2.883296013,1,0.260056436,1,-0.363047212,1,-0.129478112,1
3.311989307,-19.09030151,1,6.691143513,1,-23.34503937,1,-1.382436275,1,-4.766351223,1,2.655632257,1,0.251439214,1,-0.384768963,1,-0.123146504,1
3.315986872,-8.708754539,1,1.259536743,1,-15.4498806,1,-1.106792927,1,-4.808485985,1,2.224712372,1,0.244528443,1,-0.405671328,1,-0.117990769,1
3.319986582,-4.476626396,1,-2.36173296,1,-8.169951439,1,-0.860863864,1,-4.843161583,1,1.927916288,1,0.239094481,1,-0.426401228,1,-0.114289537,1
3.323988438,0.876660109,1,-3.159142256,1,-4.68325901,1,-0.836589813,1,-4.965462685,1,1.851886868,1,0.234513253,1,-0.44716239,1,-0.111292116,1
3.327986717,-0.67593807,1,-1.014202476,1,-1.873955607,1,-0.902184427,1,-5.059531212,1,1.819339752,1,0.229772821,1,-0.468469143,1,-0.10848356,1
3.331986427,-6.100317955,1,-1.324654102,1,-2.147571802,1,-1.088301182,1,-4.800383568,1,1.97261095,1,0.224356398,1,-0.489459485,1,-0.105233297,1
