Time,inertial-6253.76535:estCompensatedAccelX,inertial-6253.76535:estCompensatedAccelX:valid,inertial-6253.76535:estCompensatedAccelY,inertial-6253.76535:estCompensatedAccelY:valid,inertial-6253.76535:estCompensatedAccelZ,inertial-6253.76535:estCompensatedAccelZ:valid,inertial-6253.76535:estAngularRateX,inertial-6253.76535:estAngularRateX:valid,inertial-6253.76535:estAngularRateY,inertial-6253.76535:estAngularRateY:valid,inertial-6253.76535:estAngularRateZ,inertial-6253.76535:estAngularRateZ:valid,inertial-6253.76535:estRoll,inertial-6253.76535:estRoll:valid,inertial-6253.76535:estPitch,inertial-6253.76535:estPitch:valid,inertial-6253.76535:estYaw,inertial-6253.76535:estYaw:valid
0,-3.301959515,1,-3.492734194,1,-8.594462395,1,0.061676994,1,0.063571319,1,-0.011402703,1,0.3953136205673218,1,-0.351214468,1,0.4797394871711731,1
0.003997696,-3.335434914,1,-3.491705418,1,-8.586871147,1,0.068368509,1,0.059456512,1,-0.014403274,1,0.3955492377281189,1,-0.350969166,1,0.4797894954681396,1
0.007997184,-3.297969818,1,-3.47433877,1,-8.568746567,1,0.06521631,1,0.062560447,1,-0.016144414,1,0.3957981169223785,1,-0.350719273,1,0.4798340797424316,1
0.01199872,-3.330376625,1,-3.484652042,1,-8.586763382,1,0.070947021,1,0.060939673,1,-0.01910723,1,0.3960610330104828,1,-0.350469351,1,0.4798702895641327,1
0.015996415,-3.254591942,1,-3.522464037,1,-8.561563492,1,0.069626093,1,0.06163941,1,-0.014183541,1,0.3963352143764496,1,-0.350210071,1,0.4799085855484009,1
0.019995904,-3.281534672,1,-3.49674511,1,-8.568237305,1,0.070648,1,0.057342075,1,-0.017427459,1,0.3966029286384583,1,-0.349958211,1,0.4799463748931885,1
0.023997696,-3.244787693,1,-3.494485855,1,-8.546783447,1,0.071237408,1,0.06058602,1,-0.014762009,1,0.3968804478645325,1,-0.3497217,1,0.4799833297729492,1
0.027995393,-3.275366068,1,-3.528859138,1,-8.528075218,1,0.069414414,1,0.055385131,1,-0.014385209,1,0.397149384,1,-0.349490404,1,0.4800222516059875,1
0.031994879,-3.230857372,1,-3.555332661,1,-8.536053658,1,0.068912998,1,0.05770231,1,-0.01297251,1,0.3974112570285797,1,-0.349273205,1,0.4800638258457184,1
0.035996415,-3.269981623,1,-3.567644596,1,-8.530625343,1,0.068580694,1,0.051681515,1,-0.007806116,1,0.3976771533489227,1,-0.349059463,1,0.4801087975502014,1
0.039993856,-3.309394836,1,-3.552730083,1,-8.546391487,1,0.06820567,1,0.048096988,1,-0.012446745,1,0.3979378342628479,1,-0.348859131,1,0.4801470935344696,1
0.043993343,-3.31048584,1,-3.529954195,1,-8.554532051,1,0.069980264,1,0.050884038,1,-0.014815494,1,0.3982043266296387,1,-0.348643363,1,0.4801766872406006,1
0.047995135,-3.360836744,1,-3.520578623,1,-8.603484154,1,0.06792888,1,0.056547847,1,-0.016799469,1,0.398477316,1,-0.34843567,1,0.4802069067955017,1
0.051992834,-3.315393448,1,-3.490695715,1,-8.57169342,1,0.06903328,1,0.047673389,1,-0.016949631,1,0.3987453579902649,1,-0.348212421,1,0.4802321195602417,1
0.055992577,-3.252916098,1,-3.491418362,1,-8.583909988,1,0.067205362,1,0.051563818,1,-0.015375255,1,0.3990092873573303,1,-0.348001778,1,0.4802482128143311,1
0.059994113,-3.239943743,1,-3.517627716,1,-8.585481644,1,0.071473919,1,0.050993063,1,-0.016739104,1,0.3992763757705688,1,-0.34778434,1,0.4802692532539368,1
0.063991807,-3.313211918,1,-3.532940626,1,-8.567267418,1,0.070502788,1,0.054892961,1,-0.013830627,1,0.3995582461357117,1,-0.347576946,1,0.4802828133106232,1
0.067991294,-3.315183163,1,-3.50962615,1,-8.567770958,1,0.072637901,1,0.054430846,1,-0.02225421,1,0.399843693,1,-0.347342372,1,0.4803064465522766,1
0.071998976,-3.27043438,1,-3.499164104,1,-8.549379349,1,0.0709785,1,0.054331087,1,-0.022505295,1,0.4001283049583435,1,-0.347109139,1,0.4803082942962646,1
0.076002561,-3.232309341,1,-3.528289557,1,-8.557659149,1,0.071217589,1,0.048882291,1,-0.021901384,1,0.4004098773002625,1,-0.346883059,1,0.4803124666213989,1
0.0800023,-3.187173843,1,-3.549663544,1,-8.553524971,1,0.073059775,1,0.052638404,1,-0.018562183,1,0.4007039368152618,1,-0.346663058,1,0.4803121984004974,1
0.084003843,-3.266810417,1,-3.540809631,1,-8.551568031,1,0.064152755,1,0.048084565,1,-0.020867568,1,0.4009822010993958,1,-0.346450567,1,0.4803123474121094,1
0.088001534,-3.301006079,1,-3.560159445,1,-8.556575775,1,0.067884944,1,0.047699898,1,-0.021721993,1,0.401252419,1,-0.34623307,1,0.4803164899349213,1
0.092001021,-3.259544373,1,-3.61927247,1,-8.56819725,1,0.059511799,1,0.053380925,1,-0.022531442,1,0.4015102982521057,1,-0.346027285,1,0.4803106486797333,1
0.096002303,-3.260250807,1,-3.612509489,1,-8.543012619,1,0.055245124,1,0.042922154,1,-0.021736309,1,0.401739627,1,-0.345814526,1,0.4802969098091125,1
0.100000001,-3.237380505,1,-3.556695938,1,-8.566338539,1,0.058468882,1,0.046446491,1,-0.027244382,1,0.4019745886325836,1,-0.345598638,1,0.4802952706813812,1
0.103999488,-3.26884675,1,-3.53264451,1,-8.580733299,1,0.059351277,1,0.051322464,1,-0.021061331,1,0.4022121727466583,1,-0.345383346,1,0.4802885055541992,1
0.10800077,-3.266764879,1,-3.551538467,1,-8.586242676,1,0.060199507,1,0.049276873,1,-0.025775652,1,0.4024526476860046,1,-0.345165133,1,0.4802790880203247,1
0.111998461,-3.288702965,1,-3.503914118,1,-8.622915268,1,0.057278655,1,0.049038023,1,-0.021972556,1,0.4026912152767181,1,-0.344944775,1,0.4802579581737518,1
0.115997955,-3.267275572,1,-3.508361578,1,-8.585612297,1,0.055564113,1,0.047689054,1,-0.025626313,1,0.4029290378093719,1,-0.344723761,1,0.4802377820014954,1
0.119999744,-3.264683008,1,-3.528045416,1,-8.586687088,1,0.059172913,1,0.047109269,1,-0.027791157,1,0.4031694233417511,1,-0.344505847,1,0.4802142679691315,1
0.123997442,-3.239677906,1,-3.572695494,1,-8.574508667,1,0.056619078,1,0.048964877,1,-0.030781303,1,0.4034164249897003,1,-0.344284356,1,0.4801809191703796,1
0.127996922,-3.237906456,1,-3.55642128,1,-8.583250046,1,0.056026969,1,0.049633805,1,-0.029402912,1,0.4036544561386108,1,-0.3440606,1,0.4801451563835144,1
0.131998464,-3.189291,1,-3.541330338,1,-8.536604881,1,0.053122945,1,0.045653716,1,-0.028533407,1,0.4038836061954498,1,-0.343840599,1,0.4801086187362671,1
0.135996163,-3.154243708,1,-3.545279026,1,-8.493873596,1,0.047724366,1,0.043971375,1,-0.026347499,1,0.4040963053703308,1,-0.343628407,1,0.480075866,1
0.139995903,-3.10216713,1,-3.536813021,1,-8.462714195,1,0.039471705,1,0.036784928,1,-0.024988554,1,0.4042816758155823,1,-0.343441367,1,0.4800477623939514,1
0.143997446,-3.035424471,1,-3.589963198,1,-8.419007301,1,0.030117227,1,0.029421685,1,-0.016314881,1,0.4044337272644043,1,-0.343289912,1,0.4800195693969727,1
0.147994876,-3.027332544,1,-3.655830383,1,-8.393691063,1,0.016974216,1,0.021508351,1,-0.010654589,1,0.4045175313949585,1,-0.343173236,1,0.480007142,1
0.151994362,-2.997062683,1,-3.689992666,1,-8.46168232,1,0.003620388,1,0.013914704,1,-0.003527644,1,0.4045616388320923,1,-0.34310025,1,0.4800086617469788,1
0.155996159,-3.161917448,1,-3.676273108,1,-8.500533104,1,-0.001587003,1,0.010877887,1,-0.000951194,1,0.4045631289482117,1,-0.343069315,1,0.4800227582454681,1
0.159993857,-3.245111465,1,-3.680272818,1,-8.606561661,1,-0.001211711,1,0.002958505,1,0.000388912,1,0.4045477509498596,1,-0.343046069,1,0.4800246059894562,1
0.163993344,-3.375406027,1,-3.61250782,1,-8.624111176,1,-0.006184514,1,0.007551861,1,-0.003897933,1,0.4045351445674896,1,-0.343018442,1,0.4800288379192352,1
0.167994887,-3.40512681,1,-3.521037817,1,-8.595851898,1,-0.001897182,1,0.01708737,1,-0.00642997,1,0.4045236706733704,1,-0.342962682,1,0.4800209105014801,1
0.17199257,-3.287327766,1,-3.50988698,1,-8.613671303,1,0.000425093,1,0.017472582,1,-0.014559112,1,0.4045197069644928,1,-0.342888117,1,0.4800116121768951,1
0.175992057,-3.21220088,1,-3.544612646,1,-8.59510231,1,0.002468903,1,0.024474522,1,-0.006515333,1,0.4045144319534302,1,-0.342791259,1,0.4800049066543579,1
0.1799936,-3.170277119,1,-3.54084897,1,-8.571151733,1,-6.14E-06,1,0.01880151,1,-0.007519961,1,0.4045190811157227,1,-0.342698932,1,0.4800066947937012,1
0.183991298,-3.138787985,1,-3.6097579,1,-8.52399826,1,-0.002030647,1,0.015688458,1,-0.007350011,1,0.4045183658599854,1,-0.34262082,1,0.4800079762935638,1
0.187991038,-3.122903109,1,-3.637938499,1,-8.474018097,1,-0.004979569,1,0.011930272,1,-0.002863735,1,0.4045035839080811,1,-0.34255302,1,0.4800112843513489,1
0.191998467,-3.135717392,1,-3.636716127,1,-8.481231689,1,-0.012818228,1,0.005219042,1,-0.001321991,1,0.4044660925865173,1,-0.342506081,1,0.4800123870372772,1
0.196002305,-3.102025509,1,-3.627124071,1,-8.472261429,1,-0.022042695,1,0.002928118,1,0.000398509,1,0.4042971134185791,1,-0.342356741,1,0.4795159995555878,1
0.200002044,-3.065015793,1,-3.586019278,1,-8.506136894,1,-0.025480475,1,-0.003205242,1,0.002248454,1,0.404195249,1,-0.342361331,1,0.4795183539390564,1
0.204003334,-3.02857852,1,-3.573944092,1,-8.499324799,1,-0.035715085,1,-0.007788849,1,0.011715532,1,0.4040642976760864,1,-0.342399746,1,0.4795316159725189,1
0.208001018,-3.091088295,1,-3.610026836,1,-8.541446686,1,-0.032702144,1,-0.016484268,1,0.010642284,1,0.4039133191108704,1,-0.342469066,1,0.479551375,1
0.212000251,-3.245735407,1,-3.615913391,1,-8.561342239,1,-0.038032249,1,-0.02077359,1,0.010125903,1,0.403766006,1,-0.342558175,1,0.4795713722705841,1
0.216002047,-3.321416855,1,-3.625343323,1,-8.61477375,1,-0.030040888,1,-0.016110796,1,0.009457109,1,0.403624415,1,-0.342640519,1,0.4795861840248108,1
0.219999745,-3.388092995,1,-3.59625411,1,-8.619771004,1,-0.030196501,1,-0.008121154,1,0.008250619,1,0.4034889936447144,1,-0.34270823,1,0.4796030819416046,1
0.223998979,-3.406128168,1,-3.554854155,1,-8.635293007,1,-0.021816988,1,-0.004785977,1,0.000253741,1,0.403383881,1,-0.342736959,1,0.4796055257320404,1
0.228000507,-3.306730509,1,-3.485078096,1,-8.635138512,1,-0.018742183,1,0.002996315,1,0.000366767,1,0.4032909870147705,1,-0.34274143,1,0.4796071350574493,1
0.231997952,-3.306566477,1,-3.476826191,1,-8.643140793,1,-0.010577511,1,0.000838651,1,-0.004854242,1,0.4032281637191772,1,-0.342727304,1,0.4796021282672882,1
0.235997438,-3.248587608,1,-3.457091331,1,-8.615258217,1,-0.009416011,1,0.002696145,1,-0.006477668,1,0.4031879901885986,1,-0.342708081,1,0.4795844554901123,1
0.239998981,-3.239220381,1,-3.492353916,1,-8.597811699,1,-0.005970372,1,0.001137206,1,-0.00913794,1,0.4031671583652496,1,-0.342689514,1,0.4795597791671753,1
0.243996412,-3.257513762,1,-3.526851416,1,-8.601876259,1,-0.003161729,1,0.003937073,1,-0.006246259,1,0.4031577408313751,1,-0.342670292,1,0.4795413315296173,1
0.247996166,-3.223133087,1,-3.52682209,1,-8.551084518,1,0.001946702,1,0.00302074,1,-0.006345741,1,0.4031658172607422,1,-0.342650473,1,0.4795168340206146,1
0.251997709,-3.200184107,1,-3.517307758,1,-8.559970856,1,0.000723304,1,-0.00013783,1,-0.010787216,1,0.4031745195388794,1,-0.342633575,1,0.4794912040233612,1
0.255995125,-3.207557201,1,-3.532735348,1,-8.563981056,1,0.001344817,1,0.001249045,1,-0.009953875,1,0.4031922221183777,1,-0.34261024,1,0.479446143,1
0.259994626,-3.166382074,1,-3.524012327,1,-8.53921032,1,0.00194621,1,-0.001257379,1,-0.00901664,1,0.4032090902328491,1,-0.342596352,1,0.4794031381607056,1
0.263996154,-3.177880287,1,-3.573005915,1,-8.552717209,1,0.000863998,1,-0.008638735,1,-0.009673183,1,0.4032229781150818,1,-0.342598796,1,0.4793530404567719,1
0.267993867,-3.197118282,1,-3.547315836,1,-8.558480263,1,-0.00285589,1,-0.010741505,1,-0.005688064,1,0.4032287299633026,1,-0.342615187,1,0.4792998731136322,1
0.271993339,-3.232825279,1,-3.620916605,1,-8.522148132,1,-0.005735863,1,-0.010756667,1,-0.0057428,1,0.4032195210456848,1,-0.342644215,1,0.4792592823505402,1
0.275994867,-3.217689753,1,-3.6480093,1,-8.540397644,1,-0.009368224,1,-0.007994629,1,-0.004049672,1,0.4031928777694702,1,-0.342671156,1,0.4792222380638123,1
0.27999258,-3.257526159,1,-3.689151049,1,-8.578609467,1,-0.007378677,1,-0.005503533,1,-0.004534691,1,0.4031675159931183,1,-0.342692554,1,0.479197085,1
0.283992052,-3.295696974,1,-3.649683714,1,-8.576108932,1,-0.004668086,1,-0.000169007,1,-0.005483339,1,0.4031454920768738,1,-0.342703104,1,0.4791745245456696,1
0.28799361,-3.296621561,1,-3.638163328,1,-8.587328911,1,-0.005178411,1,-0.000181148,1,-0.005308515,1,0.4031342267990112,1,-0.342696667,1,0.4791509211063385,1
0.291991293,-3.220536709,1,-3.599053621,1,-8.508574486,1,-0.004963862,1,0.002631047,1,-0.006062746,1,0.4031180143356323,1,-0.342674613,1,0.4791330397129059,1
0.295990795,-3.198800564,1,-3.583890438,1,-8.538175583,1,-0.015132427,1,0.001089624,1,-0.003139233,1,0.4030833840370178,1,-0.342654645,1,0.4791161119937897,1
0.299992561,-3.111505032,1,-3.601241827,1,-8.566638947,1,-0.014646859,1,-0.003473679,1,-0.000930816,1,0.403029591,1,-0.342651129,1,0.4790964424610138,1
0.303990275,-3.202033997,1,-3.644236803,1,-8.540964127,1,-0.019107373,1,-0.004205492,1,0.001909105,1,0.4029605984687805,1,-0.342664689,1,0.479094535,1
0.307989746,-3.171037912,1,-3.685726643,1,-8.514797211,1,-0.027933327,1,-0.004466212,1,0.003737972,1,0.4028608500957489,1,-0.342684478,1,0.4790999293327332,1
0.311997443,-3.151088476,1,-3.691104889,1,-8.522798538,1,-0.035954829,1,-0.00922943,1,0.006136096,1,0.4027299284934998,1,-0.342714489,1,0.4791082739830017,1
0.316001266,-3.137033224,1,-3.679214001,1,-8.502212524,1,-0.037299588,1,-0.011052517,1,0.008801746,1,0.4025793671607971,1,-0.342765063,1,0.4791235327720642,1
0.320001036,-3.145600557,1,-3.650802851,1,-8.524717331,1,-0.047876809,1,-0.015067299,1,0.014922925,1,0.4024035334587097,1,-0.342829287,1,0.4791475832462311,1
0.324002564,-3.154089451,1,-3.648997307,1,-8.496650696,1,-0.049546946,1,-0.022226207,1,0.015950829,1,0.4022018611431122,1,-0.342923343,1,0.4791823029518127,1
0.328000247,-3.128284693,1,-3.628637552,1,-8.497992516,1,-0.059446104,1,-0.020764802,1,0.02377755,1,0.4019610285758972,1,-0.343030125,1,0.4792231023311615,1
0.331999749,-3.062498808,1,-3.597905397,1,-8.49851799,1,-0.072071925,1,-0.030459374,1,0.023904413,1,0.4016821980476379,1,-0.343155622,1,0.4792701601982117,1
0.336001277,-3.063443422,1,-3.630494118,1,-8.473956108,1,-0.078969054,1,-0.035251953,1,0.031474072,1,0.4013608396053314,1,-0.343318641,1,0.4793272614479065,1
0.339998722,-3.076914072,1,-3.686676025,1,-8.460762978,1,-0.088411815,1,-0.043470688,1,0.037856236,1,0.4010006189346313,1,-0.343517959,1,0.4793950021266937,1
0.343998462,-3.129556179,1,-3.683442593,1,-8.501126289,1,-0.101004831,1,-0.051309053,1,0.040148657,1,0.4005990624427795,1,-0.343746066,1,0.4794645309448242,1
0.34799999,-3.163843155,1,-3.691639662,1,-8.561821938,1,-0.103900656,1,-0.055507008,1,0.043966934,1,0.4001690745353699,1,-0.344008088,1,0.479536772,1
0.351997435,-3.286943436,1,-3.709928751,1,-8.567659378,1,-0.106699906,1,-0.055755515,1,0.049854681,1,0.399706244,1,-0.344284385,1,0.4796302020549774,1
0.355996937,-3.334591627,1,-3.700174332,1,-8.576522827,1,-0.107763015,1,-0.048978068,1,0.051120766,1,0.3992393016815186,1,-0.344554484,1,0.4797357320785522,1
0.359998465,-3.375676155,1,-3.655749083,1,-8.610863686,1,-0.102813542,1,-0.041839227,1,0.046178415,1,0.3987743556499481,1,-0.344797015,1,0.4798536598682404,1
0.36399591,-3.413397789,1,-3.601324558,1,-8.619748116,1,-0.101792261,1,-0.033417799,1,0.047619086,1,0.398327112,1,-0.345007777,1,0.4799748957157135,1
0.367995381,-3.419773579,1,-3.53026557,1,-8.654870033,1,-0.093922459,1,-0.028653163,1,0.040606961,1,0.3978983163833618,1,-0.345184386,1,0.4801082015037537,1
0.371996939,-3.428586245,1,-3.506322622,1,-8.661707878,1,-0.089656301,1,-0.015536594,1,0.038079284,1,0.3974911570549011,1,-0.345330954,1,0.480237603,1
0.375994623,-3.35257268,1,-3.514516115,1,-8.639557838,1,-0.083443187,1,-0.014722445,1,0.038795102,1,0.3971000909805298,1,-0.34544903,1,0.4803624153137207,1
0.379994124,-3.312634468,1,-3.454654694,1,-8.64068985,1,-0.078176931,1,-0.00865081,1,0.034955487,1,0.3967387080192566,1,-0.34554112,1,0.4804926514625549,1
0.383995652,-3.321583271,1,-3.479245424,1,-8.605728149,1,-0.076084875,1,-0.003552777,1,0.034135424,1,0.3963815569877625,1,-0.345618069,1,0.4806272089481354,1
0.387993336,-3.261806488,1,-3.466803074,1,-8.612276077,1,-0.073600687,1,-0.007755039,1,0.034889735,1,0.396040142,1,-0.345688701,1,0.4807537496089935,1
0.391992837,-3.251688004,1,-3.458039522,1,-8.574250221,1,-0.075641386,1,-0.007033967,1,0.033712205,1,0.3956955969333649,1,-0.345753372,1,0.4808853566646576,1
0.395994365,-3.230452299,1,-3.510524511,1,-8.598594666,1,-0.079648949,1,-0.005561426,1,0.033908114,1,0.3953566551208496,1,-0.345826209,1,0.4810090661048889,1
0.399992079,-3.273322105,1,-3.53816843,1,-8.58062458,1,-0.077264898,1,-0.009889941,1,0.036990233,1,0.3950087428092957,1,-0.345911503,1,0.4811380505561829,1
0.40399155,-3.262167931,1,-3.514325619,1,-8.581144333,1,-0.079682209,1,-0.006745269,1,0.038468573,1,0.3946490287780762,1,-0.345993757,1,0.4812640249729156,1
0.407993346,-3.252889872,1,-3.498907089,1,-8.535246849,1,-0.080427878,1,-0.007046089,1,0.037775863,1,0.3942825198173523,1,-0.346071631,1,0.4814007580280304,1
0.41199103,-3.2043612,1,-3.527502298,1,-8.542172432,1,-0.086754359,1,-0.008158683,1,0.038210578,1,0.3938965797424316,1,-0.346161723,1,0.4815408289432526,1
0.415990531,-3.201945543,1,-3.484391212,1,-8.53023243,1,-0.088809907,1,-0.014681918,1,0.039463773,1,0.3935021162033081,1,-0.34627068,1,0.4816758930683136,1
0.419992059,-3.196925402,1,-3.546107531,1,-8.530900955,1,-0.093633607,1,-0.011468695,1,0.047321733,1,0.3930877447128296,1,-0.346387237,1,0.4818255305290222,1
0.423989505,-3.200767994,1,-3.571127176,1,-8.529681206,1,-0.098013826,1,-0.017183743,1,0.050391536,1,0.3926474452018738,1,-0.346510828,1,0.4819888472557068,1
0.427989006,-3.301860094,1,-3.574992418,1,-8.530304909,1,-0.097603746,1,-0.013245379,1,0.047893222,1,0.392197311,1,-0.346641064,1,0.482156903,1
0.431990534,-3.30417943,1,-3.536281824,1,-8.553272247,1,-0.102239035,1,-0.011861339,1,0.049572069,1,0.3917431533336639,1,-0.346759617,1,0.4823359549045563,1
0.435994118,-3.265311003,1,-3.514903545,1,-8.537117004,1,-0.107539371,1,-0.009591855,1,0.053517576,1,0.3912650346755981,1,-0.346872658,1,0.4825229644775391,1
0.439999729,-3.209912062,1,-3.545323133,1,-8.566698074,1,-0.103659332,1,-0.006873108,1,0.051223025,1,0.390782505,1,-0.346976042,1,0.482716441,1
0.444001287,-3.285662889,1,-3.547979593,1,-8.598760605,1,-0.096322969,1,-0.004079477,1,0.052666254,1,0.3902551531791687,1,-0.346957892,1,0.4829697012901306,1
0.447998732,-3.37145853,1,-3.502309084,1,-8.621845245,1,-0.09066768,1,0.003317024,1,0.055599935,1,0.3898115158081055,1,-0.347036421,1,0.4826897382736206,1
0.451998204,-3.388511658,1,-3.412360191,1,-8.603281021,1,-0.085520238,1,0.013205521,1,0.048992492,1,0.3893867433071136,1,-0.34708792,1,0.4829055666923523,1
0.455999732,-3.349917173,1,-3.382365227,1,-8.631558418,1,-0.082336292,1,0.017343637,1,0.041271493,1,0.3889803886413574,1,-0.347109079,1,0.4831078052520752,1
0.459997177,-3.3220613,1,-3.337566137,1,-8.630726814,1,-0.07855504,1,0.017684884,1,0.041908961,1,0.3885951936244965,1,-0.347108424,1,0.4832997918128967,1
0.463996679,-3.336308002,1,-3.302373171,1,-8.630531311,1,-0.070666447,1,0.021341797,1,0.037949849,1,0.3882331252098083,1,-0.347092807,1,0.4834958612918854,1
0.467998207,-3.309127092,1,-3.353302717,1,-8.705899239,1,-0.060491446,1,0.026492164,1,0.037980363,1,0.3879023790359497,1,-0.347060144,1,0.4836900234222412,1
0.47199589,-3.368940592,1,-3.389900684,1,-8.680567741,1,-0.054724496,1,0.031166319,1,0.038878333,1,0.3876065611839294,1,-0.347010195,1,0.4838851988315582,1
0.475995392,-3.352292299,1,-3.366807461,1,-8.647406578,1,-0.048487399,1,0.037481762,1,0.027125619,1,0.3873381614685059,1,-0.34693113,1,0.4840682148933411,1
0.47999692,-3.30311203,1,-3.401861191,1,-8.621956825,1,-0.042667277,1,0.043292459,1,0.027965073,1,0.3870880007743835,1,-0.346831292,1,0.4842557907104492,1
0.483994633,-3.236124754,1,-3.390432596,1,-8.661211967,1,-0.041059192,1,0.043881137,1,0.024404664,1,0.3868712186813354,1,-0.346707225,1,0.484428734,1
0.487994105,-3.270786047,1,-3.349502802,1,-8.647183418,1,-0.03029152,1,0.046154812,1,0.02370601,1,0.3866799473762512,1,-0.346579134,1,0.4845976233482361,1
0.491995901,-3.239202023,1,-3.325412989,1,-8.632927895,1,-0.022503532,1,0.046825673,1,0.020368215,1,0.3865265846252441,1,-0.346444607,1,0.4847595989704132,1
0.495993614,-3.235677481,1,-3.354768753,1,-8.609088898,1,-0.015875582,1,0.045256659,1,0.019315436,1,0.3863911628723145,1,-0.346310437,1,0.4849121868610382,1
0.499993086,-3.23922205,1,-3.358402014,1,-8.605735779,1,-0.015843656,1,0.044457,1,0.0192213,1,0.3862696886062622,1,-0.34617433,1,0.48506099,1
0.503994644,-3.226149559,1,-3.377077579,1,-8.624372482,1,-0.016962534,1,0.042169884,1,0.022150803,1,0.386154443,1,-0.346041977,1,0.4852095246315002,1
0.507992327,-3.190667391,1,-3.419966698,1,-8.588690758,1,-0.017639406,1,0.039081343,1,0.019086396,1,0.3860354423522949,1,-0.345919371,1,0.485356331,1
0.511991799,-3.139264345,1,-3.40555191,1,-8.561935425,1,-0.018362999,1,0.038623095,1,0.022651516,1,0.3859166204929352,1,-0.345808983,1,0.4855014979839325,1
0.515993357,-3.130618095,1,-3.37883687,1,-8.561266899,1,-0.019223275,1,0.031268757,1,0.021906564,1,0.3858106732368469,1,-0.345714688,1,0.4856405258178711,1
0.51999104,-3.135296345,1,-3.394470692,1,-8.564838409,1,-0.019120526,1,0.020949334,1,0.025712583,1,0.3856918215751648,1,-0.345651925,1,0.4857823550701141,1
0.52399081,-3.161789417,1,-3.421921253,1,-8.55871582,1,-0.018788593,1,0.021271121,1,0.025095398,1,0.3855722546577454,1,-0.34560886,1,0.4859173893928528,1
0.527992547,-3.160631895,1,-3.392505646,1,-8.599794388,1,-0.022820964,1,0.015173604,1,0.030248368,1,0.3854365944862366,1,-0.345579505,1,0.4860509634017944,1
0.53199029,-3.175196171,1,-3.427371979,1,-8.567988396,1,-0.026639326,1,0.012001826,1,0.030344328,1,0.3852967023849487,1,-0.345580459,1,0.4861844778060913,1
0.535989761,-3.177470684,1,-3.434725523,1,-8.587380409,1,-0.029491676,1,0.00694744,1,0.036240716,1,0.3851324915885925,1,-0.345601678,1,0.4863280653953552,1
0.539991319,-3.188075542,1,-3.427953959,1,-8.598157883,1,-0.026908591,1,0.00413399,1,0.031949177,1,0.3849661946296692,1,-0.34563905,1,0.486471415,1
0.543988764,-3.230261803,1,-3.442537546,1,-8.635652542,1,-0.023923801,1,0.001193877,1,0.035531841,1,0.3848081231117249,1,-0.345686644,1,0.4866121411323547,1
0.547988236,-3.278972626,1,-3.435354471,1,-8.625226021,1,-0.021446705,1,0.003358139,1,0.035689287,1,0.3846652507781982,1,-0.345733225,1,0.4867655038833618,1
0.551989496,-3.329476833,1,-3.41242528,1,-8.631236076,1,-0.014690907,1,0.006515461,1,0.033297136,1,0.3845402002334595,1,-0.34575969,1,0.4869090616703033,1
0.55599308,-3.344106913,1,-3.372525215,1,-8.615525246,1,-0.012252956,1,0.012624709,1,0.031975757,1,0.3844371438026428,1,-0.345761895,1,0.4870447516441345,1
0.559992552,-3.348793983,1,-3.324043036,1,-8.643705368,1,-0.003143297,1,0.017076474,1,0.025808541,1,0.3843589425086975,1,-0.345756888,1,0.4871791005134583,1
0.56399411,-3.265057802,1,-3.21756053,1,-8.638536453,1,0.006610719,1,0.021406971,1,0.019754544,1,0.3843192756175995,1,-0.345712453,1,0.4873012900352478,1
0.567991793,-3.23363018,1,-3.240923405,1,-8.68833828,1,0.010366851,1,0.018796626,1,0.019305516,1,0.3843223452568054,1,-0.345666766,1,0.4874114096164703,1
0.571991324,-3.280951262,1,-3.249304771,1,-8.660666466,1,0.015715532,1,0.022408932,1,0.013961249,1,0.3843353390693665,1,-0.345617115,1,0.4875054061412811,1
0.575992584,-3.297518969,1,-3.241616964,1,-8.658642769,1,0.017527385,1,0.022420388,1,0.010773979,1,0.3843753933906555,1,-0.345559329,1,0.4875941872596741,1
0.579990268,-3.306699038,1,-3.273839474,1,-8.665183067,1,0.021247584,1,0.020581488,1,0.011306042,1,0.3844295740127563,1,-0.345494568,1,0.4876620471477509,1
0.583989739,-3.269349813,1,-3.280912161,1,-8.650009155,1,0.021949457,1,0.020636186,1,0.004454796,1,0.3845007121562958,1,-0.345415831,1,0.4877179861068726,1
0.587991297,-3.232425451,1,-3.32905221,1,-8.636274338,1,0.021025382,1,0.019161288,1,0.002400585,1,0.3845741152763367,1,-0.345352709,1,0.487759918,1
0.591988742,-3.243883133,1,-3.320204258,1,-8.640610695,1,0.016616525,1,0.01215897,1,-0.002657749,1,0.384638637,1,-0.345302045,1,0.4877881109714508,1
0.595987976,-3.23024559,1,-3.372247458,1,-8.632656097,1,0.01240329,1,0.008260388,1,0.002444183,1,0.3846901655197144,1,-0.345265269,1,0.4878109097480774,1
0.599989772,-3.263146877,1,-3.428349972,1,-8.622952461,1,0.01147483,1,0.004191235,1,-0.001182015,1,0.3847307562828064,1,-0.345245481,1,0.487828255,1
0.603987455,-3.299236298,1,-3.450987577,1,-8.618144989,1,0.013439307,1,0.009808568,1,4.13176603615284e-05,1,0.3847712278366089,1,-0.345214278,1,0.4878472089767456,1
0.607986927,-3.329883099,1,-3.460981846,1,-8.624260902,1,0.012989273,1,0.015151017,1,-0.002204923,1,0.3848132491111755,1,-0.345169604,1,0.487867683,1
0.611988485,-3.284071922,1,-3.431931496,1,-8.618031502,1,0.011382007,1,0.015690822,1,-0.001341682,1,0.3848593235015869,1,-0.345113009,1,0.4878922998905182,1
0.615986168,-3.258996248,1,-3.424581528,1,-8.614824295,1,0.014455016,1,0.013136955,1,-0.002547658,1,0.3848965167999268,1,-0.345053017,1,0.4879111051559448,1
0.61998564,-3.212738514,1,-3.436122179,1,-8.630745888,1,0.01102987,1,0.01759932,1,-0.001817111,1,0.3849443197250366,1,-0.344994098,1,0.4879229962825775,1
0.623987198,-3.267914534,1,-3.46028161,1,-8.613934517,1,0.012069131,1,0.017303644,1,-0.000795505,1,0.3849731385707855,1,-0.344927251,1,0.4879561364650726,1
0.627984643,-3.286431551,1,-3.488810062,1,-8.586174011,1,0.00832483,1,0.019364532,1,-0.001392826,1,0.3850148618221283,1,-0.344860315,1,0.487979919,1
0.631984413,-3.250227451,1,-3.477453232,1,-8.590236664,1,0.00531722,1,0.020590615,1,-0.00106199,1,0.3850272297859192,1,-0.344790071,1,0.4880161881446838,1
0.635985911,-3.209049702,1,-3.487405062,1,-8.533769608,1,-0.00102417,1,0.021353167,1,0.001959903,1,0.3850316107273102,1,-0.34471038,1,0.4880472421646118,1
0.639983356,-3.202331781,1,-3.475049496,1,-8.566412926,1,-0.002932006,1,0.019240398,1,-0.001145983,1,0.3850077390670776,1,-0.344640851,1,0.4880883991718292,1
0.643982828,-3.146390915,1,-3.455216408,1,-8.557678223,1,-0.008518112,1,0.016910933,1,0.008398437,1,0.3849630057811737,1,-0.344581127,1,0.488138884,1
0.647984385,-3.166606665,1,-3.449421644,1,-8.557724953,1,-0.009328873,1,0.011904661,1,0.009489984,1,0.3849084377288818,1,-0.344545841,1,0.4881991744041443,1
0.651982069,-3.164749384,1,-3.453134775,1,-8.581467628,1,-0.010895713,1,0.012889862,1,0.014304916,1,0.3848439157009125,1,-0.344520569,1,0.4882642030715942,1
0.655981541,-3.250863791,1,-3.44442606,1,-8.585235596,1,-0.013745301,1,0.010521726,1,0.009797074,1,0.3847710490226746,1,-0.34449178,1,0.4883358180522919,1
0.659983099,-3.305860519,1,-3.468016386,1,-8.607463837,1,-0.010600256,1,0.020919841,1,0.011548242,1,0.3847031593322754,1,-0.344452977,1,0.4884107112884521,1
0.663980782,-3.260000944,1,-3.408449888,1,-8.591405869,1,-0.010423589,1,0.018109191,1,0.009731764,1,0.3846275508403778,1,-0.344391167,1,0.4884829819202423,1
0.667980313,-3.197592258,1,-3.425148726,1,-8.619404793,1,-0.009075872,1,0.022007674,1,0.005971412,1,0.3845615983009338,1,-0.344328791,1,0.4885525107383728,1
0.671981573,-3.165255547,1,-3.396237373,1,-8.574724197,1,-0.00741588,1,0.02224052,1,0.013942759,1,0.3844960927963257,1,-0.344264328,1,0.4886321425437927,1
0.675985157,-3.167473555,1,-3.447542191,1,-8.590732574,1,-0.011779998,1,0.016882524,1,0.009252017,1,0.3844294846057892,1,-0.344209969,1,0.4887098073959351,1
0.679984868,-3.160228491,1,-3.480889559,1,-8.5727005,1,-0.012792881,1,0.017496269,1,0.014820066,1,0.3843569755554199,1,-0.344165623,1,0.4887909591197968,1
0.683986425,-3.200197697,1,-3.49399066,1,-8.562257767,1,-0.015643604,1,0.016273446,1,0.01604276,1,0.3842644393444061,1,-0.344126642,1,0.4888815879821777,1
0.687984109,-3.232323647,1,-3.49029398,1,-8.593679428,1,-0.019477692,1,0.015919905,1,0.020972472,1,0.3841678500175476,1,-0.344095796,1,0.4889697432518005,1
0.69198364,-3.228134871,1,-3.494014025,1,-8.577943802,1,-0.01815266,1,0.021687623,1,0.013300898,1,0.3840578496456146,1,-0.344049037,1,0.4890740513801575,1
0.695985436,-3.261883497,1,-3.483921051,1,-8.587816238,1,-0.019931946,1,0.018562689,1,0.016639633,1,0.3838135600090027,1,-0.343876988,1,0.4886763393878937,1
0.699983358,-3.271920204,1,-3.451290369,1,-8.613137245,1,-0.02462332,1,0.023221161,1,0.017410699,1,0.3836964070796967,1,-0.343819618,1,0.4887695014476776,1
0.70398283,-3.221395731,1,-3.392367601,1,-8.585949898,1,-0.018952606,1,0.025207153,1,0.01749054,1,0.3835718929767609,1,-0.343756795,1,0.4888736009597778,1
0.707984388,-3.203228235,1,-3.405886889,1,-8.607908249,1,-0.018775811,1,0.022689238,1,0.015010504,1,0.3834666013717651,1,-0.34368825,1,0.4889726340770721,1
0.711981833,-3.234770298,1,-3.360194206,1,-8.634462357,1,-0.023547696,1,0.024360431,1,0.012854195,1,0.3833397030830383,1,-0.343626142,1,0.4890725016593933,1
0.715981305,-3.22307539,1,-3.416107178,1,-8.613876343,1,-0.023906203,1,0.022276439,1,0.017983431,1,0.3832220435142517,1,-0.343564868,1,0.4891716241836548,1
0.719982862,-3.210766554,1,-3.375746012,1,-8.593360901,1,-0.022280356,1,0.02150885,1,0.014146399,1,0.38309592,1,-0.343506932,1,0.4892720282077789,1
0.723980308,-3.219620705,1,-3.396171808,1,-8.590574265,1,-0.024856562,1,0.016065629,1,0.019132176,1,0.3829660415649414,1,-0.343454599,1,0.4893629550933838,1
0.727980018,-3.197196722,1,-3.380406141,1,-8.62720871,1,-0.030637592,1,0.01351601,1,0.0161645,1,0.3828209042549133,1,-0.343427449,1,0.4894567728042603,1
0.731981575,-3.197949886,1,-3.412299156,1,-8.629202843,1,-0.02761027,1,0.011431416,1,0.018178347,1,0.3826690316200256,1,-0.343409121,1,0.4895487725734711,1
0.735979021,-3.186592817,1,-3.439986944,1,-8.680311203,1,-0.032844737,1,0.011046454,1,0.015938723,1,0.3825142085552216,1,-0.343399018,1,0.4896391034126282,1
0.739978492,-3.255268097,1,-3.50565958,1,-8.682027817,1,-0.030337611,1,0.008601928,1,0.020676402,1,0.3823528289794922,1,-0.343398571,1,0.4897317290306091,1
0.74398005,-3.291934729,1,-3.490224361,1,-8.687488556,1,-0.031718489,1,0.008858878,1,0.021316906,1,0.3821960389614105,1,-0.343396723,1,0.4898336231708527,1
0.747977734,-3.386458635,1,-3.506118059,1,-8.694123268,1,-0.031335577,1,0.01333227,1,0.018533893,1,0.38203311,1,-0.343384117,1,0.4899241328239441,1
0.751977205,-3.369873762,1,-3.454573393,1,-8.698040009,1,-0.028305382,1,0.0185467,1,0.01620991,1,0.3818890154361725,1,-0.343350053,1,0.4900184273719788,1
0.755978763,-3.315270901,1,-3.398769855,1,-8.701201439,1,-0.028414711,1,0.018389769,1,0.012260077,1,0.3817400336265564,1,-0.343300253,1,0.4901039302349091,1
0.759976447,-3.246946812,1,-3.359968662,1,-8.673271179,1,-0.025555704,1,0.022186533,1,0.01600278,1,0.3815975189208984,1,-0.343243778,1,0.4901935160160065,1
0.763975918,-3.170933723,1,-3.332954645,1,-8.662204742,1,-0.024425237,1,0.016581552,1,0.016076434,1,0.3814638257026672,1,-0.343192339,1,0.4902844727039337,1
0.767977476,-3.218845606,1,-3.364654064,1,-8.671094894,1,-0.026226487,1,0.01716801,1,0.015941132,1,0.381337047,1,-0.34314993,1,0.4903744459152222,1
0.77197516,-3.23332119,1,-3.390727282,1,-8.641652107,1,-0.028810147,1,0.014645685,1,0.015824337,1,0.381193221,1,-0.343110383,1,0.4904677271842957,1
0.775974631,-3.239677906,1,-3.426291466,1,-8.630866051,1,-0.024209762,1,0.018674156,1,0.016624946,1,0.3810531198978424,1,-0.343073964,1,0.4905616343021393,1
0.779976189,-3.24448514,1,-3.434722662,1,-8.66277504,1,-0.021082915,1,0.017009331,1,0.015780786,1,0.3809199333190918,1,-0.343033612,1,0.4906573295593262,1
0.783973873,-3.242313623,1,-3.38704896,1,-8.645178795,1,-0.022807293,1,0.017270064,1,0.01446791,1,0.3808043003082275,1,-0.342994958,1,0.4907402098178864,1
0.787973404,-3.258803844,1,-3.35296917,1,-8.690706253,1,-0.017158188,1,0.01630678,1,0.012818174,1,0.380697101,1,-0.342950255,1,0.490822434,1
0.791975141,-3.246689081,1,-3.329190731,1,-8.718179703,1,-0.016144775,1,0.017065672,1,0.012184322,1,0.3805972337722778,1,-0.34290567,1,0.4908962249755859,1
0.795978725,-3.253397226,1,-3.340783119,1,-8.685734749,1,-0.014525299,1,0.017507089,1,0.010928289,1,0.380511999,1,-0.342860252,1,0.490970254,1
0.799978256,-3.255408049,1,-3.338897467,1,-8.679112434,1,-0.008460871,1,0.022446232,1,0.009478876,1,0.3804435133934021,1,-0.34279725,1,0.4910393059253693,1
0.803979754,-3.22586894,1,-3.341466188,1,-8.682333946,1,0.000942205,1,0.016100446,1,0.009754326,1,0.3803908824920654,1,-0.342740893,1,0.4911072552204132,1
0.8079772,-3.244032383,1,-3.259572029,1,-8.69743824,1,0.003029221,1,0.022701778,1,0.002756829,1,0.380372941,1,-0.342679173,1,0.4911558330059052,1
0.811976731,-3.189616203,1,-3.32227087,1,-8.727006912,1,0.009256586,1,0.018780218,1,0.003128012,1,0.3803803324699402,1,-0.342603117,1,0.4911972284317017,1
0.815978229,-3.261716843,1,-3.306892633,1,-8.695931435,1,0.012395595,1,0.022442546,1,0.000548673,1,0.3804171085357666,1,-0.3425349,1,0.4912409782409668,1
0.819975674,-3.205817938,1,-3.318211555,1,-8.684749603,1,0.01697618,1,0.021853151,1,0.003117213,1,0.3804650604724884,1,-0.342452049,1,0.4912821054458618,1
0.823975146,-3.18563199,1,-3.329485655,1,-8.657764435,1,0.018844713,1,0.021765456,1,0.001925528,1,0.3805257081985474,1,-0.34237659,1,0.4913293421268463,1
0.827976704,-3.155145168,1,-3.416892052,1,-8.657009125,1,0.017224045,1,0.018260611,1,0.002049347,1,0.3805921673774719,1,-0.342300564,1,0.4913665354251862,1
0.831974149,-3.093610287,1,-3.425485134,1,-8.620376587,1,0.018570632,1,0.014748381,1,0.002649686,1,0.3806601166725159,1,-0.342249095,1,0.4914007186889648,1
0.835974157,-3.118774891,1,-3.350701809,1,-8.581075668,1,0.014767073,1,0.00661385,1,0.006900554,1,0.380713016,1,-0.342215091,1,0.4914367496967316,1
0.839975655,-3.101517677,1,-3.372906923,1,-8.624023438,1,0.010535163,1,0.003508684,1,0.005553855,1,0.3807527124881744,1,-0.342203081,1,0.4914721846580505,1
0.843973398,-3.11618638,1,-3.400058746,1,-8.608677864,1,0.010528727,1,-0.000778119,1,0.011999603,1,0.3807811439037323,1,-0.342213273,1,0.4915080666542053,1
0.84797287,-3.099909782,1,-3.387250662,1,-8.621664047,1,0.002730279,1,-0.008235824,1,0.011872106,1,0.3807916641235352,1,-0.342244416,1,0.491547555,1
0.851974428,-3.131384373,1,-3.417152166,1,-8.618844986,1,-0.002327248,1,-0.012650335,1,0.01838674,1,0.3807750344276428,1,-0.342318594,1,0.4915931224822998,1
0.85597235,-3.082154989,1,-3.442528486,1,-8.619905472,1,-0.00708083,1,-0.020778902,1,0.022169439,1,0.3807373642921448,1,-0.342402279,1,0.4916423559188843,1
0.859971821,-3.128519058,1,-3.461079121,1,-8.62306881,1,-0.012758454,1,-0.026824038,1,0.020108081,1,0.3806881308555603,1,-0.342524856,1,0.4916866421699524,1
0.863973379,-3.20245719,1,-3.424314737,1,-8.589082718,1,-0.013654355,1,-0.025593895,1,0.027233209,1,0.3806173205375671,1,-0.342656583,1,0.4917414486408234,1
0.867971063,-3.196891546,1,-3.340273857,1,-8.63080883,1,-0.011040516,1,-0.036977142,1,0.023943024,1,0.3805522322654724,1,-0.342818826,1,0.4917919933795929,1
0.871970534,-3.17728734,1,-3.427479982,1,-8.664419174,1,-0.017935915,1,-0.037127633,1,0.029106952,1,0.3804932236671448,1,-0.342998415,1,0.4918347001075745,1
0.875972331,-3.217295408,1,-3.379781961,1,-8.664715767,1,-0.014368027,1,-0.033718936,1,0.025596194,1,0.3804173171520233,1,-0.343166292,1,0.4918843507766724,1
0.879970074,-3.280473232,1,-3.368803263,1,-8.679624557,1,-0.009693473,1,-0.028915385,1,0.023408748,1,0.3803550899028778,1,-0.343316853,1,0.4919368922710419,1
0.883969545,-3.320493937,1,-3.313735962,1,-8.662372589,1,-0.001482477,1,-0.023325481,1,0.021016868,1,0.3803127408027649,1,-0.343441367,1,0.491984099,1
0.887971044,-3.329011917,1,-3.292872906,1,-8.704842567,1,0.001308207,1,-0.012414218,1,0.01766965,1,0.3802985548973083,1,-0.343538791,1,0.4920274317264557,1
0.891968489,-3.30424881,1,-3.255121708,1,-8.706707001,1,0.012081866,1,-0.011800269,1,0.015583733,1,0.3803135454654694,1,-0.343603641,1,0.4920712113380432,1
0.89596802,-3.277967453,1,-3.195271492,1,-8.696958542,1,0.018402675,1,-0.007111003,1,0.008299501,1,0.3803598284721375,1,-0.343652785,1,0.4921044111251831,1
0.899969518,-3.266528845,1,-3.290669918,1,-8.689469337,1,0.023064442,1,-0.001826373,1,0.011349501,1,0.3804302513599396,1,-0.343681633,1,0.492144763,1
0.903967261,-3.278420925,1,-3.276375055,1,-8.674462318,1,0.026306257,1,-0.002967096,1,0.008668948,1,0.3805025517940521,1,-0.343695164,1,0.4921750426292419,1
0.907966733,-3.238539457,1,-3.295140266,1,-8.692926407,1,0.022599438,1,-0.003027743,1,0.005882255,1,0.3805944621562958,1,-0.343713433,1,0.4922007918357849,1
0.911968231,-3.297830582,1,-3.411191225,1,-8.671845436,1,0.025273187,1,-0.005275646,1,0.004078697,1,0.380688488,1,-0.34374094,1,0.4922149777412415,1
0.915971577,-3.333763838,1,-3.439687252,1,-8.68034935,1,0.027417755,1,0.003209052,1,0.002574085,1,0.3807905912399292,1,-0.343757719,1,0.4922288656234741,1
0.919971347,-3.320300102,1,-3.435548782,1,-8.675914764,1,0.029743016,1,-0.000796049,1,0.00346236,1,0.3809008598327637,1,-0.343767822,1,0.4922333955764771,1
0.923972845,-3.330176115,1,-3.403758526,1,-8.685941696,1,0.032935679,1,0.006073606,1,0.000286555,1,0.3810202479362488,1,-0.343765855,1,0.4922369122505188,1
0.92797029,-3.313074112,1,-3.400277615,1,-8.666563034,1,0.036868252,1,0.004750961,1,-0.006806427,1,0.381156862,1,-0.343744308,1,0.4922280609607697,1
0.931969821,-3.283409834,1,-3.365243912,1,-8.661735535,1,0.030999333,1,0.000757586,1,-0.006702112,1,0.3813042640686035,1,-0.343721449,1,0.492208719,1
0.93597132,-3.278816462,1,-3.376774311,1,-8.650865555,1,0.034373783,1,0.009233418,1,-0.006206499,1,0.3814461231231689,1,-0.343685895,1,0.4921903610229492,1
0.939969003,-3.3361516,1,-3.371202707,1,-8.618024826,1,0.035889186,1,0.009636734,1,-0.012718981,1,0.3815894424915314,1,-0.343640149,1,0.4921638667583466,1
0.943968534,-3.273023844,1,-3.422802925,1,-8.617827415,1,0.034136724,1,0.008430643,1,-0.010139622,1,0.3816088438034058,1,-0.343481481,1,0.492156446,1
0.947970033,-3.187900782,1,-3.400189638,1,-8.571037292,1,0.030594777,1,0.012233084,1,-0.011147628,1,0.3817487359046936,1,-0.34342593,1,0.4916354715824127,1
0.951967716,-3.168835163,1,-3.4177351,1,-8.590388298,1,0.02949968,1,0.001775194,1,-0.010784458,1,0.3818806111812592,1,-0.343382895,1,0.4915948212146759,1
0.955967247,-3.184850693,1,-3.417431355,1,-8.643541336,1,0.02732861,1,0.003777828,1,-0.007206493,1,0.3820081353187561,1,-0.343368769,1,0.4915593862533569,1
0.959968746,-3.212997437,1,-3.430869818,1,-8.650645256,1,0.025192313,1,0.002396635,1,-0.010595851,1,0.3821169137954712,1,-0.343350947,1,0.4915395379066467,1
0.963966489,-3.298830509,1,-3.44233799,1,-8.629161835,1,0.021618057,1,-0.001357567,1,-0.005269072,1,0.3822165131568909,1,-0.343339831,1,0.4915137588977814,1
0.967965961,-3.330657482,1,-3.446551561,1,-8.685173035,1,0.023878045,1,0.002023731,1,-0.008607511,1,0.382318377,1,-0.343323708,1,0.4914838373661041,1
0.971967459,-3.352040291,1,-3.402435064,1,-8.667520523,1,0.021180654,1,0.006860478,1,-0.012108138,1,0.3824223279953003,1,-0.343290567,1,0.4914508461952209,1
0.975964904,-3.323749304,1,-3.322165728,1,-8.694865227,1,0.02572985,1,0.006963418,1,-0.013554906,1,0.3825311660766602,1,-0.343239188,1,0.4914135634899139,1
0.979964435,-3.286394596,1,-3.289014101,1,-8.702615738,1,0.031804215,1,0.011776377,1,-0.012477008,1,0.3826574981212616,1,-0.343171507,1,0.4913688600063324,1
0.983966231,-3.284221411,1,-3.244270325,1,-8.672358513,1,0.030540586,1,0.017403744,1,-0.020580605,1,0.382796973,1,-0.343101978,1,0.4913240969181061,1
0.987963915,-3.293315411,1,-3.258861065,1,-8.690677643,1,0.036937486,1,0.014221486,1,-0.020491922,1,0.3829581737518311,1,-0.343019128,1,0.4912647604942322,1
0.991963625,-3.196666956,1,-3.271126509,1,-8.710325241,1,0.043248281,1,0.011041146,1,-0.024861574,1,0.3831372261047363,1,-0.34292382,1,0.4912007749080658,1
0.995965421,-3.261375666,1,-3.345164776,1,-8.682850838,1,0.043431208,1,0.016027838,1,-0.028662067,1,0.3833314776420593,1,-0.342827201,1,0.4911241829395294,1
0.999963164,-3.258901596,1,-3.361827612,1,-8.674456596,1,0.040213197,1,0.012443088,1,-0.028034601,1,0.3835422992706299,1,-0.342733443,1,0.4910350441932678,1
1.003962636,-3.177635908,1,-3.375489235,1,-8.670981407,1,0.040728118,1,0.012279935,1,-0.032625061,1,0.3837354481220245,1,-0.3426373,1,0.4909455478191376,1
1.007964134,-3.220368624,1,-3.425578117,1,-8.672655106,1,0.03886218,1,0.00888036,1,-0.028464433,1,0.3839333653450012,1,-0.342547596,1,0.4908550083637238,1
1.011961818,-3.235390902,1,-3.447830915,1,-8.684053421,1,0.043499351,1,0.010717796,1,-0.029477023,1,0.3841331899166107,1,-0.34246552,1,0.4907697439193726,1
1.015961289,-3.256201744,1,-3.450742722,1,-8.659806252,1,0.04603646,1,0.009543884,1,-0.02898776,1,0.3843376934528351,1,-0.342386872,1,0.4906764924526215,1
1.019962907,-3.306343317,1,-3.387152433,1,-8.699806213,1,0.050790295,1,0.015668148,1,-0.032319359,1,0.384566069,1,-0.342287391,1,0.4905756413936615,1
1.02396059,-3.343797922,1,-3.363719225,1,-8.700603485,1,0.062512591,1,0.017785121,1,-0.033148799,1,0.3848157525062561,1,-0.342174351,1,0.4904843270778656,1
1.027960062,-3.352167368,1,-3.329713821,1,-8.73434639,1,0.065906189,1,0.021645013,1,-0.042024206,1,0.3851135671138763,1,-0.342037439,1,0.4903666973114014,1
1.03196156,-3.3017838,1,-3.271983147,1,-8.697709084,1,0.077176936,1,0.028653631,1,-0.047898609,1,0.3854517340660095,1,-0.341874659,1,0.4902343451976776,1
1.035965204,-3.248748779,1,-3.228256226,1,-8.731546402,1,0.088748507,1,0.027820261,1,-0.046908833,1,0.3858218789100647,1,-0.341693163,1,0.4900999963283539,1
1.039964914,-3.253479242,1,-3.273513794,1,-8.690603256,1,0.09068203,1,0.030840147,1,-0.050539639,1,0.3862302601337433,1,-0.341507792,1,0.4899568557739258,1
1.043966413,-3.260546923,1,-3.270102501,1,-8.720870972,1,0.1008051186800003,1,0.034337476,1,-0.053515486,1,0.3866584300994873,1,-0.341308117,1,0.4898072481155396,1
1.047964215,-3.268475056,1,-3.345255852,1,-8.658399582,1,0.1075409054756165,1,0.038396783,1,-0.054237954,1,0.3871181607246399,1,-0.341095358,1,0.4896495938301086,1
1.051963687,-3.213849545,1,-3.324455261,1,-8.651888847,1,0.1037957966327667,1,0.034153637,1,-0.05709948,1,0.3875865340232849,1,-0.340875208,1,0.4894917905330658,1
1.055965424,-3.141291142,1,-3.422350645,1,-8.643562317,1,0.096254833,1,0.030743977,1,-0.052382909,1,0.3880499005317688,1,-0.340670049,1,0.4893210828304291,1
1.059963107,-3.045853138,1,-3.411560297,1,-8.608567238,1,0.095360599,1,0.024659006,1,-0.049725361,1,0.3885024785995483,1,-0.340489179,1,0.4891643822193146,1
1.063962579,-3.067153692,1,-3.483579874,1,-8.553910255,1,0.09075328,1,0.015713127,1,-0.042620882,1,0.3889297842979431,1,-0.340340674,1,0.4890157878398895,1
1.067964196,-3.023539066,1,-3.48181057,1,-8.554699898,1,0.087669007,1,0.006636247,1,-0.038196545,1,0.3893402218818665,1,-0.340229124,1,0.4888769388198853,1
1.071961641,-3.046002388,1,-3.514047861,1,-8.549153328,1,0.080846265,1,0.00185593,1,-0.036237635,1,0.3897251486778259,1,-0.340156257,1,0.4887453019618988,1
1.075961113,-3.018522263,1,-3.560937405,1,-8.58987999,1,0.073306032,1,-0.007410447,1,-0.022870058,1,0.3900802135467529,1,-0.340119243,1,0.4886264204978943,1
1.079962611,-2.998269081,1,-3.579309464,1,-8.557496071,1,0.065000214,1,-0.011320867,1,-0.015121737,1,0.3903849720954895,1,-0.340121776,1,0.4885433316230774,1
1.083960295,-3.044712067,1,-3.630355597,1,-8.596859932,1,0.060058095,1,-0.017418163,1,-0.005668962,1,0.390663743,1,-0.340157449,1,0.4884765148162842,1
1.087960005,-3.064204216,1,-3.61682272,1,-8.57653141,1,0.048563693,1,-0.02470311,1,-0.002903189,1,0.390902966,1,-0.340232849,1,0.4884290993213654,1
1.091961622,-3.075391531,1,-3.686432123,1,-8.553518295,1,0.043514594,1,-0.029920697,1,0.007931053,1,0.3911042511463165,1,-0.34033978,1,0.4883942604064941,1
1.095959306,-3.037913084,1,-3.669633865,1,-8.536603928,1,0.038387772,1,-0.036525425,1,0.019774804,1,0.391266942,1,-0.340483427,1,0.488393635,1
1.099959016,-3.001713037,1,-3.718134403,1,-8.567153931,1,0.021232134,1,-0.042930163,1,0.034682024,1,0.3913640975952148,1,-0.340672314,1,0.4884300529956818,1
1.103960872,-3.015123844,1,-3.777089834,1,-8.532444,1,0.007823045,1,-0.054654989,1,0.040558208,1,0.3914036452770233,1,-0.340900421,1,0.4884994328022003,1
1.107958555,-3.041646004,1,-3.801691055,1,-8.523084641,1,-0.003468766,1,-0.053491715,1,0.056428682,1,0.3913780450820923,1,-0.341166615,1,0.4886060059070587,1
1.111958027,-3.140923023,1,-3.861582518,1,-8.594427109,1,-0.012032373,1,-0.060913853,1,0.066568263,1,0.3913069367408752,1,-0.34147799,1,0.4887471795082092,1
1.115959525,-3.062826872,1,-3.892033339,1,-8.552248001,1,-0.02248669,1,-0.064442292,1,0.077416897,1,0.391173393,1,-0.341825604,1,0.4889230728149414,1
1.119957447,-3.044265747,1,-3.89729023,1,-8.584620476,1,-0.042952824,1,-0.067638874,1,0.091004245,1,0.3909697234630585,1,-0.342199475,1,0.4891461133956909,1
1.123957038,-2.941375732,1,-4.011857033,1,-8.627682686,1,-0.06240575,1,-0.085139781,1,0.1084829047322273,1,0.3906752467155457,1,-0.342630029,1,0.4894066751003265,1
1.127958536,-2.891303301,1,-3.986761332,1,-8.51636219,1,-0.087085672,1,-0.099776931,1,0.1235014796257019,1,0.39026171,1,-0.343150109,1,0.4897162020206451,1
1.13195622,-2.844892979,1,-4.071900845,1,-8.562465668,1,-0.101280659,1,-0.115494929,1,0.1400807052850723,1,0.3897645473480225,1,-0.34374246,1,0.4900682270526886,1
1.135955691,-2.856510401,1,-4.141328335,1,-8.617144585,1,-0.124640733,1,-0.134440154,1,0.1661402136087418,1,0.3891790509223938,1,-0.344434321,1,0.490469366,1
1.13995719,-2.895109177,1,-4.248536587,1,-8.622890472,1,-0.138644204,1,-0.147081852,1,0.1935667544603348,1,0.3884875178337097,1,-0.345223308,1,0.4909445643424988,1
1.143954992,-3.02798152,1,-4.104476929,1,-8.534199715,1,-0.13430135,1,-0.154323637,1,0.2375564575195313,1,0.3877274990081787,1,-0.346110702,1,0.4915486872196198,1
1.147954464,-2.964172125,1,-3.837500572,1,-8.601689339,1,-0.066461556,1,-0.146762758,1,0.3152222335338593,1,0.3870338499546051,1,-0.347087204,1,0.4923890233039856,1
1.151955962,-2.914379358,1,-4.45032835,1,-9.361243248,1,-0.088285662,1,-0.148377955,1,0.410993367,1,0.3863572776317596,1,-0.348169714,1,0.4935837686061859,1
1.155959606,-2.373758793,1,-4.579802513,1,-9.347770691,1,-0.159823507,1,-0.178040192,1,0.4856406152248383,1,0.3853331208229065,1,-0.349444568,1,0.4951048195362091,1
1.159959078,-2.148052692,1,-4.353069305,1,-9.140734673,1,-0.199633449,1,-0.2127994,1,0.5557071566581726,1,0.3840013146400452,1,-0.350944996,1,0.4968452751636505,1
1.163960814,-2.341618538,1,-4.355321884,1,-9.053686142,1,-0.206549942,1,-0.25230366,1,0.618094802,1,0.3825216293334961,1,-0.352688909,1,0.4987911880016327,1
1.167958498,-2.417349815,1,-4.626761436,1,-9.085194588,1,-0.215342179,1,-0.29575938,1,0.6877661943435669,1,0.3809360265731812,1,-0.354678273,1,0.5009450912475586,1
1.17195797,-2.599970818,1,-4.786527634,1,-9.065067291,1,-0.249715537,1,-0.323929638,1,0.7380943298339844,1,0.3791990876197815,1,-0.356892139,1,0.5032821297645569,1
1.175959587,-2.686308146,1,-4.787099838,1,-9.003480911,1,-0.282899588,1,-0.349965334,1,0.789084792,1,0.3772651553153992,1,-0.359271526,1,0.505785346,1
1.179957271,-2.603792667,1,-4.735919952,1,-8.896594048,1,-0.311482161,1,-0.378901899,1,0.8276951909065247,1,0.3751384615898132,1,-0.361816764,1,0.5084276795387268,1
1.183956742,-2.457263708,1,-4.661440372,1,-8.913066864,1,-0.346947372,1,-0.41549626,1,0.8692402839660645,1,0.3728364109992981,1,-0.364525914,1,0.5111808180809021,1
1.187958241,-2.354929686,1,-4.60691452,1,-8.922614098,1,-0.369737208,1,-0.460419893,1,0.9006562829017639,1,0.3703864216804504,1,-0.367440701,1,0.5140318274497986,1
1.191955686,-2.221197605,1,-4.456604481,1,-8.603767395,1,-0.405933201,1,-0.514205635,1,0.9391447305679321,1,0.3677628040313721,1,-0.370630622,1,0.5169616937637329,1
1.195955157,-2.444303513,1,-4.237380028,1,-8.957274437,1,-0.401342005,1,-0.540685654,1,0.9719459414482117,1,0.3652409911155701,1,-0.373658508,1,0.5195860862731934,1
1.199956775,-2.573127031,1,-3.800457954,1,-9.074825287,1,-0.385924041,1,-0.570119381,1,1.004523396492004,1,0.3625218272209167,1,-0.377153933,1,0.5227068662643433,1
1.203954458,-2.665328741,1,-3.407639503,1,-9.18365097,1,-0.349129111,1,-0.592964649,1,1.043881416320801,1,0.3598498702049255,1,-0.380778253,1,0.525932789,1
1.207954168,-2.932337046,1,-3.4728477,1,-9.789064407,1,-0.331407398,1,-0.613624275,1,1.101882576942444,1,0.357225776,1,-0.384538352,1,0.5293499231338501,1
1.211955667,-2.869971275,1,-3.201308012,1,-9.565742493,1,-0.305772901,1,-0.616592884,1,1.148975610733032,1,0.3545623421669006,1,-0.388421178,1,0.532977819,1
1.21595335,-2.848880529,1,-3.348544836,1,-9.633869171,1,-0.263533473,1,-0.619702578,1,1.203025817871094,1,0.3519622087478638,1,-0.392370284,1,0.5368187427520752,1
1.219953179,-2.924560785,1,-3.502218962,1,-9.725118637,1,-0.217127144,1,-0.613626182,1,1.256803274154663,1,0.3494369089603424,1,-0.39638266,1,0.5408995747566223,1
1.223954678,-3.075978756,1,-3.642655611,1,-9.69357872,1,-0.181588516,1,-0.606644094,1,1.318710684776306,1,0.3469437658786774,1,-0.400438368,1,0.5452429056167603,1
1.227952361,-3.16870594,1,-3.743941784,1,-9.782361031,1,-0.155741259,1,-0.588930011,1,1.374872565,1,0.3444538712501526,1,-0.404515415,1,0.5498688817024231,1
1.231951833,-3.317609787,1,-3.787983418,1,-9.816474915,1,-0.135500669,1,-0.560615838,1,1.432001233100891,1,0.3419316411018372,1,-0.408578336,1,0.5547846555709839,1
1.23595345,-3.330278158,1,-3.593081474,1,-10.01804447,1,-0.109294325,1,-0.528702557,1,1.484542608261108,1,0.3393616378307343,1,-0.412569046,1,0.5599771738052368,1
1.239951134,-3.374981403,1,-3.357945442,1,-10.02423477,1,-0.070461556,1,-0.495038718,1,1.529912352561951,1,0.3367905616760254,1,-0.416505367,1,0.565446138,1
1.243950605,-3.577265024,1,-3.347648621,1,-10.07871628,1,-0.0211879,1,-0.463606238,1,1.575325251,1,0.3342859148979187,1,-0.420350909,1,0.5711749196052551,1
1.247952342,-3.76576829,1,-3.313755512,1,-10.12644005,1,0.033467174,1,-0.427715689,1,1.611740946769714,1,0.3318572640419006,1,-0.424120814,1,0.5771344304084778,1
1.251950026,-4.283929348,1,-3.427138329,1,-10.26830959,1,0.082387365,1,-0.396734089,1,1.641867160797119,1,0.3295317888259888,1,-0.427792907,1,0.5833025574684143,1
1.255949616,-5.156499863,1,-3.910041809,1,-10.7966938,1,0.1433006227016449,1,-0.333069801,1,1.668018698692322,1,0.3273327052593231,1,-0.431316525,1,0.5896824598312378,1
1.259951115,-5.912151814,1,-4.854278564,1,-11.27504349,1,0.1660983562469482,1,-0.20810999,1,1.685809135437012,1,0.32519877,1,-0.434513241,1,0.5962804555892944,1
1.26394856,-5.819860458,1,-5.903196812,1,-11.14140987,1,0.1144316643476486,1,-0.043840151,1,1.701068401,1,0.3228631019592285,1,-0.4371548,1,0.6031820774078369,1
1.267948031,-4.977977753,1,-6.330849171,1,-10.89372826,1,0.004769268,1,0.1115908846259117,1,1.721176862716675,1,0.3200411796569824,1,-0.439182818,1,0.6104056835174561,1
1.271949768,-3.970578671,1,-6.313814163,1,-10.51835537,1,-0.127128333,1,0.2309642732143402,1,1.757308483123779,1,0.3165864646434784,1,-0.44069767,1,0.6179491281509399,1
1.275953412,-2.745453835,1,-5.729557991,1,-10.06199455,1,-0.214889199,1,0.3004916310310364,1,1.790016651153564,1,0.3125477731227875,1,-0.441864252,1,0.6257761120796204,1
1.279953122,-1.657910347,1,-5.005745411,1,-9.61986351,1,-0.229492232,1,0.3028285205364227,1,1.829683184623718,1,0.3081958889961243,1,-0.442912996,1,0.6338298320770264,1
1.283954978,-0.806602418,1,-4.465005875,1,-9.276413918,1,-0.186591998,1,0.267604798,1,1.862185120582581,1,0.3038392663002014,1,-0.444033623,1,0.6420178413391113,1
1.287952662,-0.621785104,1,-4.402295589,1,-9.14086628,1,-0.122904606,1,0.2151307463645935,1,1.878975033760071,1,0.2996657192707062,1,-0.445332795,1,0.6502646207809448,1
1.291952133,-0.557359457,1,-4.628797531,1,-9.200170517,1,-0.062037397,1,0.1674141436815262,1,1.878445982933044,1,0.2957645654678345,1,-0.446806818,1,0.658477247,1
1.295953631,-0.621221781,1,-5.117634773,1,-9.279993057,1,-0.018657986,1,0.1438999623060226,1,1.850128889083862,1,0.2921003103256226,1,-0.448376238,1,0.6665868759155273,1
1.299951315,-0.770278275,1,-5.646383762,1,-9.383361816,1,-0.012041462,1,0.1402631253004074,1,1.799222469329834,1,0.2885976135730743,1,-0.449914038,1,0.6745303273200989,1
1.303950906,-0.687399507,1,-6.113731861,1,-9.464047432,1,-0.037577681,1,0.1598901450634003,1,1.733799219,1,0.28514564,1,-0.451346219,1,0.6822490692138672,1
1.307952642,-0.576442599,1,-6.496484756,1,-9.47545433,1,-0.089941673,1,0.1907848119735718,1,1.65110445,1,0.2816482186317444,1,-0.452572286,1,0.6896956562995911,1
1.311950564,-0.197062522,1,-6.474437714,1,-9.517342567,1,-0.133156896,1,0.2235678136348724,1,1.544613361358643,1,0.2781015336513519,1,-0.453547478,1,0.6967798471450806,1
1.315950036,0.3031060099601746,1,-6.314313889,1,-9.472875595,1,-0.166096613,1,0.2496735006570816,1,1.425755977630615,1,0.2745737731456757,1,-0.454246104,1,0.7034325003623962,1
1.319951653,0.73107034,1,-6.143240929,1,-9.43237114,1,-0.179186657,1,0.2560690343379974,1,1.290146112442017,1,0.2711894512176514,1,-0.454735518,1,0.709559441,1
1.323949337,1.144033312797546,1,-5.925200939,1,-9.455618858,1,-0.164216563,1,0.2580885887145996,1,1.146643161773682,1,0.2680637836456299,1,-0.455039203,1,0.7150897979736328,1
1.327948809,1.325237512588501,1,-5.878256321,1,-9.493690491,1,-0.145966023,1,0.247169703,1,0.9867109656333923,1,0.2652889490127563,1,-0.45518291,1,0.7199714779853821,1
1.331950307,1.501082181930542,1,-5.875619888,1,-9.527654648,1,-0.121849321,1,0.2425820827484131,1,0.8261368274688721,1,0.2629213631153107,1,-0.45517984,1,0.7241582274436951,1
1.33594799,1.464112758636475,1,-5.922567368,1,-9.552774429,1,-0.096977226,1,0.2407892942428589,1,0.6469535231590271,1,0.2609666585922241,1,-0.455017775,1,0.7276103496551514,1
1.339947462,1.394548892974854,1,-6.01756382,1,-9.613229752,1,-0.085645355,1,0.2415453046560287,1,0.4706681668758392,1,0.2594174444675446,1,-0.454667926,1,0.7303013205528259,1
1.343949318,1.278543472290039,1,-6.205997944,1,-9.678256035,1,-0.07978034,1,0.2534542381763458,1,0.2850186824798584,1,0.2582449615001678,1,-0.454091281,1,0.7322074770927429,1
1.347947001,1.239851355552673,1,-6.293214321,1,-9.708654404,1,-0.08907111,1,0.2814600169658661,1,0.096416362,1,0.2574101686477661,1,-0.453259826,1,0.7333364486694336,1
1.351946473,1.318932890892029,1,-6.366109371,1,-9.781207085,1,-0.105297565,1,0.3016634583473206,1,-0.091204785,1,0.2568753659725189,1,-0.452136576,1,0.7336704730987549,1
1.355948329,1.458466053009033,1,-6.328480244,1,-9.796771049,1,-0.116124108,1,0.3265466690063477,1,-0.279880285,1,0.256634533,1,-0.450725645,1,0.7332327365875244,1
1.359946012,1.502832531929016,1,-6.277037621,1,-9.84114933,1,-0.124687418,1,0.3513637185096741,1,-0.46080789,1,0.2566747963428497,1,-0.449037462,1,0.7320296764373779,1
1.363945484,1.546796083450317,1,-6.159055233,1,-9.895643234,1,-0.124148019,1,0.3688439428806305,1,-0.632905483,1,0.2570263743400574,1,-0.44708699,1,0.7300834059715271,1
1.367947221,1.565986991,1,-6.045978546,1,-9.865579605,1,-0.121913314,1,0.3800007700920105,1,-0.805620551,1,0.2576761245727539,1,-0.444901496,1,0.7274273633956909,1
1.371944904,1.560099601745605,1,-6.001824856,1,-9.906878471,1,-0.114583783,1,0.3885330259799957,1,-0.960171223,1,0.2586516439914703,1,-0.442515284,1,0.7240716218948364,1
1.375944734,1.481679916381836,1,-6.02339983,1,-9.976510048,1,-0.101935893,1,0.3930777013301849,1,-1.114088297,1,0.259928286,1,-0.439940751,1,0.7200673818588257,1
1.379946232,1.29459548,1,-6.062477112,1,-9.98214817,1,-0.100339405,1,0.4067327380180359,1,-1.244467378,1,0.2614743411540985,1,-0.437184632,1,0.7154750823974609,1
1.383943915,1.092335939407349,1,-6.010816097,1,-10.01930046,1,-0.103077769,1,0.4156883955001831,1,-1.370372772,1,0.2632234990596771,1,-0.434234798,1,0.7103593945503235,1
1.387943625,0.8298505544662476,1,-5.967414856,1,-10.04324436,1,-0.10548088,1,0.4363541603088379,1,-1.47780323,1,0.2651413083076477,1,-0.431105494,1,0.7047891616821289,1
1.391945243,0.7293643355369568,1,-5.819785595,1,-9.965157509,1,-0.113128483,1,0.4516699612140656,1,-1.575111151,1,0.2671968042850494,1,-0.427780151,1,0.6988208293914795,1
1.395948768,0.4571428000926971,1,-5.660980225,1,-10.02604198,1,-0.115210816,1,0.4710374474525452,1,-1.653383255,1,0.2693462371826172,1,-0.424299121,1,0.6925148367881775,1
1.399948597,0.2874026298522949,1,-5.499074459,1,-10.04946423,1,-0.121657789,1,0.4875425696372986,1,-1.721710563,1,0.2715692222118378,1,-0.42064929,1,0.6859334111213684,1
1.403950095,0.086642638,1,-5.264931679,1,-10.05642033,1,-0.127740026,1,0.5104560256004333,1,-1.77776885,1,0.2738252282142639,1,-0.416841328,1,0.6791412830352783,1
1.407947779,-0.105065696,1,-5.063167095,1,-10.04994297,1,-0.132339865,1,0.5291168093681335,1,-1.824048877,1,0.2761052250862122,1,-0.412881643,1,0.672179639,1
1.41194725,-0.280792028,1,-4.92970705,1,-9.990689278,1,-0.130198762,1,0.5559355616569519,1,-1.856626511,1,0.2784159183502197,1,-0.408777595,1,0.6651005148887634,1
1.415948749,-0.414204508,1,-4.901215553,1,-9.983737946,1,-0.131921038,1,0.5782957077026367,1,-1.882396817,1,0.2807165682315826,1,-0.404535115,1,0.6579528450965881,1
1.419946551,-0.521648586,1,-4.903524399,1,-9.863088608,1,-0.147161335,1,0.5976200699806213,1,-1.901074052,1,0.2829820811748505,1,-0.400176972,1,0.6507613062858582,1
1.423946023,-0.633866012,1,-4.842452049,1,-9.812194824,1,-0.159101903,1,0.6309192776679993,1,-1.901494026,1,0.2851543426513672,1,-0.395694166,1,0.6435930132865906,1
1.427947521,-0.733501971,1,-4.785540104,1,-9.77966404,1,-0.174007386,1,0.64952606,1,-1.899082184,1,0.2872177958488464,1,-0.391107976,1,0.636475146,1
1.431945205,-0.884879529,1,-4.642807007,1,-9.800314903,1,-0.181222007,1,0.6778625845909119,1,-1.889917731,1,0.2891797721385956,1,-0.38640821,1,0.6294327974319458,1
1.435944676,-1.06083858,1,-4.55670023,1,-9.786596298,1,-0.181126624,1,0.7063481211662292,1,-1.876666307,1,0.291055828,1,-0.381600678,1,0.6224920153617859,1
1.439946532,-1.276434302,1,-4.556794643,1,-9.817977905,1,-0.176725194,1,0.7380424737930298,1,-1.871737361,1,0.2928717732429504,1,-0.376669079,1,0.6156554818153381,1
1.443944216,-1.48549521,1,-4.596185207,1,-9.783871651,1,-0.166949615,1,0.7879874706268311,1,-1.864481688,1,0.294646144,1,-0.371575177,1,0.6089298129081726,1
1.447943687,-1.68350637,1,-4.6305089,1,-9.778365135,1,-0.160752118,1,0.8390617966651917,1,-1.857831836,1,0.2963674068450928,1,-0.366279185,1,0.6017528176307678,1
1.451945424,-1.804686189,1,-4.70567894,1,-9.754903793,1,-0.154219359,1,0.8868563175201416,1,-1.844437122,1,0.2980450987815857,1,-0.360809475,1,0.5952599048614502,1
1.455943227,-1.8170259,1,-4.731886864,1,-9.659426689,1,-0.154305533,1,0.9368841648101807,1,-1.837127686,1,0.2996610403060913,1,-0.355141819,1,0.5888882875442505,1
1.459942698,-1.876101613,1,-4.710543633,1,-9.564940453,1,-0.152386576,1,0.9797607064247131,1,-1.828310728,1,0.3012062907218933,1,-0.34931165,1,0.5826435089111328,1
1.463944435,-1.919322252,1,-4.651373386,1,-9.443463326,1,-0.14292039,1,1.014951705932617,1,-1.821363449,1,0.3027029633522034,1,-0.343329817,1,0.5764983892440796,1
1.467942119,-1.930440307,1,-4.610142231,1,-9.308754921,1,-0.13455677,1,1.044650435447693,1,-1.807342052,1,0.3041477203369141,1,-0.337233841,1,0.5704637765884399,1
1.471941829,-1.932043076,1,-4.562181473,1,-9.148524284,1,-0.120068386,1,1.066767930984497,1,-1.798720241,1,0.3055845499038696,1,-0.331030071,1,0.5645284652709961,1
1.475943446,-1.906995416,1,-4.562461853,1,-9.065861702,1,-0.092966363,1,1.091111898422241,1,-1.791501284,1,0.3070496916770935,1,-0.324753225,1,0.5586602091789246,1
1.479940891,-1.925105095,1,-4.564487934,1,-8.987435341,1,-0.074912608,1,1.099073767662048,1,-1.787873149,1,0.3085435628890991,1,-0.318412185,1,0.5528703331947327,1
1.483940601,-1.985407114,1,-4.592033863,1,-8.937709808,1,-0.053047441,1,1.100474715232849,1,-1.786186576,1,0.3100681900978088,1,-0.312041283,1,0.547118068,1
1.4879421,-2.135425806,1,-4.603591919,1,-8.892366409,1,-0.033793435,1,1.113128066062927,1,-1.793231487,1,0.311637819,1,-0.305630267,1,0.5413846373558044,1
1.491939783,-2.221078396,1,-4.659926414,1,-8.795454025,1,-0.018847488,1,1.116814732551575,1,-1.807456851,1,0.3132490217685699,1,-0.299178898,1,0.5356482863426208,1
1.495939374,-2.243342876,1,-4.702585697,1,-8.727776527,1,-0.004608976,1,1.124562382698059,1,-1.822652578,1,0.3148877024650574,1,-0.292673647,1,0.5298864841461182,1
1.499940872,-2.148652077,1,-4.740974426,1,-8.675951004,1,0.002102096,1,1.123468518257141,1,-1.843817949,1,0.3165488839149475,1,-0.286122382,1,0.524073064,1
1.503938556,-2.092055321,1,-4.633307934,1,-8.62003994,1,0.014561688,1,1.119062066078186,1,-1.867804527,1,0.3182201981544495,1,-0.279540092,1,0.5181907415390015,1
1.507938027,-2.019255161,1,-4.544808865,1,-8.559370995,1,0.031567272,1,1.105594277381897,1,-1.900757313,1,0.3199367821216583,1,-0.272949964,1,0.5122109651565552,1
1.511939526,-1.937425375,1,-4.528675079,1,-8.474225998,1,0.042635363,1,1.088446140289307,1,-1.937883854,1,0.3217098712921143,1,-0.266359359,1,0.5060973763465881,1
1.515937328,-1.941256523,1,-4.54668951,1,-8.376364708,1,0.046494585,1,1.069561839103699,1,-1.973784924,1,0.3235262632369995,1,-0.259783268,1,0.4998281896114349,1
1.51994288,-1.937222838,1,-4.545060635,1,-8.320755959,1,0.047594666,1,1.043723464012146,1,-2.020903349,1,0.3253592848777771,1,-0.253225565,1,0.4933897852897644,1
1.523944497,-1.941879272,1,-4.522877216,1,-8.281255722,1,0.044682853,1,1.024687528610229,1,-2.066278458,1,0.3271826505661011,1,-0.246688381,1,0.48676759,1
1.527942181,-1.978731394,1,-4.55674839,1,-8.282352448,1,0.046563577,1,0.9997285008430481,1,-2.124190331,1,0.3290156722068787,1,-0.240156233,1,0.479934424,1
1.531941652,-2.072276354,1,-4.537687778,1,-8.247729301,1,0.04411567,1,0.9810442924499512,1,-2.186219215,1,0.3308634161949158,1,-0.23362191,1,0.4728641211986542,1
1.535943389,-2.219180822,1,-4.536668777,1,-8.279557228,1,0.038757741,1,0.9655322432518005,1,-2.24579525,1,0.3327027857303619,1,-0.227052256,1,0.4655614495277405,1
1.539941072,-2.314009666,1,-4.597534657,1,-8.271754265,1,0.028640652,1,0.9596577286720276,1,-2.323173046,1,0.3345175385475159,1,-0.220417142,1,0.4579967260360718,1
1.543940663,-2.373973846,1,-4.610734463,1,-8.265414238,1,0.019212136,1,0.9579168558120728,1,-2.39364171,1,0.3362970948219299,1,-0.213696063,1,0.4501669406890869,1
1.5479424,-2.46420908,1,-4.595097065,1,-8.274636269,1,0.001597406,1,0.9501427412033081,1,-2.46167779,1,0.3380259573459625,1,-0.206877679,1,0.4420979619026184,1
1.551940084,-2.491858244,1,-4.560647964,1,-8.228141785,1,-0.013612471,1,0.9495475888252258,1,-2.539367199,1,0.3396855294704437,1,-0.19995822,1,0.4337573051452637,1
1.555939555,-2.515536308,1,-4.505015373,1,-8.179667473,1,-0.030869855,1,0.9366917014122009,1,-2.604623079,1,0.3412771224975586,1,-0.192958295,1,0.4251619279384613,1
1.559941411,-2.560446501,1,-4.501553535,1,-8.113059044,1,-0.046008274,1,0.9310557246208191,1,-2.672035456,1,0.3427923917770386,1,-0.185894489,1,0.4163193106651306,1
1.563939095,-2.526903152,1,-4.391489983,1,-8.022233963,1,-0.052576311,1,0.919579804,1,-2.73378253,1,0.3442392945289612,1,-0.178771868,1,0.4072344601154327,1
1.567938805,-2.593824863,1,-4.319579601,1,-7.950925827,1,-0.059516542,1,0.8996117115020752,1,-2.790225029,1,0.3456399142742157,1,-0.171606481,1,0.3979207575321198,1
1.57194066,-2.609300852,1,-4.274300098,1,-7.900984764,1,-0.062655404,1,0.8767178654670715,1,-2.84243989,1,0.3469846248626709,1,-0.164430633,1,0.388390839,1
1.575938344,-2.758058071,1,-4.268847942,1,-7.855531216,1,-0.069938034,1,0.8545688390731812,1,-2.892068386,1,0.3482813835144043,1,-0.157268643,1,0.3786587119102478,1
1.579938054,-2.910716772,1,-4.211051941,1,-7.810650349,1,-0.064468853,1,0.8331243991851807,1,-2.941135645,1,0.3495392799377441,1,-0.150108978,1,0.3687272667884827,1
1.583939552,-3.150013924,1,-4.152973175,1,-7.764362335,1,-0.072382554,1,0.8117836117744446,1,-2.98670125,1,0.3507353663444519,1,-0.142954886,1,0.3586140275001526,1
1.587936997,-3.333309889,1,-4.139741421,1,-7.728004932,1,-0.079264931,1,0.7947760224342346,1,-3.031676769,1,0.3518659472465515,1,-0.135796949,1,0.3483201861381531,1
1.591936469,-3.500965357,1,-4.162257195,1,-7.696047783,1,-0.087850131,1,0.7798528671264648,1,-3.074026346,1,0.3529090881347656,1,-0.128621519,1,0.3378645181655884,1
1.595938087,-3.610165358,1,-4.065444469,1,-7.650551319,1,-0.096316867,1,0.7715974450111389,1,-3.103839636,1,0.353856623,1,-0.121427156,1,0.32726413,1
1.59993577,-3.681846857,1,-4.069450378,1,-7.644734859,1,-0.111082852,1,0.7530980706214905,1,-3.134503841,1,0.3547130525112152,1,-0.114239819,1,0.316539466,1
1.603935242,-3.775895119,1,-3.953828812,1,-7.585237026,1,-0.113805354,1,0.7354219555854797,1,-3.161037922,1,0.3554563224315643,1,-0.107059166,1,0.3057109415531158,1
1.60793674,-3.814197779,1,-3.806958675,1,-7.471870899,1,-0.11585062,1,0.7094805240631104,1,-3.171528101,1,0.356118917,1,-0.099936649,1,0.2947852611541748,1
1.611934423,-3.865792036,1,-3.707113981,1,-7.380879402,1,-0.118323743,1,0.6873770952224731,1,-3.185383797,1,0.3567074537277222,1,-0.092882343,1,0.2837886214256287,1
1.615933895,-3.890963793,1,-3.587030888,1,-7.307121277,1,-0.114104636,1,0.6571940183639526,1,-3.18987155,1,0.3572346866130829,1,-0.085911162,1,0.2727448046207428,1
1.619935513,-3.886911154,1,-3.491846323,1,-7.197868347,1,-0.101523869,1,0.6185207962989807,1,-3.181370974,1,0.3577223420143127,1,-0.079059072,1,0.2616675496101379,1
1.623933196,-3.950599432,1,-3.358002901,1,-7.176692963,1,-0.084696636,1,0.5827226638793945,1,-3.177558661,1,0.3581966161727905,1,-0.072338782,1,0.2505598068237305,1
1.627932668,-4.044729233,1,-3.235248804,1,-7.095228672,1,-0.060183462,1,0.5497127771377563,1,-3.166955471,1,0.3586764931678772,1,-0.065770455,1,0.2394481748342514,1
1.631934524,-4.204902172,1,-3.232320309,1,-7.116562843,1,-0.03894135,1,0.5161476135253906,1,-3.156656265,1,0.3591760694980621,1,-0.059331466,1,0.2283283770084381,1
1.635932207,-4.289452076,1,-3.212730885,1,-7.117833614,1,-0.021128619,1,0.4823364317417145,1,-3.139073372,1,0.3596837520599365,1,-0.053030021,1,0.2172236740589142,1
1.639937758,-4.404222012,1,-3.218776226,1,-7.093100548,1,-0.006443558,1,0.4556353688240051,1,-3.120141983,1,0.3601782917976379,1,-0.046856076,1,0.2061516940593719,1
1.643939614,-4.492334366,1,-3.213882923,1,-7.053648949,1,-0.006266417,1,0.4267028570175171,1,-3.105359316,1,0.3606405854225159,1,-0.040814031,1,0.1951121687889099,1
1.647937298,-4.511209011,1,-3.174804211,1,-6.983869076,1,-0.011261689,1,0.3958027362823486,1,-3.084555864,1,0.3610314726829529,1,-0.034906857,1,0.1841089427471161,1
1.651936769,-4.529275417,1,-3.046178102,1,-7.025279522,1,-0.012649696,1,0.3631508946418762,1,-3.063507557,1,0.3613418936729431,1,-0.029139671,1,0.1731465011835098,1
1.655938268,-4.558410168,1,-3.001025915,1,-7.018798351,1,-0.013483085,1,0.3219937384128571,1,-3.03169632,1,0.3615758121013641,1,-0.023547728,1,0.1622247099876404,1
1.659935951,-4.534993172,1,-2.93517518,1,-7.022336483,1,-0.011186066,1,0.2735480666160583,1,-3.001546383,1,0.3617443442344666,1,-0.018156582,1,0.151359811,1
1.663935781,-4.672235966,1,-2.867645741,1,-7.106596947,1,-0.007936521,1,0.2279148995876312,1,-2.97316885,1,0.3618749678134918,1,-0.012987216,1,0.1405598670244217,1
1.667937279,-4.74448061,1,-2.727009296,1,-7.144471645,1,0.011044865,1,0.1775578558444977,1,-2.918286324,1,0.3619983196258545,1,-0.00805789,1,0.1298270523548126,1
1.671934962,-4.921208382,1,-2.575961351,1,-7.169052124,1,0.040549248,1,0.1256029903888702,1,-2.883760452,1,0.3621604144573212,1,-0.003374844,1,0.1191796585917473,1
1.675934672,-5.051185131,1,-2.171248913,1,-7.301086426,1,0.072610423,1,0.078231663,1,-2.836437941,1,0.3623930215835571,1,0.001058107,1,0.108620249,1
1.67993629,-5.101860046,1,-1.677762032,1,-7.396512508,1,0.1255552917718887,1,0.022644799,1,-2.793670177,1,0.3627534806728363,1,0.00524318,1,0.098162241,1
1.683933735,-5.053055763,1,-1.739869595,1,-7.42696476,1,0.1723818778991699,1,-0.028192809,1,-2.736315966,1,0.3632786571979523,1,0.009159731,1,0.087814935,1
1.687933207,-5.0826931,1,-2.207605124,1,-7.5055933,1,0.1690688580274582,1,-0.085081793,1,-2.658716679,1,0.3638599216938019,1,0.012783773,1,0.077653006,1
1.691934705,-5.180969238,1,-2.547466755,1,-7.514045238,1,0.1204659715294838,1,-0.13516067,1,-2.559871912,1,0.3643136024475098,1,0.016092464,1,0.067734689,1
1.695932388,-5.345333576,1,-2.618923903,1,-7.556972504,1,0.046408385,1,-0.180953637,1,-2.459627628,1,0.3659825325012207,1,0.018184418,1,0.065158084,1
1.69993186,-5.496023178,1,-2.484610558,1,-7.493942738,1,-0.024874154,1,-0.219795838,1,-2.351089478,1,0.3658357262611389,1,0.020876968,1,0.055886172,1
1.703933477,-5.494888306,1,-2.279447794,1,-7.414524078,1,-0.089863762,1,-0.24931927,1,-2.246629715,1,0.3654034733772278,1,0.023286132,1,0.046965424,1
1.707931161,-5.329755306,1,-2.070682287,1,-7.32334137,1,-0.12432766,1,-0.286179841,1,-2.14084959,1,0.3647660315036774,1,0.025412971,1,0.038380969,1
1.711930633,-5.037095547,1,-1.951741934,1,-7.192430019,1,-0.137143731,1,-0.321755379,1,-2.029745817,1,0.3640212416648865,1,0.027249563,1,0.030153925,1
1.715932369,-4.753576756,1,-1.904977322,1,-7.061236858,1,-0.13907519,1,-0.358424306,1,-1.921051979,1,0.3632411658763885,1,0.028794207,1,0.022283919,1
1.71993041,-4.533067703,1,-1.906905651,1,-6.970227242,1,-0.131247029,1,-0.398437798,1,-1.80695641,1,0.3624761402606964,1,0.030027932,1,0.014774778,1
1.723929882,-4.378145695,1,-1.992368937,1,-6.902123928,1,-0.109951928,1,-0.431597263,1,-1.698574185,1,0.3617807030677795,1,0.030947374,1,0.007633827,1
1.72793138,-4.234278202,1,-2.066825151,1,-6.851621628,1,-0.093871623,1,-0.46286732,1,-1.593145728,1,0.3611616790294647,1,0.031600215,1,0.000836428,1
1.731929064,-4.081222057,1,-2.097233534,1,-6.871592045,1,-0.06808611,1,-0.48575905,1,-1.497690916,1,0.3606423139572144,1,0.032005686,1,-0.005615835,1
1.735928535,-3.849093676,1,-2.141572237,1,-6.909856319,1,-0.050027344,1,-0.499546528,1,-1.415306211,1,0.3602063357830048,1,0.032214809,1,-0.01176323,1
1.739930153,-3.583395481,1,-2.179480791,1,-6.959491253,1,-0.029511753,1,-0.50718379,1,-1.337634802,1,0.3598548173904419,1,0.032271251,1,-0.017630303,1
1.743927836,-3.276925087,1,-2.168185711,1,-6.937855244,1,-0.011827163,1,-0.5072788,1,-1.281389117,1,0.3595983982086182,1,0.032204624,1,-0.023245813,1
1.747927308,-3.005573511,1,-2.197127104,1,-7.02801466,1,0.009045772,1,-0.515797317,1,-1.226635456,1,0.3594158887863159,1,0.032049485,1,-0.028653072,1
1.751929045,-2.787758112,1,-2.159138918,1,-7.094809055,1,0.027349891,1,-0.51720506,1,-1.183461666,1,0.3593206405639648,1,0.031819135,1,-0.033886194,1
1.755926728,-2.657029152,1,-2.201144934,1,-7.190625191,1,0.047117449,1,-0.517452002,1,-1.151075721,1,0.359303892,1,0.03152347,1,-0.038989037,1
1.759932637,-2.48567605,1,-2.249097824,1,-7.229756355,1,0.059670176,1,-0.513469517,1,-1.125537992,1,0.3593519330024719,1,0.031188639,1,-0.043976463,1
1.763934493,-2.354439497,1,-2.293357849,1,-7.213677883,1,0.068214901,1,-0.515222073,1,-1.096042395,1,0.3594558835029602,1,0.03082495,1,-0.048850443,1
1.767932177,-2.23235631,1,-2.244774342,1,-7.190782547,1,0.082516678,1,-0.51023829,1,-1.064503074,1,0.3596186637878418,1,0.030434318,1,-0.053621646,1
1.771931887,-2.176953793,1,-2.243165255,1,-7.165853024,1,0.098922923,1,-0.511314213,1,-1.031602859,1,0.3598485589027405,1,0.030003885,1,-0.058266766,1
1.775933385,-2.147680283,1,-2.171662569,1,-7.117561817,1,0.123785026,1,-0.511883199,1,-0.998202026,1,0.3601678013801575,1,0.029519534,1,-0.062790513,1
1.77993083,-2.209706783,1,-2.132665634,1,-7.079372883,1,0.1639729887247086,1,-0.511600196,1,-0.957264841,1,0.3606102466583252,1,0.02898049,1,-0.067167141,1
1.783930421,-2.39437604,1,-2.185327768,1,-7.084444046,1,0.2017313092947006,1,-0.506861746,1,-0.903306723,1,0.3612154722213745,1,0.028383169,1,-0.071371786,1
1.787931919,-2.604812145,1,-2.168549061,1,-7.010205746,1,0.2497481852769852,1,-0.503641903,1,-0.849810243,1,0.3620063066482544,1,0.027727157,1,-0.075367339,1
1.791929841,-2.84006381,1,-2.133996725,1,-7.000416279,1,0.2976216077804565,1,-0.495394677,1,-0.789379478,1,0.3629904687404633,1,0.02701995,1,-0.079151213,1
1.795929313,-3.061274529,1,-2.04409337,1,-6.909024715,1,0.3466506600379944,1,-0.48344925,1,-0.725567877,1,0.3641772866249084,1,0.026268123,1,-0.08267986,1
1.79993093,-3.306160927,1,-2.118932962,1,-6.948867321,1,0.3916324377059937,1,-0.472373217,1,-0.653105259,1,0.3655752539634705,1,0.025464086,1,-0.085933007,1
1.803928614,-3.527683496,1,-2.022146463,1,-6.819402218,1,0.4411121010780334,1,-0.463862121,1,-0.571174443,1,0.3671611547470093,1,0.024595447,1,-0.088899426,1
1.807928085,-3.781369925,1,-2.053143024,1,-6.750053883,1,0.4713411927223206,1,-0.445980012,1,-0.486316413,1,0.3689195811748505,1,0.023660898,1,-0.091540344,1
1.811929822,-3.920419931,1,-1.913637519,1,-6.622628689,1,0.5091146230697632,1,-0.442612827,1,-0.39186722,1,0.3708286881446838,1,0.022646664,1,-0.093831442,1
1.815927505,-4.09691,1,-1.795746088,1,-6.462842464,1,0.5424060821533203,1,-0.430497915,1,-0.295217991,1,0.3728828430175781,1,0.021521118,1,-0.095757768,1
1.819927096,-4.363486767,1,-1.69605124,1,-6.311246872,1,0.5774930119514465,1,-0.434246838,1,-0.188140661,1,0.3750937283039093,1,0.020268785,1,-0.097288921,1
1.823928833,-4.610351086,1,-1.592085123,1,-6.187132359,1,0.6206494569778442,1,-0.434825689,1,-0.076887749,1,0.3774697780609131,1,0.018853167,1,-0.098421104,1
1.827926517,-4.937244415,1,-1.529659986,1,-6.028737545,1,0.6518351435661316,1,-0.436605871,1,0.030053908,1,0.3800002932548523,1,0.01726334,1,-0.09915112,1
1.831925988,-5.238711357,1,-1.52737689,1,-5.854412079,1,0.6835209727287292,1,-0.446222037,1,0.1396231949329376,1,0.3826692998409271,1,0.015502818,1,-0.099496134,1
1.835927606,-5.285660267,1,-1.533971429,1,-5.838188648,1,0.6930857300758362,1,-0.458444506,1,0.2361395359039307,1,0.3854331374168396,1,0.013550043,1,-0.099463426,1
1.839925289,0.090645038,1,-7.843964577,1,-37.27068329,1,-0.382695526,1,-2.749906778,1,0.3108616769313812,1,0.3863865733146667,1,0.0081686,1,-0.100599825,1
1.843924999,38.78104019165039,1,0.3749797344207764,1,-5.807993889,1,0.4348621666431427,1,-2.99972415,1,0.4845364689826965,1,0.3866209983825684,1,-0.003383241,1,-0.10376814,1
1.847926497,10.82704830169678,1,-0.244085804,1,-11.48035336,1,0.043944955,1,-3.274885893,1,1.084652304649353,1,0.387334943,1,-0.016459411,1,-0.105383374,1
1.851923943,14.22953510284424,1,1.076518654823303,1,-10.79282284,1,0.6881877779960632,1,-3.538250208,1,1.371796131134033,1,0.3889594972133636,1,-0.030736571,1,-0.106079526,1
1.855923653,-2.123934031,1,0.8697400689125061,1,-10.33431816,1,0.6830746531486511,1,-3.815112829,1,1.544895411,1,0.3916781842708588,1,-0.046657007,1,-0.106164813,1
1.859925508,-11.31768322,1,0.4754243791103363,1,-13.27427578,1,0.9126943945884705,1,-4.057315826,1,1.311593413352966,1,0.3949170112609863,1,-0.063389763,1,-0.106916711,1
1.863923192,-14.90476608,1,-3.336154938,1,-14.94047928,1,0.9865731000900269,1,-4.197300434,1,1.150528669,1,0.398851603,1,-0.080564156,1,-0.108806424,1
1.867922902,-13.41585636,1,-3.336531878,1,-15.8938446,1,1.145288825035095,1,-4.069135189,1,1.024212718009949,1,0.4033620357513428,1,-0.097528942,1,-0.111283183,1
1.87192452,-12.38762379,1,-3.629008293,1,-15.69353008,1,1.254796504974365,1,-3.739141464,1,0.9123185873031616,1,0.4084256887435913,1,-0.113438174,1,-0.113929354,1
1.875922441,-12.89318943,1,-2.801055431,1,-15.62232971,1,1.342899799346924,1,-3.353699923,1,0.8208683133125305,1,0.4139210879802704,1,-0.127818182,1,-0.116447248,1
1.879928112,-13.09330559,1,-2.457189083,1,-15.47848892,1,1.426328301429749,1,-2.976409674,1,0.7790293097496033,1,0.4197845757007599,1,-0.1406838,1,-0.118682981,1
1.88392961,-12.40548229,1,-3.096684694,1,-14.80297756,1,1.479343653,1,-2.597384691,1,0.8003690242767334,1,0.425837368,1,-0.152143136,1,-0.120397143,1
1.887927294,-10.45511436,1,-4.043429852,1,-13.59599113,1,1.468638062477112,1,-2.24669075,1,0.8222647309303284,1,0.4319185316562653,1,-0.162288338,1,-0.121480599,1
1.891926765,-8.725388527,1,-4.371520042,1,-12.81149864,1,1.447784423828125,1,-1.931079626,1,0.8204041719436646,1,0.437853217,1,-0.171244159,1,-0.122004718,1
1.895928264,-7.16272068,1,-6.055073261,1,-11.37768364,1,1.403566479682922,1,-1.701287866,1,0.7732661366462708,1,0.4435733556747437,1,-0.179160148,1,-0.122220382,1
1.899926066,-6.14201498,1,-7.292092323,1,-10.18120289,1,1.330768942832947,1,-1.543799996,1,0.7098773717880249,1,0.4490803182125092,1,-0.186291903,1,-0.122330308,1
1.903925538,-5.442869186,1,-8.724406242,1,-9.19113636,1,1.221232295036316,1,-1.436000109,1,0.6136767268180847,1,0.454236627,1,-0.192796409,1,-0.122551329,1
1.907927275,-4.899939537,1,-9.920993805,1,-8.449671745,1,1.067835330963135,1,-1.327958822,1,0.5144572257995605,1,0.4588992595672607,1,-0.198738188,1,-0.122968383,1
1.911924958,-4.856510162,1,-10.96662426,1,-8.012825012,1,0.8755185604095459,1,-1.241642833,1,0.4276693165302277,1,0.4629281163215637,1,-0.204179466,1,-0.123598479,1
1.91592443,-4.678297997,1,-11.1817522,1,-7.648440838,1,0.6539953947067261,1,-1.144581318,1,0.3664079010486603,1,0.4661298394203186,1,-0.209138617,1,-0.124331653,1
1.919926286,-4.404532433,1,-10.89477634,1,-7.48367548,1,0.4261021912097931,1,-1.058273911,1,0.3222982883453369,1,0.4684597849845886,1,-0.213692009,1,-0.125110745,1
1.923923969,-3.973697186,1,-10.01976204,1,-7.400022984,1,0.2127163261175156,1,-0.978228033,1,0.2972066700458527,1,0.4698843061923981,1,-0.217890501,1,-0.125852615,1
1.927923441,-4.143431187,1,-9.292626381,1,-7.657265663,1,0.039428573,1,-0.913040698,1,0.27361384,1,0.4705546200275421,1,-0.221783414,1,-0.126578972,1
1.931925297,-4.220456123,1,-8.163393974,1,-7.97440052,1,-0.116595104,1,-0.839836478,1,0.2603673338890076,1,0.4705274105072021,1,-0.225408435,1,-0.127233565,1
1.93592298,-4.546127319,1,-7.157371044,1,-8.521261215,1,-0.222421408,1,-0.758968413,1,0.2409054189920425,1,0.469982773,1,-0.228710398,1,-0.127804428,1
1.93992269,-4.515267372,1,-5.829206467,1,-8.888730049,1,-0.281101465,1,-0.666686594,1,0.2058397531509399,1,0.4690643846988678,1,-0.231666133,1,-0.12830089,1
1.943924427,-4.597030163,1,-4.89665699,1,-9.25891304,1,-0.297724307,1,-0.588264108,1,0.1566725075244904,1,0.468006819,1,-0.234231234,1,-0.128800824,1
1.94792223,-4.471179962,1,-4.108139038,1,-9.535025597,1,-0.289763421,1,-0.508953452,1,0.1073073074221611,1,0.4670667350292206,1,-0.236344695,1,-0.130332649,1
1.95192194,-4.246459961,1,-3.321190357,1,-9.711549759,1,-0.24108313,1,-0.430144221,1,0.052790418,1,0.4661300480365753,1,-0.23816745,1,-0.130909756,1
1.955923438,-4.154589176,1,-2.706992865,1,-9.901537895,1,-0.175663322,1,-0.364479482,1,-0.011234255,1,0.4654480814933777,1,-0.239618078,1,-0.131561413,1
1.959921122,-4.04579401,1,-2.21641469,1,-10.14228058,1,-0.084143221,1,-0.303043067,1,-0.069650009,1,0.4651004374027252,1,-0.240740195,1,-0.132322401,1
1.963920951,-3.869540691,1,-1.702679634,1,-10.27488708,1,0.011129189,1,-0.246858016,1,-0.126005322,1,0.4651496410369873,1,-0.24154751,1,-0.133190036,1
1.967922449,-3.732969284,1,-1.404657841,1,-10.37218761,1,0.1113456934690475,1,-0.198871896,1,-0.189146981,1,0.4656367301940918,1,-0.242056981,1,-0.134180307,1
1.971920371,-3.511806488,1,-1.067748547,1,-10.43227577,1,0.224604532,1,-0.141642749,1,-0.234694704,1,0.4665752947330475,1,-0.24228327,1,-0.135274932,1
1.975919843,-3.373653889,1,-0.719141126,1,-10.52324867,1,0.3472073376178741,1,-0.098251112,1,-0.280931056,1,0.4679993391036987,1,-0.242247328,1,-0.136447757,1
1.97992146,-3.223330736,1,-0.530447662,1,-10.45693684,1,0.4656106531620026,1,-0.049290515,1,-0.313079745,1,0.4699165523052216,1,-0.241980374,1,-0.137679666,1
1.983919382,-3.097759008,1,-0.601912796,1,-10.340662,1,0.5897212624549866,1,-0.007111512,1,-0.336896628,1,0.472324401,1,-0.241477951,1,-0.138931543,1
1.987919092,-2.858674288,1,-0.897839129,1,-10.14111805,1,0.7101040482521057,1,0.032212719,1,-0.3574422,1,0.4752289652824402,1,-0.24079603,1,-0.140187487,1
1.99192059,-2.540666342,1,-1.340250492,1,-9.684667587,1,0.8047243356704712,1,0.062895544,1,-0.372688413,1,0.4785500764846802,1,-0.239965349,1,-0.141442373,1
1.995918393,-2.265392303,1,-2.138005733,1,-9.312059402,1,0.8917460441589355,1,0.073560275,1,-0.380966932,1,0.4822531044483185,1,-0.23902677,1,-0.142689511,1
1.999923944,-2.024717808,1,-2.915081501,1,-8.965370178,1,0.9432916641235352,1,0.074782118,1,-0.376491308,1,0.4862163066864014,1,-0.23805292,1,-0.143927857,1
2.0039258,-1.95991075,1,-3.729687691,1,-8.557747841,1,0.9634113311767578,1,0.074461669,1,-0.37176308,1,0.4903355240821838,1,-0.237087622,1,-0.145142436,1
2.007923365,-1.83411634,1,-4.479356766,1,-8.191176414,1,0.9726462960243225,1,0.06233032,1,-0.360529035,1,0.4944943487644196,1,-0.236153916,1,-0.146335915,1
2.011922836,-1.832055688,1,-5.064434052,1,-8.001532555,1,0.9511403441429138,1,0.056500692,1,-0.341574371,1,0.4986145794391632,1,-0.235275596,1,-0.147486344,1
2.015924692,-1.878975391,1,-5.589617729,1,-7.799768448,1,0.8930991291999817,1,0.044030108,1,-0.320960164,1,0.5025618076324463,1,-0.234464526,1,-0.148576081,1
2.019922495,-1.70188117,1,-5.890266895,1,-7.529658794,1,0.8499634861946106,1,0.036346648,1,-0.301410764,1,0.5062879920005798,1,-0.233734071,1,-0.149618998,1
2.023921967,-1.535630465,1,-6.119201183,1,-7.387106419,1,0.7845505475997925,1,0.011317179,1,-0.27071321,1,0.5097928643226624,1,-0.23309648,1,-0.150606558,1
2.027923822,-1.330525398,1,-6.276243687,1,-7.28568697,1,0.7184298634529114,1,-0.020188296,1,-0.234343871,1,0.5130095481872559,1,-0.232611462,1,-0.151505813,1
2.031921387,-1.210977554,1,-6.118439674,1,-7.13120842,1,0.6415980458259583,1,-0.0538164,1,-0.203861102,1,0.5159231424331665,1,-0.2323066,1,-0.152363241,1
2.035921097,-1.272105455,1,-6.143002987,1,-7.265024662,1,0.5818594098091125,1,-0.096470259,1,-0.163357496,1,0.5185605883598328,1,-0.232208326,1,-0.15318206,1
2.039922953,-1.319058418,1,-5.948361874,1,-7.348336697,1,0.5080986022949219,1,-0.1387133,1,-0.12849085,1,0.5209105610847473,1,-0.232320845,1,-0.153948322,1
2.043920755,-1.424917698,1,-5.696352959,1,-7.562978268,1,0.4432343542575836,1,-0.178009853,1,-0.098051757,1,0.5229862928390503,1,-0.232637852,1,-0.154671744,1
2.047920227,-1.767276883,1,-5.580849648,1,-7.513576031,1,0.396480381,1,-0.191678971,1,-0.068333305,1,0.5247922539710999,1,-0.23310928,1,-0.155355558,1
2.051921844,-1.964792967,1,-5.192677498,1,-8.015741348,1,0.393347442,1,-0.203805074,1,-0.05237557,1,0.5265334248542786,1,-0.233675152,1,-0.1559809,1
2.055919886,-2.283232689,1,-4.815360069,1,-8.322210312,1,0.3777809143066406,1,-0.198114485,1,-0.038483012,1,0.5282040238380432,1,-0.234280765,1,-0.156552464,1
2.059919357,-2.403583765,1,-4.586195946,1,-8.50477314,1,0.3804583847522736,1,-0.184641913,1,-0.039061509,1,0.5298440456390381,1,-0.234864205,1,-0.15709196,1
2.063920975,-2.579959631,1,-4.378538609,1,-8.704133987,1,0.3835701048374176,1,-0.167816013,1,-0.037130311,1,0.5314880013465881,1,-0.235403463,1,-0.157602206,1
2.067918777,-2.431488276,1,-4.078680515,1,-8.755977631,1,0.4210310280323029,1,-0.153678492,1,-0.058249779,1,0.5332027673721313,1,-0.235856861,1,-0.158105373,1
2.071918249,-2.634297609,1,-4.118126392,1,-8.795041084,1,0.4513417780399323,1,-0.138227597,1,-0.059335537,1,0.5350820422172546,1,-0.236244902,1,-0.15861626,1
2.075919867,-2.635412455,1,-4.213429928,1,-8.759767532,1,0.4556315243244171,1,-0.115871415,1,-0.078341566,1,0.5370237827301025,1,-0.236535877,1,-0.159132004,1
2.079917669,-2.719697475,1,-4.036931515,1,-8.857171059,1,0.4935484528541565,1,-0.100933008,1,-0.071306929,1,0.5390694737434387,1,-0.236754656,1,-0.159624964,1
2.083917379,-2.456228495,1,-4.093928337,1,-8.705691338,1,0.5411215424537659,1,-0.095942549,1,-0.090040259,1,0.5412573218345642,1,-0.236920774,1,-0.160116851,1
2.087918758,-2.23396492,1,-4.145106792,1,-8.502426147,1,0.566741407,1,-0.093509533,1,-0.088088587,1,0.5435982942581177,1,-0.237064138,1,-0.160627171,1
2.091916561,-2.128365517,1,-4.550262928,1,-8.540407181,1,0.5578349828720093,1,-0.10340029,1,-0.086906947,1,0.5459884405136108,1,-0.23721233,1,-0.161152259,1
2.095916033,-1.923531294,1,-4.522871017,1,-8.216397285,1,0.5972534418106079,1,-0.113696888,1,-0.080496185,1,0.548421323,1,-0.237407818,1,-0.161672592,1
2.099917889,-2.041081905,1,-5.088372707,1,-8.00356102,1,0.5970451831817627,1,-0.129141048,1,-0.05736582,1,0.5509429574012756,1,-0.237680122,1,-0.162182391,1
2.103915453,-1.99081552,1,-5.355763912,1,-7.928046227,1,0.5643272399902344,1,-0.142050296,1,-0.04305179,1,0.5533933639526367,1,-0.238029614,1,-0.162647799,1
2.107914925,-1.717302918,1,-5.527178764,1,-7.58484602,1,0.5436325669288635,1,-0.156536549,1,-0.035824977,1,0.5557073354721069,1,-0.238454893,1,-0.163110137,1
2.11191678,-1.840230823,1,-6.149089336,1,-7.277802467,1,0.5157415270805359,1,-0.181510821,1,-0.006765078,1,0.5579276084899902,1,-0.238973796,1,-0.163569584,1
2.115914583,-1.648056149,1,-6.137309551,1,-7.316318035,1,0.4669932723045349,1,-0.211136281,1,0.013424353,1,0.5600016117095947,1,-0.239650413,1,-0.16398865,1
2.119920015,-1.776188135,1,-6.240668774,1,-7.26432991,1,0.4026355147361755,1,-0.23722744,1,0.031785566,1,0.561844528,1,-0.240458667,1,-0.164410248,1
2.123921871,-1.548862934,1,-6.119580269,1,-7.257679939,1,0.3633780479431152,1,-0.273491591,1,0.049121749,1,0.563473105,1,-0.241412938,1,-0.164828092,1
2.127919674,-1.588067174,1,-6.121873856,1,-7.309560299,1,0.3188991844654083,1,-0.309680492,1,0.080811143,1,0.5649423599243164,1,-0.242535755,1,-0.165235341,1
2.131919384,-1.697632194,1,-5.87959671,1,-7.403953552,1,0.2723533809185028,1,-0.337791055,1,0.1082054302096367,1,0.5662189722061157,1,-0.243843406,1,-0.165616944,1
2.13592124,-1.858154774,1,-5.64796257,1,-7.514809132,1,0.2268738746643066,1,-0.366642386,1,0.1368404626846313,1,0.567298412,1,-0.245292842,1,-0.165962279,1
2.139918804,-1.860917807,1,-5.556155682,1,-7.658043385,1,0.2134283632040024,1,-0.382392317,1,0.150073305,1,0.5682551860809326,1,-0.246862605,1,-0.166297302,1
2.143918514,-2.000493765,1,-5.392608166,1,-7.766365051,1,0.1911901235580444,1,-0.4050138,1,0.1735811829566956,1,0.569141686,1,-0.248544857,1,-0.166612044,1
2.14792037,-2.126457453,1,-5.258367062,1,-7.868416309,1,0.1852479726076126,1,-0.414038062,1,0.1778631061315536,1,0.5699700713157654,1,-0.250296772,1,-0.166913047,1
2.151918173,-2.344933748,1,-5.158295155,1,-8.031312943,1,0.1747580915689468,1,-0.425823003,1,0.1930429637432098,1,0.5707592964172363,1,-0.25212121,1,-0.167210475,1
2.155917645,-2.546135187,1,-5.157053947,1,-8.231944084,1,0.1637322157621384,1,-0.424358159,1,0.1962732374668121,1,0.5715188384056091,1,-0.253972083,1,-0.167492792,1
2.159919024,-2.448293447,1,-4.945771694,1,-8.141274452,1,0.1732900887727737,1,-0.423067957,1,0.1960740983486176,1,0.5722395777702332,1,-0.25583005,1,-0.167758092,1
2.163917065,-2.507071018,1,-5.090371132,1,-8.141879082,1,0.1777866333723068,1,-0.41833955,1,0.2022246420383453,1,0.5730165839195251,1,-0.257677704,1,-0.168010101,1
2.167916536,-2.494009256,1,-4.992762089,1,-8.148809433,1,0.1813198775053024,1,-0.414653629,1,0.2045047134160995,1,0.5737923979759216,1,-0.259517193,1,-0.168234706,1
2.171918154,-2.558276176,1,-5.063158035,1,-8.123725891,1,0.1780252158641815,1,-0.420388103,1,0.1995932161808014,1,0.574575663,1,-0.261363,1,-0.168469965,1
2.175915718,-2.710862398,1,-5.146019936,1,-8.227536201,1,0.1631969660520554,1,-0.424781919,1,0.2059167474508286,1,0.5753348469734192,1,-0.263227612,1,-0.168719023,1
2.17991519,-2.583832979,1,-5.177423954,1,-8.100552559,1,0.1708981096744537,1,-0.422847837,1,0.1993941217660904,1,0.5760651826858521,1,-0.26508376,1,-0.168969303,1
2.183916807,-2.672646999,1,-5.309709549,1,-8.018388748,1,0.1657266616821289,1,-0.420220971,1,0.2033872604370117,1,0.5768123865127563,1,-0.266937464,1,-0.169222966,1
2.18791461,-2.594651937,1,-5.411233902,1,-7.933529854,1,0.1490681618452072,1,-0.415545791,1,0.2044476419687271,1,0.5775064826011658,1,-0.268771976,1,-0.169463098,1
2.191914082,-2.544784546,1,-5.351191521,1,-7.859854698,1,0.1327339261770248,1,-0.419495493,1,0.2056680917739868,1,0.5781342387199402,1,-0.270617843,1,-0.169692919,1
2.195915699,-2.533395529,1,-5.378046036,1,-7.845353127,1,0.1178742796182632,1,-0.425115049,1,0.2120678275823593,1,0.5780396461486816,1,-0.272559792,1,-0.170644537,1
2.199913502,-2.530197859,1,-5.497034073,1,-7.851995945,1,0.093468763,1,-0.432417184,1,0.2215511351823807,1,0.5785232782363892,1,-0.274465442,1,-0.170867279,1
2.203912973,-2.336127043,1,-5.272092342,1,-7.847658157,1,0.072395809,1,-0.435653746,1,0.2247121036052704,1,0.5788881778717041,1,-0.27640456,1,-0.171064332,1
2.207914829,-2.283561945,1,-5.388772011,1,-7.812348843,1,0.072452612,1,-0.454604536,1,0.2435590475797653,1,0.5792459845542908,1,-0.278404534,1,-0.171261117,1
2.211912394,-2.154860497,1,-5.270803928,1,-7.803469181,1,0.067832671,1,-0.470365047,1,0.2556919753551483,1,0.5795698761940002,1,-0.280494153,1,-0.171448886,1
2.215911865,-2.183361769,1,-5.372307301,1,-7.649253845,1,0.05820683,1,-0.496631503,1,0.2663106322288513,1,0.5798659920692444,1,-0.282698572,1,-0.171637312,1
2.219913721,-2.496025085,1,-5.135065079,1,-7.90952301,1,0.060742158,1,-0.511071444,1,0.2758617401123047,1,0.5801627039909363,1,-0.28497541,1,-0.171845555,1
2.223911524,-2.820722818,1,-5.129237175,1,-8.064551353,1,0.055167671,1,-0.514648199,1,0.2818701565265656,1,0.580460787,1,-0.287299931,1,-0.172047406,1
2.227911234,-3.023565054,1,-4.924686432,1,-8.113957405,1,0.057587851,1,-0.505605817,1,0.2734287977218628,1,0.5807501673698425,1,-0.289622426,1,-0.172251612,1
2.231912851,-3.134546518,1,-4.758867264,1,-8.157468796,1,0.060680296,1,-0.499897331,1,0.2668279111385345,1,0.5810540914535522,1,-0.291898429,1,-0.172465101,1
2.235910654,-3.093739271,1,-4.841261864,1,-8.174450874,1,0.076063178,1,-0.491661847,1,0.2559877634048462,1,0.5813838243484497,1,-0.294123411,1,-0.172689602,1
2.239916325,-3.112786055,1,-4.919911861,1,-8.131676674,1,0.095048532,1,-0.47503081,1,0.2487030923366547,1,0.5818051695823669,1,-0.29629153,1,-0.172922641,1
2.243917942,-3.11371851,1,-5.030531406,1,-8.0483675,1,0.1038962677121162,1,-0.462744951,1,0.2409965097904205,1,0.582271397,1,-0.298386455,1,-0.173143372,1
2.247915506,-3.163122654,1,-5.180976391,1,-7.992117405,1,0.1072120368480682,1,-0.458492815,1,0.2331431061029434,1,0.582762599,1,-0.300444365,1,-0.173377156,1
2.251915216,-3.233792543,1,-5.283195972,1,-7.938112736,1,0.104096308,1,-0.442338198,1,0.2325848937034607,1,0.5832560658454895,1,-0.302458704,1,-0.173596829,1
2.255916834,-3.350293875,1,-5.05264616,1,-7.93083334,1,0.088570982,1,-0.427411616,1,0.2268936187028885,1,0.583703339,1,-0.304413974,1,-0.173797637,1
2.259914398,-3.291365862,1,-5.386995792,1,-7.842879295,1,0.086512022,1,-0.41126287,1,0.2235449999570847,1,0.5841084718704224,1,-0.306304574,1,-0.17398411,1
2.263914347,-3.711125612,1,-6.04399538,1,-7.862777233,1,0.060158219,1,-0.375600636,1,0.2357773035764694,1,0.5844530463218689,1,-0.308126241,1,-0.17409353,1
2.267915964,-4.103248119,1,-6.597306728,1,-7.530731201,1,0.003029905,1,-0.312209457,1,0.239429384,1,0.5845599770545959,1,-0.309811831,1,-0.174042955,1
2.271914005,-3.880837917,1,-6.321307659,1,-7.354656219,1,-0.038603034,1,-0.272632688,1,0.2090500593185425,1,0.5844425559043884,1,-0.311276078,1,-0.173924938,1
2.275913715,-3.22101593,1,-6.089924335,1,-7.301341534,1,-0.071923889,1,-0.249773264,1,0.1986277848482132,1,0.5841891765594482,1,-0.312592924,1,-0.173823029,1
2.279915333,-2.879709959,1,-5.69108057,1,-7.372502327,1,-0.10970366,1,-0.244446501,1,0.2111285179853439,1,0.5837864279747009,1,-0.313869625,1,-0.173688754,1
2.283912897,-2.883279324,1,-5.661366463,1,-7.514270782,1,-0.138972402,1,-0.234212413,1,0.2286200523376465,1,0.5832172036170959,1,-0.315151572,1,-0.17347388,1
2.287912369,-2.977786064,1,-5.528362274,1,-7.536806107,1,-0.17355074,1,-0.220072836,1,0.2441248893737793,1,0.582504928,1,-0.316434264,1,-0.173163414,1
2.291914225,-2.974111319,1,-5.548072338,1,-7.451929092,1,-0.20234032,1,-0.206616223,1,0.256252259,1,0.5816349983215332,1,-0.317698002,1,-0.172772422,1
2.295912266,-3.008974552,1,-5.599537373,1,-7.410838127,1,-0.238582596,1,-0.194471776,1,0.2723572552204132,1,0.5806159973144531,1,-0.318958461,1,-0.172311723,1
2.299911737,-3.006217241,1,-5.618975639,1,-7.382927895,1,-0.268526644,1,-0.185318753,1,0.2821414768695831,1,0.5794329047203064,1,-0.320205569,1,-0.171772465,1
2.303913116,-2.877173662,1,-5.594614506,1,-7.372345448,1,-0.308179796,1,-0.175003514,1,0.3021022975444794,1,0.5780912637710571,1,-0.321442336,1,-0.171161681,1
2.307910919,-2.794049025,1,-5.592545033,1,-7.383654594,1,-0.353388906,1,-0.16630803,1,0.3244707882404327,1,0.5765461921691895,1,-0.322701275,1,-0.170446709,1
2.311910391,-2.776114464,1,-5.696311474,1,-7.308300018,1,-0.395893842,1,-0.168905988,1,0.3553496,1,0.5747926831245422,1,-0.324006617,1,-0.169626445,1
2.315912008,-2.746716261,1,-5.672046661,1,-7.2894454,1,-0.43411535,1,-0.169651255,1,0.3888531625270844,1,0.5728372931480408,1,-0.325389743,1,-0.168697581,1
2.319909334,-2.735964775,1,-5.739458561,1,-7.261887074,1,-0.482980669,1,-0.170806065,1,0.4165264070034027,1,0.5706627368927002,1,-0.326835454,1,-0.167654976,1
2.323909044,-2.798732758,1,-5.651900768,1,-7.31199789,1,-0.530147493,1,-0.162162498,1,0.4446099400520325,1,0.5682625770568848,1,-0.32833004,1,-0.166495577,1
2.327910662,-2.840847492,1,-5.58589077,1,-7.386078835,1,-0.577922702,1,-0.155792043,1,0.4752470850944519,1,0.565636158,1,-0.329855621,1,-0.165213451,1
2.331908464,-2.778817654,1,-5.486354351,1,-7.430562973,1,-0.61691314,1,-0.152448803,1,0.5067590475082397,1,0.5627977848052979,1,-0.331436872,1,-0.163812563,1
2.335908175,-2.895315647,1,-5.41721487,1,-7.548937321,1,-0.648407817,1,-0.146934628,1,0.5323480367660522,1,0.5597736835479736,1,-0.333051741,1,-0.162300184,1
2.339909792,-2.952730179,1,-5.32015276,1,-7.551219463,1,-0.669684172,1,-0.159325704,1,0.5481277108192444,1,0.5566179752349854,1,-0.334722936,1,-0.1607133,1
2.343907595,-3.050822973,1,-5.042173862,1,-7.690541744,1,-0.684402406,1,-0.166621581,1,0.5528340935707092,1,0.5533768534660339,1,-0.336428881,1,-0.159094647,1
2.347907066,-3.157684326,1,-4.608442783,1,-7.956733704,1,-0.693603277,1,-0.172832444,1,0.5551501512527466,1,0.5500866770744324,1,-0.338171184,1,-0.157470733,1
2.351908684,-3.339858294,1,-4.231367111,1,-8.309604645,1,-0.670223355,1,-0.196083575,1,0.528803289,1,0.5468346476554871,1,-0.339929283,1,-0.155929416,1
2.355906487,-3.547809601,1,-3.919243574,1,-8.520706177,1,-0.634388924,1,-0.213978112,1,0.4865483641624451,1,0.5437571406364441,1,-0.341687202,1,-0.154540822,1
2.359912157,-3.651806355,1,-3.800524473,1,-8.587517738,1,-0.58759439,1,-0.219607487,1,0.4552697241306305,1,0.5408868193626404,1,-0.343398511,1,-0.15329726,1
2.363913774,-3.618742704,1,-3.851818562,1,-8.588741302,1,-0.550078988,1,-0.216918647,1,0.4330232739448547,1,0.5382176041603088,1,-0.345057249,1,-0.152149037,1
2.367911577,-3.4443748,1,-3.900181055,1,-8.542104721,1,-0.512801528,1,-0.214835584,1,0.4069788157939911,1,0.5357444286346436,1,-0.346655369,1,-0.151096597,1
2.371911049,-3.284199476,1,-4.080843925,1,-8.465582848,1,-0.480250388,1,-0.230154738,1,0.3920350968837738,1,0.5334276556968689,1,-0.348241925,1,-0.150115237,1
2.375912666,-3.260178089,1,-4.252590179,1,-8.360124588,1,-0.448263019,1,-0.241510183,1,0.3781823813915253,1,0.5312638282775879,1,-0.34983927,1,-0.149211809,1
2.379910469,-3.330156803,1,-4.318684578,1,-8.311751366,1,-0.424530327,1,-0.261360377,1,0.3648816347122192,1,0.529236376,1,-0.351457983,1,-0.148378804,1
2.383909941,-3.360073328,1,-4.329455853,1,-8.274795532,1,-0.402262181,1,-0.265821815,1,0.358629972,1,0.5273184776306152,1,-0.353098452,1,-0.14761439,1
2.387911797,-3.30953455,1,-4.3549757,1,-8.245652199,1,-0.384585917,1,-0.279257327,1,0.3528281450271606,1,0.5254963636398315,1,-0.354756117,1,-0.146886989,1
2.391909361,-3.286923409,1,-4.354401588,1,-8.221385956,1,-0.37632364,1,-0.286043882,1,0.3520325124263763,1,0.5237303972244263,1,-0.356436104,1,-0.146186218,1
2.395908833,-3.264359951,1,-4.523823261,1,-8.120966911,1,-0.371797651,1,-0.296435058,1,0.3533912003040314,1,0.5219990015029907,1,-0.358151972,1,-0.145504892,1
2.399910688,-3.177061081,1,-4.588446617,1,-8.009010315,1,-0.37427184,1,-0.311161637,1,0.3599503934383392,1,0.5202686190605164,1,-0.359916717,1,-0.144836217,1
2.403908253,-3.106005669,1,-4.75705862,1,-7.913341522,1,-0.381341755,1,-0.318813115,1,0.3688518702983856,1,0.5185086131095886,1,-0.361728549,1,-0.144137323,1
2.407907724,-3.104127645,1,-4.867959976,1,-7.811083317,1,-0.395849824,1,-0.330397904,1,0.3849495947360992,1,0.5167031288146973,1,-0.363595009,1,-0.143426359,1
2.411909342,-3.100363255,1,-4.94362545,1,-7.770386219,1,-0.419824481,1,-0.346802205,1,0.4004234969615936,1,0.5148035883903503,1,-0.365552068,1,-0.14267832,1
2.415907145,-3.094581842,1,-5.009346008,1,-7.731826782,1,-0.457040757,1,-0.358501703,1,0.4201874732971191,1,0.5127806663513184,1,-0.36758557,1,-0.14189598,1
2.419906616,-3.106790543,1,-5.042816639,1,-7.675222874,1,-0.491269946,1,-0.375500768,1,0.4399891793727875,1,0.5105841755867004,1,-0.369708419,1,-0.141057178,1
2.423908234,-3.168506145,1,-5.113329411,1,-7.62655592,1,-0.523430228,1,-0.386886269,1,0.4583094120025635,1,0.5082374215126038,1,-0.371917218,1,-0.140180573,1
2.427906036,-3.227965832,1,-5.099042892,1,-7.576190948,1,-0.56715405,1,-0.40844205,1,0.4780876934528351,1,0.5057258009910583,1,-0.374227047,1,-0.139257014,1
2.431905746,-3.186460733,1,-5.015484333,1,-7.662901402,1,-0.604664922,1,-0.419748813,1,0.4980972707271576,1,0.5030232667922974,1,-0.376619816,1,-0.138274521,1
2.435907364,-3.182819605,1,-4.95507288,1,-7.715251446,1,-0.643817306,1,-0.438049972,1,0.5215537548065186,1,0.5001468658447266,1,-0.379110068,1,-0.137241825,1
2.43990469,-3.257898092,1,-4.924720764,1,-7.901081562,1,-0.652988493,1,-0.441397756,1,0.5364890098571777,1,0.4971440732479095,1,-0.381661236,1,-0.136146218,1
2.4439044,-3.643854856,1,-4.638760567,1,-8.072546959,1,-0.62774092,1,-0.433350772,1,0.5506576895713806,1,0.4944493174552917,1,-0.384123504,1,-0.135080218,1
2.447906017,-4.026819229,1,-4.014325142,1,-8.31659317,1,-0.583858907,1,-0.412896127,1,0.5445747375488281,1,0.491566539,1,-0.386640489,1,-0.134721488,1
2.45190382,-4.253894806,1,-3.597615957,1,-8.411467552,1,-0.549835265,1,-0.389196754,1,0.5231801271438599,1,0.4888336062431335,1,-0.389065206,1,-0.133502394,1
2.45590353,-4.215647221,1,-3.563537598,1,-8.535113335,1,-0.511808455,1,-0.361977637,1,0.5037776231765747,1,0.4862456321716309,1,-0.391346693,1,-0.13228935,1
2.459904909,-4.026751995,1,-3.65965271,1,-8.541055679,1,-0.453538835,1,-0.348463446,1,0.4995409548282623,1,0.4838500916957855,1,-0.393543601,1,-0.13107653,1
2.46390295,-3.909888029,1,-3.723276854,1,-8.49992466,1,-0.407907337,1,-0.343824208,1,0.4882509410381317,1,0.4816626310348511,1,-0.395685434,1,-0.129874706,1
2.46790266,-3.810476303,1,-3.769396305,1,-8.471624374,1,-0.372047514,1,-0.339637816,1,0.481669158,1,0.4796449542045593,1,-0.397790611,1,-0.128694817,1
2.471904278,-3.907324553,1,-3.622484207,1,-8.526717186,1,-0.335949451,1,-0.338311017,1,0.470431387,1,0.4777789115905762,1,-0.399874687,1,-0.127536893,1
2.475901842,-4.049545288,1,-3.529191971,1,-8.602454185,1,-0.294924468,1,-0.333721936,1,0.466643214,1,0.4760766327381134,1,-0.401935935,1,-0.126403913,1
2.479901552,-4.015813828,1,-3.560194254,1,-8.655076027,1,-0.244222343,1,-0.334944695,1,0.4525341987609863,1,0.4745663106441498,1,-0.403960407,1,-0.125296339,1
2.483909369,-3.779929399,1,-3.537210226,1,-8.832185745,1,-0.216790915,1,-0.345532149,1,0.4394914209842682,1,0.4732360243797302,1,-0.405969113,1,-0.124236554,1
2.48791337,-3.667364836,1,-3.577086687,1,-8.722559929,1,-0.187800705,1,-0.381813616,1,0.4246029555797577,1,0.4720209836959839,1,-0.408055604,1,-0.123281881,1
2.491913557,-3.866482258,1,-3.588762522,1,-8.697229385,1,-0.150849923,1,-0.395993292,1,0.4128541648387909,1,0.4710164964199066,1,-0.4101969,1,-0.122425824,1
2.495915174,-3.986994982,1,-3.430248022,1,-8.724608421,1,-0.112204351,1,-0.412626415,1,0.4045767784118652,1,0.4701707661151886,1,-0.412375093,1,-0.121629283,1
2.499912977,-4.064256191,1,-3.337633371,1,-8.743092537,1,-0.078613356,1,-0.413693279,1,0.3829981982707977,1,0.4695014655590057,1,-0.414560735,1,-0.120906502,1
2.503912449,-4.054369926,1,-3.392422915,1,-8.757540703,1,-0.053203847,1,-0.432343453,1,0.3683147430419922,1,0.4689866900444031,1,-0.416746408,1,-0.120279677,1
2.507914066,-3.630729437,1,-3.981066227,1,-9.35959816,1,-0.099664368,1,-0.485549271,1,0.3584833443164825,1,0.4685029983520508,1,-0.419015616,1,-0.119772397,1
2.511911631,-3.141683102,1,-4.058628559,1,-8.981095314,1,-0.121178314,1,-0.560527563,1,0.3643319010734558,1,0.46787414,1,-0.421541274,1,-0.119392596,1
2.515911341,-3.666072607,1,-4.213438034,1,-8.596609116,1,-0.104553297,1,-0.584834278,1,0.3879678845405579,1,0.4672913253307343,1,-0.424263924,1,-0.119050458,1
2.519913197,-4.011193752,1,-3.913395882,1,-8.582475662,1,-0.082416974,1,-0.603306055,1,0.3919055461883545,1,0.4667572975158691,1,-0.427089244,1,-0.118691064,1
2.523910999,-4.332589149,1,-3.534627199,1,-8.586903572,1,-0.056923307,1,-0.599873185,1,0.3823297023773193,1,0.4663363695144653,1,-0.4299362,1,-0.11836455,1
2.527910471,-4.357308865,1,-3.198527336,1,-8.664712906,1,-0.032906957,1,-0.5993433,1,0.3656749427318573,1,0.4660421013832092,1,-0.432751805,1,-0.118074715,1
2.53191185,-4.36930418,1,-3.205046177,1,-8.732532501,1,0.00127714,1,-0.59903127,1,0.3500310182571411,1,0.4658864736557007,1,-0.43553555,1,-0.117851794,1
2.535909653,-4.406956196,1,-3.128806591,1,-8.588142395,1,0.041356266,1,-0.597083986,1,0.3267468512058258,1,0.4659067392349243,1,-0.438285291,1,-0.117709741,1
2.539909363,-4.212986946,1,-3.506105185,1,-8.520877838,1,0.070574239,1,-0.603074789,1,0.3213298320770264,1,0.4660986959934235,1,-0.441003859,1,-0.117627174,1
2.54391098,-4.063732147,1,-3.868505478,1,-8.422159195,1,0.092101134,1,-0.613641858,1,0.3181141018867493,1,0.4664084911346436,1,-0.443752229,1,-0.117585681,1
2.547908545,-4.12233305,1,-3.82870841,1,-8.39398098,1,0.1223148182034492,1,-0.626641929,1,0.324160248,1,0.4668276906013489,1,-0.446544915,1,-0.117548674,1
2.551908255,-4.277257919,1,-3.65764904,1,-8.342683792,1,0.1375109255313873,1,-0.623445749,1,0.3260359168052673,1,0.4673367142677307,1,-0.449361563,1,-0.117505617,1
2.555909872,-4.268994331,1,-3.719894648,1,-8.314330101,1,0.1543293446302414,1,-0.626740754,1,0.3291771411895752,1,0.4679060876369476,1,-0.452183962,1,-0.117451362,1
2.559907913,-4.179987431,1,-3.808047056,1,-8.278151512,1,0.1435456424951553,1,-0.642246485,1,0.3253424167633057,1,0.4684836268424988,1,-0.455038369,1,-0.117433399,1
2.563907623,-4.165660381,1,-3.918833733,1,-8.20972538,1,0.1417721658945084,1,-0.660546601,1,0.3291493356227875,1,0.4690744876861572,1,-0.457953572,1,-0.117446907,1
2.567909002,-4.158437729,1,-4.004740238,1,-8.186546326,1,0.139012411,1,-0.667645574,1,0.3387798964977264,1,0.469651997,1,-0.460923135,1,-0.117455766,1
2.571906805,-4.061460495,1,-4.145446777,1,-8.19159317,1,0.127956212,1,-0.685892999,1,0.3501175940036774,1,0.4701928496360779,1,-0.463949651,1,-0.117467292,1
2.575906277,-4.138081074,1,-4.166749954,1,-8.157559395,1,0.1128588616847992,1,-0.696171701,1,0.357727975,1,0.4706735014915466,1,-0.467054188,1,-0.117454566,1
2.579908133,-4.173501492,1,-3.990462303,1,-8.206001282,1,0.097439654,1,-0.720070124,1,0.3649932146072388,1,0.4710980355739594,1,-0.470237285,1,-0.117443308,1
2.583905697,-4.154661179,1,-4.030770302,1,-8.300338745,1,0.086358033,1,-0.740887165,1,0.3745154440402985,1,0.4714653193950653,1,-0.473511994,1,-0.117448598,1
2.587905169,-4.184299469,1,-4.073793888,1,-8.229744911,1,0.064504974,1,-0.763309002,1,0.3879786133766174,1,0.4717728793621063,1,-0.476879627,1,-0.117457122,1
2.591907024,-4.161975384,1,-4.126946926,1,-8.195908546,1,0.041219883,1,-0.785054743,1,0.4025734066963196,1,0.4719783067703247,1,-0.480353236,1,-0.117451578,1
2.595904827,-4.146502495,1,-4.193065166,1,-8.322644234,1,0.01701244,1,-0.816154301,1,0.4118599593639374,1,0.4721074402332306,1,-0.483937681,1,-0.117457353,1
2.599904299,-4.156829357,1,-4.198155403,1,-8.250162125,1,-0.005760001,1,-0.842163503,1,0.4269585013389587,1,0.4721245467662811,1,-0.487654328,1,-0.117471069,1
2.603911877,-4.165830135,1,-4.2388978,1,-8.313097,1,-0.029132433,1,-0.872692823,1,0.4482746422290802,1,0.4720534682273865,1,-0.491505802,1,-0.117471606,1
2.607915878,-4.119501114,1,-4.32202673,1,-8.339266777,1,-0.053424165,1,-0.90908581,1,0.4722728729248047,1,0.4718771278858185,1,-0.495506585,1,-0.117457725,1
2.611915827,-4.067819118,1,-4.384034634,1,-8.474124908,1,-0.067991577,1,-0.952840805,1,0.4927484691143036,1,0.4716143012046814,1,-0.499685109,1,-0.117431067,1
2.615917206,-4.053876877,1,-4.558744907,1,-8.581947327,1,-0.09301123,1,-0.997487426,1,0.5181910991668701,1,0.4712746441364288,1,-0.504074812,1,-0.117395677,1
2.61991477,-3.978443146,1,-4.470153809,1,-8.584038734,1,-0.113382384,1,-1.054403543,1,0.5508583188056946,1,0.4708495438098907,1,-0.508708,1,-0.117351785,1
2.62391448,-3.977434635,1,-4.539848804,1,-8.632099152,1,-0.140482962,1,-1.118523359,1,0.5780141949653625,1,0.4703294038772583,1,-0.513602674,1,-0.117298134,1
2.627916098,-3.973028898,1,-4.740235329,1,-8.637546539,1,-0.163437903,1,-1.183096886,1,0.6177583336830139,1,0.4696871340274811,1,-0.518788397,1,-0.117249422,1
2.631913662,-3.893756151,1,-4.810269356,1,-8.668627739,1,-0.187222973,1,-1.253036857,1,0.6590117216110229,1,0.4689532518386841,1,-0.524285376,1,-0.117165253,1
2.635913134,-4.016755581,1,-4.658537388,1,-8.673747063,1,-0.19923006,1,-1.327804446,1,0.7005168199539185,1,0.4681307077407837,1,-0.530114472,1,-0.117069557,1
2.639914751,-4.013460636,1,-4.612032413,1,-8.613070488,1,-0.228177458,1,-1.395054936,1,0.7316799163818359,1,0.4672114551067352,1,-0.536273956,1,-0.116957277,1
2.643912554,-4.091692924,1,-4.57780838,1,-8.76551342,1,-0.252966017,1,-1.468848586,1,0.7664695382118225,1,0.4661957621574402,1,-0.542736769,1,-0.116839364,1
2.647912025,-4.063096046,1,-4.582721233,1,-8.919293404,1,-0.269105434,1,-1.552921057,1,0.8021249771118164,1,0.4650855958461761,1,-0.549540341,1,-0.116731115,1
2.651913404,-4.072634697,1,-4.549427986,1,-9.168199539,1,-0.28861481,1,-1.649496198,1,0.8411813378334045,1,0.4639087915420532,1,-0.556737304,1,-0.116645925,1
2.655911446,-3.836297274,1,-4.679877758,1,-9.903380394,1,-0.275649846,1,-1.763914108,1,0.9006726145744324,1,0.4627501368522644,1,-0.564398289,1,-0.116575174,1
2.659910917,-3.453994513,1,-5.006637573,1,-10.92338562,1,-0.251605511,1,-1.926600218,1,0.9687677025794983,1,0.4616532325744629,1,-0.572657406,1,-0.116523877,1
2.663912535,-3.298288107,1,-5.030579567,1,-11.99141407,1,-0.225170672,1,-2.151001453,1,1.038945913314819,1,0.4607185125350952,1,-0.581749618,1,-0.116563924,1
2.667910099,-3.354779243,1,-5.332127571,1,-12.73585129,1,-0.211097702,1,-2.445715666,1,1.132913112640381,1,0.4599989950656891,1,-0.591871262,1,-0.116798528,1
2.671909571,-2.991885662,1,-6.184840202,1,-12.32025242,1,-0.173156291,1,-2.678899765,1,1.220525026321411,1,0.4594615995883942,1,-0.603126645,1,-0.117211871,1
2.675911427,-2.865235567,1,-7.589287758,1,-11.76925182,1,-0.180533782,1,-2.943251848,1,1.360753417015076,1,0.4590014517307281,1,-0.615535676,1,-0.117672838,1
2.679909229,-3.091438293,1,-8.424596786,1,-11.46319771,1,-0.197650716,1,-3.203217983,1,1.533891797065735,1,0.4584240913391113,1,-0.629137516,1,-0.11798352,1
2.683908701,-3.348266602,1,-8.894316673,1,-11.32826424,1,-0.223108813,1,-3.419244289,1,1.721827030181885,1,0.4576184451580048,1,-0.643884301,1,-0.118004866,1
2.687910318,-3.733719826,1,-8.949320793,1,-11.14439487,1,-0.256416619,1,-3.619369268,1,1.928440451622009,1,0.4564210176467896,1,-0.659735501,1,-0.117587402,1
2.691908121,-4.170993805,1,-9.073684692,1,-11.07666111,1,-0.269614071,1,-3.814917088,1,2.131391286849976,1,0.4547756910324097,1,-0.676666915,1,-0.116626948,1
2.695907593,-5.015662193,1,-9.614621162,1,-10.95158482,1,-0.300128549,1,-3.984747171,1,2.351873874664307,1,0.4527413547039032,1,-0.694596171,1,-0.115962349,1
2.699909449,-5.131803513,1,-9.670639038,1,-10.85545921,1,-0.343312114,1,-4.152274132,1,2.571267366409302,1,0.449942023,1,-0.713536739,1,-0.113653898,1
2.703907013,-5.757108688,1,-9.594385147,1,-10.9477005,1,-0.396479964,1,-4.307193756,1,2.801339626312256,1,0.4463819861412048,1,-0.733445644,1,-0.110516511,1
2.707906723,-6.525529385,1,-9.515974998,1,-10.86516571,1,-0.421250105,1,-4.427366257,1,3.037740468978882,1,0.4419480264186859,1,-0.754250109,1,-0.106392711,1
2.71190834,-6.704380989,1,-9.105996132,1,-10.54503345,1,-0.401402205,1,-4.523842812,1,3.252964973449707,1,0.4366760849952698,1,-0.775811136,1,-0.101172619,1
2.715906143,-8.016199112,1,-9.299168587,1,-10.65069962,1,-0.429902256,1,-4.551899433,1,3.482544898986816,1,0.4304185807704926,1,-0.797955573,1,-0.09467122,1
2.719905853,-8.973625183,1,-9.365716934,1,-10.70674229,1,-0.507592797,1,-4.478074551,1,3.636776208877563,1,0.4227730333805084,1,-0.820308208,1,-0.086697236,1
2.723913431,-10.55586147,1,-9.001613617,1,-10.58040047,1,-0.58213222,1,-4.36532402,1,3.753735780715942,1,0.4136427938938141,1,-0.842471421,1,-0.077298112,1
2.727916956,-14.04550838,1,-9.168297768,1,-11.49877262,1,-0.67404151,1,-4.175592422,1,3.824968099594116,1,0.4030185043811798,1,-0.864199281,1,-0.066502862,1
2.731917143,-13.37799263,1,-9.68333149,1,-11.69688702,1,-0.881211638,1,-3.973163843,1,3.978031396865845,1,0.3902559280395508,1,-0.8852247,1,-0.053897031,1
2.735918522,-10.41421509,1,-9.993905067,1,-11.63375473,1,-1.104632735,1,-3.915799618,1,4.121308804,1,0.3748480081558228,1,-0.905891538,1,-0.039252792,1
2.739916325,-9.874629974,1,-10.79848194,1,-11.94616985,1,-1.303376555,1,-3.900275469,1,4.237503051757813,1,0.3569868803024292,1,-0.926471949,1,-0.022806926,1
2.743915796,-9.688179016,1,-10.63480759,1,-11.58350849,1,-1.498023152,1,-3.849537373,1,4.337624073028564,1,0.3366298079490662,1,-0.946872234,1,-0.004489561,1
2.747917414,-9.211885452,1,-10.295084,1,-10.70700932,1,-1.734133601,1,-3.769500494,1,4.403337955474854,1,0.3135638236999512,1,-0.966902673,1,0.015842125,1
2.751915216,-9.516565323,1,-8.731360435,1,-9.743124008,1,-1.951616764,1,-3.735836267,1,4.456082820892334,1,0.2876787483692169,1,-0.986464798,1,0.038155079,1
2.755914688,-11.20544052,1,-7.805701256,1,-9.539484024,1,-2.108524799,1,-3.678476095,1,4.456110954284668,1,0.259222001,1,-1.005590081,1,0.062381942,1
2.759916306,-13.01920509,1,-6.93069458,1,-9.176486969,1,-2.235702276,1,-3.513322115,1,4.395246505737305,1,0.2284623831510544,1,-1.023843169,1,0.088346459,1
2.76391387,-12.62705517,1,-6.628988266,1,-8.788739204,1,-2.358181238,1,-3.296805143,1,4.308135032653809,1,0.1955736726522446,1,-1.040831685,1,0.1159637346863747,1
2.76791358,-11.4475584,1,-6.964686871,1,-8.845143318,1,-2.518496752,1,-3.044036388,1,4.156542778015137,1,0.1607384234666824,1,-1.056323767,1,0.1449088454246521,1
2.771915197,-10.89281082,1,-6.576638222,1,-9.015491486,1,-2.630611897,1,-2.797575235,1,4.009191513061523,1,0.1243478059768677,1,-1.070196509,1,0.1747433245182037,1
2.775913,-9.095078468,1,-6.37009716,1,-8.759981155,1,-2.725628138,1,-2.610942841,1,3.873970985412598,1,0.086666755,1,-1.08259058,1,0.2053777575492859,1
2.779912472,-7.471467495,1,-6.101580143,1,-7.925896645,1,-2.794376135,1,-2.495511532,1,3.686575412750244,1,0.048110347,1,-1.093800068,1,0.2364267706871033,1
2.783914328,-6.609827042,1,-5.580996513,1,-7.612409115,1,-2.798945665,1,-2.395189047,1,3.485304594039917,1,0.009393932,1,-1.103988409,1,0.2673326134681702,1
2.787911892,-5.378735065,1,-5.709690571,1,-6.95208168,1,-2.793886662,1,-2.306889772,1,3.300125360488892,1,-0.02924538,1,-1.113258123,1,0.2980066537857056,1
2.791911364,-3.427082777,1,-5.608216763,1,-6.305169106,1,-2.782343864,1,-2.261752129,1,3.086086750030518,1,-0.067453854,1,-1.12175405,1,0.3281126022338867,1
2.795912981,-2.81406188,1,-6.037023544,1,-6.62655735,1,-2.884042501,1,-2.167436838,1,2.806618452072144,1,-0.105036929,1,-1.129593611,1,0.357240617,1
2.799910545,-2.836225748,1,-7.0817132,1,-7.015978813,1,-3.08486104,1,-2.014432669,1,2.369420289993286,1,-0.141168743,1,-1.136630297,1,0.3839592337608337,1
2.803910494,-3.494115829,1,-6.696391106,1,-6.612994194,1,-3.110787392,1,-1.927057624,1,1.858222961425781,1,-0.17445147,1,-1.143082976,1,0.4068804383277893,1
2.807911873,-5.071989536,1,-6.787018299,1,-6.876251698,1,-2.926623821,1,-1.827392817,1,1.390338421,1,-0.203818336,1,-1.149264216,1,0.4258215427398682,1
2.811909676,-3.158979177,1,-8.072900772,1,-7.625468731,1,-2.827785254,1,-1.600550294,1,0.9058939814567566,1,-0.228686318,1,-1.155008316,1,0.4405089020729065,1
2.815909386,0.1097860187292099,1,-8.491415024,1,-7.411220551,1,-2.873932838,1,-1.41807878,1,0.450761616,1,-0.249286354,1,-1.160197377,1,0.4505672454833984,1
2.819911003,1.228986978530884,1,-7.821527958,1,-7.063856602,1,-2.917479992,1,-1.372941375,1,0.083624162,1,-0.266491324,1,-1.165295839,1,0.4566917717456818,1
2.823908329,1.173977255821228,1,-7.386517048,1,-6.828185081,1,-2.940987825,1,-1.381724596,1,-0.231793925,1,-0.281025767,1,-1.170680165,1,0.4597537815570831,1
2.827907801,0.7384452223777771,1,-7.232918739,1,-6.437961578,1,-2.975666761,1,-1.348354816,1,-0.529602766,1,-0.293071598,1,-1.176365733,1,0.4600003957748413,1
2.831909418,0.1226303949952126,1,-7.060508251,1,-6.191632271,1,-3.017018795,1,-1.256724358,1,-0.828757405,1,-0.302464455,1,-1.18216145,1,0.4571847915649414,1
2.835906982,-0.553154349,1,-6.915847301,1,-6.255997181,1,-3.064317226,1,-1.106756687,1,-1.120652914,1,-0.30899173,1,-1.187860966,1,0.4510958194732666,1
2.839906454,-0.951276481,1,-6.699802876,1,-6.377081394,1,-3.111979008,1,-0.919117332,1,-1.396500349,1,-0.31243977,1,-1.193269849,1,0.4414998590946198,1
2.84391427,-1.061388373,1,-6.648150921,1,-6.477550507,1,-3.143694639,1,-0.706163347,1,-1.657444715,1,-0.312699348,1,-1.19825387,1,0.4283456206321716,1
2.847918034,-1.076270223,1,-6.69835186,1,-6.471979141,1,-3.19211483,1,-0.481948495,1,-1.887420416,1,-0.309841573,1,-1.202684641,1,0.4116864204406738,1
2.851917744,-0.831863225,1,-6.629234314,1,-6.603050709,1,-3.26116991,1,-0.236383364,1,-2.102123976,1,-0.304014713,1,-1.206467986,1,0.3916257619857788,1
2.855919361,-0.961695492,1,-6.385230064,1,-6.385590553,1,-3.313411236,1,0.001161271,1,-2.270690203,1,-0.295514673,1,-1.209504128,1,0.368449479,1
2.859917164,-1.155072212,1,-5.857700825,1,-6.23831892,1,-3.326671362,1,0.2693310678005219,1,-2.409989834,1,-0.284547865,1,-1.211657524,1,0.3425315022468567,1
2.863916636,-0.777426839,1,-5.295395374,1,-6.242074013,1,-3.311342239,1,0.5187079310417175,1,-2.513589382,1,-0.271369219,1,-1.212838411,1,0.3142741918563843,1
2.867918253,-0.552672565,1,-4.85112381,1,-6.14331913,1,-3.260167122,1,0.7605854272842407,1,-2.595622063,1,-0.256319642,1,-1.213033915,1,0.2841772437095642,1
2.871916056,-0.474761158,1,-4.540201187,1,-6.179580212,1,-3.192004204,1,0.9826290607452393,1,-2.653253317,1,-0.239762455,1,-1.212224245,1,0.2527076303958893,1
2.875915527,-0.546973169,1,-4.518419266,1,-5.963705063,1,-3.131465673,1,1.190109491348267,1,-2.658583641,1,-0.222230792,1,-1.210427999,1,0.2204763144254684,1
2.879917383,-0.640221,1,-4.362965584,1,-5.88969183,1,-3.069880962,1,1.400739312171936,1,-2.659276247,1,-0.20423533,1,-1.20761776,1,0.187969372,1
2.883914948,-0.730933428,1,-4.329250813,1,-5.885134697,1,-3.001308203,1,1.597447037696838,1,-2.631695747,1,-0.18613717,1,-1.203782201,1,0.1555990129709244,1
2.887914419,-0.808370948,1,-4.17195034,1,-5.848742485,1,-2.930437565,1,1.797182083129883,1,-2.596836329,1,-0.168318629,1,-1.198937058,1,0.1237536892294884,1
2.891916275,-1.16392231,1,-4.165622711,1,-5.924881458,1,-2.850713253,1,1.987634897232056,1,-2.544399023,1,-0.150985926,1,-1.193098664,1,0.09270712,1
2.895914078,-1.38592422,1,-4.178297997,1,-5.958639622,1,-2.775141954,1,2.183639287948608,1,-2.486503601,1,-0.134447157,1,-1.186260939,1,0.062760748,1
2.899913788,-1.60467577,1,-4.202343464,1,-6.009102821,1,-2.696144342,1,2.37360692,1,-2.433651209,1,-0.118704356,1,-1.178450942,1,0.033923596,1
2.903915167,-1.539881349,1,-4.322898388,1,-6.102476597,1,-2.612211704,1,2.554128646850586,1,-2.387549639,1,-0.103836052,1,-1.169721365,1,0.006289167,1
2.907912731,-2.220467091,1,-4.720412731,1,-6.205771446,1,-2.55101943,1,2.710094451904297,1,-2.33115077,1,-0.089929447,1,-1.160155892,1,-0.020076532,1
2.911912441,-2.753237724,1,-4.718438625,1,-6.071811199,1,-2.481306791,1,2.905481815338135,1,-2.306706905,1,-0.076969437,1,-1.149731636,1,-0.045245476,1
2.915914059,-2.849687338,1,-4.858204365,1,-6.09279871,1,-2.426651955,1,3.068300008773804,1,-2.285171747,1,-0.064784631,1,-1.138454795,1,-0.069417715,1
2.919911385,-3.389169931,1,-5.148120403,1,-6.29425478,1,-2.359902382,1,3.248714447021484,1,-2.289148808,1,-0.053259831,1,-1.126379848,1,-0.092708178,1
2.923910856,-3.732023001,1,-5.590437412,1,-6.240487576,1,-2.337100506,1,3.417392253875732,1,-2.298760176,1,-0.042419385,1,-1.113505363,1,-0.11518795,1
2.927912474,-4.050469398,1,-5.792963505,1,-6.291305542,1,-2.319893599,1,3.576691150665283,1,-2.321835518,1,-0.03222923,1,-1.09986639,1,-0.136993244,1
2.931910038,-4.2830019,1,-6.056574345,1,-6.295164585,1,-2.296591759,1,3.723945617675781,1,-2.363520861,1,-0.022597179,1,-1.085525274,1,-0.158236146,1
2.935909748,-4.512762547,1,-6.351177692,1,-6.287713528,1,-2.298614502,1,3.847074747085571,1,-2.405538559,1,-0.013514634,1,-1.070546508,1,-0.178969473,1
2.939911127,-4.590816021,1,-6.422024727,1,-6.283369064,1,-2.274059534,1,3.957602024078369,1,-2.461930752,1,-0.004918665,1,-1.055023074,1,-0.199276403,1
2.943909168,-4.961087704,1,-6.529022694,1,-6.419663906,1,-2.235798597,1,4.039319992,1,-2.52615881,1,0.015020705,1,-1.030399084,1,-0.187653035,1
2.94790864,-5.173787117,1,-6.559693813,1,-6.409321308,1,-2.195753336,1,4.096418857574463,1,-2.603981256,1,0.022402968,1,-1.013917685,1,-0.20738773,1
2.951910257,-5.384515762,1,-6.799481869,1,-6.417179108,1,-2.13980031,1,4.131762981414795,1,-2.693902254,1,0.029746154,1,-0.997180283,1,-0.226349339,1
2.955907822,-5.686852932,1,-7.15917778,1,-6.530813217,1,-2.087994337,1,4.152647972106934,1,-2.775581121,1,0.037074283,1,-0.980240524,1,-0.245235354,1
2.959907293,-6.06273222,1,-7.483574867,1,-6.585513115,1,-2.040013075,1,4.160003185272217,1,-2.87378788,1,0.044373922,1,-0.963167489,1,-0.264061898,1
2.963915348,-6.480837822,1,-7.794353485,1,-6.623006344,1,-1.989750028,1,4.154774666,1,-2.97651577,1,0.051691316,1,-0.945996821,1,-0.282900006,1
2.967919111,-6.958985806,1,-8.167076111,1,-6.723647118,1,-1.957840323,1,4.162153720855713,1,-3.089971542,1,0.059055708,1,-0.928709149,1,-0.301819384,1
2.971918821,-7.478405952,1,-8.522592545,1,-6.843512535,1,-1.925483108,1,4.149098873138428,1,-3.203601122,1,0.066437118,1,-0.911325097,1,-0.320844233,1
2.975920677,-7.931040287,1,-8.80974865,1,-6.801075459,1,-1.905811787,1,4.132951259613037,1,-3.320404053,1,0.073803179,1,-0.893892348,1,-0.33998239,1
2.979918242,-8.272461891,1,-9.104493141,1,-6.890957832,1,-1.878093362,1,4.117183208465576,1,-3.443320513,1,0.081153989,1,-0.876386583,1,-0.359253764,1
2.983917713,-8.464265823,1,-9.383738518,1,-6.808615208,1,-1.855036736,1,4.086354732513428,1,-3.563392878,1,0.088504292,1,-0.858844638,1,-0.378696918,1
2.987919331,-8.870372772,1,-9.647379875,1,-7.003473282,1,-1.843311071,1,4.045778751373291,1,-3.676652431,1,0.095834143,1,-0.841320574,1,-0.398281276,1
2.991916895,-9.068351746,1,-9.581866264,1,-6.981508255,1,-1.82109642,1,3.981006145477295,1,-3.804252148,1,0.1031109765172005,1,-0.823855162,1,-0.418035567,1
2.995916605,-9.389390945,1,-9.8578825,1,-7.04645586,1,-1.791338682,1,3.926036119,1,-3.933504105,1,0.1104355156421661,1,-0.80648303,1,-0.438021183,1
2.999918222,-9.656157494,1,-10.07196808,1,-6.911863804,1,-1.757202029,1,3.859733581542969,1,-4.061316013,1,0.1177997961640358,1,-0.789189339,1,-0.458239973,1
3.003916025,-9.989835739,1,-10.31160259,1,-7.060299873,1,-1.738318801,1,3.795151710510254,1,-4.17889595,1,0.1251870095729828,1,-0.771991968,1,-0.478660166,1
3.007915735,-10.22142982,1,-10.04854202,1,-7.148657799,1,-1.707816124,1,3.715848445892334,1,-4.310855389,1,0.1325447708368301,1,-0.75492686,1,-0.499289721,1
3.011917353,-10.35941601,1,-10.12446213,1,-7.155594826,1,-1.657464862,1,3.646703243255615,1,-4.430910587,1,0.1399785429239273,1,-0.737968564,1,-0.52016294,1
3.015914679,-10.37982178,1,-10.22694969,1,-7.161278725,1,-1.595437288,1,3.572264432907104,1,-4.540024281,1,0.1475061029195786,1,-0.721102118,1,-0.541215897,1
3.019914389,-10.40373802,1,-10.41763401,1,-7.098663807,1,-1.551812649,1,3.497895002365112,1,-4.642262936,1,0.1550719738006592,1,-0.704355896,1,-0.562400043,1
3.023916006,-10.37355232,1,-10.4211359,1,-7.066059589,1,-1.502589822,1,3.420383692,1,-4.724611282,1,0.1625991016626358,1,-0.687722921,1,-0.583663523,1
3.027913809,-10.33389664,1,-10.54195213,1,-6.991902828,1,-1.450343251,1,3.346225261688232,1,-4.783278465,1,0.1700484901666641,1,-0.671226561,1,-0.604907751,1
3.03191328,-10.297966,1,-10.49918175,1,-6.935837746,1,-1.395607591,1,3.275993585586548,1,-4.82409811,1,0.1773502826690674,1,-0.654865086,1,-0.626028359,1
