Time,inertial-6253.76535:scaledAccelX,inertial-6253.76535:scaledAccelY,inertial-6253.76535:scaledAccelZ,inertial-6253.76535:scaledGyroX,inertial-6253.76535:scaledGyroY,inertial-6253.76535:scaledGyroZ,inertial-6253.76535:scaledMagX,inertial-6253.76535:scaledMagY,inertial-6253.76535:scaledMagZ,inertial-6253.76535:roll,inertial-6253.76535:pitch,inertial-6253.76535:yaw
0,0.5418049097061157,0.2164589762687683,-0.812391043,0.095011227,-0.019953383,0.057973318,0.033912953,0.3079671263694763,0.5912550091743469,-0.253603071,0.5724318623542786,-1.087702155
0.00500224,0.5411668419837952,0.2127288430929184,-0.812656343,0.094646335,-0.019786077,0.057205278,0.034014594,0.3080579042434692,0.5911428928375244,-0.252937645,0.5724083185195923,-1.087160587
0.009999616,0.5394353866577148,0.2108441740274429,-0.815763414,0.091816068,-0.021232255,0.057971805,0.034092803,0.3081277310848236,0.5910566449165344,-0.252281219,0.5723664164543152,-1.086613655
0.01499776,0.5402505397796631,0.2109119,-0.817189932,0.091223851,-0.018599484,0.057947379,0.034062076,0.3085626363754272,0.5914669632911682,-0.251628488,0.572345495,-1.086069107
0.019996928,0.5429509878158569,0.2117631882429123,-0.816335917,0.0887665,-0.019789502,0.057527684,0.034038436,0.3088973164558411,0.5917826890945435,-0.250995278,0.572317362,-1.085524797
0.024996864,0.5423541665077209,0.2103867828845978,-0.814326882,0.086019658,-0.020674054,0.05922601,0.034030598,0.3090082705020905,0.591887355,-0.250363767,0.5722936987876892,-1.084969997
0.029998336,0.5446595549583435,0.2084162086248398,-0.815679312,0.086099669,-0.023187988,0.057494294,0.034024563,0.3090936541557312,0.5919678807258606,-0.249732852,0.5722574591636658,-1.084421277
0.035001088,0.5397081971168518,0.2070492953062057,-0.815686285,0.084306933,-0.024220696,0.058129974,0.034078036,0.3092619180679321,0.5916290283203125,-0.249114469,0.5722024440765381,-1.083863139
0.039998721,0.5400366187095642,0.2067066431045532,-0.814388931,0.080870844,-0.025550611,0.056391694,0.034175269,0.3095329105854034,0.5909985899925232,-0.248520657,0.5721434354782104,-1.083330274
0.044996865,0.5412693619728088,0.20752053,-0.813456953,0.078475565,-0.025161717,0.054292645,0.034207512,0.3096227645874023,0.5907894968986511,-0.247943372,0.5720917582511902,-1.082796693
0.049995776,0.537193239,0.2110382616519928,-0.813967407,0.078790188,-0.02542527,0.055280548,0.034232315,0.3096918761730194,0.5906286239624023,-0.247368231,0.5720282793045044,-1.082274318
0.054995969,0.5358120203018188,0.2165365815162659,-0.815804183,0.075646281,-0.024707874,0.052957695,0.03424054,0.3097148239612579,0.5905752778053284,-0.246830389,0.5719624161720276,-1.081784725
0.059996929,0.5354571342468262,0.2175254821777344,-0.816110075,0.0771835,-0.022210931,0.053109348,0.035097856,0.3105804026126862,0.5890055298805237,-0.246287286,0.5719098448753357,-1.081300139
0.064999171,0.5383020639419556,0.2136218100786209,-0.816927433,0.079708137,-0.020928651,0.053931829,0.035382129,0.3108674287796021,0.5884850025177002,-0.245717719,0.5718699097633362,-1.080797195
0.06999629,0.5358403921127319,0.2161273658275604,-0.815068543,0.080567703,-0.01826385,0.053029992,0.035600856,0.3110882639884949,0.5880844593048096,-0.245156795,0.5718381404876709,-1.080315709
0.07499443,0.5366480350494385,0.2162230908870697,-0.814453065,0.082002841,-0.015724087,0.053568989,0.035673384,0.3111614882946014,0.58795166,-0.244594663,0.5718144774436951,-1.079832792
0.079993345,0.5338242053985596,0.2126427590847015,-0.815652251,0.083162658,-0.012676219,0.052354805,0.035533786,0.3110160529613495,0.5876098275184631,-0.244024605,0.5718069076538086,-1.079359889
0.084993534,0.5325220227241516,0.2095365822315216,-0.819301665,0.07997787,-0.011537034,0.05220471,0.035439145,0.3109178841114044,0.5874371528625488,-0.243460983,0.5717973113059998,-1.07889092
0.089994751,0.5351479649543762,0.2049720138311386,-0.820921361,0.080876611,-0.009811014,0.051498175,0.035366323,0.310842365,0.5873042345046997,-0.242885679,0.5717980861663818,-1.078405619
0.094996989,0.5365250706672668,0.2061771750450134,-0.817840159,0.080959953,-0.006761024,0.052109268,0.035342176,0.3108173310756683,0.5872601866722107,-0.242322981,0.5718305110931396,-1.077935457
0.099994116,0.5403144955635071,0.2073162496089935,-0.815711021,0.081436709,-0.00646815,0.051222704,0.035457585,0.3112322390079498,0.5876375436782837,-0.24175635,0.571857214,-1.077456236
0.104992256,0.5392374992370605,0.2083801925182343,-0.817138612,0.081585541,-0.007290238,0.051519156,0.03563096,0.3118076920509338,0.5881773829460144,-0.241198823,0.5718824863433838,-1.076991081
0.109991424,0.5389663577079773,0.2068194895982742,-0.817055047,0.08355663,-0.007766128,0.050961472,0.035764363,0.3122504353523254,0.5885927677154541,-0.240633935,0.571899414,-1.076525688
0.114991359,0.5402970910072327,0.2077314406633377,-0.817928076,0.086178482,-0.010030346,0.051345978,0.035808597,0.3123972415924072,0.588730514,-0.240043908,0.5719038248062134,-1.076051235
0.119992323,0.5400654673576355,0.2071212828159332,-0.815784335,0.089582562,-0.01354978,0.050244093,0.035842635,0.312510222,0.5888364911079407,-0.239441589,0.5718899965286255,-1.07558167
0.1249943,0.5414187908172607,0.2069720327854156,-0.813156307,0.094465517,-0.019122621,0.048312984,0.036141884,0.3133522570133209,0.5885127186775208,-0.238824174,0.5718585848808289,-1.075108528
0.129991427,0.5426041483879089,0.2054358720779419,-0.813940465,0.1012249514460564,-0.026632424,0.047447901,0.036372129,0.31400013,0.5882636308670044,-0.238164663,0.5717858076095581,-1.074634433
0.134995461,0.5415182113647461,0.2052070200443268,-0.815893531,0.1072145253419876,-0.032486744,0.046349641,0.036448475,0.3142149448394775,0.5881810188293457,-0.237460911,0.5716787576675415,-1.074152231
0.139994875,0.5434907078742981,0.2084493786096573,-0.816122055,0.1131346449255943,-0.040149312,0.045080032,0.036507219,0.3143802285194397,0.5881174206733704,-0.236745104,0.5715342164039612,-1.073677182
0.14499481,0.5458261370658875,0.2109626680612564,-0.816480517,0.1183449327945709,-0.050165255,0.042069204,0.03680598,0.3146327137947083,0.5882003903388977,-0.236005858,0.5713394284248352,-1.073206663
0.149996027,0.5447527170181274,0.2117100059986115,-0.818091929,0.1234375610947609,-0.058545154,0.040391963,0.037318252,0.3150268793106079,0.5883694291114807,-0.235241368,0.5710951685905457,-1.072746396
0.154998273,0.5448344349861145,0.2106872797012329,-0.817846417,0.1263821125030518,-0.061858416,0.036740176,0.03748811,0.315157562,0.5884254574775696,-0.234473094,0.5708352327346802,-1.072298646
0.159995645,0.5454037189483643,0.2035385966300964,-0.819465756,0.1260242015123367,-0.066271693,0.03428705,0.037618808,0.315258116,0.5884685516357422,-0.233692884,0.5705554485321045,-1.071834207
0.164993539,0.5424473881721497,0.2018302828073502,-0.819134414,0.1241252794861794,-0.067932218,0.033535447,0.037662145,0.3152914643287659,0.5884828567504883,-0.232931986,0.5702635049819946,-1.071384668
0.1699927,0.5430123805999756,0.1995669454336166,-0.819817841,0.1188414022326469,-0.067434117,0.030740902,0.03769125,0.3160400092601776,0.5862644910812378,-0.232206792,0.5699726343154907,-1.07096374
0.174992636,0.542261541,0.1986509412527084,-0.819670796,0.1161889731884003,-0.067070983,0.027559066,0.037700903,0.3162882030010223,0.5855289101600647,-0.23149924,0.5696749687194824,-1.070546627
0.179993853,0.5414833426475525,0.1970749348402023,-0.819415808,0.1106628477573395,-0.065619625,0.023632353,0.037708327,0.3164791762828827,0.5849629640579224,-0.230837211,0.5693844556808472,-1.070158362
0.184996098,0.5400898456573486,0.1955682784318924,-0.817824483,0.105218917,-0.065604635,0.02165425,0.03771079,0.3165425062179565,0.5847753286361694,-0.23019971,0.5690953135490417,-1.069775462
0.189993218,0.5359929203987122,0.1981679201126099,-0.817448318,0.098988943,-0.062381513,0.018232487,0.03819542,0.3175026476383209,0.5852503776550293,-0.229622349,0.568808377,-1.069438338
0.194991365,0.535379171,0.2010819613933563,-0.820408642,0.093768924,-0.057805847,0.017260289,0.038475573,0.3180465400218964,0.5855611562728882,-0.229074597,0.5685372948646545,-1.069109917
0.199990273,0.535058856,0.2001310288906097,-0.822607756,0.091374509,-0.057072908,0.01310449,0.03869113,0.3184650242328644,0.5858003497123718,-0.228558227,0.5682603716850281,-1.068809986
0.204990461,0.5350809693336487,0.1973991841077805,-0.822440565,0.087590493,-0.055176735,0.011489203,0.038762607,0.3186037838459015,0.5858796238899231,-0.228060454,0.5680050253868103,-1.06852293
0.209991425,0.5387458205223083,0.1947637796401978,-0.823800504,0.083689809,-0.051315624,0.007178141,0.039069243,0.3189343214035034,0.5856819152832031,-0.227585584,0.5677622556686401,-1.068246722
0.214993671,0.5382329821586609,0.1895957887172699,-0.825685501,0.079778872,-0.049247388,0.002278646,0.039424673,0.3192695677280426,0.5853555202484131,-0.227151766,0.5675250887870789,-1.068008184
0.21999079,0.5376073122024536,0.189076304,-0.826517582,0.074102424,-0.045832563,-0.001433919,0.039698154,0.3195275366306305,0.5851043462753296,-0.226758838,0.5672895312309265,-1.067791343
0.224988922,0.5367926359176636,0.1888320744037628,-0.827984869,0.067080073,-0.043918483,-0.005578106,0.039788835,0.3196130692958832,0.5850210785865784,-0.226407602,0.5670704245567322,-1.067600727
0.229987845,0.5386784672737122,0.1883539110422134,-0.825939536,0.065379433,-0.040270794,-0.008212114,0.039858606,0.3196788728237152,0.5849570035934448,-0.226081759,0.5668609738349915,-1.067427754
0.234988034,0.5400574803352356,0.1892332285642624,-0.825993776,0.060199548,-0.039948024,-0.011103162,0.040077992,0.3198511600494385,0.5851268768310547,-0.225787237,0.5666546821594238,-1.067272425
0.239988998,0.5389931201934814,0.1919794082641602,-0.823727727,0.058310751,-0.039518401,-0.016619697,0.040246792,0.3199837505817413,0.5852575898170471,-0.225528225,0.5664510130882263,-1.067152023
0.244991228,0.5383980274200439,0.1949766278266907,-0.821239412,0.055822775,-0.037735786,-0.018312642,0.040302765,0.3200277090072632,0.5853009223937988,-0.225293964,0.5662451386451721,-1.067045331
0.249988347,0.533022404,0.1993736177682877,-0.818052351,0.054767475,-0.038047608,-0.017535858,0.040345829,0.3200615346431732,0.5853342413902283,-0.225079238,0.5660369992256165,-1.066956997
0.254986495,0.5269244313240051,0.2056548595428467,-0.818856239,0.052548766,-0.032907933,-0.016978687,0.040498301,0.3203278481960297,0.5851163268089294,-0.224891782,0.5658410787582397,-1.066900611
0.259985417,0.527366579,0.2061109691858292,-0.82374078,0.053395126,-0.029005438,-0.015629664,0.040755354,0.3207906782627106,0.5847172141075134,-0.224684119,0.5656651854515076,-1.066825986
0.264985859,0.5294256210327148,0.2041483372449875,-0.823940635,0.057814479,-0.026010707,-0.014312094,0.040840589,0.3209441304206848,0.5845848917961121,-0.22445634,0.5655102729797363,-1.066742063
0.269993216,0.5322282314300537,0.202013299,-0.821923375,0.057424758,-0.024234852,-0.01262081,0.040906169,0.3210622370243073,0.5844830274581909,-0.224213928,0.5653703212738037,-1.066633224
0.274995446,0.535770059,0.2025325000286102,-0.820427597,0.058710903,-0.022493662,-0.009015397,0.040927913,0.3211013972759247,0.5844492316246033,-0.223963976,0.5652590990066528,-1.066519976
0.279992819,0.5319863557815552,0.2034544497728348,-0.820925415,0.056439761,-0.019329362,-0.009057725,0.041002583,0.3217371106147766,0.5842846632003784,-0.223731294,0.5651456713676453,-1.066414833
0.284990728,0.5316148996353149,0.1991031765937805,-0.823477805,0.057867039,-0.015751913,-0.007540871,0.041027341,0.3219479024410248,0.5842300653457642,-0.223475516,0.5650573968887329,-1.066300631
0.289989889,0.5321367979049683,0.1947618126869202,-0.824540794,0.055288702,-0.013245799,-0.008081638,0.041046388,0.322110116,0.5841881036758423,-0.223227754,0.5649726986885071,-1.066179633
0.294989824,0.5333269238471985,0.1960369497537613,-0.823836982,0.054982856,-0.008826331,-0.006716362,0.041052707,0.3221639096736908,0.5841741561889648,-0.222984523,0.5649195313453674,-1.06605649
0.29999131,0.5382339954376221,0.1979654431343079,-0.824110031,0.053586341,-0.005896812,-0.005783849,0.041058462,0.3222993016242981,0.5833265781402588,-0.222758204,0.5648868083953857,-1.065937877
0.30499354,0.5358522534370422,0.1969617456197739,-0.821905732,0.052148767,-0.005817902,-0.006445677,0.041060593,0.3223674893379211,0.5828384160995483,-0.222542286,0.5648536682128906,-1.065827608
0.309990913,0.5357187390327454,0.1934449076652527,-0.821073949,0.048892125,-0.002720998,-0.005092505,0.041062232,0.3224199414253235,0.5824628472328186,-0.222320452,0.5648369789123535,-1.065698981
0.31498906,0.5358911752700806,0.1898875385522842,-0.823401332,0.046327218,-0.001389666,-0.004493708,0.041062776,0.3224373161792755,0.5823383331298828,-0.222112656,0.5648247003555298,-1.065561771
0.319988221,0.532210112,0.1897578686475754,-0.823281229,0.040352568,0.002426069,-0.005393145,0.040892094,0.3226246535778046,0.5819646716117859,-0.221938446,0.5648291110992432,-1.065445662
0.324988425,0.5318701863288879,0.1919374167919159,-0.825352967,0.036404151,0.00519282,-0.004935021,0.040662959,0.3228622078895569,0.5815606117248535,-0.221790239,0.5648424029350281,-1.065338373
0.329989642,0.5349549055099487,0.1935621947050095,-0.8248474,0.033602834,0.005640812,-0.004671869,0.040486656,0.3230449855327606,0.5812497138977051,-0.221660689,0.5648621916770935,-1.065230727
0.334991604,0.5364100337028503,0.1963035464286804,-0.825862706,0.030962579,0.00680751,-0.002899155,0.040428199,0.3231056034564972,0.5811465978622437,-0.221538246,0.5648979544639587,-1.065114498
0.339989007,0.5380513072013855,0.1979774534702301,-0.82456255,0.030648926,0.009065202,-0.000289172,0.040383216,0.3231522440910339,0.5810672640800476,-0.221416473,0.5649441480636597,-1.064987302
0.344986886,0.5362736582756042,0.1970241665840149,-0.823676527,0.029043205,0.009546336,0.000133484,0.040711097,0.3234210312366486,0.5816705822944641,-0.221307904,0.5649967789649963,-1.064863682
0.349986047,0.5352492332458496,0.1955340057611465,-0.823477685,0.026519157,0.012236171,0.000754315,0.040963378,0.3236278295516968,0.5821347832679749,-0.221199259,0.5650556087493896,-1.064728498
0.354986489,0.53525418,0.1963217854499817,-0.823174417,0.026722485,0.013966566,0.003881051,0.041047029,0.3236964046955109,0.5822887420654297,-0.2210868,0.5651290416717529,-1.064585447
0.359987468,0.5333526730537415,0.1993317008018494,-0.823718786,0.025461704,0.015584733,0.006838685,0.041111395,0.3237491846084595,0.5824071764945984,-0.220974371,0.5652122497558594,-1.064424634
0.364989698,0.53440392,0.2038835734128952,-0.822496951,0.027968066,0.016821992,0.009896622,0.040963516,0.3237691819667816,0.5823659300804138,-0.220855772,0.5653039216995239,-1.064265251
0.369986802,0.5326162576675415,0.2033695876598358,-0.822214961,0.029607756,0.020220837,0.012901505,0.040678624,0.323787123,0.5822528004646301,-0.220715702,0.5654149651527405,-1.064092159
0.37498495,0.5329744219779968,0.2037087827920914,-0.823203444,0.031523045,0.020584248,0.016080311,0.040584162,0.3237930536270142,0.5822153091430664,-0.220567629,0.565524697,-1.063905478
0.379983872,0.5346007943153381,0.1998977959156036,-0.824020088,0.031890463,0.01988879,0.017141208,0.040511478,0.3237976431846619,0.5821864008903503,-0.220387042,0.5656358599662781,-1.063696623
0.384984076,0.5354863405227661,0.1961231380701065,-0.823535085,0.033865768,0.021730835,0.020536115,0.040487379,0.3237991631031036,0.5821768641471863,-0.220189124,0.5657597184181213,-1.063465834
0.389985025,0.5390287041664124,0.1969631016254425,-0.822924256,0.034672972,0.021519024,0.020013722,0.040399186,0.3240066766738892,0.582429826,-0.219993532,0.5658925175666809,-1.063242793
0.394987255,0.537110448,0.1968560516834259,-0.824186623,0.037275113,0.020039795,0.021704564,0.040369943,0.3240754902362823,0.58251369,-0.219773799,0.5660114884376526,-1.063003898
0.39998439,0.5406224131584167,0.1937519758939743,-0.823648572,0.036142252,0.019903729,0.022941424,0.040347442,0.3241284191608429,0.5825782418251038,-0.219556838,0.5661369562149048,-1.062755942
0.404988676,0.5399457812309265,0.1953016966581345,-0.823566556,0.035920441,0.018970687,0.023302887,0.040339984,0.3241459727287292,0.5825996398925781,-0.2193432,0.5662572383880615,-1.062503338
0.409987837,0.5397851467132568,0.1973276287317276,-0.821876645,0.037709448,0.016868519,0.02506355,0.040330246,0.3244636654853821,0.5825144052505493,-0.21911481,0.5663712620735168,-1.062244654
0.414988041,0.5401073098182678,0.1939448267221451,-0.82201153,0.035755664,0.017697468,0.024962971,0.040326029,0.3246442675590515,0.5824609994888306,-0.218892559,0.5664878487586975,-1.061982036
0.41998899,0.5373902320861816,0.1938765794038773,-0.823155582,0.036065415,0.016562141,0.026101008,0.040322781,0.3247832357883453,0.5824198722839355,-0.218667671,0.5665953755378723,-1.061714888
0.42499122,0.5386941432952881,0.1970079392194748,-0.822523713,0.034378693,0.017018897,0.026637984,0.040321704,0.3248293101787567,0.582406223,-0.218453497,0.5667047500610352,-1.06144762
0.429988354,0.5384988784790039,0.1924750953912735,-0.820515513,0.034914732,0.014517349,0.026966294,0.040235028,0.3250629007816315,0.5817809700965881,-0.218223825,0.56680882,-1.061178088
0.434986234,0.5362867116928101,0.1900217682123184,-0.821895897,0.032725155,0.014978452,0.026740074,0.040119715,0.3253401517868042,0.5809536576271057,-0.218001187,0.5669113993644714,-1.060903072
0.439985394,0.5369241833686829,0.1885589510202408,-0.823688507,0.03139523,0.017410882,0.025754765,0.040030994,0.3255534768104553,0.5803170800209045,-0.217790067,0.5670263767242432,-1.060639739
0.44498533,0.537678599,0.1891393661499023,-0.824616134,0.030219834,0.016140793,0.024947936,0.040001571,0.3256242275238037,0.5801060199737549,-0.217589617,0.5671221613883972,-1.060380459
0.449986547,0.5399078726768494,0.1932594329118729,-0.825129032,0.03084884,0.015761349,0.025618235,0.039978936,0.3256786465644836,0.5799436569213867,-0.217394054,0.5672314763069153,-1.06012094
0.454988539,0.5400049686431885,0.1945011764764786,-0.82113713,0.033505879,0.01474487,0.026062761,0.039824288,0.3254503011703491,0.5804362297058105,-0.217180684,0.5673296451568604,-1.059853077
0.459985673,0.537486732,0.1950633972883224,-0.820459604,0.034619763,0.013837462,0.026238743,0.039705299,0.3252746164798737,0.5808152556419373,-0.216969043,0.5674287080764771,-1.059592366
0.464983553,0.5353093147277832,0.1971862763166428,-0.821112752,0.034530185,0.012761455,0.028346388,0.039665844,0.3252163529396057,0.5809409022331238,-0.21674931,0.5675195455551147,-1.059319258
0.469982475,0.5379727482795715,0.197083369,-0.820059597,0.040428799,0.01249261,0.028151672,0.039635487,0.3251715302467346,0.5810376405715942,-0.216502175,0.5676048398017883,-1.059042096
0.474982411,0.5410224199295044,0.1951743215322495,-0.820661843,0.03907457,0.011725408,0.028438332,0.039679538,0.3253561556339264,0.5808989405632019,-0.216257021,0.5676974654197693,-1.058763504
0.47998336,0.5400400757789612,0.1914146989583969,-0.82204169,0.03887463,0.010478565,0.028372046,0.039768159,0.3256998956203461,0.5806194543838501,-0.215999529,0.5677781701087952,-1.058475971
0.484985352,0.5399013161659241,0.18700926,-0.822136819,0.037929364,0.010692636,0.025634946,0.039797544,0.32581389,0.5805267691612244,-0.21574913,0.5678558945655823,-1.058197856
0.489982724,0.5418488383293152,0.1853226572275162,-0.8229298,0.034862615,0.00711673,0.026129816,0.039820157,0.325901598,0.580455482,-0.215510085,0.5679278969764709,-1.057907104
0.494980603,0.5435726046562195,0.1846445649862289,-0.821778595,0.03301312,0.00728384,0.023186842,0.039827652,0.3259306848049164,0.5804318189620972,-0.215283439,0.568003237,-1.057631493
0.499979764,0.5422928333282471,0.1851520538330078,-0.821478009,0.031823292,0.005364368,0.022900429,0.0397649,0.3260912597179413,0.5806093811988831,-0.215070829,0.5680599808692932,-1.057367921
0.50497973,0.541907787,0.1871718615293503,-0.823801041,0.028516646,0.004133703,0.021656862,0.03974409,0.3261445164680481,0.5806682705879211,-0.214882761,0.5681000351905823,-1.057106853
0.509980917,0.5429923534393311,0.1851576417684555,-0.822112679,0.027425809,6.552689592354e-05,0.019450625,0.039728083,0.3261854648590088,0.5807135701179504,-0.214692205,0.5681235194206238,-1.056845188
0.514982939,0.543008029,0.1853919178247452,-0.820762455,0.025279157,-0.001097998,0.018954765,0.039722774,0.3261990547180176,0.5807285904884338,-0.214519575,0.568143368,-1.056594014
0.519980013,0.5446087718009949,0.1837614923715591,-0.820276141,0.024569964,-0.001960175,0.018457297,0.03996899,0.3261992931365967,0.5801454186439514,-0.214354157,0.5681661367416382,-1.056340456
0.524978161,0.5427224636077881,0.1862069070339203,-0.819662333,0.020651907,-0.003219606,0.015479769,0.040112566,0.3261968493461609,0.5798048973083496,-0.214228943,0.5681732296943665,-1.056118369
0.529977322,0.5387436151504517,0.1872361302375793,-0.821962178,0.018330447,-0.005877546,0.014167766,0.04022304,0.3261949419975281,0.5795428156852722,-0.214106977,0.56815052,-1.055895329
0.534977555,0.5387858152389526,0.1881427615880966,-0.823803663,0.017110744,-0.004985979,0.014932884,0.04025967,0.3261943161487579,0.5794559121131897,-0.21398966,0.5681433081626892,-1.05566442
0.53998518,0.5397058129310608,0.1910781413316727,-0.823557854,0.017975736,-0.005609029,0.014960163,0.040285598,0.3263389766216278,0.579471231,-0.213867128,0.5681273341178894,-1.055443048
0.544988155,0.5399031639099121,0.1894621104001999,-0.821715534,0.017017104,-0.009147843,0.015229318,0.040291928,0.326533318,0.5795592069625854,-0.21374546,0.5681029558181763,-1.055207372
0.549986064,0.5401294231414795,0.1905511468648911,-0.821792364,0.01973301,-0.009400884,0.014798604,0.040296793,0.3266828060150146,0.5796268582344055,-0.213619947,0.5680708885192871,-1.054984689
0.554984212,0.5400403141975403,0.1901853233575821,-0.820783138,0.019575652,-0.009812911,0.015493673,0.040298406,0.3267323970794678,0.5796493291854858,-0.213490665,0.5680422782897949,-1.054752111
0.559983075,0.5388791561126709,0.1935645639896393,-0.821518064,0.021589478,-0.013650158,0.015826413,0.04029965,0.326770544,0.5796666145324707,-0.213344157,0.5679916143417358,-1.054521918
0.564983308,0.5385964512825012,0.1910695135593414,-0.820809901,0.023760162,-0.012754839,0.016564518,0.040148098,0.3270862102508545,0.579131007,-0.213187575,0.5679475665092468,-1.054284096
0.569984257,0.539699376,0.1908968538045883,-0.821934223,0.023701072,-0.013312198,0.01549059,0.040031489,0.3273290991783142,0.578718901,-0.213035315,0.5679012537002563,-1.054057598
0.574986517,0.5404202938079834,0.1870319098234177,-0.82319659,0.023090383,-0.015505971,0.015741067,0.039992824,0.3274096548557281,0.578582227,-0.212871745,0.5678406357765198,-1.053808093
0.57998389,0.5401363372802734,0.1846694201231003,-0.822522819,0.020944629,-0.015498823,0.014359618,0.039963074,0.3274715840816498,0.5784770846366882,-0.212725505,0.5677850246429443,-1.053576112
0.584982276,0.5392854809761047,0.1870050579309464,-0.822116077,0.019629622,-0.013142567,0.01422427,0.040291309,0.3274056017398834,0.5791625380516052,-0.21260035,0.5677404999732971,-1.053346753
0.589981437,0.5365784168243408,0.1884017437696457,-0.824239075,0.017713128,-0.011100221,0.011701196,0.040885735,0.3272673189640045,0.5804182887077332,-0.212496445,0.5676892399787903,-1.053138852
0.594981611,0.5336123704910278,0.1897369474172592,-0.825650752,0.015420286,-0.010598842,0.011910772,0.041082837,0.3272214531898499,0.580834687,-0.212396741,0.5676392316818237,-1.052936435
0.599983096,0.5343579649925232,0.1888284236192703,-0.825839043,0.015336026,-0.005977413,0.011563102,0.041234493,0.3271861672401428,0.5811550617218018,-0.212305471,0.5676130652427673,-1.052738905
0.604985356,0.5325774550437927,0.1877803057432175,-0.826145113,0.013284269,-0.004174705,0.011229316,0.041284777,0.3271744549274445,0.5812612771987915,-0.212223828,0.5675942897796631,-1.052547812
0.609982967,0.5338295102119446,0.1848224699497223,-0.825613737,0.01189055,-0.001109955,0.009744444,0.040532541,0.3273027837276459,0.5799195766448975,-0.212146044,0.5675867795944214,-1.052363992
0.614981115,0.5333778858184814,0.1849315613508224,-0.825876057,0.009518898,0.001233476,0.008654892,0.040283114,0.3273453414440155,0.5794747471809387,-0.212085292,0.5675933957099915,-1.052195668
0.619980276,0.5348480343818665,0.1824543476104736,-0.825486839,0.008231898,0.003160933,0.009024196,0.040091198,0.3273780941963196,0.5791324377059937,-0.212028578,0.5676154494285583,-1.052017331
0.624980509,0.5355356335639954,0.1801599860191345,-0.827131748,0.006213438,0.005291583,0.006259718,0.040027559,0.3273889422416687,0.5790189504623413,-0.211986855,0.5676427483558655,-1.051860929
0.629981697,0.5364406108856201,0.1806868463754654,-0.826770306,0.001795395,0.007986674,0.004586457,0.040325601,0.3274427354335785,0.5790718197822571,-0.211973265,0.567680836,-1.051700354
0.634983659,0.5368561744689941,0.1817035973072052,-0.826800704,-0.00032411,0.010440112,0.003706541,0.040510293,0.3274718225002289,0.5791240930557251,-0.211978137,0.5677391886711121,-1.051559091
0.639981031,0.5390065312385559,0.1855624318122864,-0.825872898,-0.001038429,0.01038599,0.00359324,0.040652405,0.327494204,0.5791642665863037,-0.211995035,0.5677880644798279,-1.051423788
0.64497894,0.5363435745239258,0.1877000629901886,-0.824774921,-0.001953593,0.01254701,0.002551591,0.040699527,0.327501655,0.5791776180267334,-0.212034717,0.5678454637527466,-1.051313281
0.649978101,0.5400204658508301,0.1883915960788727,-0.824265182,-0.002558473,0.013841663,0.0028672,0.040734258,0.3275949954986572,0.5792985558509827,-0.212070569,0.5679234266281128,-1.051188827
0.654978037,0.539305568,0.1895991861820221,-0.824810266,-0.001756211,0.014060332,0.00437067,0.040744241,0.3277143239974976,0.5794503092765808,-0.212097034,0.5679927468299866,-1.051064253
0.659979522,0.5387724041938782,0.190827489,-0.823088229,0.000201191,0.011481156,0.003477838,0.040751919,0.327806145,0.5795670747756958,-0.212118596,0.5680497884750366,-1.050935984
0.664981782,0.5405921936035156,0.1910521686077118,-0.823744476,0.001585067,0.01225478,0.003075809,0.040754464,0.3278366029262543,0.5796058177947998,-0.212131977,0.5681173801422119,-1.05081737
0.669979155,0.5417026877403259,0.1907667070627213,-0.822842121,0.000352286,0.011367578,0.002144183,0.040756423,0.327860028,0.5796356201171875,-0.212153867,0.5681788325309753,-1.050694704
0.674983919,0.5400455594062805,0.1891366690397263,-0.822661519,9.331724140793085e-05,0.012086831,0.004881617,0.040365152,0.3275164365768433,0.5793129205703735,-0.212158114,0.5682405829429626,-1.050555944
0.679983616,0.5387746691703796,0.1889707297086716,-0.823151827,0.001323905,0.011809928,0.004670884,0.040064093,0.32725206,0.5790646076202393,-0.21217075,0.5683006048202515,-1.050427794
0.684983552,0.5398778319358826,0.1894835382699966,-0.822896242,0.000664405,0.01037866,0.003835763,0.03996427,0.3271644115447998,0.5789822936058044,-0.212181717,0.5683492422103882,-1.05029428
0.6899845,0.5390797853469849,0.1894114017486572,-0.822430849,0.00109933,0.008499619,0.00351725,0.039887462,0.3270969688892365,0.5789189338684082,-0.212188452,0.5683992505073547,-1.05015862
0.694986761,0.539830744,0.1872449815273285,-0.822472692,0.001675432,0.007959965,0.00536798,0.040000852,0.3272448480129242,0.5788654088973999,-0.212189451,0.5684453845024109,-1.05001986
0.699983895,0.5393319129943848,0.1861168593168259,-0.821679652,-0.000164716,0.00731497,0.004509942,0.040228516,0.3275307714939117,0.5787913203239441,-0.212195918,0.568484902,-1.049876451
0.704982519,0.5390577912330627,0.1852563917636871,-0.821808755,-0.000856496,0.006797762,0.004636171,0.040304001,0.3276256024837494,0.5787667632102966,-0.212208867,0.5685194134712219,-1.049731255
0.709981978,0.5351900458335876,0.1859950721263885,-0.822345912,-0.00415428,0.008355087,0.005309826,0.040362082,0.3276985585689545,0.5787478089332581,-0.212227866,0.5685638189315796,-1.049590111
0.714982152,0.5362458229064941,0.1866089850664139,-0.822518229,-0.003999101,0.011021717,0.004262514,0.040381342,0.3277227282524109,0.5787415504455566,-0.212261289,0.5686166882514954,-1.049467325
0.719983101,0.5360339283943176,0.1901833564043045,-0.821706414,-0.002973906,0.012190648,0.00496365,0.040463597,0.327606738,0.5789329409599304,-0.21229355,0.5686734914779663,-1.049337268
0.724985361,0.5395496487617493,0.1920973658561707,-0.823884547,-0.002884901,0.011883635,0.007188962,0.040490873,0.3275682926177979,0.5789964199066162,-0.212325379,0.5687399506568909,-1.049203396
0.729982436,0.5400528311729431,0.1913820207118988,-0.824711323,-0.002863522,0.012507571,0.005099759,0.040511858,0.3275386989116669,0.5790452361106873,-0.212351963,0.5688126683235168,-1.049072504
0.734980583,0.5385599732398987,0.1889831870794296,-0.824608505,-0.002278905,0.011692893,0.009161847,0.040518817,0.3275288939476013,0.5790613889694214,-0.212354511,0.5688737630844116,-1.048913956
0.739979506,0.5389634370803833,0.1860566586256027,-0.82430321,-0.002017975,0.012880499,0.007894638,0.040325541,0.3274756669998169,0.5792257189750671,-0.212363586,0.5689488053321838,-1.04876709
0.744979739,0.5388886332511902,0.1855582892894745,-0.8252635,-0.004125501,0.015514428,0.006306008,0.040212303,0.3274466991424561,0.5793178081512451,-0.212390527,0.5690258145332336,-1.048627257
0.749980688,0.5398170948028564,0.1858395934104919,-0.823307037,-0.005194342,0.014468398,0.006189059,0.040125173,0.3274244368076324,0.5793886780738831,-0.21242401,0.5691062211990356,-1.048492908
0.754983425,0.5399572849273682,0.1900951564311981,-0.822806835,-0.004615582,0.017038742,0.003896506,0.040096283,0.3274170458316803,0.5794121623039246,-0.212474123,0.5691927671432495,-1.048374772
0.759981334,0.539481521,0.1924341917037964,-0.821271956,-0.004495896,0.014814405,0.005357177,0.039961476,0.3274123072624207,0.5792927742004395,-0.212520435,0.5692724585533142,-1.048251152
0.764979184,0.5402957797050476,0.191201389,-0.821257591,-0.004010896,0.015230476,0.004249557,0.039803248,0.3274116218090057,0.5791146159172058,-0.212563753,0.569346547,-1.048140883
0.769978344,0.5376878976821899,0.190299004,-0.821689963,-0.003302031,0.015580046,0.004209041,0.039681502,0.3274111449718475,0.5789775252342224,-0.212598503,0.5694307088851929,-1.04802227
0.774979055,0.5382368564605713,0.1885804533958435,-0.822940528,-0.003177446,0.013954425,0.004012692,0.039641134,0.3274109661579132,0.5789321064949036,-0.212628424,0.5695001482963562,-1.047900319
0.779980004,0.5386946797370911,0.187134713,-0.823111951,-0.003660587,0.015139086,0.005025984,0.039610077,0.3274108469486237,0.5788971185684204,-0.21265997,0.5695741772651672,-1.047780156
0.784982026,0.5405832529067993,0.1867905706167221,-0.822891235,-0.004365536,0.014440384,0.004199219,0.039502148,0.3273096680641174,0.5787411332130432,-0.212702021,0.5696471333503723,-1.047665238
0.789979398,0.5411047339439392,0.184961662,-0.823621392,-0.004320385,0.015601076,0.004025892,0.039419103,0.3272318542003632,0.5786210894584656,-0.212730125,0.569727361,-1.04753983
0.794977307,0.5403386950492859,0.1865968257188797,-0.821821392,-0.005595906,0.015027693,0.002482426,0.039391566,0.3272060453891754,0.5785812735557556,-0.212771222,0.5698043704032898,-1.047420263
0.799976468,0.5408390760421753,0.187244713,-0.822193742,-0.004932835,0.015449991,0.003049186,0.03937038,0.3271861672401428,0.5785506367683411,-0.212818891,0.5698857307434082,-1.047308445
0.804976642,0.5414184331893921,0.1890233755111694,-0.82119143,-0.005893448,0.016806152,0.003927138,0.03933455,0.3272095322608948,0.5785965323448181,-0.212876365,0.5699702501296997,-1.047199249
0.809984028,0.541813076,0.1893329918384552,-0.821328104,-0.004127605,0.015393754,0.002406772,0.039277859,0.3272577226161957,0.5786885023117065,-0.21292004,0.5700558423995972,-1.047090888
0.814986229,0.5431947708129883,0.1900304108858109,-0.820668042,-0.003378754,0.014671697,0.004018347,0.039259065,0.3272737264633179,0.5787189602851868,-0.212966576,0.5701302886009216,-1.046977401
0.819983602,0.5424118638038635,0.1874324381351471,-0.821025372,-0.002033667,0.013951708,0.005550444,0.0392446,0.3272860050201416,0.5787424445152283,-0.212983415,0.5702103972434998,-1.046839833
0.824981511,0.5425818562507629,0.1900673657655716,-0.819633782,-0.002375241,0.013476497,0.006238941,0.039239805,0.3272900879383087,0.5787501931190491,-0.213011369,0.5702820420265198,-1.046717763
0.829980671,0.5434325933456421,0.1918256878852844,-0.819283128,8.750736014917493e-05,0.01152441,0.007226228,0.03897221,0.3271680176258087,0.5792854428291321,-0.21301727,0.5703526735305786,-1.04657197
0.834980845,0.5433800220489502,0.1943310350179672,-0.818680644,0.003691188,0.010174143,0.009603458,0.038883481,0.3271275460720062,0.5794629454612732,-0.213007748,0.5704135894775391,-1.046424389
0.839981794,0.5413438081741333,0.1926145553588867,-0.819304526,0.003619626,0.008203992,0.010199561,0.038815212,0.3270964026451111,0.5795994997024536,-0.212988749,0.5704634189605713,-1.046272874
0.844984055,0.5419051051139832,0.1916228532791138,-0.820272505,0.005552568,0.006169108,0.012542584,0.038792573,0.3270860612392426,0.5796447396278381,-0.212944001,0.5705075860023499,-1.046089768
0.849981189,0.5396101474761963,0.1883313953876495,-0.82359606,0.00587355,0.007942569,0.011286144,0.039119676,0.3271802663803101,0.5804582834243774,-0.212899327,0.5705515742301941,-1.045917034
0.854979336,0.5404128432273865,0.1870448440313339,-0.825459361,0.005966429,0.006926256,0.012020995,0.039313391,0.3272367715835571,0.5809207558631897,-0.2128537,0.570594847,-1.045749784
0.859978259,0.5389411449432373,0.184457928,-0.825101733,0.004777896,0.008481082,0.008163473,0.039462443,0.3272802531719208,0.5812765955924988,-0.212822869,0.5706409215927124,-1.045592546
0.864978194,0.5390937924385071,0.1835385262966156,-0.824266672,0.003872731,0.008187188,0.007883515,0.039511867,0.3272946774959564,0.5813946127891541,-0.212791666,0.570685863,-1.045441747
0.869979143,0.5406941771507263,0.1832473129034042,-0.824606061,0.001156462,0.00843715,0.0075546,0.039437,0.3273077011108398,0.581459641,-0.212784559,0.570733905,-1.045289755
0.874981403,0.5407305359840393,0.1821353882551193,-0.82460016,-0.000408899,0.009054751,0.002938038,0.039298341,0.3273139595985413,0.5814552307128906,-0.212792471,0.5707801580429077,-1.045162559
0.879978776,0.5422059297561646,0.1805057972669601,-0.824895084,-0.00250218,0.010720645,0.001578064,0.039191652,0.3273187875747681,0.5814518928527832,-0.212811172,0.5708304643630981,-1.045037746
0.884976923,0.541259229,0.1829104423522949,-0.823275387,-0.008502306,0.00942946,-0.000461231,0.039156273,0.3273203670978546,0.5814507603645325,-0.212875694,0.5708783864974976,-1.044937849
0.889976084,0.5427674651145935,0.1822576224803925,-0.823271811,-0.009752804,0.010725087,-0.001232205,0.039129052,0.3273215889930725,0.5814498662948608,-0.212947056,0.570930004,-1.044843197
0.894976258,0.5433344841003418,0.1868631839752197,-0.819933176,-0.010041496,0.009272422,-0.004198328,0.03867298,0.3273288607597351,0.5812615752220154,-0.213037238,0.5709738731384277,-1.044763088
0.899977446,0.5441159009933472,0.1880259364843369,-0.820177794,-0.008406708,0.008731576,-0.003703664,0.038322061,0.327334464,0.5811166167259216,-0.213120446,0.5710180401802063,-1.044680595
0.904979706,0.5442020893096924,0.1885975003242493,-0.819487154,-0.010071089,0.006578749,-0.000689059,0.038205706,0.327336311,0.5810685753822327,-0.213196024,0.5710540413856506,-1.044578671
0.90997684,0.5433698892593384,0.191506103,-0.818215728,-0.012194678,0.006650729,0.002348199,0.038116179,0.327337772,0.5810316205024719,-0.213281736,0.57108897,-1.044468045
0.914974988,0.5437804460525513,0.188880444,-0.81811887,-0.013748432,0.004086718,0.004862872,0.038258165,0.3272450268268585,0.5806541442871094,-0.213358402,0.5711233615875244,-1.044335485
0.919974148,0.5447288751602173,0.1850135624408722,-0.820253491,-0.016722893,0.005293758,0.004791905,0.038540997,0.3270794153213501,0.5799944400787354,-0.213445976,0.5711687207221985,-1.044196606
0.924974322,0.5455261468887329,0.1837311834096909,-0.819746256,-0.019019814,0.003478914,0.002926426,0.038634781,0.3270244896411896,0.5797756910324097,-0.213541433,0.5711913704872131,-1.044061542
0.929976046,0.5457062125205994,0.1821383982896805,-0.821689844,-0.018625082,-0.000487849,0.002698128,0.03870694,0.3269822299480438,0.579607368,-0.213637754,0.5711963176727295,-1.043920755
0.934978068,0.5469357967376709,0.1841968595981598,-0.818968832,-0.021440884,-0.00209004,-0.000608619,0.038730863,0.3269682228565216,0.5795515179634094,-0.213765621,0.5711950659751892,-1.043805957
0.939975142,0.5479252338409424,0.1848027110099792,-0.819191873,-0.023026137,-0.004764204,-0.003597825,0.038743936,0.3271039128303528,0.5807482600212097,-0.213900715,0.5711764097213745,-1.043696642
0.944979966,0.5434204936027527,0.1841036081314087,-0.819377959,-0.02435836,-0.007879464,-0.007621629,0.038748272,0.3271488845348358,0.5811451077461243,-0.214049011,0.5711304545402527,-1.043612599
0.949985027,0.5431594848632813,0.1801179200410843,-0.820870101,-0.02702947,-0.007828883,-0.007958587,0.03875161,0.3271835148334503,0.5814504027366638,-0.214208752,0.5710849165916443,-1.043519258
0.954984963,0.5383110046386719,0.1770497858524323,-0.820167363,-0.042031989,-0.002451844,-0.002164475,0.038752716,0.3271949887275696,0.5815516710281372,-0.214419723,0.5710644125938416,-1.043402195
0.95998615,0.5315478444099426,0.1787783950567245,-0.820412457,-0.06374532,0.013724573,0.011831239,0.039009787,0.3266406357288361,0.5817292332649231,-0.214727223,0.5711327791213989,-1.043235421
0.964988172,0.5303632616996765,0.1809417605400085,-0.819597363,-0.087891258,0.031016698,0.026591994,0.03915843,0.3263174593448639,0.5818127989768982,-0.215131685,0.5713152289390564,-1.043003321
0.969985545,0.5351407527923584,0.1825334131717682,-0.819759011,-0.1071316,0.04504016,0.038652271,0.039273202,0.326068789,0.5818563103675842,-0.215586603,0.5715909600257874,-1.042701721
0.974983454,0.5418140292167664,0.1841143518686295,-0.820051074,-0.116271369,0.05204007,0.045749132,0.039311361,0.3259863257408142,0.5818656086921692,-0.216072544,0.5719114542007446,-1.04237771
0.979982853,0.5429763197898865,0.1832406371831894,-0.815634608,-0.12051136,0.052801907,0.041298449,0.03917468,0.3257772028446198,0.5813751220703125,-0.216601789,0.5722211599349976,-1.042081237
0.984983027,0.546750009,0.1819257885217667,-0.816524982,-0.118167855,0.047949485,0.037561819,0.038961925,0.3255609571933746,0.5807107090950012,-0.217107534,0.5725125670433044,-1.041796803
0.989984274,0.549618125,0.1843342781066895,-0.81711024,-0.112730652,0.03943466,0.027589705,0.038798224,0.3253945410251617,0.5801995396614075,-0.217615962,0.572751522,-1.041571856
0.994986236,0.5518187880516052,0.1897316426038742,-0.819020092,-0.105414465,0.028614443,0.016574522,0.038743947,0.3253393769264221,0.5800300240516663,-0.218130559,0.5729139447212219,-1.04140377
0.99998337,0.5492468476295471,0.1917177736759186,-0.818793356,-0.098715603,0.018940335,0.006759141,0.038702182,0.325296938,0.5798996090888977,-0.218635798,0.5730116963386536,-1.041290522
1.004981518,0.5502159595489502,0.1936477571725845,-0.819463074,-0.093212835,0.010320942,0.001919698,0.038344663,0.3248869180679321,0.5803099870681763,-0.219126686,0.5730681419372559,-1.041196346
1.00998044,0.5496281385421753,0.1987887918949127,-0.817523718,-0.087841131,0.004030078,-0.000301051,0.038069576,0.3245714008808136,0.5806257128715515,-0.219606623,0.5730886459350586,-1.041117549
1.014980555,0.5484457612037659,0.2007979154586792,-0.816428661,-0.085528053,-0.000397963,-0.001601132,0.037978366,0.3244667947292328,0.5807303786277771,-0.220074296,0.5730849504470825,-1.041040778
1.019981623,0.5478162169456482,0.1974508911371231,-0.817189634,-0.083467662,-0.004079165,-0.001534867,0.037908182,0.324386328,0.5808109045028687,-0.22051613,0.5730689764022827,-1.040943623
1.024984121,0.5448680520057678,0.1937404274940491,-0.818657458,-0.083360851,-0.005198345,-0.003876369,0.037917126,0.3239328563213348,0.5815955996513367,-0.220957771,0.5730417966842651,-1.040848494
1.029981494,0.5455626845359802,0.1889155954122543,-0.820030034,-0.085983947,-0.004630396,-0.00421033,0.037956577,0.3231524229049683,0.5829657316207886,-0.221407741,0.5730158090591431,-1.04075253
1.034979582,0.5468354225158691,0.1894765347242355,-0.817124426,-0.087544836,-0.00466157,-0.005390739,0.037969656,0.3228936493396759,0.5834200978279114,-0.221872747,0.5729994177818298,-1.040662408
1.039978504,0.5432875752449036,0.1949989348649979,-0.813776135,-0.08623331,-0.005942266,-0.006906278,0.037979722,0.3226945400238037,0.5837696194648743,-0.222346112,0.5729637742042542,-1.040590405
1.044978738,0.5383705496788025,0.2002651691436768,-0.814593911,-0.084108114,-0.007423364,-0.008349508,0.03798306,0.322628528,0.5838855504989624,-0.22282207,0.5729096531867981,-1.040548444
1.049979687,0.5353838205337524,0.2100861072540283,-0.816664755,-0.078589462,-0.006029164,-0.007773616,0.038127545,0.3220275044441223,0.5831943154335022,-0.223283216,0.5728534460067749,-1.040518165
1.054981947,0.5343843102455139,0.2177431136369705,-0.817995608,-0.069076642,-0.008400222,-0.007071333,0.038175453,0.3218282163143158,0.5829651355743408,-0.223707482,0.5727887749671936,-1.040497065
1.059978962,0.5369206070899963,0.2206341624259949,-0.815563142,-0.056580532,-0.01099711,-0.005232973,0.038212318,0.3216748833656311,0.5827888250350952,-0.224058002,0.572721541,-1.040455937
1.064977169,0.5425469279289246,0.2175022512674332,-0.816375017,-0.045381702,-0.015115113,-0.002101452,0.038224541,0.3216240406036377,0.5827303528785706,-0.224330321,0.5726450681686401,-1.040382743
1.069976091,0.5433900952339172,0.2143149226903915,-0.816205859,-0.034971423,-0.018613223,-0.001278737,0.038135521,0.3214379251003265,0.5830821394920349,-0.224539801,0.5725494623184204,-1.040295601
1.074976563,0.5431357622146606,0.2080433368682861,-0.81750685,-0.026565321,-0.022821419,0.000201171,0.038081646,0.3213398456573486,0.5832970142364502,-0.224683523,0.572439432,-1.040174723
1.079983592,0.5422781705856323,0.2025611102581024,-0.819639266,-0.023026843,-0.025083411,0.001144178,0.038040195,0.3212643563747406,0.5834623575210571,-0.224796623,0.5723198056221008,-1.040045738
1.084985852,0.5400076508522034,0.198271707,-0.821552694,-0.018197145,-0.024965458,-0.003848163,0.038026448,0.3212393224239349,0.5835171937942505,-0.224889562,0.5721875429153442,-1.039930463
1.089983225,0.5410595536231995,0.1978136450052261,-0.821266294,-0.016899478,-0.025348576,-0.003361318,0.03793598,0.3209028244018555,0.5834249258041382,-0.224982008,0.5720588564872742,-1.039825082
1.094981074,0.5386000871658325,0.1973674893379211,-0.822395325,-0.015942778,-0.024759922,-0.005466274,0.037825417,0.320471317,0.5832587480545044,-0.22507681,0.5719219446182251,-1.039727211
1.099980235,0.5399640202522278,0.1978503912687302,-0.824287891,-0.014569273,-0.021230146,-0.00455397,0.037740346,0.3201392889022827,0.5831308960914612,-0.225165486,0.5718055367469788,-1.03963387
1.104980469,0.5406204462051392,0.2015951424837112,-0.824213505,-0.013854666,-0.019048413,-0.004165494,0.037712138,0.320029229,0.5830885171890259,-0.225261226,0.5717019438743591,-1.039539576
1.109981656,0.5381262898445129,0.2048850208520889,-0.824390054,-0.013433169,-0.017240884,-0.003915729,0.037690435,0.3199445307254791,0.5830559134483337,-0.225358218,0.5716018676757813,-1.039458156
1.114983678,0.5387039184570313,0.2047206461429596,-0.824725628,-0.009848636,-0.014492346,-0.002792953,0.037883051,0.3198127150535583,0.5832390785217285,-0.225432113,0.5715211033821106,-1.039366961
1.11998105,0.5402588844299316,0.2086950540542603,-0.821606338,-0.007347294,-0.013987982,-0.001211795,0.038031261,0.319711298,0.5833799839019775,-0.225506261,0.5714454650878906,-1.039280891
1.124979734,0.5423389673233032,0.2124482244253159,-0.819943309,-0.000202249,-0.015108527,-0.000847659,0.038080402,0.3196776807308197,0.5834267139434814,-0.225545183,0.5713744163513184,-1.039190888
1.129978895,0.5412519574165344,0.2122021466493607,-0.820400715,0.00529694,-0.014890896,0.001318348,0.038118217,0.3196518123149872,0.583462656,-0.225543335,0.5713016986846924,-1.039090514
1.134978771,0.5408715009689331,0.2092685401439667,-0.821452737,0.010663219,-0.015581315,0.004096845,0.03824183,0.3197023570537567,0.5838626027107239,-0.225504681,0.5712203979492188,-1.038967609
1.139980078,0.5419532656669617,0.2074531018733978,-0.823034883,0.016693182,-0.017389441,0.00507544,0.038449254,0.3198010325431824,0.5845625996589661,-0.225423023,0.5711438059806824,-1.038831592
1.144982219,0.5437546372413635,0.208635151,-0.82057786,0.020941064,-0.019787643,0.005657452,0.038518034,0.3198337554931641,0.5847947597503662,-0.225325078,0.5710532069206238,-1.038688779
1.149979591,0.5435481071472168,0.2053479105234146,-0.820028543,0.027353819,-0.019348765,0.005960092,0.038570955,0.3198589384555817,0.5849733948707581,-0.225181848,0.5709652304649353,-1.038530827
1.154978037,0.5431508421897888,0.2009260058403015,-0.820564747,0.030328983,-0.020769633,0.007617264,0.038588502,0.3198672831058502,0.585032582,-0.225009695,0.5708736181259155,-1.03836143
1.159977198,0.5438261032104492,0.1992970257997513,-0.820116341,0.033420641,-0.025746332,0.007511668,0.039200671,0.3197205066680908,0.5843496918678284,-0.224821866,0.5707539916038513,-1.03817749
1.164977193,0.5428747534751892,0.1966206282377243,-0.819805682,0.03589974,-0.027741887,0.008702376,0.039403655,0.3196718394756317,0.5841232538223267,-0.224608183,0.5706373453140259,-1.037985086
1.169978142,0.5447847247123718,0.196937621,-0.81788224,0.039884672,-0.029211134,0.008506243,0.039559837,0.3196343779563904,0.5839490294456482,-0.22438018,0.5705126523971558,-1.037793875
1.174980402,0.5430870652198792,0.1963363885879517,-0.820152342,0.040312737,-0.029824644,0.008076465,0.039611623,0.3196219801902771,0.5838912129402161,-0.224147916,0.5703784227371216,-1.037606239
1.179977417,0.5420262813568115,0.1936043053865433,-0.821645617,0.040382519,-0.034557268,0.005278959,0.039351314,0.3198179602622986,0.5834569931030273,-0.223912075,0.5702151656150818,-1.037420273
1.184975624,0.5426981449127197,0.1950885057449341,-0.822230518,0.039213505,-0.035482299,0.003177136,0.039190724,0.3199338316917419,0.5832165479660034,-0.223693833,0.5700470805168152,-1.037251353
1.189974546,0.5426567792892456,0.1957805305719376,-0.821088731,0.041598599,-0.036330868,0.004216868,0.039067164,0.3200229704380035,0.5830315947532654,-0.223472521,0.5698798894882202,-1.037088752
1.194974661,0.5428865551948547,0.1991512328386307,-0.81986165,0.04220476,-0.034517203,0.003381447,0.039026197,0.3200525343418121,0.5829702615737915,-0.223246604,0.5697143077850342,-1.03692472
1.199976206,0.5435954332351685,0.2027927041053772,-0.818226337,0.042296723,-0.03839935,0.00426662,0.039048158,0.3203043937683105,0.5828356742858887,-0.223033398,0.5695353746414185,-1.03676796
1.204978466,0.5421122312545776,0.2031778991222382,-0.818264842,0.046231296,-0.040222891,0.004223625,0.039109372,0.3206189572811127,0.5827029347419739,-0.222795457,0.5693426132202148,-1.036606789
1.209981441,0.5396389961242676,0.2014528959989548,-0.818831265,0.047548894,-0.042563584,0.005756019,0.039156474,0.3208610117435455,0.5826008319854736,-0.222535983,0.5691433548927307,-1.036429644
1.214979529,0.5401059985160828,0.2014389187097549,-0.818572342,0.050330568,-0.042811554,0.009299544,0.039172091,0.3209412395954132,0.5825669169425964,-0.222254053,0.5689453482627869,-1.03623271
1.219978452,0.5409941673278809,0.2034284919500351,-0.817152143,0.054024138,-0.044570614,0.011474829,0.039184105,0.3210029900074005,0.5825408697128296,-0.221950978,0.5687458515167236,-1.036026239
1.224978685,0.5406768321990967,0.2058040201663971,-0.816574931,0.056705657,-0.045838907,0.013970054,0.039533243,0.3212205767631531,0.5825724601745605,-0.221627831,0.5685375928878784,-1.035804629
1.229979634,0.5412552952766418,0.2069302499294281,-0.816886723,0.06020768,-0.046595763,0.014681639,0.039801877,0.3213879764080048,0.5825967192649841,-0.221286297,0.5683351755142212,-1.035578251
1.234981894,0.5371634364128113,0.2057469189167023,-0.820410073,0.062979929,-0.048452109,0.017140821,0.039890952,0.321443498,0.5826047658920288,-0.220916852,0.5681053400039673,-1.03533721
1.239979029,0.5382147431373596,0.2034741193056107,-0.820136607,0.065829091,-0.047266044,0.019943921,0.03995949,0.3214862048625946,0.5826109647750854,-0.220526949,0.5678990483283997,-1.035076737
1.244976878,0.5380315184593201,0.2003284841775894,-0.822790921,0.067688882,-0.046662588,0.021595338,0.04034806,0.3216077387332916,0.5824930667877197,-0.220118344,0.5676873922348022,-1.034813404
1.249976277,0.5383328795433044,0.1984738111495972,-0.822428346,0.069693014,-0.044756331,0.020833097,0.041016966,0.3218098282814026,0.5822809934616089,-0.219697192,0.5674937963485718,-1.034543753
1.254976273,0.539190948,0.1952234208583832,-0.822811306,0.068879113,-0.043049138,0.023459142,0.041238762,0.3218768537044525,0.5822106599807739,-0.219274387,0.5673100352287292,-1.034261942
1.25997746,0.537956178,0.1923970878124237,-0.822424471,0.066638626,-0.040534176,0.022393188,0.041409418,0.3219284117221832,0.5821565389633179,-0.218854025,0.5671402812004089,-1.033976197
1.264979482,0.5335825085639954,0.1921194195747375,-0.824901581,0.063071184,-0.036564272,0.02125736,0.041466005,0.3219455182552338,0.5821385979652405,-0.218466356,0.5669668316841125,-1.033711314
1.269976854,0.5309779644012451,0.1956921815872192,-0.824277222,0.064073935,-0.033879686,0.022307778,0.041302346,0.3223785758018494,0.5832998752593994,-0.218080431,0.5668141841888428,-1.033456802
1.274974942,0.5301128029823303,0.1982329189777374,-0.822779119,0.064818613,-0.030111047,0.02407353,0.041248079,0.3225221633911133,0.5836849808692932,-0.217698097,0.5666871666908264,-1.033204436
1.279974103,0.5344917774200439,0.1987453699111938,-0.821316898,0.066274308,-0.03021499,0.026845261,0.041206323,0.3226326704025269,0.5839812755584717,-0.21729514,0.5665664672851563,-1.032931447
1.284974098,0.5375115275382996,0.199886367,-0.822014391,0.068949662,-0.028087499,0.031087743,0.041192479,0.3226692974567413,0.5840795040130615,-0.216864526,0.5664665102958679,-1.032628179
1.289975286,0.5384960174560547,0.1999371945858002,-0.82260555,0.069849037,-0.027983958,0.035594426,0.040977024,0.3233996629714966,0.5826762914657593,-0.216421902,0.5663695931434631,-1.032306552
1.294977546,0.5382131338119507,0.2000451385974884,-0.820214212,0.07352414,-0.029035227,0.038809977,0.040854901,0.3238156139850616,0.5818451046943665,-0.215943143,0.5662738680839539,-1.03196907
1.299974918,0.5390350222587585,0.2006916850805283,-0.819916666,0.075315796,-0.027934367,0.043915953,0.040760938,0.3241356313228607,0.5812055468559265,-0.215443045,0.5661869049072266,-1.031599283
1.304973006,0.5363876223564148,0.1999579966068268,-0.820060968,0.080064848,-0.028033508,0.04815859,0.040729783,0.3242417573928833,0.5809934735298157,-0.214911789,0.566097617,-1.031210661
1.309972167,0.5369074940681458,0.1980700641870499,-0.817980587,0.081937149,-0.02761161,0.050338473,0.040959992,0.3243184983730316,0.5808254480361938,-0.214364469,0.5660287141799927,-1.030808926
1.314972401,0.5397260785102844,0.1907465904951096,-0.820374727,0.079127975,-0.031398211,0.051477637,0.041292641,0.324338973,0.5807647705078125,-0.213804811,0.5659388899803162,-1.030373573
1.319973588,0.5392187833786011,0.1832216680049896,-0.823269367,0.078094862,-0.02964405,0.050105948,0.041548595,0.3243547379970551,0.5807181000709534,-0.213239476,0.56585294,-1.029928923
1.324975848,0.5356548428535461,0.1808483600616455,-0.825754702,0.07411883,-0.031727254,0.046578415,0.041633464,0.3243599832057953,0.5807026624679565,-0.212703004,0.5657421946525574,-1.029511929
1.329972982,0.5362265110015869,0.1791300028562546,-0.825266778,0.068110742,-0.028537588,0.046261717,0.041698765,0.3243640065193176,0.5806908011436462,-0.212210208,0.5656500458717346,-1.029107332
1.334971428,0.5379399657249451,0.1794349104166031,-0.827852666,0.063711308,-0.025639344,0.044160649,0.042163994,0.3247094452381134,0.5803301930427551,-0.211734414,0.5655694603919983,-1.028713703
1.33997035,0.5350850224494934,0.1825539320707321,-0.825937688,0.060611676,-0.02563905,0.043583255,0.042521957,0.3249752223491669,0.5800527334213257,-0.211292937,0.5654957890510559,-1.028328896
1.344976425,0.5345507860183716,0.1843785047531128,-0.825025797,0.05810155,-0.023682948,0.04262232,0.042640649,0.3250633478164673,0.5799607038497925,-0.210879534,0.5654241442680359,-1.027969837
1.349977612,0.5357481241226196,0.187847376,-0.823906302,0.0558661,-0.021285182,0.044455208,0.042731974,0.3251311480998993,0.5798898935317993,-0.210468814,0.5653674006462097,-1.027593732
1.354979873,0.5363636016845703,0.1899472773075104,-0.823891759,0.056189619,-0.019932671,0.043006573,0.042730857,0.3253849148750305,0.5798364877700806,-0.210066289,0.5653164386749268,-1.027236462
1.359977007,0.5352363586425781,0.189503089,-0.822011411,0.058766883,-0.021646114,0.046183463,0.042698249,0.3258140087127686,0.5797652006149292,-0.209639639,0.5652590394020081,-1.026861906
1.364975095,0.537960947,0.1897937655448914,-0.822571874,0.056769256,-0.021935474,0.047957826,0.042687438,0.3259562849998474,0.5797415375709534,-0.209220275,0.5652094483375549,-1.026463628
1.369974017,0.5368567705154419,0.191521168,-0.823355556,0.060630277,-0.021073034,0.050490689,0.042679116,0.3260657787322998,0.5797232985496521,-0.208777115,0.5651577711105347,-1.026075602
1.374974489,0.5336429476737976,0.1947418004274368,-0.821655333,0.059793934,-0.019242672,0.053482469,0.042676356,0.326102078,0.5797172784805298,-0.208346188,0.5651196837425232,-1.025666118
1.379975677,0.5333541631698608,0.2001344859600067,-0.823869526,0.065330409,-0.018736999,0.058618929,0.043526638,0.3264577984809875,0.5804109573364258,-0.207873538,0.5650852918624878,-1.025240779
1.384977937,0.5326871275901794,0.2004628032445908,-0.825001419,0.069143273,-0.016800504,0.061385222,0.043808576,0.3265757262706757,0.5806409120559692,-0.207382753,0.5650585293769836,-1.024811268
1.389975071,0.5307749509811401,0.1985328793525696,-0.825493217,0.070732929,-0.016086368,0.064725325,0.044025511,0.3266664743423462,0.5808179378509521,-0.206869438,0.5650324821472168,-1.024358869
1.394973159,0.5328510999679565,0.1951097697019577,-0.826695859,0.075732976,-0.014066614,0.069233619,0.044097442,0.3266965746879578,0.5808765888214111,-0.206297949,0.5650306344032288,-1.023863196
1.399972558,0.5346900224685669,0.1941781342029572,-0.823750973,0.075441003,-0.012574943,0.068869926,0.044101212,0.3270662724971771,0.5797881484031677,-0.205744699,0.5650425553321838,-1.023384809
1.404972553,0.5328230857849121,0.1898805499076843,-0.823166251,0.075412787,-0.009167051,0.06729909,0.044089697,0.3272745907306671,0.5791467428207397,-0.205186754,0.5650622844696045,-1.022912741
1.409973741,0.5324236750602722,0.1794683188199997,-0.822191596,0.073448434,-0.009158695,0.063925743,0.044080839,0.3274348974227905,0.5786531567573547,-0.204627171,0.5650845766067505,-1.022443891
1.414975762,0.5339735746383667,0.1727986037731171,-0.823590815,0.070442721,-0.006533071,0.060840916,0.044077899,0.3274880349636078,0.5784895420074463,-0.204090193,0.5651116967201233,-1.02198422
1.419972897,0.5334262251853943,0.1739638447761536,-0.826488078,0.064373031,-0.003843716,0.057835829,0.04415717,0.327703059,0.5786392092704773,-0.203596428,0.5651508569717407,-1.021550894
1.424971223,0.534481943,0.1820196360349655,-0.825822711,0.060985941,-0.001301431,0.056541655,0.044265665,0.3279500007629395,0.5789667963981628,-0.203140497,0.5652035474777222,-1.021135688
1.429970384,0.5335604548454285,0.1918084174394608,-0.824400306,0.062469952,-0.000111333,0.056770787,0.044349141,0.3281400203704834,0.5792188048362732,-0.202700689,0.5652556419372559,-1.020748615
1.434970379,0.5316699147224426,0.1974154561758041,-0.824403107,0.067246065,0.001508336,0.059827004,0.044376824,0.3282029926776886,0.5793023705482483,-0.202237278,0.5653126239776611,-1.020354509
1.439971328,0.5305771827697754,0.1960991770029068,-0.82406956,0.070937462,0.0011908,0.063359573,0.044398122,0.3282514810562134,0.5793666839599609,-0.201743126,0.5653684735298157,-1.019939542
1.44497335,0.533101499,0.1904733031988144,-0.8238855,0.074098162,0.001738444,0.067095883,0.044701062,0.3286096155643463,0.5784935355186462,-0.201195806,0.5654449462890625,-1.019484282
1.449970722,0.5359703898429871,0.1854901015758514,-0.82489717,0.081455141,0.000930995,0.068444967,0.044934154,0.3288851678371429,0.5778217315673828,-0.200606436,0.5655138492584229,-1.019010663
1.45496881,0.5375854969024658,0.1826815456151962,-0.822443545,0.082302637,-0.001272611,0.070638612,0.045011442,0.3289765417575836,0.5775989294052124,-0.199997455,0.5655881762504578,-1.01851356
1.459967971,0.5409831404685974,0.1824908852577209,-0.821969151,0.085779585,-0.003059357,0.07313095,0.045070909,0.3290468454360962,0.5774275064468384,-0.199364543,0.5656594038009644,-1.018002868
1.464967966,0.5411896109580994,0.1832692623138428,-0.823091507,0.088363379,-0.004351072,0.076417431,0.045315586,0.3291516304016113,0.577281654,-0.198717222,0.5657172799110413,-1.017472863
1.469969153,0.5403390526771545,0.1826215535402298,-0.823558271,0.089871049,-0.007118465,0.077257618,0.045731321,0.3293146789073944,0.5770793557167053,-0.198045835,0.5657649040222168,-1.016928911
1.474971414,0.5368489027023315,0.1803226172924042,-0.824657679,0.093714878,-0.007135063,0.07930778,0.045869168,0.3293687403202057,0.5770123,-0.197350249,0.5658096075057983,-1.016383886
1.479974627,0.5377323031425476,0.1784252822399139,-0.824549615,0.095432281,-0.007233553,0.080613136,0.045975234,0.3294103145599365,0.5769606828689575,-0.196636751,0.565858781,-1.01581943
1.484972835,0.5383883714675903,0.1802478730678558,-0.823804319,0.099103369,-0.008304094,0.081748351,0.046010405,0.329424113,0.576943576,-0.195907488,0.5659022331237793,-1.015252352
1.489971757,0.5379714369773865,0.1812962144613266,-0.821318507,0.09778256,-0.005033487,0.079857752,0.046094455,0.3301078677177429,0.576790988,-0.195208669,0.5659646987915039,-1.014713407
1.494971871,0.5352184176445007,0.1713859587907791,-0.828348756,0.093385421,-0.003036165,0.075329095,0.046122324,0.3303345739841461,0.5767403841018677,-0.194515616,0.5660160183906555,-1.014182925
1.49997282,0.5295534133911133,0.1627101302146912,-0.832866251,0.08958745,-0.000688396,0.074257784,0.046143766,0.3305090069770813,0.5767014622688293,-0.193825632,0.5660733580589294,-1.013651133
1.504975319,0.5285149216651917,0.1561667323112488,-0.835898638,0.083089165,0.005877529,0.07086128,0.046150878,0.3305668532848358,0.5766885876655579,-0.193174958,0.5661518573760986,-1.013142228
1.509973049,0.5299720168113708,0.1569383889436722,-0.836056292,0.075398393,0.012908453,0.068145581,0.046297118,0.3312667608261108,0.5763735175132751,-0.192591667,0.5662685632705688,-1.012663007
1.514971137,0.5326517820358276,0.1589773595333099,-0.835694432,0.071189448,0.018470054,0.065941438,0.046380438,0.3316610157489777,0.5761935114860535,-0.192041248,0.5664128065109253,-1.012210488
1.519970059,0.5330269932746887,0.1652623414993286,-0.835057199,0.065255441,0.025726235,0.061358098,0.04644455,0.331964374,0.5760550498962402,-0.191557765,0.5665950775146484,-1.011803627
1.524970293,0.5342439413070679,0.1706038266420364,-0.837137282,0.064062566,0.030496335,0.061484013,0.046465807,0.3320649564266205,0.5760091543197632,-0.191083282,0.5667957067489624,-1.011399627
1.529971242,0.5333678722381592,0.1753048449754715,-0.834217489,0.065352827,0.035083923,0.064354129,0.046704371,0.3324256837368011,0.5758546590805054,-0.19060427,0.5670163631439209,-1.011003137
1.534973383,0.5370534062385559,0.1770836561918259,-0.83416748,0.067493513,0.040404782,0.066116132,0.04700755,0.3328309953212738,0.5756832361221313,-0.190116853,0.5672800540924072,-1.01060009
1.539970517,0.5365663170814514,0.1762435436248779,-0.832628369,0.072493553,0.039088186,0.067810476,0.047240824,0.3331428468227386,0.5755512714385986,-0.189593494,0.5675259232521057,-1.010175109
1.544968724,0.5376409292221069,0.1751333177089691,-0.827990413,0.07366211,0.045361612,0.073516078,0.047318172,0.333246261,0.5755075216293335,-0.18904689,0.5678189992904663,-1.009721518
1.549967647,0.544435978,0.1767601072788239,-0.828863144,0.0746108,0.044513222,0.07304588,0.047377687,0.3333258330821991,0.5754738450050354,-0.188505754,0.5681212544441223,-1.009270668
1.554968119,0.5435903072357178,0.173938975,-0.828310072,0.076406293,0.046062417,0.077803105,0.047451124,0.3330956995487213,0.5753171443939209,-0.18793346,0.5684239268302917,-1.008789539
1.559969306,0.5458543300628662,0.169894204,-0.833097279,0.08007054,0.047531385,0.077739313,0.047507625,0.332918644,0.5751965045928955,-0.187337518,0.5687388777732849,-1.008300304
1.564971566,0.5437524914741516,0.1702854335308075,-0.836649179,0.08066269,0.050333325,0.081141472,0.047526363,0.3328599333763123,0.5751565098762512,-0.186724588,0.5690575838088989,-1.007796526
1.569968939,0.5400773286819458,0.1755632311105728,-0.842592597,0.082286052,0.055036258,0.086286321,0.04754078,0.3328147530555725,0.5751256942749023,-0.186113492,0.5693821310997009,-1.007295489
1.574967265,0.5382274389266968,0.1806249022483826,-0.848227501,0.077695303,0.068603612,0.096756071,0.047368538,0.3332962095737457,0.5753645300865173,-0.185502127,0.5697913765907288,-1.006763458
1.579966426,0.5205373167991638,0.1842479854822159,-0.853125632,0.060264792,0.092142753,0.1257237046957016,0.047057007,0.3341686129570007,0.5758001208305359,-0.184902206,0.5703005194664001,-1.00610733
1.584966421,0.4866828620433807,0.1922654658555984,-0.86290431,0.017005071,0.1600585728883743,0.188414678,0.046953712,0.3344578742980957,0.5759445428848267,-0.184382498,0.5711439251899719,-1.00519228
1.58996737,0.4537822902202606,0.2085389196872711,-0.861924648,-0.019736344,0.2624035477638245,0.2782981097698212,0.046874229,0.3346804678440094,0.5760557055473328,-0.183872536,0.5725700259208679,-1.00390327
1.59496963,0.4382890462875366,0.2240092158317566,-0.866129696,-0.055921808,0.3852840065956116,0.3999640047550201,0.046847876,0.3347542583942413,0.576092541,-0.183223099,0.5747208595275879,-1.002066851
1.599967241,0.4391145408153534,0.2533245980739594,-0.873059809,-0.102286309,0.4990298449993134,0.5389769673347473,0.046625111,0.3352154195308685,0.5755977034568787,-0.182473332,0.5775564908981323,-0.999553919
1.604965329,0.4455088973045349,0.2870044708251953,-0.884309232,-0.132423162,0.6199013590812683,0.6507838368415833,0.046551246,0.3353683352470398,0.575433612,-0.181632265,0.5810739994049072,-0.996516347
1.60996449,0.5204926133155823,0.2952885627746582,-0.894142985,-0.114021748,0.7250813245773315,0.6620790958404541,0.046494413,0.3354860246181488,0.5753073692321777,-0.180734619,0.5852349400520325,-0.993562937
1.614970922,0.6406428813934326,0.3004382252693176,-0.888579726,-0.095966779,0.7518439888954163,0.5902327299118042,0.046475567,0.3355250358581543,0.5752655267715454,-0.179967761,0.5896196961402893,-0.9909724
1.619972348,0.656078577,0.2757899463176727,-0.88126564,-0.092496485,0.7555755376815796,0.4795123040676117,0.045033306,0.3345651924610138,0.5751739740371704,-0.179559112,0.593812108,-0.98910749
1.62497437,0.6198475956916809,0.2645576894283295,-0.904216111,-0.102710314,0.7867158651351929,0.4080474078655243,0.044201776,0.3340019881725311,0.5751289129257202,-0.179441079,0.5980033278465271,-0.98772043
1.629971743,0.5948452949523926,0.2094020694494247,-0.978081524,-0.161406398,0.8280343413352966,0.3614645898342133,0.043561969,0.3335686326026917,0.5750942230224609,-0.179583654,0.602259636,-0.986569524
1.634969592,0.5896801948547363,0.1865980178117752,-1.064852715,-0.286726385,0.8691465854644775,0.3421210944652557,0.043349821,0.3334249258041382,0.5750827789306641,-0.180448234,0.6066569685935974,-0.98549217
1.639968753,0.5644118785858154,0.186243087,-1.113307953,-0.424290091,0.8815938830375671,0.3293724954128265,0.041748907,0.3331130146980286,0.5752995610237122,-0.182054803,0.6109716892242432,-0.984564006
1.644968987,0.522624671,0.2336892485618591,-1.165480256,-0.489356607,0.9137120246887207,0.3055486679077148,0.039768327,0.3328065872192383,0.5755989551544189,-0.184152812,0.6152994632720947,-0.984022021
1.649969935,0.5093599557876587,0.1588756740093231,-1.192076564,-0.653833449,0.9752703905105591,0.3578097522258759,0.038244404,0.3325707912445068,0.5758293271064758,-0.186733022,0.6199647188186646,-0.983050287
1.654972196,0.5892596840858459,0.2287693023681641,-1.164479256,-0.794115424,1.055551648139954,0.5022844076156616,0.037739102,0.3324925899505615,0.5759057402610779,-0.18979618,0.6253768801689148,-0.981320858
1.65996933,0.6885170936584473,0.2174782305955887,-1.105996609,-0.921584725,1.156935572624207,0.7154703140258789,0.037350304,0.3324324488639832,0.5759645104408264,-0.192658037,0.6316699385643005,-0.978210866
1.664967418,0.861721933,0.3191500902175903,-1.079960942,-0.934260249,1.231812834739685,0.9939307570457458,0.033178244,0.3295631110668182,0.578356147,-0.194910601,0.6388839483261108,-0.973536491
1.669966578,0.9749201536178589,0.6192989945411682,-1.049879789,-0.711882651,1.221231818199158,1.196127533912659,0.029968128,0.3273553848266602,0.5801963806152344,-0.195739657,0.6463391780853271,-0.968096972
1.674966812,1.051958441734314,0.8237203359603882,-1.051410675,-0.410649747,1.140968918800354,1.253441333770752,0.028903713,0.3266233205795288,0.5808066129684448,-0.195037007,0.6533524394035339,-0.962696016
1.679967761,1.177682280540466,0.995276928,-1.152962208,-0.062112525,1.008807063102722,1.259000778198242,0.02808472,0.3260600566864014,0.5812760591506958,-0.192771122,0.6596829295158386,-0.957436979
1.684970021,1.201952576637268,1.063583612442017,-1.34172678,0.3300682902336121,0.7845749855041504,1.220048189163208,0.025552925,0.3238166868686676,0.5822526812553406,-0.188404381,0.6646384000778198,-0.95223105
1.689967155,0.9736249446868896,0.9654716849327087,-1.495411634,0.6471654176712036,0.499269962,1.120894312858582,0.021319432,0.3200110197067261,0.5838342905044556,-0.182267249,0.6674176454544067,-0.947345972
1.694965482,0.5635178089141846,0.7579652070999146,-1.4536798,0.7994557619094849,0.3119438886642456,1.032114863395691,0.019915685,0.3187491297721863,0.5843587517738342,-0.175182581,0.6686508655548096,-0.942633986
1.699964643,0.1767274737358093,0.5824577808380127,-1.317245126,0.7656334638595581,0.2790615558624268,0.9826188087463379,0.018835599,0.3177781701087952,0.5847622156143188,-0.168291241,0.6694540977478027,-0.938087225
1.704964876,-0.05837502,0.5141134262084961,-1.206502914,0.6224024891853333,0.3523091375827789,0.9680229425430298,0.018477462,0.3174562454223633,0.5848960280418396,-0.162311047,0.6705664992332458,-0.933738947
1.709965825,-0.18452099,0.5266540050506592,-1.150919318,0.4551498889923096,0.4570399224758148,0.9864112734794617,0.016902458,0.3211150169372559,0.5809951424598694,-0.157290593,0.672163188,-0.92949003
1.714968324,-0.215961739,0.6051222085952759,-1.152763486,0.3380981683731079,0.5572370886802673,1.006912947,0.016380215,0.3223282098770142,0.5797017216682434,-0.153012991,0.6742383241653442,-0.925366521
1.719965696,-0.224229753,0.6551856994628906,-1.166815996,0.305422306,0.5995095372200012,1.010631322860718,0.015978387,0.3232616782188416,0.5787064433097839,-0.148915023,0.6764796376228333,-0.921377122
1.724964142,-0.2156775,0.6789038777351379,-1.210820556,0.2819845378398895,0.5914949774742126,0.9817911982536316,0.015845146,0.3235712051391602,0.5783764719963074,-0.145018086,0.6785463094711304,-0.917561173
1.729963303,-0.191710323,0.6882298588752747,-1.268925071,0.2785375714302063,0.5218755602836609,0.9179632663726807,0.015948899,0.3272421658039093,0.575916588,-0.141328037,0.6801384091377258,-0.914144337
1.734963179,-0.212826237,0.6764667630195618,-1.28501451,0.279587448,0.4212405383586884,0.8269596695899963,0.016034344,0.3293088376522064,0.5745550394058228,-0.137912914,0.6810607314109802,-0.911228836
1.739964366,-0.268366665,0.6580865383148193,-1.279196501,0.2681694626808167,0.3141674101352692,0.7247117757797241,0.016100088,0.3308990299701691,0.5735074877738953,-0.134866089,0.6812788248062134,-0.908877015
1.744966388,-0.319091439,0.6429227590560913,-1.2717489,0.2445404082536697,0.2109355181455612,0.6235086917877197,0.016121887,0.3314262926578522,0.5731601119041443,-0.132286221,0.680848241,-0.90710181
1.749969363,-0.366356701,0.6285768747329712,-1.25812304,0.2026820331811905,0.1150872930884361,0.5226615071296692,0.015895821,0.3334344029426575,0.5708135962486267,-0.130262241,0.6798408031463623,-0.905900538
1.75496757,-0.40029791,0.6132354140281677,-1.24611485,0.1422270834445953,0.028087396,0.4249523878097534,0.015575984,0.3357160985469818,0.5679387450218201,-0.128865942,0.6783179640769958,-0.905256987
1.759966731,-0.410089135,0.5966858267784119,-1.248725414,0.067107193,-0.059464268,0.3292728960514069,0.015329891,0.3374717235565186,0.5657268166542053,-0.128173128,0.6762990951538086,-0.905116558
1.764966607,-0.404554904,0.5806050300598145,-1.254367352,-0.024290578,-0.152996302,0.2337608486413956,0.015248291,0.3380538523197174,0.5649933815002441,-0.128253669,0.6737656593322754,-0.905476332
1.769967914,-0.397498369,0.568575382,-1.260603905,-0.119803026,-0.256943703,0.1353435665369034,0.015185506,0.3385017514228821,0.5644290447235107,-0.129124671,0.6706532835960388,-0.906353593
1.774970055,-0.385555565,0.5696890950202942,-1.264886498,-0.209171817,-0.373083889,0.033164576,0.015030217,0.3415804505348206,0.5619499087333679,-0.130801767,0.666912317,-0.907792866
1.779967785,-0.382667154,0.5749685764312744,-1.256893277,-0.282031775,-0.494305313,-0.073852845,0.014910732,0.3439493179321289,0.5600424408912659,-0.133197963,0.6624933481216431,-0.909815431
1.784965873,-0.382136971,0.5768389701843262,-1.244668245,-0.332177401,-0.618806779,-0.185383722,0.014871113,0.344734788,0.5594099164009094,-0.136191919,0.6574065685272217,-0.912424266
1.789965272,-0.379947096,0.5721675157546997,-1.232394218,-0.365002513,-0.735403955,-0.294684678,0.01484063,0.3453391790390015,0.5589232444763184,-0.139650404,0.6516844034194946,-0.915564656
1.794965506,-0.361834645,0.560567319,-1.24646914,-0.382375926,-0.860975027,-0.406896859,0.015018259,0.3465325236320496,0.5572394728660583,-0.143463895,0.6452927589416504,-0.919229686
1.799966693,-0.351315647,0.5234953761100769,-1.206752777,-0.415692955,-0.965290487,-0.509163022,0.015344762,0.3484547734260559,0.5544044971466064,-0.147672266,0.6383463740348816,-0.923305988
1.804968953,-0.325737953,0.5030674338340759,-1.20403707,-0.456868619,-1.060311913,-0.597976744,0.015453026,0.3490921556949615,0.5534644722938538,-0.152247459,0.6309422254562378,-0.927688897
1.809966087,-0.287080497,0.493986189,-1.206088066,-0.490235209,-1.166609764,-0.692240894,0.015536326,0.3495825827121735,0.5527411699295044,-0.157192379,0.6229829788208008,-0.932450235
1.814963937,-0.269195497,0.465420276,-1.194521427,-0.519779623,-1.270472169,-0.78355062,0.015563947,0.3497452139854431,0.55250138,-0.162416562,0.6144607067108154,-0.937516809
1.819962859,-0.251924217,0.4426189959049225,-1.168052435,-0.543495417,-1.359265327,-0.859709859,0.016760746,0.3511824607849121,0.5505154132843018,-0.167854622,0.6054967045783997,-0.942813993
1.824962854,-0.23179625,0.4218585193157196,-1.142894626,-0.571349442,-1.437397003,-0.927909732,0.017157581,0.3516590297222137,0.5498569011688232,-0.173488751,0.5961471199989319,-0.948273838
1.829963803,-0.211183742,0.4047646522521973,-1.117880702,-0.595658541,-1.501359224,-0.980573535,0.017462919,0.3520257174968719,0.5493502616882324,-0.179261789,0.5864921808242798,-0.953819573
1.834965706,-0.186356828,0.3881855010986328,-1.095863104,-0.611729324,-1.554590583,-1.024219275,0.017564163,0.3521473109722137,0.5491822361946106,-0.185089245,0.5765964984893799,-0.959404171
1.83996284,-0.165984854,0.3749163746833801,-1.069072604,-0.623128474,-1.598026633,-1.059318781,0.018036539,0.3531173169612885,0.5456433296203613,-0.190940782,0.5665037631988525,-0.965007186
1.844961047,-0.144557074,0.3646807670593262,-1.044918895,-0.628894746,-1.630894423,-1.085239291,0.018290782,0.3536558449268341,0.5436261892318726,-0.196768686,0.5562780499458313,-0.970576406
1.84995997,-0.12381129,0.3558839559555054,-1.022603393,-0.630683362,-1.657317519,-1.09953022,0.018486407,0.3540702164173126,0.5420740842819214,-0.202509612,0.5459575653076172,-0.976048112
1.854960084,-0.111717544,0.352524072,-1.001585126,-0.61858958,-1.672284126,-1.101020455,0.018551271,0.3542076051235199,0.5415594577789307,-0.208091483,0.5355939269065857,-0.981388032
1.859961033,-0.106854349,0.3389723896980286,-0.981602132,-0.594287932,-1.672312856,-1.095755816,0.018461123,0.3544499576091766,0.5400201082229614,-0.213403195,0.5252599716186523,-0.986576319
1.864963531,-0.12105339,0.3227375447750092,-0.964164197,-0.567364216,-1.646864295,-1.087994814,0.01829,0.3546681106090546,0.538356602,-0.218452141,0.5150516629219055,-0.991641641
1.869960904,-0.122070834,0.3190981447696686,-0.965711892,-0.530797839,-1.610117078,-1.071394324,0.018158333,0.3548359572887421,0.5370766520500183,-0.223201171,0.5050580501556396,-0.996579051
1.874959111,-0.111876503,0.3148406147956848,-0.975223839,-0.496752113,-1.568972468,-1.055508733,0.018114675,0.3548915982246399,0.5366522669792175,-0.227681905,0.4952954351902008,-1.001390696
1.879958272,-0.076005057,0.3160073161125183,-0.989156961,-0.458167255,-1.531439662,-1.038815022,0.018081082,0.354934424,0.5363257527351379,-0.231859475,0.4857877790927887,-1.006058335
1.884964585,-0.023775324,0.2974074482917786,-1.012375474,-0.433042824,-1.504284859,-1.034026146,0.01663832,0.3549414873123169,0.5324109196662903,-0.2358042,0.4764858782291412,-1.010588408
1.889965773,0.025132712,0.2975336015224457,-1.040696263,-0.416852236,-1.476679921,-1.027620316,0.015528211,0.3549469113349915,0.5293987393379211,-0.239601284,0.4673650860786438,-1.015045643
1.894967794,0.1206975281238556,0.2978236079216003,-1.099689126,-0.434565812,-1.468572259,-1.015688658,0.01516012,0.3549486994743347,0.5283999443054199,-0.243393794,0.458407998,-1.019288063
1.899965167,0.2562902867794037,0.2953400909900665,-1.165702462,-0.454959005,-1.510564327,-1.023489356,0.014876899,0.3549501001834869,0.5276314616203308,-0.247218922,0.4494006037712097,-1.023294568
1.904963017,0.385877937,0.3047878444194794,-1.201539516,-0.480971634,-1.59329927,-1.039251208,0.013355758,0.3543567955493927,0.5257360935211182,-0.25109756,0.440119207,-1.027140021
1.909961939,0.4709771573543549,0.3082849979400635,-1.204423428,-0.489342034,-1.694426298,-1.057269573,0.01074219,0.3532998561859131,0.5226188898086548,-0.254952013,0.4303984642028809,-1.030796051
1.914962173,0.5399240851402283,0.3098633289337158,-1.201086044,-0.477134943,-1.79993391,-1.076145291,0.009875581,0.3529494106769562,0.5215852856636047,-0.258655667,0.4202567338943481,-1.034288287
1.919963121,0.5869165062904358,0.3002524077892303,-1.178375244,-0.441363752,-1.898599744,-1.086462259,0.009208784,0.3526797592639923,0.5207899808883667,-0.262062252,0.4097125828266144,-1.037571192
1.924965143,0.6094352602958679,0.2850847542285919,-1.139793515,-0.400464058,-1.992400646,-1.081045866,0.008987686,0.3525903522968292,0.5205262899398804,-0.265108019,0.3987983465194702,-1.04057157
1.929962516,0.6200263500213623,0.2500249147415161,-1.092699409,-0.373655677,-2.068158865,-1.071728468,0.005837635,0.3490312695503235,0.5165013670921326,-0.267863929,0.387604296,-1.043295383
1.934960365,0.6211395859718323,0.2162569463253021,-1.043939829,-0.370892882,-2.116361618,-1.050167799,0.004793137,0.3478511571884155,0.5151667594909668,-0.270454288,0.3762603402137756,-1.045740724
1.939959764,0.6487480998039246,0.181301087,-1.012205601,-0.408988357,-2.135709286,-1.025824547,0.003989467,0.3469431400299072,0.5141398906707764,-0.273108929,0.3649724721908569,-1.047893763
1.944959998,0.7142453193664551,0.1543240249156952,-1.002559185,-0.475116551,-2.151134014,-1.013328075,0.003722986,0.3466420471668243,0.5137993693351746,-0.276010513,0.3537912666797638,-1.049802303
1.949961185,0.8120206594467163,0.1412566006183624,-1.000015616,-0.554437876,-2.179354429,-1.035788774,0.003969129,0.3429290950298309,0.5117983818054199,-0.279305637,0.3426178097724915,-1.051622272
1.954963446,0.8868319392204285,0.1267237216234207,-0.982924938,-0.628069937,-2.216041088,-1.095147371,0.004162391,0.3408364951610565,0.5107045769691467,-0.283005536,0.3312945365905762,-1.053560615
1.959960818,0.9355403184890747,0.1032449007034302,-0.961587131,-0.69917506,-2.248919964,-1.180196762,0.004311094,0.3392263948917389,0.5098628997802734,-0.287105352,0.3197809457778931,-1.055771112
1.964959741,0.96230787,0.083168752,-0.935700357,-0.769770741,-2.269184589,-1.275501847,0.004360401,0.3386925160884857,0.5095838308334351,-0.291625321,0.3080960214138031,-1.058330417
1.969958901,0.9574348330497742,0.069512568,-0.891372502,-0.834180236,-2.270260811,-1.365815401,0.005490087,0.3352434039115906,0.5076967477798462,-0.296546191,0.2962937355041504,-1.061249614
1.974958897,0.9314411878585815,0.0569182,-0.826529384,-0.88278085,-2.24310112,-1.434344053,0.006965525,0.3310359120368958,0.5053927898406982,-0.301764309,0.2845170795917511,-1.064478636
1.979959846,0.8974552154541016,0.045628842,-0.756915808,-0.911414087,-2.183392525,-1.473726988,0.008100774,0.3277985155582428,0.5036200284957886,-0.30712986,0.272970438,-1.067933202
1.984962344,0.8601285815238953,0.037997775,-0.683562577,-0.92373842,-2.093585253,-1.477393389,0.008477202,0.3267250657081604,0.5030322670936584,-0.312545598,0.2618394196033478,-1.071492434
1.989959717,0.8326385021209717,0.013195125,-0.617922843,-0.917243779,-1.97140348,-1.448511481,0.008766837,0.3258991241455078,0.502579927,-0.317850173,0.2513511776924133,-1.074993372
1.994958043,0.8357464671134949,-0.023502156,-0.56593436,-0.891212404,-1.822189808,-1.397210956,0.011985818,0.3191133737564087,0.5028855800628662,-0.322901547,0.2417153120040894,-1.078315496
1.999956965,0.8712528347969055,-0.06732329,-0.517651439,-0.852858245,-1.653859377,-1.326944232,0.014462604,0.3138922154903412,0.5031207203865051,-0.327633649,0.2330888211727142,-1.081412435
2.004957199,0.9344133734703064,-0.100533292,-0.473739117,-0.803564787,-1.481836081,-1.233519554,0.01528386,0.312160999,0.5031986832618713,-0.331997782,0.2255813777446747,-1.084181547
2.009958744,1.012167572975159,-0.11377389,-0.429400951,-0.724272251,-1.320425987,-1.108917475,0.015915761,0.3108289241790771,0.5032586455345154,-0.335862875,0.2191808521747589,-1.086471319
2.014961004,1.077858805656433,-0.122124396,-0.380873352,-0.616811097,-1.17922318,-0.958463669,0.0175633,0.3065742552280426,0.5028751492500305,-0.339045793,0.2138070464134216,-1.08811903
2.01996398,1.13898778,-0.136852369,-0.349766374,-0.516156256,-1.050739408,-0.780433118,0.020285023,0.2994450032711029,0.502172053,-0.341534287,0.2094357311725616,-1.088998795
2.024961948,1.223580121994019,-0.181149453,-0.337348521,-0.4454045,-0.948645711,-0.583042145,0.021187495,0.2970810830593109,0.5019389390945435,-0.343421519,0.2060262113809586,-1.088930845
2.029960871,1.321848273277283,-0.231177375,-0.323770791,-0.416131467,-0.875327587,-0.386301875,0.021881886,0.2952622175216675,0.5017595887184143,-0.344931602,0.2034642994403839,-1.08784306
2.034962177,1.400466918945313,-0.277371585,-0.302478611,-0.425486118,-0.820459843,-0.204284817,0.022112133,0.2946591079235077,0.5017001032829285,-0.346297562,0.2015844136476517,-1.085840106
2.039963484,1.456117630004883,-0.308762878,-0.274707168,-0.46511218,-0.779181898,-0.049423911,0.024635945,0.2870562970638275,0.5015590786933899,-0.347733855,0.2002385854721069,-1.08308053
2.044965744,1.472994327545166,-0.318214595,-0.228599757,-0.524363935,-0.726465404,0.075766303,0.025472792,0.2845353484153748,0.5015122890472412,-0.349411845,0.1993746906518936,-1.079829454
2.049962997,1.460289955,-0.312027723,-0.172337934,-0.594860554,-0.648324907,0.1849723011255264,0.02611669,0.2825956344604492,0.5014763474464417,-0.351434767,0.1990525722503662,-1.076241493
2.054960966,1.439218640327454,-0.302940071,-0.11065197,-0.655007541,-0.536220968,0.2748930752277374,0.026330194,0.281952441,0.5014643669128418,-0.353768349,0.1994102895259857,-1.072488904
2.059960127,1.416359305381775,-0.287619531,-0.047994383,-0.696177244,-0.388259023,0.3426297605037689,0.029243944,0.2769758999347687,0.5007644295692444,-0.356360614,0.2005881816148758,-1.068718791
2.064960003,1.396276473999023,-0.269615591,0.006643918,-0.719200194,-0.213359371,0.3940541744232178,0.030890454,0.2742167711257935,0.5003613829612732,-0.359120905,0.2026811391115189,-1.065074682
2.069961071,1.397870182991028,-0.243156418,0.042023867,-0.716908336,-0.022841554,0.4311796426773071,0.032157328,0.272093803,0.5000512599945068,-0.361948371,0.2057791650295258,-1.061647534
2.074962854,1.433768391609192,-0.212528661,0.050922494,-0.690257132,0.1596593260765076,0.4499143660068512,0.032577399,0.2713898718357086,0.4999484419822693,-0.364736021,0.2098443210124969,-1.058469296
2.079960346,1.490385770797729,-0.176222801,0.039784987,-0.635058999,0.3127443492412567,0.4600227773189545,0.033921011,0.2683554589748383,0.5009106397628784,-0.367313623,0.2147278934717178,-1.055499196
2.084958315,1.540927052497864,-0.133845881,0.01878036,-0.55509603,0.42466709,0.4702829122543335,0.035395488,0.2648355960845947,0.5022796988487244,-0.369548917,0.2202106714248657,-1.05265677
2.089957476,1.549038171768188,-0.112021647,0.000852454,-0.452325583,0.5066567659378052,0.4784832000732422,0.036529999,0.2621273100376129,0.5033330917358398,-0.37129426,0.2260496616363525,-1.049939156
2.094957352,1.520782113075256,-0.118384741,-0.007762197,-0.345381677,0.5779451727867126,0.4848074316978455,0.036906179,0.2612292766571045,0.5036823749542236,-0.372462362,0.2321485579013824,-1.047356367
2.099958181,1.464462041854858,-0.137426555,-0.010617829,-0.25227952,0.6485879421234131,0.4965856969356537,0.037195623,0.2605383098125458,0.5039511322975159,-0.373142332,0.2384864091873169,-1.044886112
2.10496068,1.406570196151733,-0.155564204,-0.001289705,-0.187657043,0.732512355,0.5206145048141479,0.036799558,0.2562585473060608,0.5047839879989624,-0.373492837,0.2451764345169067,-1.042495012
2.10995841,0.7834708690643311,0.9805830121040344,-0.10359548,0.7904952764511108,0.9605723023414612,0.5286227464675903,0.03649481,0.2529655694961548,0.5054247379302979,-0.372213334,0.2517041563987732,-1.042168975
2.114956379,0.8927185535430908,0.634175718,0.027353369,2.444567441940308,1.259088874,0.6416760087013245,0.036393762,0.2518736720085144,0.5056372284889221,-0.358217746,0.2596300542354584,-1.042426586
2.11995554,-0.22331956,0.5653281211853027,-0.131256998,2.649818420410156,1.714262843132019,0.9791466593742371,0.036316011,0.2510335147380829,0.505800724,-0.345143348,0.2694951295852661,-1.041275978
2.124955416,-0.609334171,0.494436651,-0.76657629,2.796598196029663,1.960686564445496,0.9746740460395813,0.034616124,0.2515013515949249,0.5050415396690369,-0.330715716,0.2787364721298218,-1.041600466
2.129956722,-0.330511242,0.4711211323738098,-1.421766281,2.751079320907593,2.026855469,0.8891047239303589,0.031615388,0.2526160776615143,0.5036349296569824,-0.316423267,0.2887828350067139,-1.041453123
2.134958744,-0.563434362,0.7339231967926025,-1.616012335,2.488723039627075,2.189431906,0.7208071947097778,0.030620402,0.2529856860637665,0.503168523,-0.304502845,0.2983871102333069,-1.043149948
2.139956236,-0.436177343,0.7795506119728088,-1.519186497,2.461646556854248,2.321124076843262,0.6165854334831238,0.029854827,0.2532700598239899,0.5028096437454224,-0.293239772,0.3089130520820618,-1.045443177
2.144954443,-0.128789395,0.3900837302207947,-1.235109091,2.466243982315063,2.510600328445435,0.6463413238525391,0.029600976,0.2533643543720245,0.5026906132698059,-0.280921161,0.3211252689361572,-1.046729684
2.149953365,0.341215968,-0.23237744,-1.114232779,2.236816644668579,2.839232206344604,0.829095721,0.021088429,0.2683289349079132,0.4958637058734894,-0.26854375,0.336317778,-1.045891404
2.15495944,0.9041139483451843,-0.588233173,-1.186840534,1.950708746910095,3.119929313659668,0.9860567450523376,0.01826583,0.2732909023761749,0.4936000406742096,-0.257009864,0.3540709614753723,-1.043471336
2.15996027,1.274117827415466,-0.78805542,-1.310635924,1.628772974014282,3.195779085159302,1.191711307,0.016094033,0.2771087884902954,0.4918583035469055,-0.246295944,0.3727460503578186,-1.039232016
2.164962769,1.600326299667358,-0.845905125,-1.542310357,1.314429879188538,3.068225622177124,1.36991024,0.015373905,0.2783747315406799,0.4912807643413544,-0.236465439,0.3911264538764954,-1.033326507
2.16996026,1.830143332481384,-0.809262276,-1.730767012,0.9723748564720154,2.762512445449829,1.421636343002319,0.003819365,0.2883565127849579,0.4854914844036102,-0.227966949,0.4079961776733398,-1.02652359
2.174958229,1.925576567649841,-0.628541291,-1.747370362,0.697533906,2.377195358276367,1.379114747047424,-0.002733995,0.2938952744007111,0.4822492599487305,-0.221100911,0.4228290617465973,-1.019702315
2.179957151,1.736776828765869,-0.337375551,-1.610979795,0.4704917669296265,2.034608602523804,1.233340740203857,-0.00777636,0.2981569468975067,0.4797545671463013,-0.216100886,0.4353167712688446,-1.013900042
2.184957504,1.569736957550049,-0.066671468,-1.35528028,0.3197364807128906,1.810550570487976,1.076957106590271,-0.009448313,0.2995700538158417,0.4789273738861084,-0.21255067,0.4464917182922363,-1.009158015
2.189958334,1.235689043998718,0.2563580572605133,-1.131570697,0.2509939670562744,1.677484273910522,0.86484164,-0.015647545,0.3029332160949707,0.4769368767738342,-0.21049799,0.4563221335411072,-1.006418228
2.194960594,0.9650406837463379,0.4649471640586853,-0.935393572,0.2419564723968506,1.623992204666138,0.6848032474517822,-0.022657117,0.3063433766365051,0.4749114513397217,-0.209138542,0.4654744863510132,-1.005058408
2.199957848,0.7734453082084656,0.5578263401985168,-0.874783993,0.2680223882198334,1.627306818962097,0.5269514322280884,-0.028050505,0.308967263,0.4733530282974243,-0.208172068,0.4742979407310486,-1.004896879
2.204955816,0.6794055104255676,0.5651093721389771,-0.87629199,0.3291714787483215,1.600776314735413,0.4353013634681702,-0.029838851,0.309837282,0.4728362858295441,-0.207043797,0.4827759861946106,-1.005220532
2.209954739,0.6131961941719055,0.4809603691101074,-0.8537094,0.4023098647594452,1.534789681434631,0.4233339428901672,-0.031214861,0.3105067312717438,0.4724387228488922,-0.205269352,0.4908471405506134,-1.005320311
2.21495533,0.614698589,0.3348655700683594,-0.849558592,0.4651207327842712,1.432974934577942,0.4857213497161865,-0.037198298,0.3117790520191193,0.4699444770812988,-0.202615067,0.4985012412071228,-1.004633665
2.21995616,0.6431593894958496,0.133920431,-0.849839926,0.4900626838207245,1.304401755332947,0.5783668160438538,-0.041802146,0.3127580285072327,0.4680253267288208,-0.199079946,0.5056605339050293,-1.002806902
2.224958181,0.7755187749862671,0.007866859,-0.886333883,0.4900309443473816,1.157402634620667,0.6619560122489929,-0.043328695,0.3130826354026794,0.4673889577388763,-0.194993466,0.5124019384384155,-0.99992764
2.229955435,0.8294842839241028,-0.001258261,-0.939744771,0.4627136886119843,0.9691173434257507,0.6910334229469299,-0.044503268,0.3133324086666107,0.4668993353843689,-0.190857664,0.5182044506072998,-0.996664882
2.234953403,0.8859386444091797,0.046549954,-0.990279257,0.4312172830104828,0.7448328733444214,0.6846547722816467,-0.047842328,0.314559281,0.4656926095485687,-0.186936319,0.5228283405303955,-0.99335897
2.239952564,0.8526375293731689,0.09188585,-0.999298692,0.4054271280765533,0.5402379631996155,0.6380650997161865,-0.053394008,0.3166601061820984,0.4637081027030945,-0.183228269,0.5262917280197144,-0.990201414
2.244952679,0.7385053634643555,0.1334316581487656,-0.957858145,0.3841822147369385,0.3940265774726868,0.5989201664924622,-0.055234838,0.317356676,0.4630500674247742,-0.179764763,0.5288382172584534,-0.987338901
2.249953508,0.6341961622238159,0.1639373302459717,-0.943014324,0.360562652,0.2951053082942963,0.5763187408447266,-0.056651235,0.3178926706314087,0.4625437557697296,-0.176483646,0.5307705998420715,-0.984628677
2.254956007,0.5785039663314819,0.18270351,-0.937948227,0.3378801643848419,0.2343587577342987,0.5608078241348267,-0.057120886,0.3180703818798065,0.4623758792877197,-0.17335017,0.5323461294174194,-0.982000053
2.259953976,0.5442261695861816,0.2017326354980469,-0.915964901,0.3183614611625671,0.1966470777988434,0.5484292507171631,-0.058838066,0.3209872543811798,0.4605431854724884,-0.170356825,0.5337125658988953,-0.979462624
2.264951706,0.5170100331306458,0.203612819,-0.898369074,0.2989875972270966,0.1715416312217712,0.5401578545570374,-0.059407447,0.3219544291496277,0.4599355161190033,-0.167491749,0.5349392294883728,-0.976979375
2.269950867,0.517197847,0.2021821290254593,-0.893179297,0.2802025079727173,0.1713200062513351,0.5129722952842712,-0.059845548,0.3226985931396484,0.4594679176807404,-0.16479288,0.536158562,-0.974624813
2.274950981,0.5455058813095093,0.1598051339387894,-0.909814239,0.2602819204330444,0.1681815087795258,0.4736870527267456,-0.059990812,0.3229453563690186,0.4593128859996796,-0.162204996,0.5373712778091431,-0.972408235
2.279952049,0.5459726452827454,0.073804431,-0.905784547,0.2283792793750763,0.1698368191719055,0.4435725212097168,-0.060022172,0.3244570791721344,0.4593736529350281,-0.159694239,0.5385671257972717,-0.970197082
2.284954309,0.5412203669548035,-0.026205122,-0.924368858,0.1835951954126358,0.1779590547084808,0.4147521257400513,-0.060012672,0.325285405,0.4594383537769318,-0.157302648,0.5397786498069763,-0.967996478
2.289957523,0.5406534671783447,-0.080142215,-0.933968723,0.1156652718782425,0.1861809343099594,0.3826950490474701,-0.060005359,0.3259227573871613,0.4594881534576416,-0.155241877,0.5409796237945557,-0.965885043
2.29495573,0.52437824,-0.076974958,-0.926412642,0.046288006,0.2106707990169525,0.3490543961524963,-0.060002934,0.3261340856552124,0.4595046639442444,-0.153698713,0.5422667264938354,-0.964042962
2.299954653,0.5123137831687927,-0.039480459,-0.924084067,-0.01935336,0.2374992817640305,0.3036824464797974,-0.059782732,0.3269783854484558,0.4587516784667969,-0.152746707,0.5436309576034546,-0.96259588
2.304954767,0.4967057108879089,0.017970964,-0.915206075,-0.070274092,0.2707010805606842,0.2658374309539795,-0.059489552,0.3279457688331604,0.4577299058437347,-0.152287126,0.5450924634933472,-0.961513817
2.309956074,0.4846929013729095,0.056925591,-0.918825209,-0.105549663,0.3110772967338562,0.2307362854480743,-0.059263971,0.3286900818347931,0.456943691,-0.152165309,0.5467252135276794,-0.960748613
2.314958334,0.4775371253490448,0.062689587,-0.929149866,-0.13616842,0.3389678299427032,0.2067620903253555,-0.059189171,0.328936905,0.4566830098628998,-0.152293995,0.5484458804130554,-0.960159838
2.319955349,0.4797544777393341,0.063938878,-0.940437436,-0.161128029,0.3777642548084259,0.1987976580858231,-0.059131619,0.3291268050670624,0.4564824402332306,-0.152537972,0.5503633618354797,-0.959623575
2.324953556,0.531312108,0.072106741,-0.935589135,-0.177697927,0.3984567224979401,0.1820805370807648,-0.059361946,0.3292940557003021,0.4561738073825836,-0.152942747,0.5524302124977112,-0.959159434
2.329952478,0.5449686050415039,0.066379219,-0.913933158,-0.19550775,0.4260997176170349,0.1563184857368469,-0.059539165,0.3294227123260498,0.4559363424777985,-0.153537497,0.5546559691429138,-0.958854258
2.334952593,0.5576624274253845,0.050445244,-0.920950472,-0.210941926,0.4336210191249847,0.1335828453302383,-0.059597928,0.329465389,0.4558576047420502,-0.154227138,0.5569078922271729,-0.958659768
2.339953661,0.5620738863945007,0.059754107,-0.911655426,-0.218409151,0.4332390427589417,0.1120035946369171,-0.059643146,0.3294982314109802,0.455797017,-0.155044794,0.5591272115707397,-0.958594859
2.344955921,0.569239616,0.093039788,-0.893001497,-0.219652757,0.4296793341636658,0.088683262,-0.060019758,0.3290572762489319,0.4561240673065186,-0.156018823,0.5613299608230591,-0.958727598
2.349952936,0.5947023034095764,0.12644732,-0.870093048,-0.210533649,0.4193150401115417,0.068024933,-0.060675189,0.3282611668109894,0.4567267298698425,-0.157081828,0.5635167956352234,-0.958993435
2.354951382,0.5982072949409485,0.1623983830213547,-0.846840024,-0.178967491,0.4054355621337891,0.055765163,-0.060892519,0.3279971778392792,0.4569265246391296,-0.158070058,0.5656338930130005,-0.959386885
2.359950542,0.6061714291572571,0.192466602,-0.834917009,-0.139884263,0.3832341730594635,0.056752458,-0.061059739,0.3277940452098846,0.4570803046226501,-0.158888191,0.5676496624946594,-0.959785581
2.364950895,0.6068981885910034,0.2099742740392685,-0.822565258,-0.091000304,0.3540091812610626,0.05792306,-0.061115187,0.3277266919612885,0.4571312665939331,-0.159475461,0.5695248246192932,-0.960175276
2.369951725,0.6083268523216248,0.2169435769319534,-0.815679491,-0.040072598,0.3249950408935547,0.064912029,-0.06457679,0.3264588713645935,0.4573813378810883,-0.159757987,0.5712577700614929,-0.960502565
2.374953985,0.6072281002998352,0.2188722044229507,-0.813745379,0.00417257,0.2934964299201965,0.067213416,-0.065724596,0.3260385096073151,0.4574642479419708,-0.159816623,0.572831392,-0.960789502
2.379951,0.6003938317298889,0.1975060105323792,-0.821759343,0.039966594,0.2650004625320435,0.068746336,-0.066607751,0.325715035,0.4575280547142029,-0.159617022,0.5742445588111877,-0.96099931
2.384949207,0.5944892764091492,0.1727908402681351,-0.830411196,0.059139561,0.2418036013841629,0.062666744,-0.066900589,0.3256077766418457,0.4575492143630981,-0.159268424,0.5755252838134766,-0.961173892
2.389948368,0.5781604051589966,0.151206374,-0.833142996,0.064530283,0.2250833660364151,0.052428756,-0.068072826,0.3256470263004303,0.4577791392803192,-0.158918202,0.5766956806182861,-0.961398959
2.394948244,0.5694981217384338,0.1425757259130478,-0.836570561,0.06511157,0.21500887,0.043997452,-0.068695828,0.3256901502609253,0.4579082429409027,-0.158566102,0.5778012871742249,-0.961652279
2.399949312,0.5638783574104309,0.1549372375011444,-0.836779058,0.063704997,0.2059608548879623,0.034757696,-0.069175199,0.3257233500480652,0.4580075740814209,-0.158293977,0.5788451433181763,-0.961988211
2.404951572,0.5629855990409851,0.1808137446641922,-0.835226357,0.061778642,0.2092369198799133,0.035593595,-0.069334149,0.3257343471050262,0.4580405056476593,-0.158084139,0.5799112915992737,-0.962379515
2.409949303,0.5548295974731445,0.2128266394138336,-0.834984303,0.071223952,0.2110769599676132,0.041154921,-0.069852039,0.3258061707019806,0.4578495025634766,-0.157882258,0.5809703469276428,-0.962801278
2.414947033,0.549312949,0.2146291732788086,-0.833009303,0.086186387,0.2146299481391907,0.054142784,-0.070422672,0.3258938789367676,0.4575679898262024,-0.157528207,0.5820518136024475,-0.963152826
2.419946194,0.5431135892868042,0.2299686074256897,-0.828969777,0.097041875,0.2173045873641968,0.070615433,-0.070861727,0.3259613215923309,0.4573513865470886,-0.157102689,0.5831601023674011,-0.963414669
2.424952269,0.5549537539482117,0.2197229713201523,-0.82063055,0.1100748777389526,0.2137075811624527,0.086520649,-0.071007311,0.3259837031364441,0.4572795629501343,-0.156534687,0.5842756628990173,-0.963564396
2.429953575,0.562922478,0.2100466042757034,-0.817030847,0.1205990612506866,0.2077861726284027,0.1039576977491379,-0.071119323,0.3260009288787842,0.4572243094444275,-0.155848309,0.585402787,-0.963555574
2.434956074,0.561073899,0.1868361085653305,-0.813787222,0.1403540968894958,0.2055744230747223,0.113275409,-0.071908548,0.326380581,0.457609624,-0.154965878,0.5865068435668945,-0.963456511
2.439954281,0.5486199259757996,0.188330665,-0.816561639,0.1622628718614578,0.2166360467672348,0.1260377019643784,-0.072515808,0.3266727030277252,0.4579060673713684,-0.153956652,0.5876625776290894,-0.96331358
2.44495225,0.5519710779190063,0.1726799160242081,-0.811084628,0.1596881896257401,0.2258282154798508,0.1470548212528229,-0.07271716,0.3267695605754852,0.458004355,-0.152849138,0.5889065861701965,-0.963015139
2.44995141,0.5519891977310181,0.1821812838315964,-0.810955167,0.1583230495452881,0.2321102619171143,0.173043966,-0.072872087,0.3268440961837769,0.458079994,-0.151722923,0.590194046,-0.962581873
2.454951525,0.5523035526275635,0.1827063858509064,-0.806912124,0.1572118550539017,0.23554343,0.1888196766376495,-0.073152617,0.3271867036819458,0.4576592743396759,-0.150539279,0.5915077328681946,-0.962078512
2.459952354,0.5499336719512939,0.1768134236335754,-0.804195702,0.1542256623506546,0.2357850521802902,0.2015250623226166,-0.073600166,0.3277717530727386,0.4568848013877869,-0.149317086,0.5928155183792114,-0.961481512
2.464955091,0.5548524260520935,0.1693796515464783,-0.805647612,0.1447137594223022,0.2443952411413193,0.2173963636159897,-0.073748566,0.3279657363891602,0.4566279947757721,-0.14807868,0.5941905975341797,-0.960755944
2.469952822,0.557698667,0.1518441736698151,-0.803267777,0.1402763575315475,0.2544775903224945,0.2294390052556992,-0.073862746,0.3281149864196777,0.4564304053783417,-0.146789819,0.5956406593322754,-0.959943056
2.474950552,0.5639312267303467,0.1354188770055771,-0.806007147,0.1517179310321808,0.2679625153541565,0.2263007760047913,-0.07390061,0.3281644880771637,0.4563648998737335,-0.145403907,0.5971487164497375,-0.95914191
2.479949474,0.5647457242012024,0.1383921056985855,-0.808739901,0.1601801514625549,0.2812390029430389,0.2182156,-0.074796274,0.3290813863277435,0.4545576572418213,-0.144068077,0.5987259745597839,-0.958399117
2.484949827,0.5730358362197876,0.1085215583443642,-0.809062243,0.1637805849313736,0.288512647,0.2077913880348206,-0.075093262,0.3293853998184204,0.4539584219455719,-0.14263168,0.6003320217132568,-0.957685769
2.489950657,0.585082471,0.1011763066053391,-0.806596994,0.144462064,0.2868344783782959,0.1975389719009399,-0.075321764,0.3296193480491638,0.4534973502159119,-0.141366258,0.6019287705421448,-0.956991553
2.494952917,0.5912343263626099,0.094585374,-0.800036132,0.1347749680280685,0.276773214,0.1846092343330383,-0.075397536,0.329696923,0.453344464,-0.140175521,0.6034746170043945,-0.956356823
2.499950171,0.5954034924507141,0.077770256,-0.799695253,0.1097033992409706,0.2693619430065155,0.1796615719795227,-0.076063409,0.3306765854358673,0.4524908363819122,-0.139083683,0.6049937009811401,-0.955714643
2.504948139,0.5957457423210144,0.080032267,-0.794089913,0.091240123,0.2557988166809082,0.1692875027656555,-0.076434545,0.3312290906906128,0.4520256519317627,-0.138126463,0.6064281463623047,-0.955120683
2.509948015,0.5871790647506714,0.094891369,-0.786141098,0.072120547,0.2364351004362106,0.1607346385717392,-0.076720111,0.3316542208194733,0.4516677558422089,-0.137313783,0.6077433824539185,-0.954600036
2.51494813,0.5796798467636108,0.1182647794485092,-0.776912391,0.066037327,0.2182083576917648,0.1518280506134033,-0.076814801,0.3317951858043671,0.4515490829944611,-0.136614814,0.6089521050453186,-0.954174876
2.519948959,0.5751376748085022,0.1413388848304749,-0.772680819,0.060610559,0.2018229365348816,0.1541870534420013,-0.077286817,0.3321164548397064,0.4517981112003326,-0.135966167,0.6100851893424988,-0.953764617
2.52495122,0.5703505873680115,0.1563559621572495,-0.772569895,0.069901884,0.1875810325145721,0.16320163,-0.077845834,0.3324376046657562,0.4522238671779633,-0.135262996,0.6111336946487427,-0.953323305
2.529948473,0.5662227869033813,0.1670062988996506,-0.779901505,0.088355549,0.1727997213602066,0.1768757551908493,-0.078275964,0.3326846957206726,0.4525514543056488,-0.134409964,0.6121134757995605,-0.952800155
2.534946442,0.565248966,0.1604081839323044,-0.790334523,0.1046171486377716,0.1598392426967621,0.1941998153924942,-0.078418583,0.3327666223049164,0.452660084,-0.133369461,0.613027811,-0.952134609
2.539945364,0.5504391193389893,0.1589600741863251,-0.798708677,0.1240369156002998,0.1606836020946503,0.2052392810583115,-0.078528322,0.3328296840190887,0.4527436494827271,-0.132192641,0.6139154434204102,-0.951424301
2.544945478,0.5589744448661804,0.159046471,-0.789595068,0.138409749,0.163399801,0.2133715152740479,-0.078918934,0.333459347,0.4518865048885345,-0.130922258,0.6148601174354553,-0.95065403
2.549946308,0.5635473728179932,0.1343023926019669,-0.80168283,0.1404080092906952,0.1588999330997467,0.2199422568082809,-0.079219483,0.3339438438415527,0.4512269794940948,-0.129548833,0.6157734990119934,-0.949787974
2.554948807,0.5685710310935974,0.1177917718887329,-0.803055644,0.1360326409339905,0.1590177714824677,0.2188817709684372,-0.079319142,0.3341044783592224,0.4510082900524139,-0.128190786,0.6166911721229553,-0.948901296
2.559952021,0.5773880481719971,0.107733779,-0.802069128,0.1246264576911926,0.1531223207712173,0.2153323739767075,-0.079395816,0.3342280983924866,0.450840026,-0.126893342,0.6175917387008667,-0.948004842
2.564950228,0.5754698514938354,0.102629691,-0.809268475,0.1187650337815285,0.1520002633333206,0.2205229699611664,-0.079399124,0.3346742987632751,0.450946718,-0.125587553,0.6184757947921753,-0.947073281
2.569949389,0.5744447112083435,0.098336034,-0.817099988,0.1083837524056435,0.1536536514759064,0.221062183,-0.079379305,0.3354273438453674,0.451193094,-0.124326259,0.6193563938140869,-0.946139574
2.574949265,0.5742799639701843,0.1018069162964821,-0.820805013,0.097852468,0.1573396474123001,0.2202840149402618,-0.079372734,0.3356770575046539,0.4512747824192047,-0.123137683,0.6202484369277954,-0.945243061
2.579950571,0.5652025938034058,0.1045069620013237,-0.819735825,0.090016164,0.1628025770187378,0.2252620309591293,-0.079367675,0.335869163,0.4513376355171204,-0.121977061,0.6211581826210022,-0.944303691
2.584952593,0.5723739862442017,0.096958928,-0.817101717,0.079392761,0.1691295206546783,0.230417788,-0.079365999,0.3359328806400299,0.4513584673404694,-0.120823942,0.6221261024475098,-0.943321705
2.589949846,0.5724231004714966,0.0967049,-0.818321347,0.067261763,0.1741418987512589,0.237281859,-0.07964012,0.3369257152080536,0.4505853056907654,-0.119718075,0.6230999827384949,-0.942303061
2.594948053,0.5602484941482544,0.1021284833550453,-0.825870752,0.063405566,0.1848642975091934,0.2470091581344604,-0.079731017,0.3372549116611481,0.4503289461135864,-0.118617088,0.624107301,-0.941270888
2.599947214,0.5551666021347046,0.1072447821497917,-0.828682423,0.05022854,0.2103551924228668,0.2588450014591217,-0.079800956,0.3375082015991211,0.4501316845417023,-0.117555425,0.6252543926239014,-0.940186322
2.60494709,0.5547736883163452,0.1144884824752808,-0.833014488,0.046830654,0.2336090505123138,0.2663044929504395,-0.079824142,0.3375921845436096,0.4500662982463837,-0.116511203,0.6265036463737488,-0.939098358
2.609948397,0.550951362,0.1155324280261993,-0.839405954,0.045942273,0.257811964,0.277955174,-0.079993635,0.3381043076515198,0.4485882520675659,-0.115424924,0.6278706789016724,-0.937965691
2.614950418,0.5407322645187378,0.1053985878825188,-0.846733689,0.03406186,0.2916323840618134,0.2905251085758209,-0.080087364,0.3383848369121552,0.4477449059486389,-0.114334717,0.6293885111808777,-0.93675667
2.619947433,0.5356850028038025,0.103588305,-0.853462696,0.017722044,0.3319869041442871,0.2989716231822968,-0.080159478,0.3386006653308868,0.4470959901809692,-0.113323279,0.6311083436012268,-0.935534239
2.624945402,0.5343654155731201,0.1067897230386734,-0.858247161,0.006313672,0.3726483881473541,0.3042465448379517,-0.080183394,0.3386722505092621,0.4468808174133301,-0.112374566,0.6330258846282959,-0.934322596
2.629944324,0.5334479212760925,0.1036030426621437,-0.860322416,-0.005860342,0.4201327562332153,0.3147043287754059,-0.080203347,0.3388701677322388,0.4465461671352386,-0.111439437,0.6351681351661682,-0.933066607
2.634944201,0.5299840569496155,0.1094296500086784,-0.865926504,-0.02276895,0.4728136658668518,0.3234496116638184,-0.080211535,0.3390798270702362,0.4462647140026093,-0.110605836,0.6375719308853149,-0.931812823
2.639945269,0.5301905274391174,0.1273836493492126,-0.877928853,-0.034870256,0.5319628119468689,0.3346935510635376,-0.080217831,0.3392411172389984,0.4460481703281403,-0.109845027,0.6402624845504761,-0.930564642
2.644947529,0.5210561156272888,0.1484624892473221,-0.885537207,-0.019089708,0.5968111753463745,0.3462343811988831,-0.080219917,0.3392946124076843,0.4459763765335083,-0.109015204,0.6432570815086365,-0.929341555
2.649944544,0.5244709253311157,0.1328618973493576,-0.900651276,-0.023916671,0.6688094735145569,0.3555938899517059,-0.080221526,0.3393357694149017,0.4459211230278015,-0.108133554,0.646608829,-0.928062558
2.654942751,0.5243372321128845,0.1242737397551537,-0.905743062,-0.032146141,0.7499759793281555,0.3630382120609283,-0.081515752,0.3394734263420105,0.4456315636634827,-0.107275672,0.6503552198410034,-0.926760793
2.65994215,0.5317258834838867,0.1183856800198555,-0.910245597,-0.038181577,0.844356358,0.3661736249923706,-0.082511567,0.3395793437957764,0.4454087615013123,-0.106468134,0.6545906066894531,-0.925509632
2.664942265,0.5337390303611755,0.1191421896219254,-0.913257658,-0.040590927,0.9390601515769958,0.3698591887950897,-0.082841761,0.3396144509315491,0.4453348815441132,-0.105697975,0.6592873334884644,-0.924287736
2.669943333,0.5435013771057129,0.1378052532672882,-0.91548574,-0.020120258,1.028384804725647,0.3696108162403107,-0.083095819,0.3396414816379547,0.4452780485153198,-0.104885362,0.6644324660301208,-0.923161507
2.674945593,0.5403892993927002,0.1100886613130569,-0.918429375,0.005307456,1.117410659790039,0.3659522533416748,-0.084197335,0.3397820293903351,0.4448866546154022,-0.103880666,0.6699860095977783,-0.922050118
2.679942608,0.5467601418495178,0.076874174,-0.915406287,-0.000347073,1.214433550834656,0.3592750132083893,-0.086073495,0.3400232493877411,0.4442088305950165,-0.102898635,0.6760300397872925,-0.920958042
2.684940815,0.5644456744194031,0.077490389,-0.908900201,-0.002622498,1.316808104515076,0.351015717,-0.086695597,0.3401032090187073,0.4439840614795685,-0.102036372,0.6826184988021851,-0.919959724
2.689939737,0.5697989463806152,0.085024133,-0.904758394,0.041257922,1.417034626,0.3410017788410187,-0.087174259,0.3401647508144379,0.4438111186027527,-0.101031363,0.6896891593933105,-0.919113278
2.694946051,0.5542287826538086,0.051079307,-0.910560369,0.065037541,1.526441335678101,0.3255556523799896,-0.087332971,0.3401851654052734,0.4437537789344788,-0.099853478,0.6972390413284302,-0.918356419
2.699947357,0.5562600493431091,0.050008234,-0.911688626,0.053931128,1.643375992774963,0.3175748288631439,-0.092210725,0.3403485119342804,0.4424939453601837,-0.098858647,0.7053815126419067,-0.917718112
2.704949856,0.5622848272323608,0.093674436,-0.916702807,0.052235797,1.759568333625793,0.3147778809070587,-0.093828097,0.3404026925563812,0.4420762062072754,-0.098052323,0.7140927314758301,-0.917280555
2.709947348,0.5642820000648499,0.1308315694332123,-0.922649443,0.080457389,1.864747643470764,0.3228849172592163,-0.095072553,0.3404443860054016,0.4417547881603241,-0.097151339,0.7232840061187744,-0.916927934
2.714945316,0.5599384307861328,0.1249158680438995,-0.925430715,0.1042486429214478,1.980735421180725,0.3341131806373596,-0.095485188,0.3404581844806671,0.4416482150554657,-0.096055113,0.7330368161201477,-0.91652298
2.719944239,0.5819078683853149,0.1332436203956604,-0.929054141,0.1201148256659508,2.101536273956299,0.3558783233165741,-0.101473041,0.3410172462463379,0.4396055340766907,-0.094840907,0.7434182167053223,-0.916043639
2.724944115,0.5925065875053406,0.1432440429925919,-0.941107273,0.1249147281050682,2.225065708,0.3717564344406128,-0.104861639,0.3413383066654205,0.4384430348873138,-0.093572959,0.7544069290161133,-0.915542126
2.729945421,0.5989154577255249,0.1408775746822357,-0.942916274,0.1246463283896446,2.349982976913452,0.391834944,-0.10746894,0.3415853381156921,0.4375485777854919,-0.092268206,0.7659911513328552,-0.914956927
2.734947443,0.5935602188110352,0.2096512019634247,-0.914627492,0.152588427,2.497151374816895,0.4241235256195068,-0.108333468,0.3416672646999359,0.4372519850730896,-0.090858147,0.7783523797988892,-0.914371073
2.739944696,0.5961098074913025,0.2162069827318192,-0.908290505,0.1956226229667664,2.655163526535034,0.4531491994857788,-0.113265306,0.3422599732875824,0.4354815781116486,-0.089100108,0.7914865016937256,-0.913682222
2.744942665,0.593789279,0.2026765644550323,-0.940937102,0.221558154,2.824295759,0.4697219431400299,-0.119203076,0.3429906070232391,0.433339387,-0.08712054,0.8054189085960388,-0.912918508
2.749941826,0.5929756164550781,0.2004246711730957,-0.970309675,0.2589193880558014,3.005361557006836,0.4936589896678925,-0.123771779,0.3435527980327606,0.4316911101341248,-0.084841169,0.8202043771743774,-0.912050426
2.75494194,0.6079238653182983,0.2418284118175507,-0.998025239,0.3245682716369629,3.190027475357056,0.5139627456665039,-0.125286669,0.3437392115592957,0.4311445653438568,-0.082269296,0.8358780145645142,-0.911232233
2.759943247,0.5925817489624023,0.298101932,-0.978689671,0.4080457091331482,3.373415231704712,0.5568869709968567,-0.126452282,0.3438826501369476,0.430724025,-0.079158865,0.8524600267410278,-0.910272598
2.764945507,0.5995019674301147,0.3608250021934509,-0.983729303,0.4930549263954163,3.558451414108276,0.6383081674575806,-0.136143774,0.3453867137432098,0.4257839620113373,-0.075270586,0.8699551820755005,-0.908917606
2.76994276,0.5924498438835144,0.3998913764953613,-0.987285256,0.572351873,3.750403165817261,0.7685116529464722,-0.143600717,0.3465439975261688,0.4219828844070435,-0.070161097,0.8884050250053406,-0.906527162
2.774940729,0.5557982921600342,0.422932893,-1.010672092,0.6191328167915344,3.963987827301025,0.9344654083251953,-0.146073297,0.3469277322292328,0.4207225441932678,-0.063687503,0.9078348875045776,-0.902762055
2.779940128,0.4938731789588928,0.3840593099594116,-1.034121156,0.6242523789405823,4.208355903625488,1.177520513534546,-0.147975773,0.3472229838371277,0.4197527766227722,-0.055189908,0.9284260272979736,-0.896621883
2.784940243,0.3915723562240601,0.393738866,-1.027068019,0.6070556044578552,4.526119232177734,1.504797101020813,-0.155335367,0.348740816,0.4153585433959961,-0.044163112,0.95052278,-0.887412727
2.789941311,0.4817087650299072,0.4352820515632629,-1.066004872,0.6384811401367188,4.889070034,1.812603354454041,-0.167801902,0.3513444364070892,0.4078593254089355,-0.030077258,0.9745429754257202,-0.874780893
2.794943333,0.6328846216201782,0.3987245559692383,-1.108778834,0.7512488961219788,5.205691814422607,2.051737070083618,-0.171935558,0.35220775,0.4053727388381958,-0.012414371,1.000071406364441,-0.85877192
2.799940348,0.8294659852981567,0.3788577020168304,-1.148573041,0.8599497079849243,5.408473014831543,2.165820121765137,-0.175116137,0.3528720140457153,0.4034594893455505,0.008392045,1.026533842086792,-0.84007442
2.804938793,1.033030390739441,0.3428511023521423,-1.198858619,0.9513060450553894,5.500990390777588,2.152482509613037,-0.176170751,0.3530922830104828,0.4028250873088837,0.031361543,1.053102016448975,-0.819609702
2.809937716,1.209734320640564,0.3941373527050018,-1.254617691,1.082284092903137,5.559938907623291,2.164316892623901,-0.19277291,0.3606657087802887,0.3883850574493408,0.057042375,1.079684376716614,-0.797154546
2.81493783,1.381156086921692,0.4743532538414001,-1.2992239,1.224829196929932,5.562544822692871,2.222025156021118,-0.198277876,0.3631769418716431,0.3835970163345337,0.086475134,1.105909228,-0.771683455
2.819938898,1.646054029464722,0.5113087892532349,-1.449776888,1.287392377853394,5.466523170471191,2.227400541305542,-0.202513561,0.3651091158390045,0.379912943,0.1190828084945679,1.130995512008667,-0.743429422
2.824941158,1.866609215736389,0.4456715285778046,-1.494654417,1.302493929862976,5.365230560302734,2.412077665328979,-0.20391804,0.3657498061656952,0.3786913752555847,0.1573439240455627,1.155044078826904,-0.709211648
2.829944611,1.873506188392639,0.5473400354385376,-1.466366649,1.337559700012207,5.286485195159912,2.652294158935547,-0.21650748,0.374066561,0.3641222715377808,0.2027284353971481,1.177783012390137,-0.667933226
2.834943533,2.094505310058594,0.6656585931777954,-1.583589792,1.321496725082397,5.173555374145508,2.744823455810547,-0.223529786,0.3787602782249451,0.355918825,0.252947986,1.199010610580444,-0.621967673
2.839942694,2.000051021575928,0.5857535004615784,-1.54737711,1.260012745857239,5.043888092041016,2.946329116821289,-0.228932977,0.3823717534542084,0.3496068716049194,0.3103971183300018,1.218100070953369,-0.568110764
2.844942808,1.841800451278687,0.7266081571578979,-1.504949093,1.297078251838684,4.988545417785645,3.109532356262207,-0.230724573,0.3835692405700684,0.3475139439105988,0.3759588003158569,1.235497713088989,-0.506328046
2.849943876,1.931368947029114,0.6935257315635681,-1.492741466,1.417430758476257,4.880627632141113,3.235527753829956,-0.235882416,0.389937162,0.3368706405162811,0.4493497014045715,1.250632047653198,-0.437406242
2.854946136,1.838033915,0.7553862929344177,-1.413052917,1.594215869903564,4.793427467346191,3.372398614883423,-0.241403729,0.3975408673286438,0.3242327868938446,0.5312674641609192,1.263304233551025,-0.360935539
2.859943151,1.980752587,0.7795249819755554,-1.502994895,1.822875857,4.611434936523438,3.466305017471313,-0.245652005,0.403391421,0.3145087957382202,0.6197891235351563,1.272873759269714,-0.279033244
2.864941359,1.917923450469971,0.6621128916740417,-1.479585052,2.034831523895264,4.254079341888428,3.432668209075928,-0.247060657,0.4053313434123993,0.3112845122814178,0.7092978954315186,1.278591632843018,-0.197622225
2.869940519,1.554972171783447,0.403890997,-1.413452625,2.024038314819336,3.895402431488037,3.419130086898804,-0.248144522,0.4068239629268646,0.3088036477565765,0.7984450459480286,1.280366778373718,-0.116320312
2.874940395,1.155008197,0.045283601,-1.48434341,1.715606808662415,3.569774866104126,3.322796106338501,-0.249115929,0.4183762967586517,0.2927762567996979,0.8815783858299255,1.278676629066467,-0.039622158
2.879941702,0.9686125516891479,-0.231463864,-1.740541577,0.9923564791679382,3.23840332,3.261850357055664,-0.249863371,0.4272650182247162,0.2804442644119263,0.9540742635726929,1.273865103721619,0.030107824
2.884943962,1.076397538,-0.038162261,-1.861607432,0.2128104716539383,2.868503093719482,3.230330706,-0.250111222,0.4302123486995697,0.2763552069664001,1.012257814407349,1.267089725,0.089393534
2.889941216,1.370655298233032,0.2706878185272217,-1.613243222,-0.210312068,2.800589799880981,3.114967823028564,-0.250301898,0.432480127,0.2732089459896088,1.064912319,1.260558843612671,0.1449746042490005
2.894939184,1.608858466148376,0.4968670308589935,-1.817549467,-0.50997436,2.657808065414429,2.972915649414063,-0.247381225,0.4391202628612518,0.2656483352184296,1.110248327255249,1.253953099250793,0.194092795
2.899938345,1.202793002128601,1.088845849,-1.796871305,-0.481059611,2.133819580078125,2.757838487625122,-0.242116764,0.4501833021640778,0.2532409131526947,1.142905235290527,1.247137308120728,0.2294473201036453
2.904938459,0.8758657574653625,1.366478204727173,-1.695045471,-0.13363874,1.588814139,2.494375705718994,-0.240371168,0.4538516104221344,0.2491268515586853,1.166646361351013,1.240356683731079,0.2532594799995422
2.909939766,0.8346710205078125,1.371342182159424,-1.637172699,0.2925067543983459,1.145192146,2.268029928207397,-0.239028051,0.4566741287708282,0.2459613680839539,1.185119271278381,1.233516812324524,0.2691697776317596
2.914941788,1.005290627479553,1.321807742118835,-1.660498738,0.6915774941444397,0.7192504405975342,2.027067899703979,-0.2385827,0.457610011,0.2449117600917816,1.198454618453979,1.226926684379578,0.2775288820266724
2.919938803,1.056544661521912,1.232671499252319,-1.720187545,0.9855800867080688,0.2081691324710846,1.684470176696777,-0.228209883,0.4643957316875458,0.241423637,1.204140067100525,1.220837235450745,0.2762573659420013
2.924936771,0.7594508528709412,1.162158966064453,-1.657438517,1.157707929611206,-0.273777366,1.289074659347534,-0.224770457,0.466645747,0.2402670532464981,1.202620745,1.215544104576111,0.2666519582271576
2.929935932,0.3614865839481354,1.060589671134949,-1.505805731,1.228185772895813,-0.590689778,0.9118204712867737,-0.222124055,0.4683769941329956,0.2393771409988403,1.196796178817749,1.211154222488403,0.2523703575134277
2.934936047,0.070763946,1.003871679,-1.372923136,1.261461615562439,-0.760043323,0.5533519983291626,-0.221246555,0.468951017,0.2390820682048798,1.188382267951965,1.207966446876526,0.2353610098361969
2.939937353,-0.086972177,0.8680388331413269,-1.276473165,1.216548562049866,-0.836043477,0.2065670192241669,-0.212925151,0.4740085899829865,0.2370810955762863,1.178372621536255,1.206040024757385,0.2168578952550888
2.944939375,-0.232689127,0.7734109163284302,-1.221342206,1.070737361907959,-0.865684152,-0.130158514,-0.208273843,0.4768277704715729,0.2359786480665207,1.165788650512695,1.205329060554504,0.1966155171394348
2.94993639,-0.293930143,0.6210229396820068,-1.189603925,0.7960823774337769,-0.864318252,-0.460062206,-0.204694971,0.4789969325065613,0.2351303994655609,1.150760293006897,1.205848813056946,0.175381601
2.954934835,-0.330861658,0.5235452055931091,-1.162806988,0.4403939247131348,-0.867168784,-0.766689658,-0.203508288,0.4797161817550659,0.2348491251468658,1.132228016853333,1.207486629486084,0.1524550914764404
2.959933758,-0.303675115,0.4690959453582764,-1.151120186,0.051776573,-0.878863454,-1.062502265,-0.200668991,0.4819310903549194,0.2341018915176392,1.109851002693176,1.210243940353394,0.1275856196880341
2.964939833,-0.265545666,0.4930911958217621,-1.139357686,-0.285563588,-0.929633915,-1.342226624,-0.197785124,0.4843409657478333,0.2333188503980637,1.082901120185852,1.214006066322327,0.099624962
2.969940662,-0.217415467,0.5476469993591309,-1.128534079,-0.533912957,-1.032220244,-1.592947006,-0.195566624,0.4861952662467957,0.2327138632535934,1.051185011863708,1.218449592590332,0.067873538
2.974943399,-0.182531968,0.6170822381973267,-1.107109308,-0.654907942,-1.185767055,-1.796499491,-0.194831118,0.4868101179599762,0.2325126528739929,1.014697909355164,1.223106384277344,0.031591784
2.97994113,-0.145490527,0.6502558588981628,-1.088877678,-0.682012677,-1.371855497,-1.957333088,-0.194265202,0.4872832000255585,0.2323578298091888,0.9738231897354126,1.227501511573792,-0.009267822
2.984939337,-0.121441878,0.6440150737762451,-1.078935266,-0.636104405,-1.584689856,-2.074926853,-0.196219355,0.4869585633277893,0.2363352030515671,0.928938091,1.231146335601807,-0.054631673
2.989938498,-0.107686341,0.60042274,-1.077619076,-0.561974645,-1.814901471,-2.16353035,-0.197722942,0.48670879,0.2393955141305923,0.8804212212562561,1.233644485473633,-0.104252577
2.994938612,-0.108290099,0.5163259506225586,-1.07396841,-0.501035392,-2.044742584,-2.223176241,-0.198221505,0.4866259694099426,0.2404102683067322,0.8289570808410645,1.234684705734253,-0.157309785
2.999939919,-0.104129076,0.4258537888526917,-1.076689839,-0.474065304,-2.256921053,-2.264352083,-0.198605105,0.4865622520446777,0.2411910444498062,0.7752565741539001,1.234127759933472,-0.212867528
3.004942417,-0.090944633,0.332039088,-1.08368516,-0.502221882,-2.453717709,-2.289092064,-0.20171611,0.4852442145347595,0.2449281960725784,0.7199732065200806,1.231858491897583,-0.269904643
3.009939671,-0.065624304,0.2620259821414948,-1.08665204,-0.576810241,-2.639595032,-2.294170856,-0.20712693,0.4829187393188477,0.2513207495212555,0.663823128,1.227815747261047,-0.32750383
3.014937878,-0.026542515,0.2197083532810211,-1.099360347,-0.672975242,-2.820262194,-2.298292637,-0.208921045,0.4821476638317108,0.2534403800964355,0.6072680950164795,1.221990228,-0.385100394
3.019937038,0.033665918,0.1970940083265305,-1.118366599,-0.781787813,-3.009324312,-2.298900604,-0.210301504,0.4815543591976166,0.2550713121891022,0.5509117841720581,1.214313507080078,-0.442063957
3.024937153,0.1281126290559769,0.1744604259729385,-1.141030908,-0.880188465,-3.22303915,-2.315789938,-0.210759237,0.4813576638698578,0.2556121051311493,0.4949897527694702,1.204689621925354,-0.498232126
3.029938459,0.2330090999603271,0.1739230901002884,-1.165662408,-0.969943225,-3.465915442,-2.331972837,-0.217700839,0.4783056676387787,0.2648766040802002,0.4400546550750732,1.192997097969055,-0.553076148
3.034940481,0.3139107525348663,0.1794070899486542,-1.176477551,-1.033658028,-3.725377321,-2.353747845,-0.220002547,0.4772936701774597,0.2679485380649567,0.3867131471633911,1.179170608520508,-0.606147408
3.039937735,0.3754719793796539,0.1803745627403259,-1.190239787,-1.068352938,-3.993833303,-2.377034664,-0.22177355,0.4765150249004364,0.2703121900558472,0.3355787694454193,1.163172364234924,-0.657010853
3.044935942,0.4112745225429535,0.1523029655218124,-1.206868529,-1.09058392,-4.260916233,-2.391228914,-0.222360775,0.4762568175792694,0.2710959315299988,0.2873748540878296,1.144970655441284,-0.704961658
