Time,inertial-6253.76535:scaledAccelX,inertial-6253.76535:scaledAccelY,inertial-6253.76535:scaledAccelZ,inertial-6253.76535:scaledGyroX,inertial-6253.76535:scaledGyroY,inertial-6253.76535:scaledGyroZ,inertial-6253.76535:scaledMagX,inertial-6253.76535:scaledMagY,inertial-6253.76535:scaledMagZ,inertial-6253.76535:roll,inertial-6253.76535:pitch,inertial-6253.76535:yaw
0,0.562347293,0.111418769,-0.823031127,0.002008496,-0.00117725,0.004128126,-0.407914072,-0.042664222,0.254002124,-0.115484938,0.590687513,-3.138780117
0.00499712,0.56173104,0.111815184,-0.822737873,0.002023911,0.000488577,0.004216791,-0.407941639,-0.042748056,0.253294647,-0.115493588,0.590699673,-3.138837576
0.009995264,0.559861362,0.112212978,-0.823213696,0.001579457,-0.000428623,0.004622406,-0.407950759,-0.042775851,0.253060073,-0.115497172,0.590703785,-3.138881922
0.014994432,0.560430646,0.111070476,-0.821897268,0.002333855,-0.0011598,0.004920157,-0.407957792,-0.042797241,0.25287956,-0.11550124,0.590712607,-3.138931036
0.019994624,0.560763717,0.113658063,-0.821983337,0.002663577,-0.000847309,0.004024001,-0.407823682,-0.042662866,0.252815485,-0.115508407,0.590713739,-3.138968945
0.024996096,0.561534464,0.111681201,-0.821657419,0.003786942,-0.004810541,0.004839195,-0.407582581,-0.042416435,0.252761871,-0.115506455,0.590705991,-3.139006615
0.029998336,0.562509835,0.110792711,-0.821180642,0.002550877,-0.002353967,0.004986391,-0.407502651,-0.04233472,0.252744079,-0.11550042,0.590709031,-3.139047384
0.034995712,0.560452163,0.110636488,-0.821372807,0.002043878,-0.002258955,0.005321461,-0.407441139,-0.042271849,0.252730399,-0.115504585,0.590705574,-3.139092684
0.039994113,0.561947227,0.109857462,-0.821445167,0.002601002,-0.002792895,0.006262165,-0.407420725,-0.042251002,0.25272584,-0.115500458,0.590705991,-3.139129162
0.044993281,0.562208474,0.109065153,-0.822553039,0.003449522,-0.002348006,0.00520242,-0.407921284,-0.042427316,0.252732575,-0.11549408,0.590702891,-3.139176369
0.04999347,0.560917735,0.110279635,-0.822230458,0.000779409,-0.002158212,0.005507963,-0.408087462,-0.042485781,0.252734303,-0.115501948,0.590706348,-3.139222622
0.054994687,0.561873198,0.108947143,-0.823292732,0.001901946,-0.00382823,0.002610469,-0.408215344,-0.042530768,0.252735645,-0.115503043,0.590691209,-3.139285326
0.059996672,0.561937988,0.109538235,-0.820749164,0.002362305,-0.001882495,0.004342454,-0.408257753,-0.042545684,0.252736092,-0.115501225,0.5906955,-3.13932848
0.064994045,0.560662448,0.10997045,-0.821174085,0.000658062,-0.003389511,0.005437168,-0.408335149,-0.042811517,0.252579302,-0.115505129,0.59068799,-3.139371395
0.069991939,0.562480152,0.113477953,-0.822511077,0.001871021,-0.004463258,0.005740165,-0.408371866,-0.042962603,0.252488434,-0.115512528,0.590680361,-3.139411688
0.074991107,0.562129855,0.113733061,-0.822546303,0.002302199,-0.004411903,0.00525063,-0.408400118,-0.043078855,0.252418518,-0.115514919,0.590663075,-3.139454842
0.079991043,0.562555432,0.111746386,-0.822223365,0.002900835,-0.004391539,0.005563598,-0.408409506,-0.0431174,0.252395332,-0.1155103,0.590656459,-3.139498949
0.084992252,0.561899602,0.110095412,-0.821795404,0.001751603,-0.005005641,0.003711996,-0.408390075,-0.043061666,0.252315104,-0.115511917,0.590642095,-3.139553547
0.089994498,0.561605871,0.109053701,-0.821670711,0.002315737,-0.005700533,0.002325702,-0.408356756,-0.042957075,0.252225578,-0.115508221,0.590619922,-3.139605522
0.094997764,0.562188327,0.112453155,-0.821196973,0.001289721,-0.004037269,0.004030204,-0.408331096,-0.042876597,0.252156705,-0.115524068,0.590614378,-3.139650822
0.099995904,0.562493324,0.111770079,-0.821252882,0.002332256,-0.005423132,0.004600859,-0.408322603,-0.042849913,0.252133876,-0.115521118,0.590604246,-3.139692545
0.104995072,0.560924768,0.109582767,-0.822895467,0.002476704,-0.004649652,0.004618331,-0.408316076,-0.042829383,0.252116293,-0.115520164,0.590586901,-3.139744282
0.109995008,0.560926497,0.110883825,-0.8228333,0.003011503,-0.004747968,0.003718898,-0.408073574,-0.042622268,0.252318025,-0.115519837,0.590573251,-3.139789343
0.114996225,0.560141802,0.111782238,-0.822599769,0.001857821,-0.003315434,0.00686092,-0.407886982,-0.042462911,0.252473265,-0.115519524,0.590572715,-3.139818192
0.119998462,0.560968757,0.111423425,-0.821253836,0.002682984,-0.003775359,0.007065991,-0.407825112,-0.042410072,0.252524734,-0.115509592,0.590570092,-3.139842749
0.124995843,0.561083555,0.11196623,-0.824032664,0.00312736,-0.002812094,0.006908542,-0.407777518,-0.042369414,0.252564341,-0.115505211,0.590568125,-3.139873981
0.12999399,0.560656846,0.111112982,-0.822289348,0.003305461,-0.001945813,0.004941915,-0.407791525,-0.042348437,0.253339291,-0.115495697,0.590574205,-3.139911413
0.134992898,0.560724139,0.108520329,-0.821351767,0.003212333,-0.000865797,0.005157979,-0.407832444,-0.042324718,0.254705876,-0.11549262,0.590579331,-3.139956713
0.139992833,0.559365094,0.110147782,-0.821901381,0.002152128,-0.000351496,0.005926212,-0.407846004,-0.042316854,0.25515902,-0.115492463,0.590588093,-3.139990091
0.144994304,0.560894966,0.110132731,-0.822661459,0.001825335,-0.000697191,0.004700091,-0.407856464,-0.042310804,0.255507678,-0.115494736,0.590594649,-3.140025139
0.149996549,0.560787797,0.108748719,-0.821259916,0.001722079,-0.002004905,0.004868514,-0.407859921,-0.042308796,0.255623281,-0.115493968,0.590597868,-3.140072823
0.154993922,0.561883569,0.109393187,-0.82070142,-0.000477408,-0.001578116,0.005197297,-0.408115834,-0.042385977,0.253936559,-0.115516536,0.590604484,-3.140119553
0.159992069,0.562146544,0.110418081,-0.821047425,0.001099806,-0.001608323,0.00350859,-0.408200681,-0.04241157,0.253377289,-0.115528077,0.590610325,-3.140175581
0.164990976,0.562452793,0.112741806,-0.819508851,-0.00011324,-0.001096961,0.003604354,-0.408265978,-0.042431261,0.252946943,-0.115554154,0.590616703,-3.140218019
0.169991165,0.563769579,0.111951813,-0.820647001,0.000599707,-0.00142485,0.003024478,-0.408287644,-0.042437788,0.25280425,-0.115570359,0.590622008,-3.140260458
0.174992383,0.56354636,0.112121858,-0.821936071,0.001487992,-0.001647116,0.004307109,-0.408355594,-0.042433538,0.253607005,-0.115579039,0.59062475,-3.140300512
0.179994628,0.564542055,0.111912623,-0.821383417,0.002347225,-0.004297553,0.004458113,-0.40839079,-0.042429831,0.254098982,-0.115581684,0.59061259,-3.14034152
0.184991747,0.563746929,0.111038178,-0.822069526,0.001011529,-0.00319206,0.005703346,-0.408417881,-0.042426981,0.254477531,-0.11558532,0.590611696,-3.140374422
0.189989895,0.562170446,0.11069262,-0.821886301,0.000808432,-0.004671855,0.003717775,-0.408426851,-0.042426035,0.254603058,-0.115593828,0.590596199,-3.140414715
0.194989055,0.562175393,0.111133531,-0.82276839,0.002220728,-0.004313156,0.003598167,-0.408432007,-0.042431153,0.254060149,-0.115602471,0.590585649,-3.140463591
0.199989244,0.56353575,0.111463279,-0.822654665,0.001959747,-0.006788388,0.003146423,-0.408431917,-0.042438745,0.253235281,-0.115604632,0.59056145,-3.140514374
0.204990461,0.563374877,0.109578088,-0.822115064,0.000788502,-0.005013747,0.00560836,-0.408431858,-0.042444587,0.25260061,-0.115604252,0.590553999,-3.140554428
0.20999296,0.560180187,0.110937983,-0.822383463,0.001808118,-0.005196171,0.004035423,-0.408431858,-0.042446524,0.252390176,-0.115609914,0.590529084,-3.140596628
0.214990333,0.560399294,0.112207741,-0.825455248,-0.000165939,-0.005562001,0.006978267,-0.408431858,-0.042448014,0.25222826,-0.115609571,0.590515256,-3.140616417
0.21998848,0.56053412,0.1104661,-0.822173476,0.00225212,-0.003660845,0.004093123,-0.408481181,-0.042445607,0.252389997,-0.115612067,0.590498328,-3.140660524
0.224987641,0.562062562,0.110172249,-0.821484268,0.00282357,-0.003839792,0.005213081,-0.408519119,-0.042443752,0.252514422,-0.11560367,0.590488672,-3.14070034
0.229993731,0.562263668,0.109498031,-0.821883142,0.002894565,-0.003084686,0.005114295,-0.408531725,-0.042443138,0.252555668,-0.115600586,0.590486646,-3.14074254
0.234994948,0.563245714,0.109039754,-0.822169721,0.003492321,-0.004698629,0.00503441,-0.408541411,-0.042442665,0.252587438,-0.115595326,0.59047085,-3.140790939
0.239996925,0.561550975,0.110808142,-0.821624815,0.002534083,-0.003753462,0.00572649,-0.408490956,-0.042465448,0.253358513,-0.115602314,0.59046644,-3.140827179
0.244994044,0.560846984,0.111013673,-0.821850419,0.002392086,-0.003326951,0.004220584,-0.408397853,-0.042506173,0.254720807,-0.115602903,0.590453982,-3.140869617
0.249991938,0.562128663,0.112225302,-0.822131932,0.002038874,-0.003176198,0.005808159,-0.408366978,-0.042519681,0.255172521,-0.115607031,0.590450048,-3.14089489
0.254991114,0.5628196,0.110300049,-0.822198212,0.002108719,-0.001758755,0.003750708,-0.408343256,-0.042530071,0.255520105,-0.115609296,0.590446234,-3.140948057
0.25999105,0.561271012,0.111158751,-0.822390556,-0.000931798,-0.002401085,0.003867023,-0.408335388,-0.042533517,0.255635351,-0.115635686,0.590440333,-3.140998125
0.264992267,0.561065853,0.113519624,-0.822898924,-0.000584676,-0.00350067,0.004877451,-0.408582568,-0.042872351,0.255305201,-0.115657195,0.590431094,-3.141033173
0.269994766,0.560610533,0.111574613,-0.82301873,0.000724702,-0.0024262,0.002803187,-0.408664525,-0.042984705,0.255195737,-0.115667909,0.590427935,-3.141090393
0.274992377,0.562188447,0.110366732,-0.821164668,0.002772528,-0.001764289,0.004681888,-0.408727586,-0.043071151,0.255111516,-0.115666486,0.590434551,-3.141131401
0.279990524,0.562947154,0.111719616,-0.82138449,0.001899127,-0.003896008,0.004481561,-0.408748507,-0.043099817,0.255083591,-0.115670338,0.59042716,-3.141175747
0.284989953,0.56170243,0.110718109,-0.823733568,0.003153554,-0.002233211,0.004634114,-0.408669978,-0.042775266,0.254305571,-0.115668572,0.590421081,-3.14121747
0.289990157,0.561283529,0.111773074,-0.821912587,0.00162808,-0.002990025,0.006350894,-0.408620536,-0.042581882,0.253860384,-0.115678996,0.590412617,-3.141247749
0.294991374,0.561098456,0.109950185,-0.821865499,0.001231124,-0.004357062,0.004690843,-0.408582479,-0.042433083,0.253517836,-0.115686193,0.590402126,-3.141297579
0.299993604,0.56237334,0.110504597,-0.821403623,0.002657116,-0.005625994,0.003809827,-0.408569872,-0.042383745,0.25340426,-0.115683027,0.590386748,-3.141336441
0.304990709,0.562529385,0.108631648,-0.821399093,0.001707321,-0.003822077,0.005473899,-0.408476949,-0.042347945,0.253254354,-0.115682833,0.590380549,-3.141378641
0.309988856,0.562115014,0.108974338,-0.821756959,0.002224552,-0.003945953,0.005680691,-0.40836218,-0.042338256,0.253141642,-0.115678944,0.590374768,-3.141410828
0.314988047,0.560757339,0.112769715,-0.819816768,0.00250622,-0.003925409,0.005056764,-0.408273906,-0.042330801,0.253054917,-0.115676142,0.590370297,-3.141432285
0.319988221,0.561057031,0.113315485,-0.82064873,0.000852468,-0.005156985,0.007246755,-0.40824461,-0.042328328,0.253026158,-0.115686871,0.59035331,-3.141450882
0.32498917,0.562907875,0.113417119,-0.8216573,0.002167337,-0.004023277,0.005371737,-0.408222079,-0.042326428,0.253004014,-0.11569465,0.590348363,-3.141477823
0.32999143,0.5622226,0.113128267,-0.821165383,0.003184602,-0.005705159,0.005403475,-0.408407748,-0.042425025,0.252840668,-0.115695238,0.590327799,-3.141511202
0.334988534,0.561610758,0.111272439,-0.822385609,0.003216501,-0.0044803,0.006080245,-0.40855062,-0.042500887,0.252714992,-0.115679026,0.590323567,-3.141541004
0.339986682,0.559634387,0.110530697,-0.822182655,0.001700854,-0.005799755,0.005247469,-0.408598006,-0.042526044,0.252673328,-0.115677349,0.590301633,-3.141581059
0.344985843,0.559482872,0.109786905,-0.822362483,0.002521861,-0.004806921,0.00317359,-0.408634454,-0.042545401,0.252641261,-0.115678571,0.590285301,3.14155221
0.349986047,0.562373936,0.111050539,-0.822202981,0.000847365,-0.004205254,0.003272859,-0.408480018,-0.04258386,0.25262773,-0.115693443,0.590276182,3.141508818
0.354986995,0.5616799,0.109771803,-0.821943581,0.001604551,-0.003488762,0.004870079,-0.408192813,-0.042645853,0.252614439,-0.115692958,0.590269685,3.141465187
0.359989256,0.560820222,0.110076658,-0.821482122,0.003607688,-0.003232458,0.00613558,-0.408097565,-0.042666405,0.252610028,-0.115685835,0.59025991,3.141427279
0.364992499,0.561400175,0.111046709,-0.824142337,0.001669973,-0.000842497,0.005175659,-0.408024311,-0.042682223,0.25260663,-0.115699813,0.590260386,3.141381025
0.369990915,0.560708821,0.111033626,-0.823183715,0.001577614,-0.000581031,0.006490114,-0.408000022,-0.042687465,0.252605528,-0.115700163,0.590264082,3.14135313
0.374990076,0.561540365,0.112954304,-0.82347393,0.002419679,-0.000648657,0.004332155,-0.408116966,-0.042282946,0.252745181,-0.115705274,0.590269446,3.141316891
0.379990011,0.562151611,0.112586416,-0.82305491,0.001702066,0.000260164,0.005220079,-0.408155739,-0.042148814,0.252791494,-0.115706176,0.590280771,3.14129138
0.384991229,0.561798275,0.111588351,-0.822260439,0.002114821,-0.00175699,0.006004102,-0.408185571,-0.042045612,0.252827138,-0.11571341,0.590285599,3.141267061
0.389993221,0.561500192,0.112491667,-0.821262419,0.00270087,-6.03E-05,0.007623714,-0.408195436,-0.042011388,0.252838939,-0.115706913,0.5903005,3.141250134
0.394990593,0.56221199,0.112151563,-0.822498083,0.002428346,-0.000176466,0.007110794,-0.408392519,-0.042386916,0.252909899,-0.115703136,0.590314865,3.141225576
0.399988741,0.562872767,0.111362219,-0.823243082,0.002427151,0.00102197,0.004716212,-0.408504754,-0.042610873,0.252948731,-0.115699142,0.590334594,3.141174793
0.404988676,0.562858939,0.110386662,-0.822559297,0.004756256,0.000156947,0.006758534,-0.408591092,-0.042783193,0.252978623,-0.115688309,0.590352774,3.141140223
0.409988612,0.561810136,0.111524314,-0.822881877,0.002292141,0.000798862,0.007068355,-0.408619732,-0.042840332,0.252988547,-0.115677327,0.59036231,3.141115665
0.414989829,0.562704861,0.112845838,-0.823282659,0.004151472,-0.00151408,0.006222814,-0.408587694,-0.042826042,0.253177166,-0.115667023,0.590366364,3.141083241
0.419992059,0.561894357,0.112155549,-0.823101819,0.004679346,-0.000427788,0.007007405,-0.408522576,-0.042762559,0.25342223,-0.115661316,0.590377212,3.141058207
0.424989432,0.560559511,0.111430436,-0.822603703,0.003791304,-0.000918715,0.007287401,-0.408472478,-0.042713713,0.25361082,-0.115646534,0.590379894,3.141031027
0.42998758,0.561888754,0.111182839,-0.820925474,0.00269016,-0.000500761,0.008665257,-0.408455849,-0.042697515,0.253673345,-0.115632169,0.590390384,3.141009808
0.43498674,0.562761426,0.109314561,-0.821701705,0.003635601,-0.000240633,0.005819234,-0.408443093,-0.042685051,0.253721446,-0.11562366,0.59041214,3.140962601
0.439986676,0.560325384,0.110183053,-0.822680891,0.00329762,-0.000608334,0.005697776,-0.408143997,-0.04279105,0.253411144,-0.115622923,0.590418935,3.140923738
0.444987893,0.55989331,0.111606888,-0.822772682,0.001956305,-0.00076941,0.004775431,-0.407913864,-0.042872611,0.253172398,-0.115628764,0.590421021,3.140882015
0.449990153,0.561091423,0.109787732,-0.823052168,0.002821964,-0.002185448,0.007330421,-0.40783754,-0.042899653,0.253093243,-0.115618266,0.590425909,3.140848875
0.454987526,0.562113106,0.109421097,-0.822680831,0.001802308,-0.001349189,0.007280885,-0.407778829,-0.042920459,0.253032297,-0.115610324,0.590433061,3.140817404
0.459985673,0.561699867,0.109987594,-0.822977781,0.004148568,-0.001136711,0.006070989,-0.407733828,-0.042865783,0.253498167,-0.115596682,0.590436637,3.140785217
0.464984566,0.561795056,0.111483,-0.821976185,0.003832398,-0.000941476,0.006169523,-0.407673419,-0.042761456,0.254348099,-0.115599006,0.590441167,3.140750647
0.469985276,0.562507927,0.110251471,-0.821397424,0.00415004,-0.002577431,0.00663374,-0.407653391,-0.042726859,0.25462991,-0.11558158,0.59044373,3.140722036
0.474986494,0.561544478,0.110136136,-0.822085202,0.002925999,-0.001252193,0.004774898,-0.407637984,-0.042700242,0.254846781,-0.115578204,0.590442598,3.140675545
0.479988724,0.560773015,0.109166853,-0.82199806,0.003370293,-0.000605198,0.007736205,-0.407632858,-0.042691417,0.254918694,-0.115559705,0.590450227,3.140655756
0.484985858,0.56163919,0.110083796,-0.822269142,0.003866726,-0.001855211,0.005588845,-0.408151388,-0.042403467,0.255123466,-0.115551986,0.590449452,3.140621662
0.489984006,0.560929775,0.111146919,-0.821789443,0.004108666,-0.003894661,0.007844684,-0.408323318,-0.042307988,0.255191386,-0.115535438,0.59044224,3.140607595
0.494983166,0.561564386,0.111440897,-0.821547389,0.004244029,-0.000619535,0.00652434,-0.40845561,-0.042234521,0.255243629,-0.115525693,0.590455651,3.140588045
0.49998951,0.561260641,0.111462079,-0.821069241,0.004112044,-0.002614197,0.007546028,-0.408499479,-0.042210162,0.255260944,-0.115511425,0.590448201,3.140568972
0.504990697,0.561346233,0.113026448,-0.822698653,0.004910706,-0.001593185,0.006033772,-0.408335954,-0.042396296,0.255487263,-0.115497656,0.590447187,3.140550613
0.509992957,0.561700702,0.111529261,-0.823514044,0.004560702,-0.000728482,0.006693264,-0.408232927,-0.04250871,0.255614996,-0.115481362,0.590450764,3.140529871
0.514990091,0.561040699,0.111099854,-0.823556185,0.004981968,-0.001721819,0.007927157,-0.408153653,-0.042595204,0.255713314,-0.115459375,0.590457559,3.140510798
0.519988239,0.5624488,0.112115711,-0.82336998,0.005546326,6.56E-05,0.008876104,-0.408127367,-0.042623885,0.255745918,-0.115434781,0.590473831,3.140497923
0.5249874,0.561485589,0.111380264,-0.822493076,0.005375973,0.000334012,0.008547107,-0.408105522,-0.042651236,0.255192399,-0.115409486,0.590485513,3.140485764
0.529987812,0.562165976,0.109160729,-0.824239612,0.006222158,4.79E-05,0.010063578,-0.408096671,-0.042665642,0.254425436,-0.11536663,0.590500772,3.140462637
0.534989059,0.563515186,0.108860485,-0.822523475,0.00428103,0.002187521,0.007194747,-0.408089876,-0.042676721,0.25383532,-0.115353592,0.590524316,3.140429735
0.539991021,0.562184393,0.109883085,-0.822102964,0.004067979,-0.000373981,0.009040933,-0.408087611,-0.042680394,0.253639638,-0.115328759,0.590534508,3.140413761
0.544988394,0.562661767,0.109138124,-0.820628583,0.005016889,0.000699727,0.007927158,-0.408085883,-0.042683225,0.253489077,-0.115306251,0.590557456,3.140382528
0.549986541,0.562535703,0.107755184,-0.82090795,0.00412641,-0.000565547,0.009081504,-0.408085674,-0.042586062,0.253062665,-0.115278251,0.590569496,3.140357971
0.554985702,0.563963711,0.107664041,-0.82233578,0.001891724,-0.000746213,0.005847118,-0.408085525,-0.042511303,0.252734572,-0.11527326,0.590581775,3.140313625
0.559985638,0.56187135,0.108028732,-0.822830319,0.002799672,0.001054443,0.007080792,-0.408085465,-0.042486515,0.252625793,-0.115258798,0.590599895,3.140285254
0.564986885,0.560748041,0.112678856,-0.823844612,0.002365893,0.000276603,0.00605448,-0.408085465,-0.042467441,0.252542108,-0.115269177,0.590606451,3.140258074
0.569989145,0.561687708,0.110442631,-0.820284426,0.003582596,-0.001219855,0.006503687,-0.408028066,-0.042633768,0.252667457,-0.115256324,0.590619922,3.140224695
0.574986517,0.56169939,0.106203258,-0.821241558,0.00235594,0.001310701,0.006437333,-0.407925904,-0.042936325,0.25291872,-0.115241744,0.590635896,3.140171766
0.579984665,0.562537253,0.108265772,-0.822187901,0.002729158,0.001016586,0.005688756,-0.407892019,-0.043036647,0.253002048,-0.115235627,0.590660453,3.140127182
0.584983826,0.563485026,0.109535754,-0.822725892,0.000831494,7.50E-05,0.004333298,-0.407865942,-0.043113839,0.253066123,-0.115246661,0.590668678,3.140075684
0.589984,0.56178081,0.11074467,-0.82165128,0.000313325,0.000580109,0.005476373,-0.407857299,-0.043139435,0.253087372,-0.115258172,0.590680778,3.140037775
0.594985485,0.561391234,0.113126323,-0.821491539,0.000742829,-0.000525033,0.007106021,-0.408121079,-0.04260207,0.254456609,-0.115268953,0.59069103,3.140028
0.599987984,0.560890853,0.111473724,-0.820517659,0.003022921,7.86E-06,0.006916603,-0.408208549,-0.042423893,0.254910618,-0.115265913,0.5906955,3.14000535
0.604985595,0.560481966,0.112164855,-0.822831929,0.004055762,-0.002300872,0.007049202,-0.408275872,-0.042286791,0.255259931,-0.115259208,0.590697527,3.139989853
0.609983742,0.560154736,0.11502023,-0.823114574,0.002841321,-0.002118093,0.005917414,-0.408298194,-0.042241331,0.255375773,-0.115257286,0.590702116,3.139983892
0.614982903,0.561655164,0.113533452,-0.822533846,0.003845803,-0.001210834,0.006467483,-0.408311933,-0.042217627,0.254231542,-0.115258716,0.590703428,3.139959574
0.619982839,0.561528623,0.112085603,-0.821399868,0.002776751,-0.000449535,0.007342084,-0.408315659,-0.042212557,0.253546953,-0.115243897,0.590712965,3.139945269
0.624983788,0.560373068,0.111946017,-0.821755052,0.00562864,0.001353581,0.008085179,-0.40831852,-0.04220866,0.253020197,-0.11522688,0.590727925,3.13992548
0.629991949,0.560184062,0.112065583,-0.821524024,0.004176104,-0.000768977,0.005697358,-0.408319473,-0.042207368,0.252845556,-0.115218371,0.590733528,3.139900684
0.634995222,0.560672164,0.111421235,-0.823350906,0.004414057,-0.001847998,0.007883737,-0.408182472,-0.042234261,0.253104717,-0.115199029,0.590738297,3.139880419
0.639993608,0.560405672,0.112368301,-0.821963668,0.003011188,0.001058075,0.008298163,-0.407998145,-0.042271305,0.253587484,-0.115182094,0.590759993,3.139871359
0.644992769,0.562867165,0.111044124,-0.82146889,0.005860323,0.000230445,0.00747986,-0.407856286,-0.042299803,0.253958911,-0.115166605,0.590771675,3.139841795
0.649992943,0.561705232,0.111475937,-0.822667539,0.003209878,0.000884201,0.006067414,-0.407809258,-0.042309254,0.254082084,-0.11516016,0.590788126,3.139809132
0.65499419,0.560776055,0.109693944,-0.82189393,0.004805187,0.001367897,0.006803303,-0.407773077,-0.042316526,0.254176855,-0.115140572,0.590805531,3.139784098
0.65999639,0.55960089,0.113891639,-0.821097314,0.004510035,0.004115158,0.008295908,-0.408049285,-0.042521238,0.253679901,-0.115133181,0.590831816,3.139770985
0.664993763,0.566015124,0.110016569,-0.82332325,0.002837185,0.003708557,0.008155133,-0.408261806,-0.042678751,0.253297538,-0.11512319,0.590874076,3.139735222
0.66999191,0.562353671,0.11240346,-0.820324481,0.00339167,0.001471527,0.009089845,-0.408332288,-0.04273098,0.253170758,-0.115109116,0.590890646,3.139724731
0.674991131,0.561349154,0.109616816,-0.821555912,0.004822992,0.003247751,0.005851947,-0.408386499,-0.042771164,0.253073186,-0.115098178,0.590916514,3.13968277
0.679991305,0.560677052,0.108340584,-0.821193337,0.003018888,0.002056497,0.007975256,-0.408599764,-0.042803444,0.25371483,-0.115085401,0.590934873,3.139652967
0.684992492,0.563577116,0.110135868,-0.822471201,0.003184036,0.001832717,0.007306092,-0.408961296,-0.042847447,0.254890025,-0.115069859,0.590968847,3.13962841
0.689994752,0.563716829,0.109110713,-0.821763158,0.002138852,0.001922078,0.007466598,-0.409081161,-0.042862039,0.25527969,-0.115063585,0.590993822,3.139592648
0.694992125,0.56401825,0.109373659,-0.820871055,0.002716784,0.001214943,0.007128807,-0.409173369,-0.042873267,0.255579501,-0.115050599,0.591013074,3.13956666
0.699990034,0.561740279,0.111154661,-0.820857942,0.003609843,0.00104646,0.006842684,-0.409203947,-0.042876989,0.255678922,-0.115048356,0.591029942,3.139543772
0.704989195,0.562836468,0.110417485,-0.82056129,0.0033728,-0.000236082,0.007236769,-0.408842504,-0.042553343,0.255387932,-0.115035124,0.591051519,3.139520407
0.70998913,0.564010262,0.109989896,-0.820561051,0.00701197,-0.000434838,0.00824195,-0.408722639,-0.042446028,0.255291462,-0.115004949,0.59106338,3.139502764
0.714990616,0.562351227,0.109255426,-0.820413291,0.005753663,-0.001364247,0.008024611,-0.408630431,-0.042363457,0.255217224,-0.114978902,0.591068923,3.139482021
0.719992816,0.561585009,0.110140033,-0.820230246,0.005204103,-0.002934499,0.006430459,-0.408599854,-0.042336076,0.255192608,-0.114957139,0.591060758,3.13946557
0.724990189,0.563971817,0.109078169,-0.821402073,0.004227607,-0.002992109,0.005322923,-0.408429772,-0.042318821,0.255063593,-0.114949092,0.591063559,3.139427662
0.729988337,0.563533962,0.109033979,-0.820509076,0.00311258,-0.002654563,0.006105468,-0.408337086,-0.042314041,0.254993588,-0.114937134,0.591065168,3.139401197
0.734987497,0.562951148,0.107937485,-0.821096003,0.003627828,-0.003482734,0.004415,-0.408265799,-0.042310365,0.254939735,-0.114926539,0.591059387,3.13936162
0.739987731,0.561851144,0.108992711,-0.82097888,0.002652623,-0.004605201,0.005089377,-0.408242166,-0.042309143,0.254921883,-0.114922248,0.591049016,3.139331341
0.744988918,0.562834442,0.109060839,-0.820903957,0.001419756,-0.004220689,0.005405197,-0.40819633,-0.042253587,0.25463289,-0.114923395,0.591043472,3.139298439
0.749991179,0.561676919,0.109569356,-0.820967972,0.002359764,-0.00365629,0.005352271,-0.408153236,-0.042180095,0.254259527,-0.114917874,0.59103322,3.139275312
0.754988551,0.561736584,0.110501677,-0.822817385,0.001585641,-0.0044104,0.006788343,-0.408120096,-0.042123545,0.253972262,-0.114915892,0.591014862,3.139255762
0.759986699,0.562332749,0.111106358,-0.823860586,0.003494842,-0.004448941,0.00740898,-0.408109128,-0.042104796,0.253877014,-0.114903927,0.591002464,3.139239073
0.764991999,0.563024461,0.109176226,-0.824071825,0.002999676,-0.004437395,0.006981296,-0.408100665,-0.042090368,0.2538037,-0.114899635,0.590992332,3.139218092
0.769992173,0.563658535,0.111599937,-0.821748912,0.003293996,-0.004417286,0.007113468,-0.408291489,-0.042231653,0.254052937,-0.114892587,0.590986192,3.139198065
0.77499342,0.563361108,0.111152664,-0.821759284,0.001732077,-0.006216592,0.007085702,-0.408438325,-0.042340364,0.254244715,-0.114889294,0.590973377,3.139186144
0.779996157,0.561740041,0.110739566,-0.82303977,0.002488546,-0.004743402,0.008806606,-0.408487022,-0.04237641,0.254308313,-0.11487297,0.590965629,3.139175892
0.784993768,0.56259042,0.110195868,-0.8237288,0.001880717,-0.001853104,0.00667344,-0.408524483,-0.042404145,0.254357249,-0.114873365,0.590964973,3.139144659
0.789991915,0.561505735,0.11108806,-0.823239565,0.003478714,-0.002015025,0.006253267,-0.408480853,-0.042389203,0.253976226,-0.114870407,0.590959609,3.139117956
0.794991076,0.561644673,0.109606422,-0.823328137,0.00241248,-0.001965618,0.008459267,-0.408390552,-0.042353299,0.253281355,-0.114858374,0.590964019,3.139097929
0.79999131,0.561553299,0.109398454,-0.82278645,0.003218919,-0.001210024,0.006585852,-0.40836063,-0.042341392,0.253050953,-0.114854626,0.590967,3.139066458
0.804992259,0.563736439,0.108828075,-0.823003232,0.003394989,-0.002981395,0.005490418,-0.408337623,-0.042332232,0.252873689,-0.114840843,0.590961337,3.139036179
0.809994519,0.56308651,0.109364711,-0.82254678,0.002197901,-0.003134734,0.006765455,-0.408329964,-0.042329196,0.252814919,-0.114836887,0.590960622,3.13900876
0.814991593,0.561360836,0.109194249,-0.822383404,0.003115803,-0.003280985,0.007618616,-0.408065856,-0.042264413,0.252763957,-0.114821471,0.590950668,3.138985634
0.819989741,0.560893536,0.111541875,-0.820740998,0.004768767,-0.002842106,0.00734066,-0.407978266,-0.042242929,0.252747059,-0.114805862,0.590953112,3.138974667
0.8249892,0.562296867,0.112595871,-0.82121104,0.004358036,-0.003795785,0.005694703,-0.407910913,-0.0422264,0.252734065,-0.11480391,0.590947747,3.138950348
0.829989612,0.562732875,0.110724278,-0.82024008,0.004390851,-0.003412151,0.00690704,-0.407888561,-0.04222092,0.252729744,-0.114791699,0.590950906,3.138922691
0.834990859,0.562241137,0.110353626,-0.821950614,0.005527035,-0.004325056,0.004120176,-0.407483608,-0.042265214,0.253791958,-0.114780523,0.59093976,3.138883352
0.83999306,0.562600076,0.109796643,-0.822453499,0.004048819,-0.002177094,0.006873257,-0.407253385,-0.042291906,0.254407853,-0.114765652,0.590940714,3.13886857
0.844990194,0.562889159,0.10964597,-0.821068585,0.003089584,-0.004256528,0.008065518,-0.40707624,-0.042312443,0.25488174,-0.114752926,0.590931654,3.138844728
0.84998858,0.561936557,0.111056805,-0.821775019,0.002534769,-0.002543207,0.005377711,-0.407017469,-0.042319253,0.255038857,-0.114751168,0.590933979,3.13881731
0.8549878,0.560469747,0.110681228,-0.822174728,0.002760445,-0.003609305,0.004488553,-0.407192767,-0.042323545,0.254798591,-0.114750542,0.59092766,3.13878417
0.859987736,0.561736405,0.109937377,-0.820956826,0.001952797,-0.00291597,0.004709715,-0.407473236,-0.042324018,0.254354715,-0.114755049,0.590925634,3.138745308
0.864988923,0.560749948,0.110472679,-0.822136164,0.003541959,-0.002006736,0.00576748,-0.407689035,-0.042324383,0.254013211,-0.114743941,0.590922832,3.13871789
0.869990885,0.560414851,0.109946385,-0.823958516,0.003226048,-0.003193083,0.005811762,-0.40776059,-0.042324502,0.253899962,-0.114736632,0.59091264,3.138690233
0.874988317,0.560375214,0.111874551,-0.823739231,0.001649732,-0.002308174,0.003803387,-0.407815635,-0.042324595,0.25381285,-0.114750631,0.590909958,3.138650894
0.879986405,0.56281811,0.112649657,-0.822727084,0.00373516,-0.003499608,0.006772099,-0.408275723,-0.042160898,0.254112422,-0.114738733,0.590902746,3.138651133
0.884985626,0.562738121,0.112515874,-0.822579026,0.003130494,-0.002954558,0.006158064,-0.408629715,-0.042034946,0.254342914,-0.114737011,0.590899467,3.138639688
0.889985561,0.56225282,0.112576969,-0.823152244,0.003504533,-0.001733471,0.007256929,-0.408747107,-0.041993186,0.254419357,-0.114723973,0.590904474,3.138631105
0.894986749,0.562160313,0.113863975,-0.822678089,0.004773086,-0.002101788,0.005931797,-0.408837438,-0.041961048,0.254478157,-0.114707783,0.590902686,3.138618946
0.89999491,0.561864316,0.113754645,-0.823790014,0.006128929,-0.001619145,0.007031846,-0.408755124,-0.042095009,0.254679829,-0.114687271,0.590902865,3.138609409
0.904998124,0.561779141,0.111955568,-0.822018266,0.004363244,-0.000536943,0.009021405,-0.408578247,-0.042344309,0.255019218,-0.114673235,0.590916574,3.138594389
0.909996569,0.561211407,0.11074762,-0.822595596,0.005346619,-7.00E-06,0.008139289,-0.408519626,-0.042426974,0.255131751,-0.114648417,0.590925634,3.138575792
0.91499573,0.562019646,0.108229771,-0.822395265,0.005376385,3.56E-05,0.006804165,-0.408474505,-0.042490575,0.255218357,-0.114625797,0.590937734,3.138540983
0.919995904,0.561454237,0.109263204,-0.822888434,0.005349841,-2.18E-05,0.006691008,-0.408459544,-0.042511664,0.255247056,-0.114610545,0.590952218,3.13850832
0.924997389,0.560993671,0.1086803,-0.821770012,0.00452243,0.002949741,0.006268079,-0.40779826,-0.042417888,0.253901333,-0.114601858,0.590977132,3.138477564
0.92999959,0.561202705,0.109642342,-0.822636783,0.003960397,0.002189768,0.006908583,-0.407579005,-0.042386793,0.253455132,-0.114581503,0.590995789,3.138449192
0.934996724,0.562436759,0.109565102,-0.821814418,0.004693768,0.001064209,0.008125952,-0.407410294,-0.042362869,0.253111809,-0.114569567,0.591012478,3.138427258
0.939994872,0.561424494,0.109513819,-0.821269035,0.003017511,0.001200854,0.007305481,-0.407354355,-0.042354938,0.252997965,-0.114558503,0.591031492,3.138395071
0.944993794,0.560776472,0.110284798,-0.821644902,0.003578935,0.001627363,0.006639888,-0.407800317,-0.04223787,0.252918601,-0.114551,0.591047883,3.13837409
0.949993968,0.559971809,0.112062782,-0.822046041,0.004912405,0.002054738,0.006022266,-0.408069164,-0.042171594,0.252894342,-0.114542827,0.591063499,3.138347864
0.954994917,0.561717033,0.112382919,-0.822548151,0.00361918,0.002777049,0.008230769,-0.408276021,-0.042120598,0.252875656,-0.114535786,0.591088235,3.138341188
0.959997177,0.560389757,0.112029515,-0.820833385,0.004468128,0.001799837,0.008104885,-0.408344626,-0.042103689,0.252869457,-0.114520326,0.591111004,3.13832736
0.964994311,0.561183572,0.111248605,-0.823428214,0.004209445,0.003562209,0.009631004,-0.40828979,-0.041972492,0.253409445,-0.114497811,0.591140449,3.138325453
0.969992459,0.562655032,0.109731771,-0.822948396,0.003842247,0.003317434,0.00838686,-0.4081631,-0.041809816,0.254137784,-0.114479795,0.59117192,3.138317347
0.97499162,0.562233806,0.107990377,-0.823962867,0.003831923,0.002803217,0.007893967,-0.408065617,-0.04168465,0.254698187,-0.114460535,0.591196358,3.138298988
0.979991794,0.563070595,0.109861501,-0.821734309,0.0045813,0.003879669,0.007549781,-0.408033282,-0.041643146,0.254884005,-0.114454858,0.591228366,3.138274431
0.984993041,0.563244939,0.110781744,-0.821561337,0.00324256,0.003311679,0.006669499,-0.408008397,-0.041611213,0.255026966,-0.114450276,0.591261685,3.138251305
0.989995778,0.561819434,0.110253111,-0.823180556,0.002997813,0.003234891,0.006929258,-0.408240497,-0.041800931,0.254866809,-0.114445448,0.591283739,3.1382339
0.994993389,0.563611984,0.10936483,-0.821846485,0.002027448,0.001565301,0.007197654,-0.408419102,-0.041946907,0.254743606,-0.11443951,0.591304481,3.138207436
0.999991536,0.563848734,0.110321552,-0.821249902,0.003635164,0.003280598,0.006596896,-0.40847829,-0.041995309,0.254702747,-0.114429384,0.591343164,3.138185024
1.004990697,0.562659442,0.109115586,-0.818937063,0.004985361,0.002107316,0.006219323,-0.408523828,-0.042032551,0.254671305,-0.114418879,0.591362476,3.138153553
1.009990931,0.563235164,0.107000157,-0.818587303,0.003108358,0.000521103,0.006488716,-0.408675879,-0.042047236,0.254115403,-0.114404239,0.591382623,3.138124943
1.014992118,0.563245475,0.106433727,-0.820907593,0.001621545,-0.001092657,0.004101587,-0.408931315,-0.042060889,0.253136128,-0.114408843,0.591382563,3.138071775
1.01999414,0.562279582,0.108300716,-0.820205092,0.001284363,-0.001800829,0.004875658,-0.409016013,-0.042065416,0.252811432,-0.114414446,0.591384828,3.138026714
1.024991512,0.561097383,0.109199814,-0.820587158,0.001183491,-0.001354339,0.002526987,-0.409081161,-0.042068899,0.252561569,-0.114438266,0.59138459,3.137977839
1.029989362,0.559508324,0.108422533,-0.819949329,0.000576208,-0.003614928,0.002999307,-0.409102768,-0.042070054,0.252478749,-0.114452936,0.591376543,3.137933969
1.034994483,0.561258674,0.108558327,-0.821084619,-0.000435583,-0.001745219,0.002506582,-0.408215016,-0.041886766,0.252324075,-0.114472479,0.591378987,3.137881279
1.039994597,0.56082803,0.110623524,-0.821779609,-0.001762836,-0.002350505,0.002783062,-0.407920659,-0.041825991,0.252272815,-0.114503317,0.591371953,3.13783884
1.044995785,0.561240375,0.110615209,-0.824372351,-0.002266763,-0.002014319,0.005382647,-0.40769428,-0.041779231,0.252233088,-0.11452961,0.591367185,3.137808084
1.049998641,0.563156784,0.110626005,-0.821755648,-0.000275047,-0.00232146,0.004891537,-0.407619238,-0.04176373,0.252219856,-0.114544235,0.591373503,3.137785673
1.05499649,0.56401664,0.111344106,-0.822737217,-0.000863942,-0.001960934,0.004594021,-0.408094704,-0.041993778,0.252383649,-0.114570096,0.591373861,3.137744904
1.059994578,0.563224316,0.110470578,-0.821177661,0.000696092,-0.001598032,0.005248891,-0.408384293,-0.042129938,0.252481014,-0.11457473,0.591379404,3.137717962
1.064993739,0.563908398,0.109564535,-0.820805252,0.000548272,-0.002868387,0.00654282,-0.408607095,-0.0422347,0.252555907,-0.114577532,0.591385007,3.137686253
1.069993973,0.562295735,0.110601217,-0.819156766,0.001026145,-0.0039303,0.004334818,-0.408680975,-0.042269442,0.252580732,-0.11459028,0.591379166,3.137644291
1.07499516,0.561400115,0.110542379,-0.820060432,0.002828142,-0.00243862,0.00456475,-0.408851177,-0.042230524,0.253240824,-0.114595346,0.591380239,3.137612104
1.07999742,0.562426627,0.111181937,-0.821709037,0.001857006,-0.003092441,0.004319007,-0.409021884,-0.042151425,0.254106045,-0.114599124,0.591373205,3.137584925
1.084994793,0.562813222,0.111316308,-0.821279883,0.000459777,-0.003201184,0.004638955,-0.409153253,-0.042090561,0.254771769,-0.114612818,0.591374218,3.137559891
1.089993,0.563272476,0.113149978,-0.821949422,0.000637004,-0.003101159,0.004141568,-0.409196794,-0.042070381,0.254992515,-0.114627406,0.591368794,3.137542248
1.094992161,0.561855733,0.112065852,-0.823054612,0.0026047,-0.00195064,0.005228751,-0.409230322,-0.042054854,0.255162358,-0.114627697,0.591362715,3.137518406
1.099992037,0.559934735,0.112828001,-0.825089574,0.001699131,-0.001597205,0.004627659,-0.40894261,-0.042269699,0.253981978,-0.114639647,0.59136343,3.137486935
1.104992986,0.560753763,0.112846009,-0.824128807,0.002027699,-0.002456748,0.005134499,-0.408721238,-0.042435009,0.253073752,-0.114646144,0.591359019,3.137461185
1.109995246,0.562396526,0.111047857,-0.82164973,0.002590721,-0.0007027,0.006293922,-0.408647835,-0.042489823,0.252772599,-0.11464037,0.591370285,3.137439728
1.114992619,0.562253416,0.110615887,-0.821695089,0.003414085,-0.000135356,0.006850355,-0.40859136,-0.042532001,0.252540886,-0.114632376,0.591383755,3.137414694
1.119991064,0.562233746,0.107202604,-0.821743906,0.002504691,-0.000231557,0.006633511,-0.408298731,-0.042459011,0.253097266,-0.114630364,0.591387391,3.137372255
1.124990225,0.560566783,0.105067387,-0.822376907,0.000150324,-0.000537793,0.003683495,-0.407796651,-0.042314906,0.25416562,-0.114637472,0.591397583,3.137321234
1.129990458,0.562109351,0.104580507,-0.822290123,-0.003501906,-0.001039841,0.003240942,-0.407630175,-0.042267121,0.25451985,-0.114663549,0.591399729,3.137263775
1.134991407,0.561508715,0.105323106,-0.822328627,-0.004626564,0.00198225,0.001613839,-0.407502055,-0.042230356,0.254792422,-0.114701949,0.591419935,3.137191296
1.139993548,0.561700404,0.105257034,-0.822545886,-0.005525782,0.002179482,0.001357248,-0.407459587,-0.042218167,0.254882813,-0.114742443,0.591434598,3.137124538
1.144990683,0.561545908,0.107628129,-0.822626293,-0.006908299,0.002373079,0.000559346,-0.408073485,-0.042329215,0.255180061,-0.114806496,0.591456056,3.137053728
1.149989128,0.562599778,0.108406782,-0.821124136,-0.008601298,0.003607773,-0.001148419,-0.408277065,-0.042366035,0.255278617,-0.114887394,0.591489077,3.136978149
1.154988289,0.563020647,0.10947644,-0.822001696,-0.009229938,0.004313625,-0.000554198,-0.408433676,-0.042394366,0.255354464,-0.114966355,0.591520965,3.136908293
1.159988523,0.562520802,0.1128859,-0.821226895,-0.009930484,0.005139882,-0.001711749,-0.408485621,-0.042403761,0.255379617,-0.115055613,0.591550112,3.136845589
1.16498971,0.562430024,0.113622107,-0.819988072,-0.00750811,0.00473562,0.000257193,-0.408667266,-0.04247167,0.254008114,-0.115132399,0.591582596,3.136784554
1.169998646,0.563529909,0.115660302,-0.82114774,-0.007480118,0.002595122,-0.002110885,-0.408762574,-0.042509198,0.253209203,-0.115213566,0.591599584,3.136724472
1.175002337,0.561069489,0.115433007,-0.820823312,-0.004663923,0.004924789,0.003200457,-0.408835888,-0.042538077,0.252594501,-0.115269192,0.591633737,3.13668704
1.180001259,0.561982989,0.11548534,-0.822457492,-0.003868498,0.004005571,0.004131991,-0.408860177,-0.042547654,0.252390683,-0.115319103,0.591656387,3.13665843
1.18500042,0.560697734,0.118158191,-0.820821106,-0.004068665,0.004597737,0.0043015,-0.408824414,-0.042498156,0.252262592,-0.11536967,0.59168607,3.136636257
1.190000653,0.558546603,0.119592309,-0.821648955,0.000399851,0.005111505,0.005902081,-0.408757627,-0.042424403,0.252249092,-0.115397826,0.591721356,3.136631727
1.195001841,0.560681343,0.114999421,-0.823760152,0.002244856,0.005407827,0.00839778,-0.408706218,-0.042367656,0.252238721,-0.115394384,0.591756403,3.136619806
1.200003862,0.563222945,0.115573362,-0.823637307,0.004630913,0.004462143,0.008947183,-0.408689171,-0.042348839,0.252235264,-0.115377694,0.591787815,3.136623621
1.205001235,0.563254178,0.116546854,-0.821367204,0.005567281,0.005987553,0.010095031,-0.408676058,-0.042334359,0.252232611,-0.115361668,0.591837823,3.136631489
1.209999323,0.563090265,0.112223335,-0.822115362,0.00759201,0.00576291,0.01069272,-0.408522457,-0.042584255,0.252446234,-0.115317047,0.591877639,3.136626959
1.214998484,0.562623024,0.108130202,-0.82152456,0.004859385,0.006619982,0.010168211,-0.40840432,-0.042776529,0.252610624,-0.115287632,0.591920733,3.136607409
1.219998717,0.564386904,0.106804699,-0.822327495,0.005134314,0.006534474,0.009377287,-0.40836513,-0.042840283,0.252665102,-0.115255333,0.591968656,3.136582613
1.224999905,0.563609779,0.106705554,-0.821775317,0.004137189,0.007922878,0.007512109,-0.40833497,-0.042889342,0.252707034,-0.115240537,0.592026234,3.136534214
1.230002999,0.563797712,0.107465126,-0.820971668,0.000323997,0.009305811,0.007773807,-0.408384919,-0.042669456,0.25320667,-0.115245119,0.592080176,3.136508226
1.235001087,0.562768281,0.108618863,-0.821463466,0.000776072,0.010329644,0.007922444,-0.408484012,-0.042261485,0.254082263,-0.115250036,0.592145503,3.136486769
1.239999175,0.56291616,0.111974344,-0.821243048,-0.000487923,0.009771104,0.008600902,-0.408516854,-0.042126209,0.254372597,-0.115258485,0.59221071,3.136476994
1.244998455,0.564160585,0.114568964,-0.821458817,-6.85E-05,0.012606031,0.010122412,-0.408542126,-0.042022124,0.254595995,-0.115269318,0.592290282,3.136489868
1.249998569,0.563686371,0.112015776,-0.820062041,0.000306904,0.011976641,0.008504037,-0.408550501,-0.041987613,0.254670054,-0.115276605,0.592367589,3.136474133
1.255000114,0.564318478,0.11215695,-0.818737209,0.002242621,0.011068797,0.009710893,-0.408549607,-0.042242609,0.253447413,-0.115274571,0.59244132,3.136464834
1.260002255,0.563497484,0.112923376,-0.820653498,0.001683375,0.011341719,0.010588019,-0.408549339,-0.042327162,0.253042012,-0.115268119,0.592510045,3.136469126
1.264999628,0.564007521,0.111619093,-0.820761442,0.003327946,0.012278171,0.009856377,-0.4085491,-0.042392217,0.252730101,-0.115257658,0.592586696,3.136456966
1.269998074,0.56441474,0.110978194,-0.820237815,0.004513749,0.010915394,0.010536724,-0.408549041,-0.042413786,0.252626657,-0.115233645,0.592651069,3.136455774
1.274997234,0.56470871,0.110666603,-0.820604086,0.004858805,0.011502741,0.010988361,-0.408404917,-0.04237755,0.253079951,-0.115208492,0.59272927,3.136450529
1.279997468,0.564160168,0.107906923,-0.820493698,0.002987748,0.012698728,0.010028196,-0.40832147,-0.042352457,0.253362119,-0.115191944,0.592806101,3.136432886
1.284998417,0.5643062,0.10921488,-0.820262849,0.003173942,0.010757522,0.009167082,-0.408257306,-0.042333152,0.253579229,-0.115172565,0.59288013,3.136420727
1.290000677,0.564276278,0.112406932,-0.819953024,0.004172687,0.01035467,0.008296859,-0.408235997,-0.042326748,0.253651232,-0.115160592,0.592945874,3.136409998
1.294997811,0.563729763,0.11097154,-0.820569456,0.003590719,0.011779819,0.009803252,-0.408272773,-0.042410579,0.253343195,-0.115143575,0.593016267,3.136398077
1.299995899,0.563781559,0.11091204,-0.819204926,0.003468354,0.010164794,0.009616636,-0.408338577,-0.042527877,0.252874613,-0.115122229,0.59307301,3.1364007
1.305000901,0.564863503,0.110613078,-0.819280088,0.005341168,0.007055062,0.009545986,-0.408389181,-0.042618126,0.252514094,-0.115100682,0.593131065,3.136390209
1.310001135,0.563613594,0.11056456,-0.819142461,0.007015665,0.006966633,0.011050353,-0.40840596,-0.042648051,0.252394557,-0.115059391,0.593180716,3.136386156
1.315002084,0.563815475,0.113234051,-0.819619596,0.008129371,0.006308543,0.011819577,-0.408418864,-0.042671077,0.252302557,-0.115013793,0.593230665,3.136396646
1.320004821,0.562843442,0.113499507,-0.817096889,0.009635201,0.005489545,0.013057446,-0.408766717,-0.042519324,0.252330542,-0.11496114,0.593277335,3.136423349
1.325002551,0.563979149,0.109999552,-0.820671976,0.009577595,0.004725719,0.012108183,-0.409034371,-0.042402558,0.252352089,-0.114902146,0.593313336,3.136425257
1.330000639,0.565259218,0.107612222,-0.821189702,0.010074336,0.002594195,0.011460737,-0.409123123,-0.042363841,0.252359241,-0.114835501,0.593341589,3.136419296
1.3349998,0.564216971,0.108810283,-0.821371377,0.009989102,0.003803061,0.012427926,-0.4091914,-0.042334054,0.252364725,-0.114773899,0.593375087,3.13642478
1.339999795,0.563019037,0.110079311,-0.819400549,0.009173225,0.004117401,0.012810347,-0.40918532,-0.042410638,0.252427876,-0.114718221,0.593409181,3.136435747
1.345000982,0.564516485,0.110050924,-0.820808887,0.009445741,0.005296574,0.013422866,-0.409151584,-0.042556997,0.252538472,-0.114657402,0.593453288,3.136446476
1.350002885,0.565290034,0.111005597,-0.820127368,0.008984242,0.004132891,0.013303243,-0.409140408,-0.042605527,0.252575159,-0.114608899,0.593494713,3.136459827
1.355000377,0.56528753,0.112559542,-0.820255399,0.009045186,0.002305879,0.012957632,-0.409131825,-0.042642865,0.252603352,-0.114546753,0.593528271,3.136481762
1.359998465,0.566399455,0.111095965,-0.820529163,0.011213643,0.004000649,0.01351936,-0.409128964,-0.042655244,0.25261271,-0.11448697,0.593564689,3.136494398
1.364997625,0.565063179,0.107575968,-0.821338058,0.009150915,0.002941338,0.011735158,-0.408873618,-0.042199533,0.252395958,-0.114433192,0.593591988,3.136490583
1.369997859,0.564271569,0.105300993,-0.821820199,0.006641417,0.002130127,0.011089868,-0.408788949,-0.042048428,0.252324075,-0.114384793,0.593618274,3.136481524
1.374999046,0.563323021,0.102911867,-0.82226336,0.003415856,0.002810019,0.010450251,-0.408723801,-0.041932166,0.252268791,-0.114352174,0.593637466,3.136456966
1.380001307,0.565136313,0.104325078,-0.819226861,0.004221017,0.003228238,0.00993282,-0.408702195,-0.041893613,0.252250433,-0.114322916,0.593672276,3.136445522
1.384998679,0.565617323,0.105245501,-0.819505751,0.001898027,0.002572702,0.007887745,-0.408782065,-0.041913807,0.252131522,-0.114320107,0.593700767,3.136411667
1.389996767,0.564145684,0.108746365,-0.820974231,0.001563082,0.001916044,0.006472258,-0.408832431,-0.041932844,0.252066135,-0.11432565,0.593725562,3.136386156
1.394996166,0.564521551,0.109880462,-0.821956038,0.00109743,0.000688024,0.006023289,-0.408871204,-0.041947491,0.252015829,-0.114331022,0.593741298,3.136361361
1.399996638,0.563999355,0.109809011,-0.823425293,-0.000758647,0.003621259,0.006285225,-0.408884048,-0.041952346,0.25199914,-0.114346072,0.59377408,3.136333704
1.404997945,0.563876748,0.110333413,-0.821916103,0.002526358,0.003094158,0.006281606,-0.408895701,-0.0419228,0.252473235,-0.114339605,0.593798578,3.136317492
1.410000086,0.565834224,0.111230351,-0.821491599,0.001169921,0.000839604,0.006958887,-0.408901334,-0.041879442,0.253121436,-0.114341922,0.593819916,3.136307478
1.41499722,0.56548351,0.113633953,-0.821311593,0.001468705,0.002015246,0.007649273,-0.408905655,-0.041846082,0.253620178,-0.114347272,0.593842626,3.136301756
1.419995427,0.563574255,0.114878722,-0.819223702,0.003030106,0.000440688,0.007657811,-0.408907086,-0.041835021,0.253785551,-0.114342429,0.593862295,3.136301041
1.424994349,0.563248217,0.11337325,-0.820746362,0.004691512,0.001696246,0.007988093,-0.408908188,-0.041826509,0.253912777,-0.114327386,0.593883157,3.136298656
1.429994464,0.563003004,0.112355143,-0.820683897,0.005290022,0.001677561,0.009948886,-0.408807069,-0.041887123,0.252773941,-0.114304826,0.593898058,3.136302233
1.434995413,0.563365459,0.109931409,-0.821422875,0.007105003,0.003209328,0.010179017,-0.408729255,-0.04193376,0.251897693,-0.114262387,0.593929291,3.13630414
1.440003872,0.565225184,0.107847407,-0.820147216,0.006787086,0.002433657,0.010303017,-0.408703446,-0.041949224,0.25160715,-0.11422465,0.593953669,3.136290312
1.445007324,0.568732679,0.108200774,-0.819114745,0.006443955,0.005321242,0.010070336,-0.408683598,-0.041961122,0.251383603,-0.114188112,0.593999863,3.136286974
1.450006008,0.56707412,0.111455426,-0.820171654,0.005076452,0.00141938,0.010030709,-0.408788443,-0.041933261,0.251402617,-0.114163555,0.594029963,3.136296511
1.455005407,0.564246714,0.109805413,-0.820382357,0.004524821,0.002435348,0.010017487,-0.40898174,-0.041879661,0.251511484,-0.114132121,0.594052732,3.136291742
1.460005641,0.565075278,0.108812377,-0.820935011,0.00512089,0.001724287,0.009375808,-0.409045845,-0.041861892,0.251547575,-0.114111647,0.594072938,3.136284113
1.46500659,0.566390932,0.11140658,-0.81939137,0.006015815,0.000414331,0.009377205,-0.409095168,-0.041848216,0.251575321,-0.114085585,0.594088197,3.136283875
1.47000885,0.565818012,0.109325096,-0.819330215,0.006099566,0.001527979,0.011172266,-0.40911153,-0.041843683,0.25158453,-0.114043862,0.594114602,3.136292219
1.475005984,0.564342439,0.107950836,-0.819849133,0.005001782,0.000188739,0.0101956,-0.409255952,-0.04170147,0.251735151,-0.114015616,0.594129562,3.136285782
1.480004072,0.564458132,0.107501462,-0.820131302,0.005207458,-8.12E-05,0.008282306,-0.409303814,-0.041654315,0.25178507,-0.113989614,0.594141662,3.136272669
1.485003233,0.565933645,0.110227779,-0.818081617,0.002901758,0.002171502,0.008402706,-0.40934068,-0.041618031,0.251823485,-0.11398273,0.594171882,3.136265993
1.490003228,0.564739108,0.110989645,-0.820213497,0.00343785,0.001131275,0.008117866,-0.409352899,-0.041605998,0.25183624,-0.113970228,0.594185412,3.136261702
1.495004416,0.564713001,0.109338537,-0.820518494,0.002789086,0.001297743,0.010142721,-0.409260213,-0.041855883,0.251471609,-0.113952845,0.594201207,3.136256218
1.500006437,0.565921783,0.111487269,-0.817594886,0.002350544,0.000347511,0.008386656,-0.409204215,-0.042002868,0.251258045,-0.113955021,0.594219565,3.136252642
1.50500381,0.564368546,0.114261411,-0.819943547,0.004917026,0.000830356,0.012325337,-0.409161121,-0.04211596,0.251093745,-0.113924801,0.594245851,3.136273384
1.510001898,0.564559937,0.112705208,-0.820061743,0.00548393,0.000143378,0.01007444,-0.409146845,-0.042153463,0.251039267,-0.11389444,0.594253778,3.136283398
1.515001297,0.564751446,0.10898646,-0.820464492,0.004617609,0.001934517,0.010249321,-0.409166753,-0.04206118,0.251575172,-0.113856412,0.594276845,3.136284351
1.520001292,0.564330935,0.106212378,-0.819801867,0.004030101,0.003694818,0.009491885,-0.409204513,-0.041908424,0.252335548,-0.113832667,0.594309688,3.136263132
1.52500248,0.56481272,0.104887024,-0.820609331,0.003093399,0.00362134,0.008076495,-0.40923357,-0.041790891,0.252920598,-0.113818765,0.594338953,3.136238337
1.53000474,0.565013945,0.104894027,-0.819975555,-0.001237287,0.004475081,0.008000883,-0.409243226,-0.041751917,0.253114611,-0.113818757,0.594375968,3.136209965
1.535002112,0.564417958,0.105055653,-0.819174409,-0.000292773,0.00389627,0.005208681,-0.409250617,-0.041721933,0.253263861,-0.113819249,0.594409227,3.136176109
1.539999962,0.563253343,0.103978254,-0.820319057,-0.00180697,0.003721182,0.004117902,-0.409101993,-0.041875936,0.252347022,-0.113836974,0.594432592,3.136110544
1.544999123,0.564224899,0.103493772,-0.82123214,-0.0058311,0.005121109,0.002478261,-0.408987612,-0.041994434,0.251641572,-0.113879375,0.594470918,3.136040211
1.549999356,0.566705644,0.10906665,-0.820401907,-0.005398271,0.00541647,0.002322144,-0.408949703,-0.042033724,0.251407653,-0.11392694,0.594507277,3.135998487
1.555000544,0.566763639,0.109775923,-0.818944573,-0.005561478,0.004127164,0.001797527,-0.408920556,-0.042063955,0.251227677,-0.113982916,0.594541907,3.135941029
1.560002804,0.566532373,0.112271369,-0.818862498,-0.004826834,0.004691259,0.002511927,-0.408941865,-0.041952562,0.251776278,-0.114032745,0.594576359,3.135910988
1.565000176,0.565322459,0.112056859,-0.820206463,-0.003455322,0.001912072,0.003679842,-0.408989578,-0.041744083,0.252813458,-0.114072926,0.594597459,3.13587904
1.569998384,0.564812005,0.106910974,-0.819655776,-0.00377446,0.003115464,0.005144966,-0.409005404,-0.041674953,0.253157377,-0.11409726,0.5946275,3.135840654
1.575003386,0.565242887,0.109203286,-0.818448007,-0.004920825,0.003714524,0.004276956,-0.409017593,-0.041621763,0.253421992,-0.114140138,0.594659567,3.135801077
1.580003858,0.564826369,0.113642558,-0.818757534,-0.001712417,0.002505118,0.003340349,-0.409021646,-0.041604128,0.25350973,-0.114180207,0.594677567,3.135772467
1.585005045,0.56376642,0.113986097,-0.822203279,2.64E-05,0.002506745,0.005673311,-0.409340948,-0.041867148,0.252161324,-0.114212148,0.594698846,3.13575387
1.590007305,0.563992679,0.113446631,-0.820742011,0.000936249,0.003481692,0.007932307,-0.409446836,-0.041954361,0.2517142,-0.114213549,0.594733477,3.135748148
1.595004439,0.565638721,0.114121318,-0.82066524,0.00319172,0.002592899,0.008080931,-0.409528315,-0.042021465,0.251370192,-0.114212379,0.594750464,3.135751724
1.600002527,0.565776587,0.112710543,-0.819234848,0.004724491,0.003339107,0.009544009,-0.409555346,-0.042043716,0.251256108,-0.114192329,0.594780862,3.135753632
1.60500145,0.565166473,0.110541314,-0.820068598,0.004115225,0.000837726,0.010667096,-0.409480572,-0.042104665,0.252132267,-0.114163578,0.594792545,3.135765314
1.610001683,0.566407084,0.108964175,-0.820797265,0.003146216,0.001821907,0.01116163,-0.409432143,-0.042135723,0.252661318,-0.11414279,0.594816267,3.135769129
1.615002632,0.566996932,0.107872829,-0.820220947,0.003373929,0.001617059,0.01010053,-0.40939489,-0.042159617,0.253068358,-0.114117958,0.594841778,3.135765553
1.620004892,0.568506181,0.109429978,-0.819714844,0.003159597,0.001989657,0.009961253,-0.409382552,-0.042167541,0.253203332,-0.11410109,0.594866514,3.135760307
1.625002027,0.567876458,0.106782518,-0.819546461,0.003403295,-0.000350446,0.010064466,-0.409374475,-0.042086314,0.253397584,-0.114070915,0.594880581,3.135754824
1.630000353,0.567658246,0.105216809,-0.820956826,0.002509113,0.00096106,0.009746457,-0.409373283,-0.04197133,0.253553152,-0.114053078,0.594897628,3.135738134
1.634999514,0.566877723,0.109458581,-0.82073009,0.002558318,0.001743106,0.00886189,-0.40937236,-0.041882858,0.253672838,-0.114045881,0.594921172,3.135733843
1.639999986,0.566180766,0.108783007,-0.820059597,0.000442589,0.000142121,0.006541684,-0.409372061,-0.041853521,0.253712535,-0.114049315,0.594932795,3.135715246
1.645001173,0.565073431,0.106234327,-0.819047511,0.001135413,0.001039755,0.007617494,-0.409371823,-0.041830949,0.253743082,-0.114040047,0.594945312,3.135699511
1.650003433,0.565001547,0.110545546,-0.819250762,0.000103735,-0.000742921,0.007891446,-0.409177959,-0.041726198,0.253694713,-0.114047393,0.594955444,3.135690212
1.655000806,0.564395726,0.111999892,-0.820054471,0.000976396,-0.001976303,0.007110454,-0.409028828,-0.041645598,0.25365749,-0.114056811,0.594952941,3.135686398
1.659998775,0.564172149,0.111666046,-0.818701208,-0.000443329,-0.001506004,0.008738462,-0.408979386,-0.041618872,0.253645152,-0.114060767,0.594965518,3.135692358
1.664997935,0.568738699,0.109557502,-0.821389616,0.00133858,-0.000938082,0.009460599,-0.408941329,-0.041598309,0.253635645,-0.114049248,0.594980419,3.135687351
1.669997811,0.566797733,0.115717903,-0.819786012,0.002385736,-0.001735082,0.009735274,-0.40895319,-0.041711558,0.253055722,-0.114049159,0.594980299,3.135710955
1.674998999,0.564382911,0.116274275,-0.819231153,0.004646172,-0.001416473,0.010105183,-0.408987075,-0.041920099,0.252026349,-0.11403688,0.594982743,3.135724068
1.68000102,0.563664436,0.112198777,-0.820003688,0.005260033,-0.001810676,0.01221913,-0.408998311,-0.041989248,0.251685023,-0.113994479,0.594987929,3.135740519
1.684998393,0.563990295,0.111633725,-0.820235074,0.006518158,-0.000609572,0.010290587,-0.409006953,-0.042042453,0.251422375,-0.11396727,0.594991803,3.13574028
1.689996243,0.566090345,0.108453318,-0.821887732,0.004166187,0.000948968,0.010196433,-0.409009814,-0.042060096,0.251335293,-0.113944449,0.595008671,3.135733843
1.694995403,0.565000892,0.108505651,-0.822943926,0.001969288,0.002555781,0.008249806,-0.409335136,-0.042070009,0.250989497,-0.113937281,0.595027685,3.135710239
1.699995637,0.563649774,0.105611593,-0.82384038,0.000792858,0.003763999,0.007934222,-0.409443021,-0.042073295,0.250874817,-0.113927342,0.595061481,3.135684252
1.704997063,0.564972937,0.106202058,-0.821448505,-0.000253578,0.00557092,0.006820512,-0.40952602,-0.042075824,0.250786602,-0.113930799,0.595102668,3.135652542
1.710005283,0.566140652,0.107493721,-0.820752144,-0.002879003,0.006029811,0.007350287,-0.409553528,-0.042076662,0.250757366,-0.113950238,0.595138371,3.135626316
1.715008736,0.564253867,0.10691005,-0.819831967,-0.003995239,0.006898789,0.00679533,-0.409435511,-0.04171792,0.251478851,-0.113972679,0.595178902,3.135596275
1.720007181,0.568900108,0.106406488,-0.820891261,-0.003274984,0.004710617,0.006159505,-0.409361929,-0.041510034,0.251902163,-0.113996647,0.595221341,3.135564804
1.725006342,0.567352533,0.110563375,-0.817897379,-0.00023481,0.003513298,0.005396954,-0.409305304,-0.041350082,0.252227873,-0.1140154,0.595253348,3.13554883
1.730006576,0.567976892,0.111885265,-0.817976296,-0.001338947,0.003438376,0.005911056,-0.409286529,-0.041297045,0.252335876,-0.114035994,0.595285118,3.135542154
1.735007524,0.565678179,0.112187527,-0.81647867,-0.00102787,0.003279767,0.008386603,-0.409324586,-0.041374657,0.251964569,-0.114047438,0.595317781,3.135540485
1.740009785,0.568744779,0.107176758,-0.817859113,0.002612136,0.000805798,0.009672975,-0.409390181,-0.041519798,0.251383185,-0.114026949,0.595341206,3.135527849
1.7450068,0.570507884,0.10676115,-0.81584084,0.001074747,-0.002986068,0.008983821,-0.409440637,-0.041631479,0.250935853,-0.114014573,0.595345318,3.135524273
1.750005007,0.569265783,0.106097728,-0.815971017,0.001607587,-0.005213686,0.007146259,-0.409457356,-0.041668508,0.250787526,-0.113997631,0.595334649,3.13551116
1.755003929,0.566180348,0.103246912,-0.817326546,0.001693793,-0.006837234,0.007607234,-0.40947023,-0.041697003,0.250673383,-0.113980271,0.595300913,3.135477543
1.760004044,0.565683901,0.105242386,-0.818538547,0.000780547,-0.011012291,0.005921839,-0.409382641,-0.041495964,0.251650244,-0.113981552,0.595256567,3.135457993
1.76500535,0.565601587,0.108527884,-0.817620039,-3.78E-05,-0.012215015,0.003527292,-0.409315199,-0.041341279,0.252401888,-0.113996774,0.595209002,3.135432959
1.77000761,0.564130962,0.109075516,-0.816968977,-0.001702371,-0.013507092,0.004817485,-0.409292847,-0.041289985,0.252651125,-0.114019565,0.595156193,3.135415316
1.775004983,0.56454736,0.108811848,-0.81810683,-0.001260854,-0.015001352,0.005521201,-0.409275651,-0.041250519,0.252842873,-0.114029557,0.595089614,3.135401011
1.780003071,0.564359128,0.110658199,-0.819879472,-0.001722407,-0.015261761,0.004943362,-0.409295559,-0.041298732,0.252450883,-0.114047915,0.595021248,3.135386467
1.785002232,0.565204144,0.111672051,-0.82155472,-0.000307341,-0.015684322,0.004570539,-0.409336805,-0.04139781,0.25168857,-0.114064373,0.594953895,3.1353755
1.790002465,0.563671052,0.113554351,-0.82122463,-0.001866656,-0.013889865,0.00678611,-0.409350485,-0.041430663,0.251435786,-0.114088044,0.594891727,3.135373831
1.795003653,0.563595414,0.113517344,-0.819373131,0.000346578,-0.014722237,0.00583665,-0.409361005,-0.041455939,0.251241297,-0.114095286,0.594828606,3.135372877
1.800005913,0.563442945,0.111465894,-0.820863187,-0.000589028,-0.013853366,0.006003258,-0.409364492,-0.041464321,0.251176804,-0.11410521,0.594765782,3.135368824
1.805003285,0.564148843,0.108694576,-0.821942151,0.000113397,-0.012287506,0.008417979,-0.409302175,-0.041472673,0.251054704,-0.114101484,0.594714999,3.13537097
1.810001135,0.566088974,0.105565496,-0.822187781,-0.00141905,-0.010143877,0.006560493,-0.409281492,-0.041475441,0.251014233,-0.114108287,0.594674885,3.135334253
1.815000296,0.562018454,0.105316572,-0.819533944,-0.004296527,-0.007826009,0.006733416,-0.409265608,-0.041477576,0.250983059,-0.114118069,0.594642937,3.135321856
1.820000291,0.570948899,0.099963479,-0.823548079,-0.006317834,-0.007094154,0.004273257,-0.409260362,-0.041478284,0.250972718,-0.114144385,0.59463048,3.135265112
1.825001478,0.567753732,0.103847466,-0.820134938,-0.008613407,-0.006943355,0.003241902,-0.40886867,-0.041526843,0.252083927,-0.114193134,0.59460634,3.135219336
1.8300035,0.566683292,0.106554441,-0.819090962,-0.010834667,-0.007418049,-0.000289859,-0.408642858,-0.041554824,0.252729326,-0.114280157,0.594575107,3.135166168
1.835000873,0.566594362,0.106843948,-0.81962806,-0.013110667,-0.008820549,0.000980305,-0.408469111,-0.041576352,0.253225923,-0.114357032,0.594544232,3.135119438
1.83999896,0.566850841,0.109223761,-0.818192422,-0.011110593,-0.008565089,0.000320665,-0.408411503,-0.04158349,0.25339058,-0.114440635,0.594518602,3.135071039
1.84500432,0.562747598,0.112212859,-0.81817627,-0.011562893,-0.00829021,0.002194763,-0.408529252,-0.041736595,0.252791226,-0.114523582,0.594476461,3.135045767
1.850004435,0.571485937,0.106133305,-0.819484115,-0.012140067,-0.011968939,0.003216181,-0.408731759,-0.041936211,0.25186035,-0.114588186,0.59444195,3.134989977
1.855005741,0.567884862,0.111704603,-0.816007316,-0.010932737,-0.017004214,0.002185507,-0.408887565,-0.042089801,0.251144111,-0.114666164,0.594366372,3.134962797
1.860007882,0.568222463,0.111472264,-0.816398919,-0.009767605,-0.016567584,0.003080477,-0.408939213,-0.04214073,0.250906616,-0.114737339,0.594307184,3.134928942
1.865005255,0.56614238,0.111724682,-0.817736566,-0.009164592,-0.017415227,0.005262152,-0.408978969,-0.042179916,0.250723898,-0.114791311,0.594228923,3.134910822
1.870003462,0.557990551,0.109842308,-0.816755116,-0.010186185,-0.019510448,0.005112174,-0.409139454,-0.042186648,0.251041442,-0.11484579,0.594131947,3.134893656
1.875002623,0.569154441,0.101839796,-0.820754468,-0.013407825,-0.019119093,0.002775589,-0.409262955,-0.042191826,0.251285791,-0.114904717,0.594061971,3.134832621
1.880002856,0.570193708,0.107974097,-0.815653205,-0.011965222,-0.021934012,-0.000170156,-0.409303904,-0.042193543,0.251366824,-0.114987276,0.593963206,3.134779692
1.885004044,0.567603886,0.110751919,-0.817590475,-0.012808411,-0.024223436,-0.001750156,-0.409335434,-0.042194866,0.25142917,-0.115083531,0.593859971,3.134727001
1.890006304,0.564553559,0.108592667,-0.816170096,-0.011793454,-0.024751348,-0.001059678,-0.409208328,-0.042140048,0.251477003,-0.115159273,0.593749881,3.13467288
1.895003438,0.564747751,0.111794256,-0.816915333,-0.013539098,-0.027601803,-0.000235074,-0.408971459,-0.042041998,0.251541257,-0.11525131,0.593627989,3.134642601
1.900002003,0.564628959,0.110693403,-0.816749334,-0.015556059,-0.029287852,-0.003695908,-0.40889293,-0.042009484,0.251562566,-0.115364812,0.593491673,3.134579897
1.905001163,0.568327129,0.106363155,-0.821111083,-0.014139036,-0.029750565,-0.003475005,-0.40883249,-0.041984465,0.251578957,-0.115462869,0.593358576,3.134504557
1.910001397,0.563779175,0.110099867,-0.821833849,-0.017756527,-0.027761688,-0.005309084,-0.408812463,-0.041976172,0.251584411,-0.115591906,0.593221307,3.134434462
1.915002346,0.561982274,0.113195159,-0.826397777,-0.018449843,-0.027274961,-0.004379446,-0.408607572,-0.041893065,0.2530092,-0.115717635,0.593077421,3.134384871
1.920004606,0.563643813,0.115494654,-0.82233429,-0.015861273,-0.025307816,-0.004197976,-0.408539623,-0.041865509,0.253481627,-0.115838192,0.59295094,3.134339333
1.92500174,0.564652383,0.115309566,-0.821466506,-0.016672539,-0.024157442,-0.0020395,-0.40848735,-0.041844305,0.253845125,-0.115966856,0.592843115,3.134302378
1.929999828,0.563783169,0.109128796,-0.822527528,-0.016298451,-0.02420271,-0.001493559,-0.408470035,-0.041837275,0.253965676,-0.116048962,0.592726648,3.134262085
1.934998989,0.565153897,0.105823651,-0.822797358,-0.018463776,-0.023530973,-0.003641287,-0.408156633,-0.042201214,0.253145158,-0.116162486,0.592617452,3.134176254
1.939999223,0.563063383,0.105994336,-0.820986271,-0.018890429,-0.02158666,-0.00288447,-0.407978475,-0.042413287,0.252647072,-0.116282985,0.592519581,3.134093046
1.94500041,0.563071191,0.107287422,-0.819996417,-0.019853711,-0.021531221,-0.006079554,-0.407841384,-0.042576462,0.252263844,-0.116421521,0.592417419,3.134005308
1.95000267,0.563678622,0.108469725,-0.821038902,-0.019882454,-0.023969274,-0.006211051,-0.407795936,-0.042630568,0.252136797,-0.116554961,0.592303514,3.133925915
1.954999804,0.561553895,0.109717734,-0.821397841,-0.021296849,-0.025176905,-0.006759082,-0.407955557,-0.042638231,0.252194673,-0.1167107,0.592182755,3.133838177
1.959998012,0.561410964,0.108595625,-0.821876109,-0.023934601,-0.02702884,-0.006877649,-0.408204764,-0.042606514,0.252370834,-0.116870306,0.592043102,3.133755445
1.964997172,0.566156745,0.11357592,-0.8168419,-0.022102913,-0.025834456,-0.00723409,-0.408396512,-0.042582113,0.252506375,-0.117029525,0.591927886,3.133681059
1.969998121,0.561654806,0.114557564,-0.816705287,-0.022413354,-0.028305603,-0.005314066,-0.40846011,-0.042574018,0.252551317,-0.117187001,0.591797352,3.133630037
1.974999309,0.562093377,0.113932773,-0.818680227,-0.020439873,-0.026644813,-0.005833991,-0.408509016,-0.042567793,0.252585888,-0.117330641,0.591669202,3.133564234
1.98000741,0.559569895,0.112722993,-0.818042994,-0.022056237,-0.028805641,-0.004570521,-0.408670068,-0.042616114,0.252332628,-0.117475599,0.591530085,3.133505106
1.985010743,0.560314178,0.111356013,-0.822449386,-0.021807842,-0.030318985,-0.003926463,-0.408793986,-0.042653296,0.25213775,-0.117605418,0.591374338,3.133451223
1.990008831,0.558565557,0.106334418,-0.823735893,-0.020505875,-0.033151738,-0.004349411,-0.408835083,-0.042665623,0.252073139,-0.11772497,0.591208279,3.133363962
1.995007992,0.564131737,0.107475266,-0.821509004,-0.022309953,-0.030983206,-0.00486315,-0.408866674,-0.042675108,0.252023399,-0.117852293,0.591062069,3.133289814
2.000007868,0.561950505,0.113361396,-0.819273591,-0.024003072,-0.031781465,-0.005845778,-0.408739418,-0.042706143,0.252400458,-0.118014343,0.590912759,3.133230686
2.005009174,0.558318317,0.106427163,-0.822414815,-0.026990442,-0.032355357,-0.004968149,-0.408502221,-0.042758219,0.253088474,-0.118171245,0.590753078,3.133147001
2.010011196,0.559205234,0.099922955,-0.821822405,-0.029459845,-0.030620703,-0.007307173,-0.408423573,-0.042775486,0.253316611,-0.118331231,0.590608954,3.133034468
2.01500845,0.561138213,0.100149378,-0.819527447,-0.03387038,-0.031583946,-0.009782532,-0.408363074,-0.042788774,0.253492147,-0.118532307,0.590448141,3.132910728
2.020006657,0.563763916,0.104433052,-0.820497572,-0.038768098,-0.030271111,-0.013225284,-0.408343017,-0.042793181,0.253550351,-0.11877422,0.590308189,3.13277173
2.025006294,0.564398468,0.108200252,-0.819734693,-0.042138088,-0.031634264,-0.013459181,-0.407995641,-0.043279607,0.253095329,-0.119043343,0.590154767,3.132636786
2.030006647,0.564963102,0.117281511,-0.820693851,-0.042091798,-0.032587614,-0.015447005,-0.407880455,-0.043440897,0.252944469,-0.119341232,0.589997947,3.132524729
2.035007715,0.562700391,0.123425961,-0.8188712,-0.042468797,-0.035231099,-0.012324085,-0.407791823,-0.043564994,0.25282836,-0.119627446,0.58983016,3.132453442
2.040009975,0.563480794,0.124665976,-0.818716109,-0.03759804,-0.038102098,-0.011298701,-0.407762438,-0.043606143,0.252789885,-0.119888231,0.589647949,3.132381201
2.04500699,0.565243959,0.122814156,-0.818838298,-0.036711801,-0.040731836,-0.009125886,-0.407936186,-0.043581303,0.252977967,-0.120131314,0.589456856,3.132326126
2.050005198,0.562919557,0.117575705,-0.818801641,-0.034842603,-0.040142067,-0.008136997,-0.408042371,-0.043559089,0.253094196,-0.120352954,0.589263082,3.132261753
2.05500412,0.5611462,0.114892058,-0.818938255,-0.035819132,-0.042187858,-0.006868289,-0.408124059,-0.043541994,0.253183633,-0.120567136,0.589055538,3.132193327
2.060004234,0.561667085,0.114686757,-0.821820557,-0.036220748,-0.043826979,-0.007767566,-0.40815115,-0.043536328,0.253213286,-0.120779373,0.588839948,3.132127047
2.065005302,0.561164618,0.112324856,-0.821752131,-0.0361722,-0.042509995,-0.007620741,-0.408253819,-0.043589406,0.25308606,-0.121003009,0.588638067,3.132043123
2.070007563,0.561882436,0.117060035,-0.824623764,-0.037164506,-0.044683047,-0.007463827,-0.408370376,-0.043664929,0.252892584,-0.1212321,0.588417947,3.13198328
2.075004578,0.560589552,0.12782751,-0.826324642,-0.036307722,-0.043678459,-0.005840775,-0.408460051,-0.043723039,0.252743721,-0.12147288,0.58819896,3.131960869
2.080002785,0.560563266,0.129294097,-0.824596107,-0.031824861,-0.042164918,-0.003027244,-0.408489794,-0.043742307,0.252694368,-0.121682785,0.58799386,3.131958246
2.085001707,0.559204578,0.129125819,-0.827303112,-0.030421656,-0.040595584,-0.000158486,-0.408512682,-0.043757133,0.2526564,-0.121871658,0.587788701,3.131971598
2.090002537,0.557073057,0.12742871,-0.828063011,-0.025473475,-0.039431322,0.0044814,-0.408175915,-0.044069324,0.253069609,-0.122012392,0.58760035,3.131999254
2.095003605,0.558231771,0.127907068,-0.827568591,-0.020419417,-0.034524031,0.007258501,-0.407916754,-0.044309534,0.253387541,-0.12212678,0.587439418,3.132037401
2.100006342,0.558386207,0.132898971,-0.825973034,-0.01702873,-0.03044641,0.011303684,-0.407830834,-0.044389185,0.253492981,-0.122216873,0.587302685,3.132121801
2.105004072,0.558554232,0.133370027,-0.82598424,-0.010970416,-0.027529886,0.012846336,-0.407764733,-0.044450469,0.253574073,-0.122280076,0.587172151,3.132202864
2.110002279,0.558403671,0.130772144,-0.82917273,-0.004236194,-0.025992487,0.016099483,-0.407747686,-0.044289745,0.25448215,-0.122288808,0.587062001,3.132307291
2.115007162,0.55780071,0.127536535,-0.827918053,6.10E-05,-0.021122547,0.01888803,-0.40773952,-0.043983016,0.256071866,-0.122258238,0.586973667,3.132414103
2.120007515,0.557902694,0.124392137,-0.827659369,0.001705155,-0.019508747,0.022524349,-0.407736808,-0.043881312,0.256598979,-0.122215159,0.586891413,3.132536888
2.125008583,0.558283389,0.124770261,-0.826436162,0.002818371,-0.014859485,0.021794984,-0.407734722,-0.043803059,0.257004559,-0.122167051,0.586838007,3.132650137
2.130010605,0.557149053,0.126131505,-0.826147616,0.004568368,-0.014124993,0.023535443,-0.407734036,-0.043777108,0.257139027,-0.122115083,0.586782038,3.132777929
2.135007858,0.554982901,0.12431933,-0.827508867,0.007509465,-0.010394431,0.026609641,-0.407014221,-0.04398568,0.255877197,-0.122019,0.586750805,3.132913828
2.140005589,0.551297963,0.119423874,-0.828050554,0.009586065,-0.010250643,0.027206689,-0.406775534,-0.044054836,0.255458772,-0.121910624,0.586708784,3.133032799
2.145004749,0.554071009,0.113325633,-0.82971698,0.010109127,-0.007383076,0.028005587,-0.406591892,-0.044108052,0.255136847,-0.121786878,0.586685002,3.133137226
2.150004625,0.553254247,0.106274761,-0.830782294,0.005498157,-0.006303581,0.022399031,-0.406531006,-0.044125699,0.255030096,-0.12168292,0.586666822,3.133192539
2.155005932,0.553086042,0.099885605,-0.827473819,0.001555631,0.001386403,0.016514679,-0.407117963,-0.04412701,0.25496015,-0.121626601,0.586679459,3.133172035
2.16000843,0.551871121,0.107318737,-0.832472563,-0.004319789,0.008496703,0.015411653,-0.407469422,-0.04412441,0.254939973,-0.121607728,0.586725712,3.133177996
2.165006161,0.556205511,0.119598746,-0.828201532,-0.002759352,0.007577786,0.014193196,-0.407739878,-0.044122409,0.254924446,-0.121622942,0.586775362,3.133213043
2.170004129,0.55402106,0.122937053,-0.825072467,-0.001595647,0.010971345,0.015654236,-0.407829553,-0.044121746,0.254919291,-0.121630572,0.586846948,3.133258343
2.17500329,0.556937099,0.115907349,-0.828228295,-0.000628271,0.012605418,0.016247967,-0.407788992,-0.044119481,0.255339533,-0.12160746,0.586923599,3.133298635
2.180003643,0.556168795,0.11321681,-0.826708376,-0.001440369,0.01495363,0.014355725,-0.407665074,-0.044116963,0.255906641,-0.121593103,0.587016463,3.133302212
2.185004711,0.556825519,0.113277137,-0.828542829,-0.00087279,0.020358235,0.014698818,-0.407569706,-0.044115022,0.256342977,-0.121574484,0.587127268,3.133317709
2.190006971,0.557388306,0.117598303,-0.827786505,-0.002884877,0.021091292,0.014279689,-0.407538086,-0.044114377,0.256487668,-0.121595457,0.587247014,3.133332014
2.195004463,0.558204114,0.123408541,-0.827468395,-0.002109688,0.025839809,0.013324128,-0.407513767,-0.044113882,0.256598979,-0.121621735,0.587390721,3.13335824
2.20000267,0.556455076,0.123977274,-0.826164663,-0.001372697,0.026162466,0.015780352,-0.407844573,-0.044066645,0.255515784,-0.121637799,0.58752656,3.13339448
2.205001831,0.55812782,0.120409198,-0.82829833,0.000859891,0.03098326,0.017287051,-0.408099115,-0.044030298,0.254682362,-0.121616632,0.587697208,3.133426428
2.210001945,0.558939159,0.119203612,-0.828652799,0.00336045,0.032176249,0.016182128,-0.408183515,-0.044018246,0.254406005,-0.12159396,0.587875605,3.133449078
2.215002775,0.560551465,0.118461654,-0.830949783,0.006535632,0.038465962,0.016288361,-0.408248454,-0.044008974,0.254193395,-0.121551357,0.588083982,3.13346982
2.220005274,0.558540046,0.115866542,-0.830817342,0.007455415,0.04071461,0.01932523,-0.408049464,-0.04395197,0.254178882,-0.121483639,0.588292599,3.133501053
2.225002766,0.560474336,0.115973756,-0.831256032,0.008801489,0.044864774,0.017440818,-0.407673359,-0.043853577,0.25422439,-0.121434666,0.5885306,3.133509874
2.230000973,0.559656858,0.112460636,-0.830913544,0.007432436,0.051572911,0.016249696,-0.407548666,-0.043820955,0.25423947,-0.121384196,0.58879745,3.133508205
2.235000134,0.555066824,0.105536252,-0.835039437,0.005165446,0.058605473,0.014465516,-0.407452703,-0.043795854,0.254251063,-0.121341825,0.589081645,3.133450747
2.240000248,0.559213758,0.107195064,-0.836568892,-0.000172073,0.066880375,0.012779359,-0.407420903,-0.043787528,0.254254907,-0.121340774,0.589414954,3.133395195
2.245001316,0.560342968,0.11414285,-0.834948182,-0.001053636,0.076112308,0.009460501,-0.407596856,-0.043435518,0.254756659,-0.121368796,0.589797974,3.133347273
2.250009775,0.564332426,0.121906258,-0.837522745,-0.00341721,0.08278174,0.010520311,-0.407655209,-0.043318797,0.254923016,-0.121419288,0.590213239,3.133324146
2.255013466,0.564279556,0.127061829,-0.840226233,-0.000701034,0.090351447,0.010755518,-0.407700121,-0.043228988,0.255051047,-0.121475361,0.59066546,3.133292913
2.26001215,0.565262735,0.130755708,-0.845455825,0.002458863,0.101206474,0.013214289,-0.407715023,-0.043199211,0.255093485,-0.121520266,0.591166139,3.133287191
2.265011311,0.566768348,0.132500172,-0.850785375,0.003736767,0.113778159,0.016231457,-0.408110231,-0.043576833,0.254923642,-0.121546261,0.59173274,3.133278608
2.270011425,0.561393559,0.132487163,-0.851444304,-0.005449658,0.137666076,0.028796487,-0.408336252,-0.043801159,0.254817218,-0.121579818,0.592412472,3.133337259
2.275012493,0.535419285,0.129151568,-0.855033636,-0.045633875,0.205094084,0.080281585,-0.408510149,-0.043973763,0.254735321,-0.121661298,0.59340018,3.133632421
2.280014753,0.483549982,0.121693388,-0.854479849,-0.131289601,0.366408318,0.191896111,-0.408567816,-0.044030998,0.254708141,-0.12187025,0.59522301,3.134500265
2.285012245,0.441698998,0.120266892,-0.840307832,-0.256811559,0.623295069,0.3634637,-0.408694118,-0.043939583,0.253560543,-0.122210927,0.598467886,3.136237383
2.290010214,0.45172435,0.130743831,-0.831714571,-0.434559822,0.875168204,0.570062101,-0.408818662,-0.043772683,0.252043873,-0.1228946,0.603212595,3.139144182
2.295009375,0.557871521,0.135235101,-0.85543263,-0.566364646,1.007564306,0.675627172,-0.408914477,-0.043644268,0.250876874,-0.123931296,0.608833611,-3.140529394
2.300009489,0.635734737,0.116927937,-0.870183825,-0.572102845,0.993990719,0.594981492,-0.408946246,-0.043601688,0.25048992,-0.125226721,0.61425674,-3.137726545
2.305010796,0.617220521,0.084906831,-0.879752815,-0.52538389,0.961822808,0.446578622,-0.408970684,-0.043568928,0.250192195,-0.126717225,0.619250894,-3.136054277
2.310012817,0.615726411,0.087231152,-0.870836973,-0.458801091,0.938084066,0.315971583,-0.410644054,-0.042581055,0.247969717,-0.128282622,0.624043524,-3.135167599
2.315010309,0.634168565,0.132120624,-0.878797472,-0.39432776,0.884904206,0.213822663,-0.411931604,-0.041820951,0.246259674,-0.12996462,0.628548801,-3.134685516
2.320008516,0.636673152,0.155914247,-0.875769913,-0.354127288,0.818733573,0.141916811,-0.412358522,-0.041568916,0.245692655,-0.13170442,0.63261342,-3.134535551
2.325007677,0.61842382,0.190390468,-0.885680676,-0.327125549,0.767440736,0.10715434,-0.412687033,-0.041374993,0.245256379,-0.133500189,0.63637346,-3.134410381
2.330007792,0.560746253,0.218421623,-0.90446794,-0.311035275,0.76435113,0.118054092,-0.413900763,-0.041078124,0.242998838,-0.135199979,0.639997959,-3.134213209
2.335009098,0.540097475,0.246383667,-0.973636746,-0.259601623,0.793945909,0.136082023,-0.415951788,-0.040614542,0.239125371,-0.136587486,0.643695474,-3.133767843
2.340011358,0.530254841,0.134667724,-1.062481642,-0.353803247,0.928491712,0.150481194,-0.416631877,-0.040460825,0.237840995,-0.138146043,0.64802593,-3.133753777
2.345008612,0.480997264,0.216744453,-1.116498232,-0.436418056,1.047886729,0.190245718,-0.417155176,-0.040342554,0.23685275,-0.140480772,0.653019309,-3.133536339
2.350006819,0.46022886,0.485351145,-1.069417477,-0.27211228,1.061762691,0.260654747,-0.417328686,-0.040303338,0.236525074,-0.14226608,0.657946348,-3.131942987
2.35500598,0.499211967,0.540723979,-1.058640003,-0.024572879,1.104690909,0.343481004,-0.419262379,-0.040219456,0.230962887,-0.14229244,0.66315341,-3.129769802
2.360006809,0.574161768,0.46142292,-1.101191998,0.109325498,1.213309288,0.415094018,-0.419903547,-0.040191643,0.229118571,-0.141184285,0.669109941,-3.127617121
2.365008354,0.612648308,0.394654304,-1.152968049,0.13325198,1.313593388,0.508985102,-0.420396864,-0.040170241,0.227699488,-0.139571503,0.675608456,-3.125136852
2.370010614,0.672361612,0.472634017,-1.189060569,0.203655645,1.38944459,0.683488846,-0.420560449,-0.040163144,0.227228954,-0.137235701,0.682635069,-3.121361017
2.375008106,0.632715464,0.581537008,-1.151500463,0.333815128,1.438545346,0.825441062,-0.422598004,-0.038489267,0.222112432,-0.133776441,0.689868271,-3.116195679
2.380006075,0.781760693,0.464793235,-1.1425668,0.393333346,1.53013432,1.013626456,-0.423746675,-0.037521385,0.219239384,-0.128957972,0.697980404,-3.110317469
2.385011196,0.765983939,0.430486798,-1.13705945,0.454872847,1.609723687,1.185324788,-0.424630493,-0.036776666,0.217028767,-0.122966006,0.706514418,-3.103296995
2.390011311,0.804857016,0.511415243,-1.134177208,0.560564637,1.624682069,1.30191648,-0.424923539,-0.036529731,0.216295779,-0.116180517,0.715164363,-3.095211029
2.395012379,0.879249334,0.580965638,-1.242443919,0.76163286,1.564945817,1.381416559,-0.426253408,-0.033735529,0.21133849,-0.107964173,0.723394454,-3.086272717
2.400014639,0.979926884,0.62800014,-1.422434092,0.990203917,1.426163197,1.382156849,-0.427808017,-0.030182961,0.205264568,-0.098366261,0.730768621,-3.077108145
2.405011654,0.883705497,0.675854027,-1.552753806,1.14600718,1.218831062,1.304272652,-0.429004163,-0.0274495,0.200591102,-0.088319294,0.736575365,-3.068246603
2.410009861,0.669891715,0.659671783,-1.55879128,1.24118495,1.021541357,1.215438485,-0.429400802,-0.026543137,0.199041471,-0.078105904,0.740972042,-3.059949875
2.415008783,0.443641216,0.610560536,-1.505744338,1.292229056,0.883478582,1.148371458,-0.429705977,-0.025845751,0.19784914,-0.067745857,0.744425714,-3.052094936
2.420008898,0.256328642,0.589527309,-1.444680452,1.296546221,0.808240414,1.098417878,-0.431801319,-0.018057318,0.192634135,-0.057526529,0.747355998,-3.044405699
2.425010204,0.102117568,0.581944287,-1.387280464,1.267975926,0.766385674,1.057063818,-0.433413535,-0.012064649,0.188621551,-0.047633603,0.749924898,-3.036957979
2.430012465,-0.001253081,0.572779775,-1.349366188,1.21530962,0.753977954,1.032660127,-0.4339481,-0.010077593,0.187291056,-0.038076062,0.752344966,-3.029645443
2.435009718,-0.064870425,0.564105988,-1.34108448,1.135788679,0.73420608,1.008344769,-0.434359401,-0.008548688,0.186267331,-0.028971836,0.754569113,-3.022470951
2.440007925,-0.100283742,0.563496292,-1.34633553,1.028591037,0.698867917,0.969994724,-0.434547335,-0.003829553,0.183079466,-0.020598289,0.756530166,-3.015447378
2.445007086,-0.111148678,0.567547083,-1.368932962,0.902957559,0.632879496,0.913029253,-0.43474406,0.004060673,0.177746415,-0.013129725,0.758067906,-3.008762121
2.450006962,-0.118833311,0.565308332,-1.386968732,0.768697619,0.538892031,0.825877666,-0.434809297,0.006676923,0.175978079,-0.00676785,0.759050131,-3.002725124
2.455008268,-0.123077892,0.564039826,-1.399020553,0.628313541,0.426804751,0.714771271,-0.434859514,0.008689948,0.174617454,-0.001643249,0.759407043,-2.997481585
2.46001029,-0.131862462,0.57185638,-1.407089114,0.489179254,0.297215194,0.58175087,-0.434876144,0.009357429,0.174166307,0.00208314,0.759078145,-2.993149996
2.465007544,-0.139241457,0.58117497,-1.412093163,0.367192805,0.153146386,0.44384101,-0.432982743,0.017633183,0.171057552,0.004526497,0.758004189,-2.98972106
2.470005512,-0.14300485,0.589814842,-1.409413576,0.263885587,-0.008380812,0.308593214,-0.432354927,0.020377267,0.170026749,0.005782036,0.756113887,-2.987235785
2.475004673,-0.147038028,0.58306843,-1.400855899,0.178496331,-0.189733267,0.179896697,-0.431871861,0.022488652,0.169233605,0.006033126,0.753312767,-2.985673428
2.480004787,-0.173233092,0.562836587,-1.379863977,0.107941501,-0.380122453,0.07040967,-0.431711674,0.023188747,0.16897063,0.005487794,0.749548137,-2.984915972
2.485006332,-0.218853548,0.530028105,-1.350130558,0.038819294,-0.563334346,-0.020495668,-0.430165142,0.026879694,0.166774362,0.004274177,0.744844198,-2.984792948
2.490008593,-0.273151338,0.488657892,-1.318714976,-0.03252336,-0.732179165,-0.087078847,-0.429300129,0.028883582,0.16555272,0.002531327,0.739267588,-2.985174417
2.495005846,-0.321866214,0.450008005,-1.277029276,-0.113576353,-0.876571894,-0.135966092,-0.428634584,0.030425437,0.164612755,0.000282591,0.732978404,-2.985924959
2.500004292,-0.35220924,0.417040378,-1.235529184,-0.207262099,-0.98983717,-0.168741405,-0.428413898,0.030936686,0.164301068,-0.002477848,0.726161063,-2.986904144
2.505003452,-0.352493882,0.390705496,-1.204485774,-0.304157972,-1.081269979,-0.185816854,-0.426456302,0.031829461,0.165695772,-0.005707307,0.71895504,-2.987970352
2.510003805,-0.327172458,0.378716975,-1.186686397,-0.394838601,-1.172840953,-0.208239228,-0.424004436,0.032629088,0.167806476,-0.009421851,0.711356103,-2.989119053
2.515004873,-0.289872885,0.376379073,-1.1774441,-0.470624954,-1.269406915,-0.234493002,-0.422117889,0.033244345,0.169430509,-0.013565357,0.703326821,-2.990361929
2.520013332,-0.24973774,0.388963223,-1.17237556,-0.528181493,-1.376040339,-0.266457766,-0.421492338,0.03344835,0.169969007,-0.018100254,0.694822192,-2.991714478
2.525016546,-0.212211013,0.397495836,-1.169954896,-0.567475319,-1.488950491,-0.305231541,-0.421011001,0.033605322,0.170383349,-0.022920497,0.685791075,-2.993216753
2.530014992,-0.178693235,0.404890865,-1.163927197,-0.593820453,-1.6067065,-0.350155145,-0.416516602,0.033103999,0.174625605,-0.02798347,0.676215947,-2.99488616
2.535013914,-0.152505934,0.401575625,-1.148920894,-0.60968411,-1.71938622,-0.404033452,-0.41305846,0.032718267,0.177889735,-0.033238448,0.66611445,-2.996805191
2.540014029,-0.13549456,0.390500754,-1.126423717,-0.625266433,-1.824900985,-0.461492896,-0.411911815,0.032590367,0.178972065,-0.038663652,0.655529857,-2.998993635
2.545015097,-0.116688065,0.376947641,-1.10705328,-0.639297187,-1.91670692,-0.515794516,-0.411029518,0.032491956,0.179804832,-0.044227816,0.644520819,-3.001411915
2.550017357,-0.097149469,0.366513252,-1.085190654,-0.653128922,-1.992835164,-0.566238284,-0.407495141,0.031536374,0.183682814,-0.049919013,0.633178651,-3.004034519
2.55501461,-0.083103701,0.358467668,-1.061157584,-0.666885316,-2.050982714,-0.614291489,-0.401497692,0.029867865,0.190308675,-0.055720583,0.621584952,-3.006816626
2.560012817,-0.063061781,0.35112226,-1.042051435,-0.6747787,-2.098949671,-0.657580495,-0.399509043,0.02931462,0.192505673,-0.061593052,0.609792054,-3.009737492
2.56501174,-0.039703779,0.347928703,-1.024291277,-0.684853971,-2.133005857,-0.698430002,-0.397978932,0.028888935,0.19419612,-0.067530535,0.597876668,-3.01275444
2.570011854,-0.010813615,0.339690894,-1.008031368,-0.692548633,-2.154213905,-0.737102747,-0.397471547,0.028747786,0.194756642,-0.073506959,0.585904002,-3.015882969
2.575013161,0.016559323,0.326766402,-0.99307555,-0.70361048,-2.158700705,-0.769358695,-0.387739152,0.025907947,0.203802258,-0.079501197,0.573958814,-3.019097567
2.580015421,0.050753988,0.304683477,-0.985383928,-0.734166443,-2.149616718,-0.797720075,-0.384512067,0.024966309,0.206801608,-0.085581966,0.562105358,-3.022400141
2.585012674,0.095330887,0.278756142,-0.986229122,-0.782917976,-2.133951426,-0.825600624,-0.382029027,0.024241783,0.209109411,-0.091858834,0.550388157,-3.025799513
2.590010881,0.155574471,0.253406703,-0.993413866,-0.851207316,-2.117067575,-0.858469427,-0.381205708,0.024001544,0.209874645,-0.098423578,0.538834333,-3.029308796
2.595010042,0.221803486,0.233190075,-0.995130718,-0.935876906,-2.107363462,-0.903522372,-0.372277021,0.021794414,0.217671946,-0.105423331,0.527390659,-3.0329988
2.600010157,0.282338321,0.23171401,-0.99605453,-1.013211966,-2.104966879,-0.95534724,-0.367263794,0.020562151,0.22204116,-0.112862788,0.516008437,-3.036846638
2.605011463,0.332791179,0.246663585,-0.99120903,-1.089821935,-2.103834152,-1.013218284,-0.36340645,0.019614009,0.225402966,-0.120769553,0.504653513,-3.040834188
2.610013485,0.390401989,0.264002949,-0.994713366,-1.15490222,-2.103483438,-1.079829454,-0.362127423,0.019299623,0.226517677,-0.129084945,0.493330657,-3.045011997
2.615010738,0.443330646,0.276166141,-0.994964123,-1.206094503,-2.113697052,-1.150329471,-0.356451035,0.017631747,0.229432091,-0.137729093,0.481958359,-3.04941535
2.620009184,0.491544873,0.279572725,-0.991831243,-1.245970964,-2.127491474,-1.229075909,-0.349837214,0.015640762,0.23247245,-0.146634787,0.470511019,-3.054095507
2.625008345,0.521504819,0.26512745,-0.982322752,-1.281644225,-2.146413088,-1.30963397,-0.344748318,0.014108833,0.234811798,-0.155734614,0.458926976,-3.059093475
2.630008459,0.535183966,0.243085429,-0.96607548,-1.32159543,-2.162303686,-1.390675664,-0.343060911,0.013600875,0.235587478,-0.165041611,0.447211206,-3.06441021
2.635009766,0.533472478,0.216625601,-0.944692791,-1.366887331,-2.17030406,-1.463936687,-0.341762573,0.013210036,0.236184314,-0.174561441,0.435378671,-3.070023298
2.640011787,0.515807569,0.187335417,-0.925275803,-1.411790848,-2.160090446,-1.532599211,-0.333016962,0.010508354,0.238984764,-0.184261575,0.423490226,-3.075927496
2.645009041,0.498705119,0.16807577,-0.912524879,-1.447484136,-2.124908447,-1.595891356,-0.326287806,0.008429592,0.241139516,-0.194119424,0.411682934,-3.082075596
2.650007248,0.506484568,0.158079401,-0.912357628,-1.467799544,-2.073782682,-1.644016147,-0.324056566,0.007740315,0.241853982,-0.204037756,0.400074124,-3.088402033
2.655012608,0.556657791,0.16513586,-0.93217051,-1.466062665,-2.030886889,-1.677272439,-0.322339773,0.007209963,0.242403716,-0.213890463,0.388707459,-3.094758749
2.660012722,0.629571855,0.180972919,-0.966376364,-1.43161428,-2.02295351,-1.697227955,-0.317909747,0.005709572,0.244535908,-0.223453909,0.377395093,-3.101038456
2.665014029,0.698329747,0.198857084,-1.002159119,-1.365869761,-2.046896696,-1.702718973,-0.31059733,0.003215809,0.248148143,-0.232537687,0.365983307,-3.107131481
2.67001605,0.7498914,0.203161746,-1.025070786,-1.277106166,-2.098573923,-1.693477869,-0.308172673,0.002388924,0.249345899,-0.24097383,0.354343474,-3.112961531
2.675013304,0.779738009,0.188456938,-1.036975503,-1.17967999,-2.164701939,-1.679061413,-0.306307077,0.001752693,0.250267476,-0.248683527,0.342394233,-3.118544817
2.680011511,0.796021104,0.167443529,-1.033896804,-1.095329165,-2.226529121,-1.652768373,-0.305688471,0.001541731,0.250573069,-0.255736709,0.330182225,-3.12384963
2.68501091,0.809776783,0.13944377,-1.028145432,-1.027127147,-2.277463436,-1.613685846,-0.298567861,-0.002020659,0.254351884,-0.262212962,0.317803144,-3.12886548
2.690011024,0.813605189,0.115425438,-1.008951664,-0.976521194,-2.313144684,-1.560727,-0.296206802,-0.00320188,0.255604863,-0.268208385,0.305337876,-3.133488894
2.695012093,0.80703032,0.089309238,-0.982848287,-0.936505198,-2.330689907,-1.502400756,-0.294390112,-0.00411075,0.256568938,-0.273801386,0.292878091,-3.137749434
2.700014353,0.800847352,0.051011693,-0.948248148,-0.926788509,-2.327055216,-1.43707037,-0.293787748,-0.004412114,0.256888598,-0.279127091,0.280551523,3.141494513
2.705011368,0.793837607,0.010095818,-0.909626722,-0.942090154,-2.295404673,-1.359081388,-0.28960067,-0.006567037,0.260033458,-0.284327984,0.268522769,3.137878656
2.710009575,0.763346493,-0.02664132,-0.870654523,-0.984387934,-2.238315582,-1.272650123,-0.287290901,-0.007757431,0.261793584,-0.289564073,0.256871909,3.134624004
2.715008497,0.734448731,-0.050720051,-0.827444732,-1.052948117,-2.147132874,-1.184159279,-0.285513699,-0.008673359,0.263147891,-0.295018405,0.245789319,3.131712914
2.720008612,0.737019002,-0.053179402,-0.792990088,-1.12254703,-2.042727709,-1.097028136,-0.284924418,-0.008977063,0.263596952,-0.300748467,0.235379905,3.12915659
2.72500968,0.752412856,-0.04054201,-0.750433743,-1.168560624,-1.926375985,-1.018788576,-0.282888979,-0.010106288,0.267058522,-0.306663781,0.225691453,3.126975775
2.73001194,0.807742357,-0.024499044,-0.737452686,-1.197659731,-1.817103624,-0.943068564,-0.280618787,-0.011383782,0.271348566,-0.312650859,0.216776431,3.125076532
2.735008955,0.874475241,-0.014944755,-0.733315468,-1.23223877,-1.750003695,-0.863412976,-0.278872043,-0.012366727,0.274649441,-0.318730474,0.208372429,3.123564482
2.740007162,0.936714351,-0.021104438,-0.716647446,-1.260767698,-1.721040487,-0.804436862,-0.278292865,-0.012692653,0.275743961,-0.324864835,0.200287357,3.12234664
2.745006323,1.019679904,-0.046659816,-0.717403114,-1.275752544,-1.705559969,-0.776954889,-0.27784723,-0.012943431,0.276586086,-0.330954909,0.192499489,3.121139288
2.750006437,1.065906405,-0.058586463,-0.70930475,-1.289372325,-1.703582287,-0.779278874,-0.275822878,-0.015901154,0.282867551,-0.337102532,0.184717149,3.119969845
2.755007744,1.066859007,-0.061107218,-0.675150335,-1.29428339,-1.699105263,-0.79352212,-0.274265289,-0.018176921,0.287700742,-0.343278408,0.176933035,3.118795872
2.760010004,1.055892348,-0.080244482,-0.630154312,-1.285242319,-1.687930703,-0.82441175,-0.273748815,-0.018931521,0.289303333,-0.349396169,0.169142693,3.117480993
2.765007257,0.999538064,-0.068851069,-0.554206491,-1.25988543,-1.647137284,-0.841681063,-0.273351431,-0.019512136,0.290536404,-0.355476856,0.161413625,3.11620903
2.770005226,0.946600437,-0.06680765,-0.469270289,-1.210580111,-1.572782755,-0.843012035,-0.272257298,-0.021716924,0.293568343,-0.361335337,0.154005557,3.114904404
2.775004387,0.91576618,-0.06910374,-0.390745372,-1.141077518,-1.450693965,-0.830051064,-0.270442337,-0.025448078,0.298553556,-0.366895199,0.147189155,3.113581419
2.780004263,0.907863975,-0.088852324,-0.317480087,-1.045246482,-1.307931781,-0.802665353,-0.269840539,-0.026685258,0.300206542,-0.371942997,0.141130164,3.112176418
2.785005569,0.933357,-0.122886099,-0.25140667,-0.94546473,-1.144636989,-0.763733447,-0.2693775,-0.027637184,0.301478416,-0.376467466,0.135994941,3.110666513
2.790014029,0.9912678,-0.158715919,-0.188711792,-0.845312655,-0.974243581,-0.715529978,-0.269223958,-0.027952826,0.301900148,-0.380466878,0.131877542,3.109035254
2.795017481,1.05190146,-0.203295156,-0.130394503,-0.748621821,-0.80005461,-0.662746668,-0.266780466,-0.033835031,0.310010612,-0.383943319,0.128792971,3.107250929
2.800015926,1.103348374,-0.242531478,-0.076526947,-0.653552055,-0.616691232,-0.606028318,-0.26597026,-0.035785459,0.312699914,-0.386924475,0.126759529,3.105356693
2.805015326,1.155758262,-0.270459294,-0.025850475,-0.558566809,-0.426037788,-0.539831758,-0.265346885,-0.037286185,0.314769119,-0.389437675,0.125827372,3.103399754
2.810015678,1.218161225,-0.304989904,0.020696294,-0.453675807,-0.229765445,-0.475077212,-0.265140176,-0.037783794,0.315455228,-0.391403556,0.126056299,3.101307154
2.815017223,1.277152538,-0.342459261,0.062663704,-0.340802789,-0.038345031,-0.408300191,-0.263581187,-0.041213024,0.318832636,-0.392763913,0.127411604,3.099040747
2.820019484,1.333275676,-0.377533227,0.096826561,-0.230160043,0.147150844,-0.333551317,-0.262717843,-0.043103918,0.320657641,-0.393544078,0.129865974,3.09668541
2.825016737,1.37776494,-0.401192158,0.124217577,-0.134871557,0.324376136,-0.247763187,-0.262053549,-0.044558834,0.322061896,-0.393825293,0.133369267,3.094348192
2.830014944,1.424043059,-0.417515516,0.140583783,-0.05683567,0.497261703,-0.148300514,-0.26183328,-0.045041259,0.322527498,-0.393703252,0.137955323,3.092105389
2.835014105,1.470303655,-0.418748915,0.151114941,0.008251498,0.665103793,-0.040557206,-0.262126178,-0.046200801,0.323969513,-0.393255591,0.143612191,3.090033531
2.840013981,1.529441953,-0.406329662,0.147778064,0.072046362,0.821230769,0.06635163,-0.262689501,-0.047380254,0.325540572,-0.39249897,0.150299549,3.088176489
2.845015049,1.576285124,-0.376458913,0.142606243,0.140409008,0.953883469,0.181803942,-0.263122946,-0.04828776,0.326749384,-0.391411006,0.157882914,3.086680412
2.850017309,1.595312357,-0.316700518,0.125519857,0.222479194,1.067120671,0.308356941,-0.263266683,-0.048588675,0.327150196,-0.389953732,0.166215956,3.08573246
2.855014324,0.399825156,0.649397135,-0.28217876,1.382722378,1.237162948,0.356061369,-0.263377279,-0.048820205,0.32745859,-0.384769559,0.17279546,3.088233232
2.860012531,0.924854934,0.019747388,0.167461783,1.752599716,1.889473438,0.826125264,-0.266444534,-0.047941387,0.325785577,-0.374296248,0.185080677,3.088592291
2.865011454,-0.598872364,0.733779788,-0.334658831,2.156219959,2.020532131,1.034233809,-0.26880461,-0.047265194,0.324498326,-0.364610553,0.195263684,3.093583107
2.870011568,-0.700458586,0.776189327,-0.784459293,2.394299507,2.367523193,1.095882654,-0.269587159,-0.04704098,0.324071497,-0.352862477,0.206437111,3.096828938
2.875012875,-0.437772036,0.722776055,-1.429377675,2.427123785,2.586011171,1.13766861,-0.270189285,-0.046868466,0.323743105,-0.340452433,0.219754755,3.099007368
2.880015373,-0.698590934,0.78929472,-1.686587572,2.218065023,2.908782005,1.237753034,-0.273571372,-0.042393856,0.320905179,-0.329673231,0.233542144,3.101387501
2.885012627,-0.19130978,1.019178987,-1.55756402,2.242731094,3.160065651,1.186422825,-0.279391587,-0.034484256,0.315962136,-0.31922096,0.249899998,3.104442835
2.890010834,0.047677375,0.800994456,-1.214020252,2.340289593,3.397549152,1.052033067,-0.281321496,-0.031861585,0.314323127,-0.308382452,0.267320514,3.106027365
2.895009995,0.525250733,0.037065759,-0.922098577,2.298725605,3.752933741,0.962272227,-0.282806396,-0.029843615,0.313062012,-0.29636994,0.287371248,3.104198456
2.900010347,0.893709362,-0.63441056,-0.87740773,2.003484011,4.182107449,1.030046701,-0.283298761,-0.029174495,0.312643856,-0.284890234,0.31058079,3.100355148
2.905011415,1.054227948,-0.744146526,-1.081509829,1.765267015,4.440876007,1.024413466,-0.296070367,-0.016224872,0.303728253,-0.274974287,0.33495599,3.096314907
2.910013676,1.351103544,-0.903015077,-1.365496993,1.484312296,4.44824028,1.096756697,-0.300305188,-0.011931023,0.300772011,-0.265566707,0.359559387,3.092182875
2.915011168,1.773980856,-0.94979918,-1.819378972,1.169986963,4.180202961,1.156619787,-0.303563595,-0.008627197,0.298497379,-0.257220149,0.383233905,3.088602304
2.920009136,2.137909412,-0.948608756,-2.005169153,0.818779767,3.636512756,1.222170711,-0.304644018,-0.007531711,0.297743142,-0.250119358,0.404508412,3.086257935
2.925014257,2.130975723,-0.806513667,-1.921660423,0.486416131,3.08254838,1.352998734,-0.316808999,0.001123358,0.283941597,-0.244428053,0.422809333,3.086384773
2.930014133,1.94585669,-0.518420994,-1.689518332,0.224846333,2.63645792,1.426693559,-0.323647231,0.005926359,0.276093662,-0.240242466,0.438836336,3.088842392
2.935015202,1.772618532,-0.170578077,-1.390061021,0.043696407,2.291286945,1.402519107,-0.328908771,0.009621941,0.270055175,-0.237429366,0.453028053,3.092936516
2.9400177,1.591950178,0.288122267,-1.143571138,-0.058648944,2.057413816,1.243993998,-0.330653429,0.010847325,0.268052936,-0.23623684,0.465754211,3.097987413
2.945015192,1.445748329,0.710674822,-0.975164652,-0.014295792,1.859866619,1.010355592,-0.336730868,0.014916339,0.261148274,-0.23615399,0.477035522,3.103177547
2.950013399,1.274040341,0.918604255,-0.820780873,0.11414656,1.696975708,0.79592216,-0.34352082,0.019417955,0.253449708,-0.236054242,0.48709479,3.108041763
2.95501256,1.009914517,0.901744306,-0.723719418,0.270879298,1.595882297,0.648185134,-0.348745227,0.022881642,0.247526184,-0.235396922,0.49614042,3.112128258
2.960012436,0.859378934,0.702539623,-0.707315266,0.434372663,1.525367737,0.624644995,-0.350477546,0.024030134,0.245562047,-0.233346939,0.504728317,3.115536213
2.965013742,0.788221717,0.486344099,-0.753927648,0.546882749,1.435857654,0.661853373,-0.351810426,0.024913821,0.244050771,-0.230090931,0.512868166,3.118781567
2.970016003,0.750855744,0.305807024,-0.825031221,0.607052147,1.337340474,0.708074927,-0.356430322,0.02883596,0.237529948,-0.225993454,0.520480096,3.121988297
2.975013733,0.800167441,0.202621207,-0.894490838,0.650377512,1.206779957,0.741498709,-0.359985024,0.031853776,0.232512638,-0.22128512,0.527521491,3.125337839
2.980011702,0.805366397,0.109110385,-0.910169125,0.636019409,1.080235481,0.744909465,-0.361163676,0.03285443,0.230848983,-0.216367155,0.53390038,3.128658295
2.985010862,0.797833204,0.135598809,-0.921207368,0.613720596,0.963403583,0.698706925,-0.36207059,0.033624362,0.229568928,-0.211782813,0.53959018,3.132001638
2.990011215,0.821451008,0.095489822,-0.944748282,0.579803407,0.847682536,0.642325044,-0.363999635,0.035854641,0.227357,-0.207311466,0.544677198,3.135084152
2.995012283,0.832852602,0.09077701,-0.973696828,0.536633313,0.733306527,0.594556749,-0.367130399,0.039567705,0.223847657,-0.203148738,0.549130261,3.138010502
3.000014544,0.802705646,0.116451129,-0.977913678,0.486227125,0.628139019,0.537983358,-0.368168503,0.040798888,0.222684026,-0.1993642,0.552938223,3.140903473
3.005011797,0.738071501,0.128272384,-0.952329457,0.458934605,0.532908797,0.490101099,-0.368967265,0.041746199,0.221788689,-0.195842594,0.556113601,-3.139534712
3.010009766,0.653673768,0.108306862,-0.919546008,0.426356286,0.489857942,0.464126468,-0.369232088,0.042060308,0.221491814,-0.19246076,0.558979928,-3.13687253
3.015009165,0.596094191,0.098787099,-0.939640939,0.391145706,0.447684407,0.429623365,-0.371558338,0.046815544,0.216194049,-0.189323589,0.561545908,-3.134364605
3.020009518,0.60423249,0.071908563,-0.969634771,0.356059015,0.398202509,0.392290354,-0.372329682,0.048392292,0.21443741,-0.186364487,0.563808441,-3.132080793
3.025010347,0.596235693,0.012174229,-0.964396358,0.298961759,0.348788708,0.359866887,-0.372923166,0.049605493,0.2130858,-0.183646217,0.565811813,-3.130148172
3.030012608,0.54250443,0.051044039,-0.918878913,0.240274161,0.337572724,0.343711168,-0.37311995,0.050007764,0.212637618,-0.181389838,0.567669928,-3.128074169
3.035009861,0.541095972,0.112540498,-0.910755098,0.207655773,0.341786891,0.313070655,-0.373884797,0.05250416,0.211475521,-0.179546237,0.569558978,-3.125953436
3.04000783,0.55062604,0.162230894,-0.899919987,0.195154905,0.334843576,0.304913968,-0.374290198,0.053873066,0.210887954,-0.177850485,0.571433485,-3.123746634
3.04500699,0.570237637,0.185973495,-0.872320354,0.201793477,0.322948456,0.307353646,-0.374602109,0.054926343,0.210435867,-0.17612648,0.573291779,-3.121430635
3.050007343,0.58287704,0.186200246,-0.846423507,0.217015758,0.314054757,0.299872994,-0.374705553,0.055275593,0.210285962,-0.174333587,0.575131238,-3.119119406
3.055008411,0.584525645,0.141487643,-0.844770014,0.21633406,0.306685448,0.281365007,-0.375292301,0.056407955,0.208983019,-0.172497228,0.576922059,-3.117054939
3.06001687,0.572168291,0.072544783,-0.863241792,0.194724426,0.303002119,0.258125722,-0.375998288,0.057654317,0.207353413,-0.17068027,0.57863009,-3.115334034
3.065020323,0.537134528,0.014219754,-0.876242399,0.157056987,0.320012033,0.232291937,-0.376541495,0.058613308,0.20609954,-0.169066653,0.580348909,-3.113927126
3.070019007,0.541799426,0.012673579,-0.890402555,0.11173629,0.340231389,0.198337704,-0.376721621,0.058931291,0.205683783,-0.167795897,0.582159281,-3.112737656
3.075018167,0.553326726,0.055667423,-0.883978426,0.064636298,0.346393079,0.16989097,-0.376860201,0.059175957,0.205363885,-0.16700387,0.583976924,-3.111594677
3.080018282,0.566444814,0.130906031,-0.856349766,0.043399598,0.346854538,0.142822653,-0.377453536,0.060320787,0.203862116,-0.166571081,0.585800171,-3.110332966
3.08501935,0.570641279,0.184882924,-0.842816532,0.044268876,0.34582898,0.130240604,-0.377910078,0.061201658,0.202706605,-0.166257218,0.587619543,-3.109006166
3.09002161,0.566849768,0.181687996,-0.838943064,0.056198545,0.336152852,0.120310836,-0.378061444,0.061493736,0.202323467,-0.165861189,0.589365005,-3.10776186
3.095019102,0.567185163,0.14610447,-0.849125743,0.064175926,0.322147667,0.116266415,-0.378177911,0.061718471,0.202028662,-0.165309682,0.591031671,-3.106641293
3.100016832,0.575218678,0.113942467,-0.846337557,0.074611753,0.308083773,0.104336105,-0.378470719,0.062171746,0.201840192,-0.164685503,0.592633605,-3.105664492
3.105015993,0.572922587,0.090129845,-0.842734277,0.070230462,0.298034936,0.084321782,-0.37895304,0.062903494,0.201603457,-0.164115667,0.594163716,-3.10483861
3.110016108,0.561500609,0.060475588,-0.847934425,0.050631132,0.291711628,0.061382819,-0.379112959,0.063146122,0.201524958,-0.163651019,0.595615983,-3.104233027
3.115017176,0.545723379,0.033992335,-0.857309639,0.017749576,0.298959106,0.033355754,-0.379236013,0.063332811,0.201464564,-0.163419709,0.59706372,-3.103886843
3.120019436,0.551748514,0.028067296,-0.854331076,-0.014915263,0.312985033,0.005697084,-0.379276812,0.06339471,0.201444536,-0.163459405,0.598580003,-3.103733063
3.125016928,0.563138783,0.053551089,-0.844350159,-0.047036078,0.32983163,-0.022255093,-0.379760355,0.063961469,0.198225379,-0.163836598,0.60018599,-3.103662729
3.130014896,0.571056962,0.082195878,-0.832996964,-0.073818825,0.342944562,-0.044212576,-0.379920691,0.064149395,0.197157964,-0.164492801,0.601853549,-3.103660107
3.135014057,0.560982347,0.118946426,-0.823656321,-0.087722316,0.345681727,-0.050880525,-0.380044073,0.064293988,0.196336642,-0.165314436,0.603512287,-3.103604317
3.14001441,0.572385788,0.141418427,-0.807566822,-0.085084647,0.344637275,-0.050391465,-0.380084991,0.064341933,0.196064323,-0.166141897,0.605178654,-3.103461266
3.145015478,0.584123552,0.169289544,-0.799380958,-0.073795751,0.338236213,-0.044891208,-0.380747139,0.06418705,0.195761949,-0.166945532,0.606849909,-3.103212595
3.150017738,0.592188954,0.208100334,-0.791653454,-0.050912291,0.321496993,-0.030375561,-0.381122798,0.06408824,0.195638716,-0.167644903,0.608441293,-3.102747917
3.15501523,0.599819362,0.241815239,-0.782878041,-0.01255358,0.296549886,-0.013261673,-0.38141185,0.064012207,0.1955439,-0.168135524,0.609928846,-3.102067709
3.160013199,0.598994076,0.267214149,-0.774104357,0.034593731,0.264775962,0.011654003,-0.381507665,0.063986994,0.195512459,-0.16832678,0.611268282,-3.101131201
3.165012121,0.598723888,0.278304249,-0.769177496,0.084979698,0.235123202,0.039827898,-0.381991446,0.063738316,0.194767967,-0.168150604,0.612493932,-3.099980831
3.170012474,0.60308373,0.281975091,-0.77098316,0.139937356,0.20133321,0.070193075,-0.382565349,0.063424669,0.193794757,-0.167580798,0.613576591,-3.098614216
3.175013304,0.604912639,0.269194365,-0.773207426,0.187034622,0.16510208,0.105267525,-0.38300693,0.063183337,0.193045944,-0.166581422,0.614508748,-3.097028017
3.180015564,0.599458575,0.237828672,-0.773517311,0.218687534,0.1432634,0.130996302,-0.383153349,0.063103318,0.192797661,-0.165268466,0.615342617,-3.095362425
3.185012817,0.602517784,0.199287653,-0.783584714,0.234027296,0.130060539,0.149112418,-0.383266002,0.063041747,0.192606613,-0.163733944,0.6161502,-3.093697786
3.190016747,0.605306506,0.173114985,-0.792000294,0.242806271,0.111405104,0.158546731,-0.38374719,0.063724361,0.190774247,-0.16207546,0.616858006,-3.092012167
3.195015907,0.59063673,0.153721631,-0.79280746,0.235333428,0.099158838,0.15713945,-0.384117454,0.064249583,0.189364374,-0.160423681,0.617486477,-3.090372801
3.200016022,0.58019793,0.144952118,-0.803615212,0.22639738,0.102925055,0.155732498,-0.38424021,0.06442374,0.18889688,-0.158845454,0.618104935,-3.088807106
3.20501709,0.577633977,0.15404959,-0.808466852,0.22651197,0.10180781,0.158380851,-0.384334683,0.064557739,0.18853718,-0.157268927,0.618712544,-3.087166786
3.21001935,0.571362317,0.16481331,-0.806713521,0.216371328,0.102820501,0.163318336,-0.384426117,0.065003775,0.188079551,-0.155750677,0.619331181,-3.085460901
3.215016603,0.559928238,0.166340381,-0.799996555,0.214186281,0.105568141,0.169559702,-0.384557247,0.065753065,0.187385291,-0.154225156,0.619947016,-3.083720684
3.220014811,0.562474549,0.16486229,-0.808116317,0.206230521,0.103728779,0.176011562,-0.384600699,0.066001512,0.187155083,-0.152713284,0.620563984,-3.081959724
3.225013971,0.56418258,0.176985681,-0.808045983,0.212632224,0.100837499,0.186335236,-0.384634167,0.066192679,0.186977968,-0.15115577,0.62116152,-3.080085278
3.230014324,0.564884305,0.191555083,-0.799556315,0.22418645,0.099632137,0.199549392,-0.384645253,0.066256061,0.186919242,-0.149522364,0.621772349,-3.078081846
3.235015154,0.571006417,0.188933358,-0.795663357,0.236759409,0.093385875,0.214247763,-0.384158283,0.067721196,0.187917247,-0.147743165,0.622386038,-3.075965881
3.240017414,0.576438248,0.182632908,-0.792183757,0.242689058,0.084445015,0.227626026,-0.383996814,0.068207003,0.188248158,-0.14588061,0.622963846,-3.073791265
3.245014429,0.576411247,0.171679676,-0.791323602,0.252482265,0.071646787,0.244394675,-0.383872539,0.068580806,0.188502774,-0.143884227,0.623476088,-3.071524858
3.250012398,0.579431534,0.158709288,-0.796472311,0.252526522,0.070397399,0.254607499,-0.383831352,0.068704747,0.188587204,-0.141824633,0.623998344,-3.06923151
3.255011559,0.574564159,0.137138963,-0.800580561,0.242272854,0.071768872,0.258474052,-0.38444525,0.069722719,0.188278869,-0.139763236,0.624516904,-3.066982269
3.260011435,0.577419281,0.135685757,-0.801657081,0.232894868,0.071472421,0.266378552,-0.38480857,0.070288561,0.18808426,-0.137729779,0.625045002,-3.064666033
3.265012741,0.585163355,0.13326332,-0.796348989,0.227743804,0.068449683,0.270582348,-0.385088086,0.070723943,0.187934518,-0.13569729,0.625582933,-3.062329769
3.270014763,0.585211039,0.13449569,-0.7934708,0.228416964,0.068109699,0.276175141,-0.385180771,0.070868306,0.187884867,-0.133655712,0.626111329,-3.059937
3.275012016,0.579284549,0.135133371,-0.79820025,0.222495124,0.066976674,0.281499714,-0.385261923,0.071726695,0.187594756,-0.13162604,0.626628458,-3.057517529
3.280010223,0.575598717,0.127943218,-0.802480638,0.214505434,0.065888815,0.285045654,-0.385298729,0.072764911,0.187244549,-0.129600748,0.627119839,-3.055080891
3.285009384,0.575374007,0.125344187,-0.805716515,0.214923084,0.068159446,0.29209134,-0.385327041,0.073563747,0.186975077,-0.127550438,0.627626538,-3.052633047
3.290009499,0.575483322,0.129882112,-0.805708766,0.21350424,0.069599584,0.297219694,-0.385336429,0.07382863,0.186885729,-0.125502184,0.628135264,-3.050119162
3.295010805,0.588736594,0.132120818,-0.807502687,0.217571497,0.066346154,0.300907373,-0.385343671,0.074032433,0.18681699,-0.12343251,0.628650963,-3.047581673
3.300013065,0.589070499,0.129519567,-0.800375342,0.215017021,0.062374771,0.312248319,-0.385410398,0.0752661,0.186514094,-0.121312529,0.629148722,-3.044953108
3.305010319,0.588268101,0.139548153,-0.803862691,0.216697708,0.05582137,0.324995786,-0.385461718,0.076215327,0.18628104,-0.119171917,0.62961483,-3.042208433
3.310008526,0.576994479,0.135649845,-0.803195775,0.217261136,0.056684308,0.335328162,-0.385478765,0.076530077,0.186203763,-0.116969638,0.630066633,-3.039437294
3.315007687,0.588858187,0.115810215,-0.804400623,0.213523403,0.057146024,0.349845856,-0.385491878,0.07677225,0.186144307,-0.114673585,0.630544126,-3.036625624
3.320008039,0.57746917,0.103967309,-0.80968678,0.210775018,0.06544669,0.356300592,-0.385287732,0.077771053,0.186140582,-0.11237698,0.631047904,-3.033777237
3.325015306,0.574965,0.095889531,-0.81159538,0.202691108,0.080548778,0.359824538,-0.384919822,0.079468317,0.186153874,-0.110093027,0.631623566,-3.0309515
3.330017567,0.576104641,0.093392938,-0.810773373,0.185307413,0.093748562,0.365095109,-0.384797812,0.080031097,0.186158285,-0.107887559,0.632265449,-3.028117895
3.335014582,0.572622716,0.096075095,-0.815213323,0.171428412,0.112397648,0.374377906,-0.384703964,0.080464125,0.186161667,-0.105736502,0.632991135,-3.025210857
3.340012789,0.569137692,0.107976176,-0.820331573,0.159505069,0.136418298,0.391579837,-0.38467285,0.080607705,0.1861628,-0.10362152,0.633840322,-3.022185802
3.345012426,0.55883801,0.12192589,-0.826253951,0.160165682,0.166270435,0.411235154,-0.385257661,0.082873136,0.184512094,-0.101460926,0.634821057,-3.018999338
3.350012779,0.551993668,0.123235859,-0.830880105,0.172158718,0.187724113,0.41749844,-0.385451585,0.083624311,0.183964759,-0.099203594,0.635879755,-3.01580739
3.355013847,0.553723752,0.112507939,-0.834200263,0.1726114,0.210461035,0.424239367,-0.385600805,0.08420229,0.183543608,-0.096906081,0.637063682,-3.01262784
3.360016108,0.557171106,0.121646829,-0.836684823,0.167562708,0.235427007,0.438269049,-0.385650277,0.084393933,0.183403969,-0.09462022,0.638365924,-3.009347916
3.365013361,0.55367738,0.128392428,-0.837173522,0.162847832,0.258407116,0.457103044,-0.385562122,0.08615423,0.182310537,-0.092312001,0.639788032,-3.005903244
3.37001133,0.556845069,0.114518158,-0.84181267,0.15934065,0.286560088,0.473044157,-0.385501653,0.087137014,0.18170397,-0.089923806,0.64133817,-3.002410412
3.375010252,0.566995382,0.104325578,-0.846799433,0.161048442,0.335399479,0.483277202,-0.385455132,0.087893203,0.181237265,-0.087480761,0.643178523,-2.998939991
3.380010605,0.585184097,0.051905289,-0.855313182,0.173783168,0.381755471,0.478240192,-0.385439694,0.088143937,0.181082517,-0.084827594,0.645224273,-2.995623827
3.385011435,0.570133865,0.062264509,-0.854616165,0.149549723,0.445354044,0.481221199,-0.385608971,0.089434437,0.180832714,-0.082418784,0.647600889,-2.992290497
3.390013695,0.566914976,0.07944864,-0.862706959,0.165230528,0.497954279,0.471407026,-0.385847718,0.090969145,0.180618048,-0.079994194,0.650176644,-2.988955736
3.39501071,0.567856789,0.079490945,-0.87152642,0.156596333,0.558981419,0.473089486,-0.386031419,0.092149995,0.180452868,-0.077609845,0.653059959,-2.985673904
3.400008917,0.55948633,0.114231765,-0.879930019,0.17794852,0.625539482,0.478312314,-0.386092335,0.092541538,0.180398107,-0.075185053,0.656233311,-2.982265234
3.405008078,0.562475443,0.077126689,-0.90381664,0.160097837,0.71195972,0.490308106,-0.386139214,0.09284281,0.180355966,-0.072674297,0.659825802,-2.97893858
3.410008907,0.564173579,0.108298771,-0.911747456,0.13215676,0.808569074,0.506624222,-0.386219501,0.094594397,0.177643239,-0.070420653,0.663909853,-2.975443363
3.415009975,0.564880133,0.168458745,-0.90785408,0.232196942,0.885140002,0.505331397,-0.386281282,0.095942125,0.175555974,-0.067769751,0.668362737,-2.971758604
3.420012236,0.567980766,0.089150652,-0.905439198,0.274844676,0.981737614,0.509335041,-0.386301786,0.096389003,0.17486389,-0.064575352,0.673280299,-2.968369722
3.425009727,0.566402495,0.063610815,-0.916203797,0.25441733,1.083934307,0.521969676,-0.386317551,0.096732847,0.174331367,-0.061472327,0.678710401,-2.964939833
3.430007458,0.574860096,0.103424527,-0.909190953,0.276041657,1.170782924,0.515295267,-0.387167811,0.09812025,0.17293866,-0.058430273,0.684565187,-2.961411476
3.435006618,0.572729409,0.071733266,-0.913740814,0.294242859,1.264873624,0.51467967,-0.388676435,0.100475356,0.170637354,-0.05515087,0.690839231,-2.957999706
3.440006971,0.598770499,0.049721289,-0.922104418,0.303378582,1.368851304,0.529174924,-0.389176667,0.101256266,0.169874281,-0.051715262,0.697676897,-2.954525948
3.445008039,0.574947119,0.094498158,-0.907021582,0.355028868,1.474560618,0.529459417,-0.389561564,0.101857126,0.16928716,-0.048130967,0.705006301,-2.950879097
3.450010061,0.576994598,0.085705176,-0.907760859,0.385037988,1.589585662,0.530223846,-0.389689207,0.102056354,0.169092476,-0.044317205,0.712881804,-2.947293997
3.455007553,0.589154959,0.086351842,-0.917452395,0.399483323,1.702351213,0.545866787,-0.390776664,0.104795486,0.161949173,-0.040331997,0.721315026,-2.943560123
3.460011482,0.589482486,0.120658539,-0.917214334,0.436775297,1.814402342,0.563127816,-0.391137242,0.105703734,0.159580588,-0.0361626,0.730273187,-2.939571619
3.465010643,0.606609941,0.129622385,-0.935390472,0.488475144,1.924014449,0.594879389,-0.391414672,0.106402569,0.157758132,-0.031514425,0.739765584,-2.935313463
3.470010519,0.603048742,0.118330479,-0.952679455,0.540363848,2.034298897,0.623672366,-0.391506672,0.106634282,0.157153845,-0.026350047,0.749745369,-2.930813551
3.475011826,0.60157156,0.107457407,-0.962619185,0.567397177,2.167307138,0.655134141,-0.393055171,0.109069437,0.150578663,-0.020822048,0.76036036,-2.926076651
3.480014324,0.587944508,0.129266948,-0.948670506,0.601014972,2.320213556,0.697679639,-0.39393428,0.110435352,0.146886468,-0.014874205,0.771737576,-2.920837879
3.485011816,0.586240888,0.115344711,-0.954285741,0.617462754,2.495170355,0.729449332,-0.394610703,0.111486331,0.144045562,-0.008543745,0.78393352,-2.915313482
3.490009785,0.578607142,0.095678024,-0.971940637,0.626524448,2.696977139,0.765530944,-0.394834995,0.111834817,0.14310357,-0.001770448,0.797075152,-2.909425497
3.495008945,0.593315959,0.110661156,-1.008610964,0.652610242,2.919234037,0.796336949,-0.395815969,0.113621503,0.136499852,0.00539847,0.811275661,-2.90310812
3.500009298,0.59837085,0.121395491,-1.031823754,0.700090706,3.172360897,0.835730672,-0.396956474,0.115745232,0.128381908,0.013276547,0.826696277,-2.896201134
3.505010128,0.58823806,0.143135995,-1.063995481,0.748254061,3.429021835,0.879913568,-0.397833973,0.1173793,0.122135699,0.021847181,0.843270659,-2.888687849
3.510012388,0.564423025,0.173483893,-1.085342407,0.791118443,3.708974123,0.942387521,-0.398124933,0.117921129,0.120064571,0.031329632,0.861102104,-2.880224705
3.515009642,0.538273275,0.213243216,-1.112474203,0.8294698,3.991932392,1.022680879,-0.398348838,0.118338026,0.118470982,0.041817743,0.880212665,-2.870636463
3.520007849,0.527713835,0.252662987,-1.110919476,0.863402843,4.286206722,1.141319156,-0.400438398,0.121861599,0.106413797,0.053743239,0.900691628,-2.85936594
3.525006771,0.481248736,0.2876288,-1.118039846,0.890071988,4.578680038,1.303748608,-0.402046144,0.124572739,0.097136609,0.067546949,0.92237246,-2.845915794
3.530007124,0.489285469,0.297206998,-1.161610007,0.900651276,4.865355492,1.492546678,-0.402579248,0.125471696,0.094060473,0.083733015,0.945227087,-2.829743624
3.535008192,0.59866631,0.316556245,-1.225070715,0.954442024,5.148814201,1.652498603,-0.402989447,0.126163393,0.091693595,0.102510683,0.969204664,-2.810844421
3.540010452,0.681280196,0.428909481,-1.240304351,1.07810235,5.458735466,1.859133363,-0.403628439,0.128782555,0.08005023,0.124936655,0.994510651,-2.788040876
3.545007706,0.673744798,0.623531103,-1.248850584,1.323836088,5.751906395,2.021602631,-0.404628694,0.13321428,0.060111746,0.151453853,1.020792603,-2.761296034
3.55000639,0.811264396,0.678110063,-1.210614204,1.609407187,5.926650047,2.181312084,-0.404960364,0.134683758,0.053500526,0.18340835,1.047556639,-2.730238199
3.55500555,1.27447629,0.720641494,-1.288663983,1.921012402,6.01661396,2.400832415,-0.405215561,0.135814413,0.048413642,0.222055078,1.07420063,-2.693261623
3.560005903,1.526956081,0.792216182,-1.291105866,2.244795799,5.983057976,2.636829615,-0.40530017,0.136189312,0.046726927,0.268069893,1.099687576,-2.649817467
3.56500721,1.728650331,0.734492004,-1.450734019,2.453901768,5.854415417,2.774603844,-0.40392065,0.145414546,0.015085879,0.320848942,1.123138785,-2.600731611
3.570008993,1.999488592,0.471230894,-1.674619794,2.387659311,5.748903751,2.986383677,-0.403463215,0.148473457,0.004594307,0.380381942,1.144176126,-2.54535532
3.575006247,1.872645497,0.480959117,-1.400464416,2.467034578,5.736019611,3.320982456,-0.403111279,0.15082708,-0.003478244,0.449586958,1.16332376,-2.479903698
3.580004454,2.101399422,0.361610293,-1.563434124,2.405938148,5.569367409,3.394388437,-0.402994573,0.151607513,-0.00615495,0.523988068,1.17924571,-2.409120083
3.585003614,2.17726469,0.455683917,-1.516913414,2.303951263,5.39817524,3.416979074,-0.398283899,0.16078864,-0.031675149,0.601545036,1.192769051,-2.334057808
3.59000349,2.522723913,0.391870052,-1.641196012,2.228128672,5.119737625,3.535677433,-0.395578474,0.165956229,-0.045942571,0.681848109,1.202441573,-2.255882502
3.595010519,2.348860502,0.579139292,-1.491667867,2.249986172,4.850982666,3.667849302,-0.393496841,0.169932351,-0.056920379,0.764273882,1.208553314,-2.175134659
3.600012779,2.270852327,0.668109894,-1.485041499,2.473971128,4.556673527,3.724367619,-0.392806619,0.171250761,-0.060560416,0.847391725,1.211163998,-2.094814777
3.605010271,1.991289496,0.632460058,-1.335624218,2.715575933,4.252498627,3.69839716,-0.387007326,0.177544832,-0.073907822,0.928893447,1.210748196,-2.018125296
3.61000824,1.671097517,0.483082384,-1.256390691,2.945277929,3.91305685,3.66866827,-0.379771978,0.18495582,-0.088968754,1.007766485,1.206992149,-1.946163893
3.615007401,1.369232416,0.229093134,-1.14139533,3.033186913,3.500442028,3.505361319,-0.374204874,0.190658063,-0.100557111,1.080198288,1.200637817,-1.882789135
3.620007753,1.100395203,0.115401253,-1.359328628,2.810673237,3.135073185,3.202609539,-0.372358918,0.192548811,-0.104399592,1.141839385,1.193071365,-1.829886675
3.625008821,0.928438365,-0.017243704,-1.549726605,2.302284241,2.870504379,2.960277081,-0.370938599,0.194003627,-0.107356124,1.193208098,1.184708476,-1.785377979
3.630011082,1.123399258,-0.113948256,-1.307365179,1.685424447,2.796616077,2.691817045,-0.359517187,0.20176217,-0.122359879,1.239127994,1.176699042,-1.742951512
3.635008574,1.733798742,-0.311858118,-1.593370557,0.985170841,2.703788757,2.401671886,-0.350729197,0.207731843,-0.133904248,1.277521491,1.169757843,-1.704369307
3.640006542,1.443233848,0.270347476,-1.746086359,0.515724123,2.178918839,2.15450573,-0.347815275,0.209711269,-0.137732148,1.302762032,1.163121343,-1.675513506
3.645005941,0.699304938,0.688735187,-1.45464313,0.248498142,1.785350204,1.884985566,-0.345573187,0.211234301,-0.140677452,1.32172668,1.157378793,-1.652258396
3.650005817,0.456953317,0.816326737,-1.262727022,0.216604143,1.588742495,1.730149031,-0.339380056,0.214655116,-0.145508245,1.338678479,1.152042985,-1.631079912
3.655006647,0.566898525,0.820624053,-1.24032414,0.362806112,1.416955948,1.64390409,-0.329104364,0.220235527,-0.153122395,1.354412556,1.146802068,-1.612136126
3.660008907,0.730069101,0.840436816,-1.36110425,0.511111319,1.123426557,1.504979014,-0.325697154,0.222085878,-0.155647099,1.366516471,1.141928673,-1.597755313
3.665006161,0.766120434,0.836562812,-1.420266151,0.569456518,0.702228367,1.298062801,-0.323075533,0.22350961,-0.157589689,1.373151541,1.137641549,-1.589694619
3.670004129,0.722412288,0.777160227,-1.412156701,0.529096186,0.263902277,1.07669127,-0.322206259,0.223981693,-0.158233806,1.374320388,1.133876324,-1.587596774
3.67500329,0.603502154,0.729903817,-1.37844348,0.43642965,-0.15225929,0.836803555,-0.312730908,0.229099602,-0.158740625,1.370309353,1.130725265,-1.590919971
3.680003643,0.419764519,0.708512604,-1.325573802,0.291093618,-0.510248184,0.568921983,-0.309589028,0.230796605,-0.15890868,1.361552238,1.128400207,-1.598959565
3.685004711,0.205052525,0.710013986,-1.231942654,0.128600061,-0.781010449,0.309100807,-0.307171613,0.23210232,-0.159037977,1.349116921,1.12692821,-1.610428929
3.69000721,0.036482222,0.720874727,-1.133213997,-0.01903303,-0.979450881,0.073368542,-0.30637002,0.232535288,-0.159080863,1.333964825,1.126249194,-1.624280453
3.695004702,-0.083084568,0.734509826,-1.040490627,-0.138135016,-1.13410902,-0.143188536,-0.3017371,0.23405309,-0.154325351,1.316491604,1.126289845,-1.640110135
3.700002909,-0.136838734,0.746461511,-0.978278458,-0.22612755,-1.276592851,-0.345160961,-0.299207091,0.234849513,-0.151563585,1.29686749,1.126993299,-1.657881737
3.705002069,-0.161481932,0.761490107,-0.921245635,-0.271475077,-1.412776351,-0.534347653,-0.297260433,0.235462308,-0.149438605,1.27519691,1.128267169,-1.677666426
3.710002184,-0.177754954,0.765177786,-0.87063092,-0.281820595,-1.54391098,-0.713656306,-0.296614975,0.2356655,-0.148734003,1.251584053,1.129997253,-1.699564695
3.715003252,-0.148919493,0.746250331,-0.883811355,-0.247286841,-1.70412612,-0.887383521,-0.295378447,0.235447764,-0.143390417,1.22578001,1.132010698,-1.724051952
3.720005274,-0.137508526,0.710992277,-0.847590446,-0.220509708,-1.855174541,-1.049972892,-0.294222355,0.234998345,-0.13677685,1.197958827,1.134195566,-1.751042724
3.725002766,-0.11289683,0.652850091,-0.843484044,-0.19669655,-2.019489765,-1.200312257,-0.293332845,0.234652534,-0.131688163,1.167728066,1.136328697,-1.780883312
3.730006695,-0.074730113,0.582123935,-0.854561865,-0.184850857,-2.201757669,-1.336695194,-0.293037891,0.23453787,-0.130000845,1.13493681,1.138197064,-1.813717604
3.735005856,-0.046615086,0.508507669,-0.858794034,-0.214089334,-2.377644539,-1.463282585,-0.292810977,0.234449655,-0.128702566,1.099508882,1.139666796,-1.849420309
3.74000597,-0.031408623,0.430294693,-0.850431859,-0.28213641,-2.529210091,-1.56945169,-0.292673111,0.231565267,-0.118373781,1.061722755,1.140583634,-1.887517452
