Time,inertial-6253.76535:estCompensatedAccelX,inertial-6253.76535:estCompensatedAccelX:valid,inertial-6253.76535:estCompensatedAccelY,inertial-6253.76535:estCompensatedAccelY:valid,inertial-6253.76535:estCompensatedAccelZ,inertial-6253.76535:estCompensatedAccelZ:valid,inertial-6253.76535:estAngularRateX,inertial-6253.76535:estAngularRateX:valid,inertial-6253.76535:estAngularRateY,inertial-6253.76535:estAngularRateY:valid,inertial-6253.76535:estAngularRateZ,inertial-6253.76535:estAngularRateZ:valid,inertial-6253.76535:estRoll,inertial-6253.76535:estRoll:valid,inertial-6253.76535:estPitch,inertial-6253.76535:estPitch:valid,inertial-6253.76535:estYaw,inertial-6253.76535:estYaw:valid
0,-4.932612419,1,-2.230978489,1,-8.186954498,1,-1.60E-05,1,-0.007908066,1,-0.001718076,1,0.270319611,1,-0.521463811,1,-0.017099932,1
0.004001024,-4.975361347,1,-2.248221874,1,-8.186435699,1,-0.000807389,1,-0.00492317,1,-0.00129974,1,0.270329237,1,-0.521477878,1,-0.017117698,1
0.007997952,-4.989283085,1,-2.213936329,1,-8.155449867,1,0.002069147,1,-0.005634051,1,0.001101083,1,0.270340234,1,-0.521493375,1,-0.017123625,1
0.011996672,-4.977355957,1,-2.245892286,1,-8.193899155,1,0.004222907,1,-0.003084725,1,-0.001179106,1,0.270347357,1,-0.521516562,1,-0.017131357,1
0.015997952,-4.960697174,1,-2.244270086,1,-8.184601784,1,0.002149988,1,-0.003003937,1,-0.00327128,1,0.270362645,1,-0.521532476,1,-0.017135229,1
0.019995391,-4.936099052,1,-2.194498539,1,-8.183182716,1,0.00359732,1,-0.005850253,1,0.001681585,1,0.270378113,1,-0.521547735,1,-0.017146682,1
0.023994112,-4.985424042,1,-2.23542738,1,-8.137804985,1,0.001412187,1,-0.003876797,1,0.001661127,1,0.270397633,1,-0.521557629,1,-0.017157199,1
0.027995136,-4.982526302,1,-2.313597679,1,-8.132352829,1,-0.000661761,1,0.001584195,1,0.000163719,1,0.270397633,1,-0.521557629,1,-0.017157199,1
0.031992063,-4.955003262,1,-2.361559629,1,-8.149338722,1,0.00102774,1,-0.00215711,1,-0.000789282,1,0.270397633,1,-0.521557629,1,-0.017157199,1
0.035991039,-4.95430994,1,-2.267921209,1,-8.196716309,1,-0.001906473,1,-0.000563468,1,0.00149617,1,0.270397633,1,-0.521557629,1,-0.017157199,1
0.039992064,-4.951770306,1,-2.220577717,1,-8.191592216,1,-0.004854132,1,-0.005196652,1,0.003603252,1,0.270397633,1,-0.521557629,1,-0.017157199,1
0.043988992,-4.950033665,1,-2.233800173,1,-8.18399334,1,-0.003872085,1,0.000281777,1,-0.00161001,1,0.270397633,1,-0.521557629,1,-0.017157199,1
0.047988225,-4.96225214,1,-2.260410309,1,-8.163982391,1,-0.001418463,1,-0.000304728,1,0.000768609,1,0.270371318,1,-0.521621227,1,-0.016939348,1
0.051989246,-4.953590393,1,-2.296412945,1,-8.151779175,1,-2.75E-05,1,-0.002443202,1,0.002443401,1,0.270371318,1,-0.521621227,1,-0.016939348,1
0.055986177,-4.976894855,1,-2.260670424,1,-8.178879738,1,-0.005418563,1,-0.003351193,1,0.001530274,1,0.270371318,1,-0.521621227,1,-0.016939348,1
0.059985153,-4.974230766,1,-2.268888235,1,-8.180094719,1,-0.005427072,1,-0.004463777,1,0.005403528,1,0.270371318,1,-0.521621227,1,-0.016939348,1
0.063986175,-4.978252411,1,-2.243068933,1,-8.184035301,1,-0.002791259,1,-0.00247175,1,0.00125772,1,0.270371318,1,-0.521621227,1,-0.016939348,1
0.067983612,-4.951070309,1,-2.22785306,1,-8.189609528,1,0.000565152,1,-0.003518431,1,0.005809099,1,0.270369202,1,-0.521626174,1,-0.016933972,1
0.071988739,-4.973386288,1,-2.215107679,1,-8.161273956,1,-0.003269008,1,-0.006390625,1,0.004021573,1,0.270356625,1,-0.521653175,1,-0.016926203,1
0.07598976,-4.984998226,1,-2.224932909,1,-8.176382065,1,-0.004075062,1,-0.007765863,1,0.000504528,1,0.27034685,1,-0.521678746,1,-0.016923325,1
0.079986945,-4.953959942,1,-2.22853756,1,-8.203742027,1,-0.001981972,1,-0.009242753,1,0.001831644,1,0.270343065,1,-0.521707833,1,-0.016920537,1
0.083985917,-5.003871918,1,-2.21863389,1,-8.202773094,1,-0.003671936,1,-0.008584856,1,-0.002538754,1,0.270336628,1,-0.521739423,1,-0.016916791,1
0.087986946,-4.971493721,1,-2.22675705,1,-8.163927078,1,0.002204789,1,-0.006185069,1,0.003555261,1,0.270340741,1,-0.521764398,1,-0.016920764,1
0.09198413,-4.975646019,1,-2.180327415,1,-8.162929535,1,0.0030213,1,-0.003715931,1,-0.001170181,1,0.270342082,1,-0.521794438,1,-0.016919758,1
0.095983364,-4.984206676,1,-2.23439765,1,-8.195542336,1,-0.001242995,1,-0.003321624,1,0.003719258,1,0.270342559,1,-0.52181232,1,-0.016920485,1
0.099984638,-4.974068165,1,-2.237380505,1,-8.177504539,1,-0.000354829,1,-0.007241289,1,0.003804409,1,0.2703363,1,-0.52183944,1,-0.016910808,1
0.103981823,-4.981896877,1,-2.250101805,1,-8.148298264,1,0.003301214,1,-0.006061797,1,0.005356861,1,0.270341456,1,-0.521860242,1,-0.016912987,1
0.107981056,-4.983320236,1,-2.277762413,1,-8.155513763,1,-0.002193959,1,-0.007528249,1,0.004527636,1,0.270335793,1,-0.521888494,1,-0.016904918,1
0.111982338,-4.970627308,1,-2.284996033,1,-8.169464111,1,-0.002643243,1,-0.002476479,1,0.002589644,1,0.270338982,1,-0.521907806,1,-0.01690482,1
0.115979522,-4.960131645,1,-2.278718948,1,-8.172101974,1,-0.000679096,1,-0.002780659,1,0.000775452,1,0.270334959,1,-0.521925688,1,-0.016908972,1
0.119978756,-4.955265999,1,-2.269186258,1,-8.170975685,1,-0.001033875,1,-0.004837283,1,0.001158324,1,0.270336002,1,-0.521946013,1,-0.01690533,1
0.12398003,-4.942617416,1,-2.236401558,1,-8.204631805,1,-0.001019216,1,-0.00435149,1,0.00559786,1,0.270329505,1,-0.521971583,1,-0.016897848,1
0.127977222,-4.944564342,1,-2.237862587,1,-8.176896095,1,0.000854765,1,-0.006209775,1,-0.000841275,1,0.270336807,1,-0.521996319,1,-0.016896138,1
0.131976455,-4.98094511,1,-2.282071114,1,-8.175225258,1,-0.003228562,1,-0.005920559,1,0.003671132,1,0.270330727,1,-0.522017181,1,-0.016890755,1
0.13597773,-4.949939251,1,-2.255503893,1,-8.159757614,1,0.001630912,1,-0.007366511,1,0.005696564,1,0.270327508,1,-0.522044122,1,-0.01689036,1
0.139975175,-4.953843594,1,-2.181284904,1,-8.136870384,1,0.00095596,1,0.000536655,1,0.002313932,1,0.270327002,1,-0.522062182,1,-0.016890606,1
0.14397414,-5.014346123,1,-2.220713854,1,-8.159058571,1,-0.002931513,1,-0.005454333,1,0.001058015,1,0.270325661,1,-0.52208823,1,-0.016890457,1
0.14797543,-4.981519699,1,-2.257035732,1,-8.177714348,1,0.00676528,1,-0.006565626,1,0.001107335,1,0.270328224,1,-0.522107124,1,-0.016886504,1
0.151973113,-4.9282341,1,-2.232983589,1,-8.170202255,1,0.00129163,1,-0.001254751,1,0.001658369,1,0.270334363,1,-0.522125363,1,-0.016891252,1
0.155972093,-4.99900198,1,-2.294188738,1,-8.18560791,1,0.000559136,1,-0.004152929,1,0.000170946,1,0.270344079,1,-0.52214092,1,-0.016892321,1
0.159973115,-4.982724667,1,-2.259398699,1,-8.161845207,1,0.001169304,1,-0.003812825,1,0.001240381,1,0.270342082,1,-0.522160828,1,-0.016891429,1
0.163970307,-5.00535965,1,-2.236655951,1,-8.187597275,1,0.001866478,1,-0.004080457,1,-1.06E-06,1,0.270353973,1,-0.522179067,1,-0.016902693,1
0.167969286,-4.952399254,1,-2.272002459,1,-8.184030533,1,0.002296319,1,-0.007283189,1,0.001396244,1,0.270352155,1,-0.522189975,1,-0.016902637,1
0.171970308,-4.989174366,1,-2.271796465,1,-8.161599159,1,0.002990993,1,-0.004220549,1,0.001376555,1,0.270352185,1,-0.522206426,1,-0.016901532,1
0.175967485,-4.98608017,1,-2.252295732,1,-8.166884422,1,-0.000175307,1,-0.002326254,1,0.000824805,1,0.270352364,1,-0.522219062,1,-0.016900335,1
0.179966718,-4.991790771,1,-2.239345312,1,-8.193460464,1,-0.00303727,1,-0.000971487,1,0.002488019,1,0.270355493,1,-0.522228301,1,-0.016891928,1
0.183967993,-4.983050346,1,-2.232174635,1,-8.221474648,1,0.00144428,1,-0.003866771,1,0.003769174,1,0.270357132,1,-0.52225244,1,-0.016888715,1
0.187965184,-4.922417164,1,-2.217172623,1,-8.205655098,1,0.002666593,1,-0.001741282,1,-0.00151204,1,0.270359755,1,-0.522267759,1,-0.016881367,1
0.191970304,-4.920943737,1,-2.232828856,1,-8.207933426,1,-0.000376504,1,-0.008681799,1,0.002906823,1,0.270362407,1,-0.52228725,1,-0.016886732,1
0.195971847,-4.983925819,1,-2.213464499,1,-8.138468742,1,-0.000174962,1,-0.004284149,1,0.000921675,1,0.270361513,1,-0.522315621,1,-0.01688185,1
0.199969277,-5.005126953,1,-2.265874863,1,-8.108862877,1,-0.000667253,1,-0.001530483,1,0.003778694,1,0.270363748,1,-0.522335529,1,-0.016884871,1
0.203968257,-4.978523731,1,-2.291454315,1,-8.132579803,1,0.002737233,1,-0.003829889,1,-0.001682055,1,0.270365715,1,-0.522350609,1,-0.016881743,1
0.207969531,-4.939511299,1,-2.253245592,1,-8.159601212,1,0.001185792,1,-0.001815335,1,0.002008948,1,0.270373911,1,-0.52236414,1,-0.016891271,1
0.211966723,-4.930214882,1,-2.227528811,1,-8.191329002,1,0.002488782,1,-0.00221927,1,-0.000296029,1,0.270382464,1,-0.522373736,1,-0.016889447,1
0.21596621,-4.988292694,1,-2.151406765,1,-8.169589043,1,-0.000167391,1,-0.001597449,1,0.001761822,1,0.270385593,1,-0.522392094,1,-0.016895516,1
0.219967484,-4.981871605,1,-2.240436077,1,-8.172798157,1,0.001947258,1,-0.005753939,1,0.001140035,1,0.27039367,1,-0.522404075,1,-0.016896741,1
0.223964676,-4.977441788,1,-2.232255459,1,-8.168466568,1,0.001055399,1,-0.003119768,1,-0.003635095,1,0.270405442,1,-0.522423148,1,-0.016912257,1
0.22796391,-4.93593502,1,-2.241912127,1,-8.175388336,1,-0.000120097,1,-0.003551897,1,0.00143674,1,0.270411372,1,-0.522430897,1,-0.01692014,1
0.231964931,-4.981594086,1,-2.244918585,1,-8.153501511,1,0.001232178,1,-0.004220202,1,-0.00117985,1,0.270422608,1,-0.522448182,1,-0.016930789,1
0.235962108,-4.978386879,1,-2.255316496,1,-8.180077553,1,0.002266213,1,-0.002201025,1,-0.004199991,1,0.270428389,1,-0.522456467,1,-0.016934425,1
0.239961341,-4.980287552,1,-2.20985961,1,-8.175429344,1,0.002950973,1,-0.00507277,1,0.002434868,1,0.270446688,1,-0.522471249,1,-0.016950443,1
0.243962362,-4.946828365,1,-2.238286972,1,-8.167069435,1,0.00174949,1,0.002170111,1,-0.000332479,1,0.270449936,1,-0.522480607,1,-0.016953282,1
0.247959808,-4.976455688,1,-2.22952199,1,-8.141872406,1,0.003681627,1,-0.003436458,1,-0.000966101,1,0.270453513,1,-0.522483051,1,-0.016953049,1
0.251958787,-5.031953812,1,-2.234970808,1,-8.121341705,1,8.69E-05,1,-0.002525386,1,-0.002170244,1,0.270467788,1,-0.522484183,1,-0.016961589,1
0.255959809,-5.011918545,1,-2.235743046,1,-8.173796654,1,0.004135316,1,-0.001614262,1,-0.002813817,1,0.270495325,1,-0.522484422,1,-0.01697872,1
0.259957254,-4.994124413,1,-2.220474482,1,-8.183530807,1,0.007498134,1,0.003426206,1,-0.000746403,1,0.270523667,1,-0.522485018,1,-0.016994666,1
0.263956219,-4.957631588,1,-2.249878883,1,-8.131860733,1,0.007024854,1,-0.002242415,1,-0.003096499,1,0.270556748,1,-0.522482634,1,-0.01700503,1
0.26795724,-5.011705399,1,-2.252580404,1,-8.169056892,1,0.006706294,1,0.001120728,1,-0.004913852,1,0.27058956,1,-0.522482455,1,-0.017024809,1
0.271954417,-4.975522041,1,-2.271472931,1,-8.158189774,1,0.007028517,1,0.000260436,1,-0.001192993,1,0.270618975,1,-0.522480667,1,-0.017045584,1
0.275953412,-4.962428093,1,-2.226533413,1,-8.176885605,1,0.003661584,1,0.003839502,1,-0.005148729,1,0.27065593,1,-0.522482634,1,-0.017060496,1
0.279954702,-4.981793404,1,-2.270467043,1,-8.204961777,1,0.00543638,1,0.002234562,1,-0.002048826,1,0.270681918,1,-0.522474647,1,-0.017080298,1
0.283951879,-4.947697639,1,-2.248609543,1,-8.164923668,1,0.00615226,1,0.000297749,1,-0.00314754,1,0.270710051,1,-0.522473216,1,-0.017084736,1
0.287950844,-4.975604057,1,-2.2662251,1,-8.177280426,1,0.004399229,1,-0.003456931,1,-0.002493672,1,0.270736068,1,-0.522473991,1,-0.017094588,1
0.291951865,-4.997937679,1,-2.275666714,1,-8.184484482,1,0.004772987,1,0.001793808,1,-0.001344827,1,0.270755112,1,-0.522473156,1,-0.017100858,1
0.295949042,-4.966161728,1,-2.29256773,1,-8.147709846,1,0.004624764,1,-0.001827682,1,-0.002813201,1,0.270745903,1,-0.522574306,1,-0.017057316,1
0.299948275,-4.954118729,1,-2.272053957,1,-8.171578407,1,0.001644718,1,-0.003478426,1,-0.001238615,1,0.270756066,1,-0.522538483,1,-0.016901098,1
0.303949565,-4.961479187,1,-2.272676229,1,-8.156188011,1,0.001206872,1,-0.000329395,1,-0.001017427,1,0.270766139,1,-0.522542357,1,-0.016913254,1
0.307946742,-4.985685349,1,-2.275485277,1,-8.191357613,1,0.001680769,1,-0.001864758,1,0.000680309,1,0.270771503,1,-0.522545278,1,-0.016916167,1
0.311951876,-4.991600513,1,-2.277227163,1,-8.142745018,1,0.000958411,1,4.33E-05,1,-0.001037944,1,0.270771563,1,-0.522539735,1,-0.016914669,1
0.315953165,-4.989943027,1,-2.287295341,1,-8.155055046,1,0.000688991,1,0.002239845,1,0.002880511,1,0.270769268,1,-0.522538304,1,-0.016911536,1
0.319950342,-4.982773304,1,-2.236280918,1,-8.16172123,1,0.00337454,1,0.000927809,1,0.000951308,1,0.270771623,1,-0.522536039,1,-0.016902665,1
0.323949307,-4.996845245,1,-2.211701155,1,-8.138034821,1,-0.004118165,1,-0.001595876,1,-0.001157279,1,0.270768017,1,-0.522532761,1,-0.016894206,1
0.327950329,-4.979888439,1,-2.252115726,1,-8.168206215,1,-0.001454934,1,0.002606834,1,0.00103453,1,0.270757496,1,-0.522530079,1,-0.016886078,1
0.331947774,-4.998157501,1,-2.231826305,1,-8.163318634,1,0.001888059,1,0.001186855,1,0.000770545,1,0.270762354,1,-0.522518992,1,-0.016883694,1
0.335946739,-4.962360859,1,-2.234457493,1,-8.158408165,1,0.004887795,1,0.004187222,1,-0.003278154,1,0.270772338,1,-0.522512734,1,-0.016879503,1
0.33994779,-5.002403736,1,-2.193054438,1,-8.159143448,1,0.003841971,1,0.001435261,1,-0.000529619,1,0.270790815,1,-0.522498548,1,-0.016892424,1
0.343944967,-4.971842766,1,-2.203868389,1,-8.156160355,1,0.00650075,1,0.005861004,1,-0.006032556,1,0.270816028,1,-0.522486269,1,-0.016900744,1
0.347943932,-4.973545074,1,-2.228189945,1,-8.142429352,1,0.004778376,1,0.002971283,1,-0.004906405,1,0.270838499,1,-0.522473156,1,-0.016916122,1
0.351944953,-4.963736057,1,-2.219270229,1,-8.177060127,1,0.009068163,1,-0.0002599,1,-0.000279319,1,0.270875335,1,-0.522462726,1,-0.016931785,1
0.35594213,-5.007761002,1,-2.237884045,1,-8.168719292,1,0.009055059,1,0.003082223,1,-0.001119376,1,0.270915359,1,-0.522457242,1,-0.016945571,1
0.359941125,-4.963665009,1,-2.215691566,1,-8.166975975,1,0.011258369,1,-0.001813433,1,-0.008311373,1,0.270950615,1,-0.522449315,1,-0.016964598,1
0.363942146,-4.989325523,1,-2.238863468,1,-8.17691803,1,0.009242412,1,-0.001225763,1,-0.005675426,1,0.270994961,1,-0.522439599,1,-0.016989388,1
0.367939323,-4.95354414,1,-2.250260592,1,-8.175074577,1,0.008959718,1,-0.000866359,1,-0.003411271,1,0.271046579,1,-0.5224365,1,-0.017017856,1
0.371938318,-4.961513519,1,-2.269257069,1,-8.152345657,1,0.007971414,1,0.000225944,1,-0.007310637,1,0.271085262,1,-0.522426903,1,-0.017044395,1
0.375939578,-4.983184338,1,-2.262913704,1,-8.144765854,1,0.009370118,1,0.000956116,1,-0.005415103,1,0.271138787,1,-0.522422016,1,-0.017071489,1
0.379936755,-4.918716908,1,-2.263622999,1,-8.161380768,1,0.007248298,1,-0.000951573,1,-0.006323731,1,0.271192849,1,-0.522421718,1,-0.017096126,1
0.38393575,-4.97224617,1,-2.255089283,1,-8.191261292,1,0.00522039,1,0.002303476,1,-0.003268435,1,0.271230906,1,-0.522413731,1,-0.017115287,1
0.387936771,-4.966524124,1,-2.267583847,1,-8.178972244,1,0.010881953,1,-0.001776586,1,-0.004453365,1,0.271271408,1,-0.522407115,1,-0.017132835,1
0.391933709,-4.944005966,1,-2.267232418,1,-8.148067474,1,0.008651961,1,-0.000194597,1,-0.005293068,1,0.271316856,1,-0.522409499,1,-0.017158465,1
0.395932674,-4.924684525,1,-2.275609016,1,-8.167764664,1,0.004282573,1,-0.007428215,1,-0.004939905,1,0.271358907,1,-0.52241379,1,-0.017175468,1
0.399933696,-4.946472168,1,-2.333997011,1,-8.207633018,1,0.0066734,1,-0.002269624,1,-0.003651853,1,0.271392554,1,-0.522426128,1,-0.017197764,1
0.403930634,-4.945017338,1,-2.339870691,1,-8.177253723,1,-0.000155487,1,-0.004781805,1,-0.001410161,1,0.271421999,1,-0.522429883,1,-0.017213959,1
0.407929599,-4.980850697,1,-2.328875065,1,-8.175478935,1,0.00032115,1,-0.006920672,1,-0.002998878,1,0.271440417,1,-0.522445261,1,-0.017230529,1
0.411930621,-4.950875282,1,-2.295842171,1,-8.192997932,1,-0.000382891,1,-0.004298303,1,0.002474029,1,0.271446317,1,-0.522470593,1,-0.017241713,1
0.415927559,-4.955118656,1,-2.292459726,1,-8.178144455,1,-0.003186814,1,-0.006102202,1,0.000520805,1,0.271446705,1,-0.522489011,1,-0.017241968,1
0.419926792,-4.944013119,1,-2.283884764,1,-8.181968689,1,-0.003359692,1,-0.005967433,1,0.003515705,1,0.271435469,1,-0.522521615,1,-0.017235806,1
0.423927814,-4.982728004,1,-2.289198399,1,-8.161604881,1,-0.004251846,1,-0.010044251,1,0.001331236,1,0.271420121,1,-0.522549093,1,-0.017229697,1
0.427924991,-4.996782303,1,-2.306364775,1,-8.157466888,1,-0.004476596,1,-0.007462511,1,0.000306503,1,0.271405518,1,-0.522582948,1,-0.017235216,1
0.431930363,-4.945757389,1,-2.280128956,1,-8.125823021,1,-0.006720307,1,-0.005919389,1,0.006098886,1,0.271378607,1,-0.522619486,1,-0.017228113,1
0.435931653,-4.970431328,1,-2.275723457,1,-8.151902199,1,-0.002917344,1,-0.006409355,1,0.004600619,1,0.271351069,1,-0.522657335,1,-0.017215526,1
0.439929098,-4.978982925,1,-2.265736103,1,-8.156596184,1,-0.005719627,1,-0.002336598,1,0.005685113,1,0.271322608,1,-0.522678137,1,-0.017194077,1
0.443928063,-5.000959873,1,-2.255874634,1,-8.166510582,1,-0.007620608,1,-0.007100456,1,0.007107479,1,0.271282434,1,-0.522712767,1,-0.017168717,1
0.447929084,-4.989884853,1,-2.248512506,1,-8.155447006,1,-0.006704761,1,-0.0093267,1,0.010599241,1,0.27124396,1,-0.522750974,1,-0.01714368,1
0.451926261,-4.957456589,1,-2.24486351,1,-8.18234539,1,-0.004817759,1,-0.003247,1,0.004794508,1,0.271211952,1,-0.522778153,1,-0.017124996,1
0.455925256,-4.998171806,1,-2.224144459,1,-8.172133446,1,-0.005486267,1,-0.003242347,1,0.005458094,1,0.27118203,1,-0.522806108,1,-0.0171014,1
0.459926516,-4.978394508,1,-2.242288589,1,-8.146800995,1,-0.007893476,1,-0.005131068,1,0.004081977,1,0.271145642,1,-0.52283144,1,-0.017088259,1
0.463923723,-4.982718468,1,-2.234992504,1,-8.151649475,1,-0.005097286,1,-0.005856418,1,0.00492951,1,0.271119297,1,-0.522851765,1,-0.017077606,1
0.467922688,-4.993969917,1,-2.24177599,1,-8.163517952,1,-0.006252274,1,-0.006783043,1,0.003343787,1,0.27109617,1,-0.522886038,1,-0.01706562,1
0.471923709,-4.982614994,1,-2.225870371,1,-8.181786537,1,-0.000519193,1,-0.00471038,1,0.003978692,1,0.27108252,1,-0.522908568,1,-0.017057937,1
0.475920886,-4.968643188,1,-2.234345198,1,-8.137162209,1,-0.000964848,1,-0.008011003,1,0.007679879,1,0.271062583,1,-0.522949636,1,-0.017042309,1
0.479919881,-4.948243141,1,-2.248089314,1,-8.153655052,1,-0.001798196,1,-0.007746995,1,0.001400677,1,0.271044284,1,-0.522979081,1,-0.017033091,1
0.48392114,-4.988597393,1,-2.230171204,1,-8.156337738,1,-0.002572649,1,-0.004317538,1,0.001822335,1,0.27104044,1,-0.523005784,1,-0.017036391,1
0.487918347,-4.976361752,1,-2.221924305,1,-8.172019005,1,-0.001800988,1,-0.008357947,1,0.003237602,1,0.271033674,1,-0.523039639,1,-0.017034655,1
0.49191758,-4.974935532,1,-2.250373125,1,-8.176779747,1,-0.002426479,1,-0.008488544,1,0.000439481,1,0.271019369,1,-0.523066759,1,-0.017032364,1
0.495918602,-4.956347466,1,-2.282438278,1,-8.155163765,1,-0.001741726,1,-0.006023029,1,0.003521155,1,0.271018147,1,-0.523101687,1,-0.017032648,1
0.499915779,-4.987364292,1,-2.276411057,1,-8.155361176,1,-0.002873512,1,-0.012240115,1,0.001364279,1,0.271013141,1,-0.523135126,1,-0.017025273,1
0.503915012,-4.979559422,1,-2.277492046,1,-8.175384521,1,0.000991999,1,-0.005101036,1,9.98E-05,1,0.271010906,1,-0.523169458,1,-0.017030453,1
0.507916033,-4.993562698,1,-2.267698526,1,-8.176532745,1,-0.004111187,1,-0.008096624,1,-0.000251547,1,0.27100566,1,-0.523199797,1,-0.017028611,1
0.511913478,-4.973573685,1,-2.271219254,1,-8.173052788,1,-0.001622015,1,-0.007407635,1,0.004885993,1,0.270986795,1,-0.523234963,1,-0.017020278,1
0.515912712,-4.961063862,1,-2.265932322,1,-8.168824196,1,-0.002313736,1,-0.009183963,1,0.005625048,1,0.270964861,1,-0.523270607,1,-0.017010909,1
0.519913733,-4.957445145,1,-2.318955898,1,-8.148336411,1,-0.007178927,1,-0.004502944,1,0.005752548,1,0.270941079,1,-0.523314297,1,-0.017003521,1
0.523911178,-4.993013382,1,-2.293761492,1,-8.159157753,1,-0.005921309,1,-0.009818355,1,0.006250933,1,0.270909727,1,-0.523349822,1,-0.016988205,1
0.527910411,-5.001838207,1,-2.268488169,1,-8.164777756,1,-0.008540971,1,-0.01107174,1,0.005855317,1,0.27087605,1,-0.523396492,1,-0.01697023,1
0.531911433,-4.952769279,1,-2.306818724,1,-8.132907867,1,-0.010165186,1,-0.010933221,1,0.0068034,1,0.270830125,1,-0.523443818,1,-0.016952427,1
0.535908878,-4.982304096,1,-2.320198298,1,-8.150900841,1,-0.008730741,1,-0.009738144,1,0.009213263,1,0.270785809,1,-0.523492634,1,-0.016933572,1
0.539907813,-4.984997749,1,-2.273354292,1,-8.157526016,1,-0.007822907,1,-0.006366059,1,0.010084063,1,0.270734966,1,-0.523536325,1,-0.016902182,1
0.543909132,-4.970815659,1,-2.24712491,1,-8.179925919,1,-0.008270856,1,-0.010071589,1,0.006972558,1,0.270686328,1,-0.523579717,1,-0.016873561,1
0.54790628,-4.983973026,1,-2.234831095,1,-8.185074806,1,-0.008584867,1,-0.007898583,1,0.006920936,1,0.270619899,1,-0.52368176,1,-0.016649136,1
0.551911414,-4.962881565,1,-2.246696949,1,-8.194909096,1,-0.010072393,1,-0.011759792,1,0.003825835,1,0.270578533,1,-0.523726523,1,-0.016630782,1
0.555912733,-4.988446712,1,-2.194984436,1,-8.164796829,1,-0.010394895,1,-0.007298797,1,0.004390326,1,0.270533442,1,-0.523770988,1,-0.016618252,1
0.55990988,-5.041584492,1,-2.217142105,1,-8.168072701,1,-0.006257956,1,-0.013006675,1,0.009908459,1,0.270494312,1,-0.523823202,1,-0.016595859,1
0.563908875,-4.96228838,1,-2.202403069,1,-8.149376869,1,-0.009699902,1,-0.009550343,1,0.007769847,1,0.270449042,1,-0.523868442,1,-0.016576825,1
0.567910135,-4.969459057,1,-2.210331917,1,-8.164011002,1,-0.005552808,1,-0.007794675,1,0.011324926,1,0.270411372,1,-0.523907542,1,-0.01655486,1
0.571907341,-4.986261845,1,-2.233925104,1,-8.172826767,1,-0.007654405,1,-0.00952254,1,0.006446556,1,0.270371825,1,-0.523955524,1,-0.01652821,1
0.575906277,-4.93260622,1,-2.264278889,1,-8.175060272,1,-0.0045305,1,-0.009412644,1,0.006326114,1,0.270339489,1,-0.523995399,1,-0.016513279,1
0.579907596,-4.995630264,1,-2.239328384,1,-8.15446949,1,-0.00680869,1,-0.014656493,1,0.004859262,1,0.27031213,1,-0.524041951,1,-0.016501036,1
0.583904743,-4.990149975,1,-2.259148836,1,-8.168589592,1,-0.003915636,1,-0.008550637,1,0.009462037,1,0.270278782,1,-0.524092257,1,-0.016488651,1
0.587903976,-4.997637272,1,-2.278555155,1,-8.139215469,1,-0.009827233,1,-0.014252866,1,0.005006474,1,0.270243794,1,-0.524142563,1,-0.016471263,1
0.591904998,-5.002791405,1,-2.208812237,1,-8.139108658,1,-0.008938914,1,-0.006352345,1,0.00748599,1,0.270196497,1,-0.524187446,1,-0.016453011,1
0.595902205,-4.998877048,1,-2.222975969,1,-8.13571167,1,-0.008049467,1,-0.010225459,1,0.00728321,1,0.270157993,1,-0.524237692,1,-0.016433468,1
0.599901199,-5.016147137,1,-2.266290426,1,-8.134375572,1,-0.005712855,1,-0.011359853,1,0.007971407,1,0.270121574,1,-0.52428323,1,-0.016412463,1
0.603902221,-4.999743938,1,-2.185771704,1,-8.126060486,1,-0.006940286,1,-0.005155975,1,0.004019316,1,0.270076632,1,-0.524318635,1,-0.016392261,1
0.607899368,-5.045227528,1,-2.141822577,1,-8.136317253,1,-0.007158034,1,-0.006349532,1,0.001924499,1,0.270047635,1,-0.524354279,1,-0.016387427,1
0.611898363,-5.069579124,1,-2.17422843,1,-8.13401413,1,-0.001984497,1,-0.006479843,1,0.008331144,1,0.270010322,1,-0.524386168,1,-0.016376005,1
0.615899384,-5.044716835,1,-2.302487373,1,-8.095121384,1,-0.005828053,1,-0.002944326,1,0.002553764,1,0.269991785,1,-0.524408758,1,-0.016373195,1
0.619896591,-4.986013889,1,-2.300185204,1,-8.098317146,1,-0.00491814,1,0.000701763,1,0.002450758,1,0.269976199,1,-0.524423778,1,-0.016374089,1
0.623895824,-4.981747627,1,-2.22622633,1,-8.188419342,1,-0.006456333,1,-0.00676958,1,0.000193779,1,0.269949943,1,-0.524444878,1,-0.01636856,1
0.627896845,-4.964711189,1,-2.131326199,1,-8.150632858,1,-0.001728967,1,-0.004456028,1,0.001803155,1,0.269924253,1,-0.524460614,1,-0.016364196,1
0.631893992,-4.9402318,1,-2.144183159,1,-8.154993057,1,-0.001753672,1,-0.003131952,1,0.003454068,1,0.269915938,1,-0.524478972,1,-0.016368369,1
0.635892987,-4.95229578,1,-2.268090963,1,-8.162275314,1,-0.003333794,1,-0.002473909,1,0.003186997,1,0.269897223,1,-0.524497867,1,-0.016366804,1
0.639894247,-4.966062069,1,-2.226702213,1,-8.179548264,1,-0.001666029,1,-0.004209755,1,-0.00209862,1,0.269889146,1,-0.524508655,1,-0.016374631,1
0.643891454,-5.01105547,1,-2.200769901,1,-8.137570381,1,-0.002497342,1,-0.005657631,1,-0.000870266,1,0.269884259,1,-0.524531722,1,-0.016389152,1
0.647890449,-4.984355927,1,-2.235715628,1,-8.199373245,1,-0.001748711,1,-0.00814714,1,0.001398525,1,0.269880295,1,-0.52455771,1,-0.016398814,1
0.651891708,-5.010081291,1,-2.188950539,1,-8.17351532,1,1.28E-05,1,-0.006589385,1,-6.95E-05,1,0.269873351,1,-0.524584949,1,-0.016403064,1
0.655888915,-4.943274498,1,-2.196899176,1,-8.154716492,1,-0.002931641,1,-0.008066935,1,-0.00126646,1,0.269879848,1,-0.524604917,1,-0.016416559,1
0.659888148,-4.970106125,1,-2.252675056,1,-8.1779356,1,-0.000470787,1,-0.008103746,1,-0.001479805,1,0.269889653,1,-0.52463603,1,-0.016438376,1
0.663889408,-4.92261982,1,-2.333778381,1,-8.189388275,1,0.000197667,1,-0.009708178,1,0.001349915,1,0.269899219,1,-0.524672568,1,-0.016450539,1
0.667886853,-4.977397442,1,-2.272718668,1,-8.135680199,1,-0.003505867,1,-0.010261712,1,-0.00086356,1,0.269895166,1,-0.524708986,1,-0.0164633,1
0.671892226,-5.042858124,1,-2.276972532,1,-8.119308472,1,-0.00500319,1,-0.015551424,1,-0.003125156,1,0.269890815,1,-0.524755538,1,-0.016477814,1
0.675893486,-5.007367134,1,-2.352581024,1,-8.152634621,1,-0.004378717,1,-0.006485002,1,0.004551188,1,0.269883692,1,-0.524795294,1,-0.016493706,1
0.679890931,-4.971786976,1,-2.290081263,1,-8.22525692,1,-0.005268205,1,-0.010535387,1,-0.002136314,1,0.269861966,1,-0.524836004,1,-0.016501922,1
0.683890164,-4.997968674,1,-2.224078655,1,-8.145967484,1,-0.009479115,1,-0.00895971,1,0.002607076,1,0.269839376,1,-0.524873435,1,-0.016513681,1
0.687891483,-5.020164013,1,-2.234684467,1,-8.149754524,1,-0.007964419,1,-0.012387195,1,0.004561381,1,0.269809753,1,-0.524917424,1,-0.016513746,1
0.69188863,-5.027160168,1,-2.255649567,1,-8.155400276,1,-0.003249935,1,-0.007091981,1,0.002066813,1,0.269783497,1,-0.524950266,1,-0.016518772,1
0.695887864,-4.98277092,1,-2.20507884,1,-8.134583473,1,-0.011662638,1,-0.010167002,1,0.003455384,1,0.269751847,1,-0.52498889,1,-0.016523927,1
0.699889123,-4.981035709,1,-2.213345051,1,-8.165194511,1,-0.013339431,1,-0.008594995,1,-0.001241496,1,0.269710213,1,-0.525024474,1,-0.016529137,1
0.703886569,-5.010406017,1,-2.237349987,1,-8.158690453,1,-0.009786682,1,-0.006733974,1,0.001269053,1,0.269671381,1,-0.52506125,1,-0.016532628,1
0.707885802,-4.977314472,1,-2.231003284,1,-8.150143623,1,-0.01362069,1,-0.008145031,1,0.00452735,1,0.269623131,1,-0.525086761,1,-0.016524984,1
0.711886823,-5.02738905,1,-2.225730181,1,-8.139743805,1,-0.006700558,1,-0.009883166,1,0.003031464,1,0.269584775,1,-0.52512008,1,-0.01651728,1
0.715884268,-5.015178204,1,-2.229436636,1,-8.131747246,1,-0.010830075,1,-0.006218664,1,0.004574485,1,0.269549847,1,-0.525153756,1,-0.016511122,1
0.719883502,-4.945533752,1,-2.25539875,1,-8.144198418,1,-0.011358426,1,-0.004582207,1,0.004340512,1,0.269509137,1,-0.52516979,1,-0.016504355,1
0.723884821,-4.978229046,1,-2.233082294,1,-8.154396057,1,-0.009800287,1,-0.004294454,1,0.002485264,1,0.269467473,1,-0.525188565,1,-0.016492955,1
0.727882266,-5.048675537,1,-2.205855846,1,-8.166499138,1,-0.009307743,1,-0.00657542,1,0.00251396,1,0.269425094,1,-0.525217235,1,-0.016485995,1
0.731881499,-5.020658016,1,-2.214066744,1,-8.146430969,1,-0.010392146,1,-0.001755163,1,-0.000160552,1,0.269380778,1,-0.52523762,1,-0.016473347,1
0.735882759,-5.028026581,1,-2.191940308,1,-8.133934021,1,-0.009529871,1,-0.003654682,1,0.004331593,1,0.269341469,1,-0.525251865,1,-0.016464701,1
0.739880204,-5.021326065,1,-2.161986828,1,-8.130659103,1,-0.007634507,1,-0.001619977,1,0.001758409,1,0.269304007,1,-0.525264919,1,-0.016461767,1
0.743879437,-5.017668247,1,-2.15964818,1,-8.142670631,1,-0.006135325,1,-0.003645414,1,0.003478612,1,0.269276917,1,-0.52527535,1,-0.016457243,1
0.747880697,-5.011361122,1,-2.192098856,1,-8.112370491,1,-0.004344093,1,-0.002282968,1,0.001188905,1,0.269250005,1,-0.52529037,1,-0.016450681,1
0.751878142,-5.019677162,1,-2.235291481,1,-8.143712044,1,-0.003530346,1,-0.003938127,1,0.001889335,1,0.269226193,1,-0.525298893,1,-0.016438875,1
0.755877376,-5.009786606,1,-2.240132332,1,-8.135757446,1,-0.004924919,1,0.002946803,1,0.002755764,1,0.269204825,1,-0.525307119,1,-0.016425584,1
0.759878635,-5.007052422,1,-2.261041164,1,-8.120334625,1,-0.005108076,1,-8.05E-05,1,0.002333067,1,0.269178092,1,-0.525310397,1,-0.016419722,1
0.763876081,-4.99567318,1,-2.278043985,1,-8.128115654,1,-0.005791535,1,-0.000182549,1,0.005945118,1,0.269141734,1,-0.525309563,1,-0.016393362,1
0.767875314,-5.004037857,1,-2.261645079,1,-8.156318665,1,-0.006555386,1,-0.000321341,1,0.004144612,1,0.269109428,1,-0.525314867,1,-0.016377926,1
0.771876633,-5.015621662,1,-2.263260603,1,-8.169772148,1,-0.004852707,1,0.00175986,1,0.004299161,1,0.26907602,1,-0.525318861,1,-0.016359877,1
0.77587378,-5.001554489,1,-2.232491732,1,-8.141634941,1,-0.009771878,1,0.002286009,1,0.007146911,1,0.269040525,1,-0.525316,1,-0.016346568,1
0.779873013,-5.008385181,1,-2.245968819,1,-8.195941925,1,-0.009491629,1,-0.001926413,1,0.00569769,1,0.268985659,1,-0.525323093,1,-0.016310677,1
0.783874035,-4.965556145,1,-2.242485046,1,-8.154471397,1,-0.009467242,1,0.000508633,1,0.003985235,1,0.268943429,1,-0.525323272,1,-0.016294517,1
0.78787148,-5.002040386,1,-2.241611958,1,-8.152157784,1,-0.009383016,1,0.002307453,1,0.004863843,1,0.268895388,1,-0.525320828,1,-0.016267121,1
0.791870713,-4.984392643,1,-2.201986313,1,-8.181682587,1,-0.006307364,1,0.000813254,1,0.005018934,1,0.268850237,1,-0.525325656,1,-0.016250376,1
0.795877874,-4.997337818,1,-2.260984659,1,-8.179166794,1,-0.013013322,1,0.003922914,1,0.004663895,1,0.268768102,1,-0.525440514,1,-0.016168138,1
0.79988122,-4.999138832,1,-2.244603872,1,-8.208080292,1,-0.010210076,1,0.000344435,1,0.006511195,1,0.268716156,1,-0.525401413,1,-0.01597815,1
0.803880453,-5.006940365,1,-2.213277817,1,-8.161327362,1,-0.006385181,1,-0.002578052,1,0.006325518,1,0.268666714,1,-0.525413454,1,-0.015950553,1
0.807881474,-5.005435467,1,-2.22689414,1,-8.151117325,1,-0.007186452,1,-0.001269639,1,0.004114401,1,0.268621415,1,-0.525415838,1,-0.015927797,1
0.81187892,-5.009403229,1,-2.221705437,1,-8.154566765,1,-0.01229787,1,-0.002204302,1,0.008836081,1,0.268567711,1,-0.525428414,1,-0.01589953,1
0.815878153,-4.997576714,1,-2.226813316,1,-8.1743536,1,-0.009186236,1,0.001947917,1,0.006105057,1,0.268514067,1,-0.525436223,1,-0.015870966,1
0.819879413,-5.000602245,1,-2.229832172,1,-8.139594078,1,-0.008329962,1,-0.004437238,1,0.005418149,1,0.268463284,1,-0.525452137,1,-0.015840175,1
0.823876858,-4.998589993,1,-2.257707596,1,-8.184799194,1,-0.008115053,1,0.001098923,1,0.006590873,1,0.268417358,1,-0.52546984,1,-0.015818482,1
0.827875853,-5.010484695,1,-2.24805212,1,-8.157945633,1,-0.012085543,1,-0.004864619,1,0.004270133,1,0.26836729,1,-0.525492966,1,-0.015778432,1
0.831877112,-5.047174454,1,-2.192850113,1,-8.171236038,1,-0.009744491,1,-0.002821424,1,0.009306615,1,0.268310457,1,-0.525516093,1,-0.015749374,1
0.835874557,-4.985090256,1,-2.212700129,1,-8.178126335,1,-0.007335042,1,-0.001222793,1,0.01081292,1,0.268252701,1,-0.525530934,1,-0.015706215,1
0.839873552,-4.990982056,1,-2.204071999,1,-8.139925003,1,-0.006787783,1,-0.001307689,1,0.008196918,1,0.268197984,1,-0.525554359,1,-0.015668137,1
0.843874812,-4.989670277,1,-2.222197294,1,-8.145438194,1,-0.00978499,1,-0.006127044,1,0.007729026,1,0.268150926,1,-0.525571585,1,-0.015632959,1
0.847872257,-4.990007401,1,-2.210553885,1,-8.143369675,1,-0.00614081,1,0.000264509,1,0.008011436,1,0.268105924,1,-0.525589645,1,-0.015607143,1
0.85187149,-4.880209923,1,-2.207537889,1,-8.050652504,1,-0.006642892,1,-0.002214175,1,0.004042367,1,0.26806137,1,-0.525595605,1,-0.015576882,1
0.85587275,-5.12712574,1,-2.142222166,1,-8.115322113,1,0.003536673,1,0.002962289,1,0.003275062,1,0.268051624,1,-0.525592685,1,-0.015551892,1
0.859870195,-5.091261387,1,-2.116541624,1,-8.237849236,1,0.00307258,1,0.002682409,1,0.007663308,1,0.268059134,1,-0.525587261,1,-0.015525111,1
0.863869429,-5.028357506,1,-2.180866957,1,-8.173324585,1,4.38E-05,1,0.001862795,1,0.000170896,1,0.268044382,1,-0.525586784,1,-0.015510431,1
0.867870986,-4.913691521,1,-2.262365341,1,-8.148220062,1,-0.001294866,1,0.000675438,1,0.004349672,1,0.268027574,1,-0.525581837,1,-0.015504029,1
0.87186867,-5.041478157,1,-2.309947252,1,-8.176423073,1,-0.00398686,1,0.004796368,1,0.005390211,1,0.268004537,1,-0.525571942,1,-0.015474771,1
0.875867903,-4.998746872,1,-2.292710543,1,-8.135282516,1,-0.00674419,1,0.003603412,1,0.00175618,1,0.267972529,1,-0.525567949,1,-0.01545783,1
0.879869163,-5.01052618,1,-2.22054863,1,-8.156386375,1,-0.004265721,1,0.003470222,1,0.006665911,1,0.267940938,1,-0.525564969,1,-0.015434159,1
0.883866608,-5.00965929,1,-2.168602467,1,-8.153477669,1,-0.014301466,1,0.001347041,1,0.006924845,1,0.267889619,1,-0.525564909,1,-0.015404228,1
0.887865603,-5.010567665,1,-2.152186871,1,-8.150179863,1,-0.005744316,1,0.002320752,1,0.003968725,1,0.267849177,1,-0.525560856,1,-0.015381079,1
0.891866624,-4.987738609,1,-2.169461966,1,-8.149148941,1,-0.002769421,1,0.003694639,1,0.004011432,1,0.267821103,1,-0.525546968,1,-0.015364644,1
0.895864069,-5.031398773,1,-2.201303482,1,-8.17206955,1,-0.004136111,1,0.003516112,1,0.003118246,1,0.26779151,1,-0.525538623,1,-0.015334587,1
0.899863064,-5.00266695,1,-2.230377436,1,-8.14365387,1,-0.003064114,1,0.002375958,1,0.004089576,1,0.267768949,1,-0.525533974,1,-0.015320249,1
0.903864086,-4.985615253,1,-2.237653255,1,-8.152509689,1,-0.005200121,1,0.000116291,1,0.00246815,1,0.267740756,1,-0.525525272,1,-0.015302621,1
0.907861531,-4.967899323,1,-2.245794058,1,-8.140433311,1,-0.003785947,1,0.004217836,1,0.002326128,1,0.267714262,1,-0.52551496,1,-0.015286502,1
0.911860764,-4.98879528,1,-2.267286062,1,-8.145669937,1,-0.000840633,1,-0.000945925,1,0.00178833,1,0.267698199,1,-0.525504768,1,-0.015272266,1
0.915867925,-4.972782612,1,-2.207113266,1,-8.200250626,1,-0.004782221,1,0.002369945,1,0.006369763,1,0.267676115,1,-0.525499046,1,-0.015252544,1
0.919871211,-5.026344776,1,-2.221019268,1,-8.170481682,1,-0.006187832,1,0.001835807,1,0.005207903,1,0.267652899,1,-0.525486231,1,-0.015232153,1
0.923870444,-4.987026691,1,-2.195618391,1,-8.156714439,1,-0.001571866,1,0.003068339,1,0.001152326,1,0.267632186,1,-0.525475144,1,-0.015216837,1
0.927871466,-4.992093086,1,-2.207818985,1,-8.158662796,1,-0.003259258,1,0.001744303,1,0.004685216,1,0.267610669,1,-0.525466621,1,-0.015191674,1
0.931868672,-4.982955456,1,-2.219644547,1,-8.2093153,1,-0.000351407,1,0.001271174,1,0.000833171,1,0.267597795,1,-0.525462151,1,-0.015180671,1
0.935867667,-4.98799324,1,-2.242259741,1,-8.15034008,1,0.000506406,1,0.000515957,1,0.003691655,1,0.267583847,1,-0.525461495,1,-0.015170207,1
0.939868927,-4.999001503,1,-2.255634308,1,-8.182164192,1,-0.004340416,1,0.002695098,1,0.001827362,1,0.267567605,1,-0.525454462,1,-0.015155821,1
0.943866134,-4.981782436,1,-2.240803957,1,-8.138775826,1,-0.004283729,1,0.003519663,1,0.00181075,1,0.267544091,1,-0.52544862,1,-0.015149619,1
0.947865367,-5.009591103,1,-2.247714043,1,-8.153085709,1,-0.001455432,1,1.28E-05,1,0.002882308,1,0.267522693,1,-0.525446713,1,-0.015134869,1
0.951866627,-4.953885555,1,-2.220525503,1,-8.165043831,1,0.002316542,1,0.003542141,1,0.002411897,1,0.267512649,1,-0.525446832,1,-0.015131047,1
0.955863833,-4.979899406,1,-2.170357227,1,-8.171572685,1,-0.00124374,1,0.002147462,1,-2.87E-05,1,0.267500132,1,-0.525445759,1,-0.015128016,1
0.959862769,-4.99936533,1,-2.134382725,1,-8.17043972,1,-0.001525301,1,-0.000780279,1,0.001168407,1,0.267485291,1,-0.525445998,1,-0.015124332,1
0.96386379,-4.996079445,1,-2.163240433,1,-8.170148849,1,0.003685535,1,-0.000801506,1,0.000610576,1,0.267488092,1,-0.52545023,1,-0.015123544,1
0.967860758,-5.017117023,1,-2.203716993,1,-8.16039753,1,-0.000823303,1,0.001075467,1,-0.001609794,1,0.26748684,1,-0.525441349,1,-0.015128898,1
0.971859992,-5.007293224,1,-2.25064683,1,-8.139788628,1,-0.001815074,1,-0.000968107,1,0.001853265,1,0.267483711,1,-0.525444984,1,-0.015132898,1
0.975861013,-5.026141167,1,-2.270709276,1,-8.125868797,1,-0.001159421,1,0.001851274,1,0.001432893,1,0.267477095,1,-0.525440156,1,-0.015130465,1
0.97985816,-5.036518097,1,-2.276319981,1,-8.144360542,1,-0.001948439,1,-0.001600619,1,-0.00065771,1,0.267470419,1,-0.525441527,1,-0.015130918,1
0.983857393,-5.02980566,1,-2.279085398,1,-8.129588127,1,-0.006173901,1,-0.001187968,1,0.001148573,1,0.267453462,1,-0.52543658,1,-0.015136015,1
0.987858415,-4.985601902,1,-2.261432171,1,-8.13712883,1,-0.005036995,1,0.003278678,1,0.002272588,1,0.267421871,1,-0.525432706,1,-0.01511772,1
0.99185586,-4.988431931,1,-2.215840816,1,-8.1616745,1,-0.004905293,1,0.00424866,1,0.00048347,1,0.267394483,1,-0.525424838,1,-0.015101373,1
0.995855093,-4.957600594,1,-2.181890011,1,-8.171525002,1,-0.006306472,1,0.000588354,1,0.001360778,1,0.267372072,1,-0.525421739,1,-0.015087632,1
0.999856114,-5.016180038,1,-2.175069332,1,-8.159223557,1,-0.003181414,1,0.00355962,1,0.002724835,1,0.267339945,1,-0.525411725,1,-0.015064703,1
1.003853321,-5.026771545,1,-2.230947495,1,-8.171751022,1,-0.007837623,1,0.001680119,1,-0.000632584,1,0.267315954,1,-0.525408089,1,-0.015051822,1
1.007852554,-4.993638039,1,-2.23068881,1,-8.208921432,1,-0.004426801,1,0.004832398,1,0.008806866,1,0.267288595,1,-0.52540499,1,-0.015038606,1
1.011853814,-4.978343964,1,-2.238730192,1,-8.175948143,1,-0.006495879,1,-0.001027248,1,0.003056043,1,0.267259091,1,-0.525405467,1,-0.015008634,1
1.015851021,-4.988090992,1,-2.209181547,1,-8.196249008,1,-0.004841652,1,-0.000954848,1,0.004215671,1,0.267232209,1,-0.525408685,1,-0.014993818,1
1.019850016,-4.994726181,1,-2.195967197,1,-8.198483467,1,-0.002731871,1,0.000490244,1,0.004167647,1,0.267209679,1,-0.525412977,1,-0.014981411,1
1.023851275,-5.041301727,1,-2.216623068,1,-8.161005974,1,-0.004283128,1,-0.000759113,1,0.002999483,1,0.267187625,1,-0.525419772,1,-0.014958469,1
1.027848721,-5.025866508,1,-2.243297338,1,-8.146244049,1,-0.005246782,1,-0.00243353,1,0.004514232,1,0.267163992,1,-0.52542299,1,-0.014947272,1
1.031847954,-5.017397404,1,-2.208767176,1,-8.183372498,1,-0.000277569,1,0.000559211,1,0.00109387,1,0.267148882,1,-0.52543062,1,-0.014935081,1
1.035855055,-5.017105579,1,-2.292486668,1,-8.17375946,1,-0.001054637,1,-0.00344547,1,0.006007813,1,0.267127186,1,-0.525433958,1,-0.014921128,1
1.039858222,-5.038498878,1,-2.296094894,1,-8.163009644,1,-0.00414528,1,0.000150054,1,0.004093742,1,0.267102003,1,-0.525445282,1,-0.014898204,1
1.043857455,-4.974622726,1,-2.230844975,1,-8.149487495,1,-0.003911171,1,-0.001454425,1,0.00534664,1,0.267074078,1,-0.525455415,1,-0.014877773,1
1.047858715,-4.970003605,1,-2.222224951,1,-8.158232689,1,-0.001744114,1,0.000681096,1,0.001489487,1,0.267020464,1,-0.525530517,1,-0.01465506,1
1.051855922,-4.984852791,1,-2.231192589,1,-8.149230003,1,-0.005551717,1,-0.002796294,1,0.004356039,1,0.266996741,1,-0.525543332,1,-0.014642341,1
1.055855155,-4.985599518,1,-2.228512049,1,-8.149828911,1,-0.007959746,1,0.00029114,1,0.004369741,1,0.26695928,1,-0.525548577,1,-0.014617862,1
1.059856176,-4.965181828,1,-2.27542448,1,-8.141550064,1,-0.005582764,1,-0.003052712,1,0.002535225,1,0.266928613,1,-0.525559008,1,-0.014600047,1
1.063853264,-4.976103783,1,-2.260367155,1,-8.166976929,1,-0.00986198,1,-0.001615379,1,0.003949829,1,0.26689589,1,-0.525567949,1,-0.014579208,1
1.067852497,-5.003798485,1,-2.272958994,1,-8.151330948,1,-0.004986737,1,-0.003313841,1,0.007481908,1,0.266855568,1,-0.525580287,1,-0.014563119,1
1.071853876,-4.934751511,1,-2.213076353,1,-8.21846962,1,-0.011263067,1,-0.003542542,1,0.009054838,1,0.266801476,1,-0.525598764,1,-0.014529271,1
1.075851321,-4.968772888,1,-2.121161699,1,-8.199727058,1,-0.007164092,1,-0.001541537,1,0.004780264,1,0.266753763,1,-0.525612056,1,-0.014504353,1
1.079850554,-5.017961979,1,-2.154042244,1,-8.160140038,1,-0.00671023,1,-0.000824531,1,0.00926858,1,0.266715139,1,-0.525631845,1,-0.014478263,1
1.083851814,-5.03267765,1,-2.201801062,1,-8.150541306,1,-0.006993996,1,-0.004314747,1,0.004073217,1,0.266672403,1,-0.525645196,1,-0.014452845,1
1.087849259,-5.016657352,1,-2.245000124,1,-8.156792641,1,0.001614546,1,-0.00423424,1,0.001886648,1,0.266656637,1,-0.525671422,1,-0.014445176,1
1.091848493,-5.020240784,1,-2.16648078,1,-8.154604912,1,-0.000120744,1,-0.00312858,1,0.000669354,1,0.266649812,1,-0.525690734,1,-0.014441039,1
1.095849752,-4.997643948,1,-2.199590206,1,-8.157892227,1,-0.004208199,1,-0.000365086,1,0.00049705,1,0.266630739,1,-0.525708079,1,-0.014433379,1
1.099847198,-5.014873028,1,-2.229225874,1,-8.180229187,1,-0.005562698,1,-0.006679249,1,0.002730121,1,0.266619146,1,-0.525728166,1,-0.014431057,1
1.103846192,-5.001008034,1,-2.218034744,1,-8.133282661,1,-0.003479928,1,-0.002133907,1,0.004988893,1,0.266593158,1,-0.525749624,1,-0.014420989,1
1.107847452,-5.00516367,1,-2.224344254,1,-8.128746986,1,-0.002682042,1,-0.002003969,1,0.004682886,1,0.266574055,1,-0.525760055,1,-0.014415889,1
1.111844897,-5.005780697,1,-2.174027443,1,-8.184631348,1,-0.008615889,1,-0.002078842,1,0.003995388,1,0.266552657,1,-0.525771976,1,-0.01439785,1
1.115843892,-4.989826679,1,-2.136038065,1,-8.150191307,1,-0.002806934,1,-3.85E-05,1,0.002900154,1,0.266522914,1,-0.525785267,1,-0.014383185,1
1.119845152,-5.010639191,1,-2.168242693,1,-8.152466774,1,-0.00145424,1,-0.003610533,1,-0.001535011,1,0.26650995,1,-0.525797844,1,-0.014374762,1
1.123842597,-5.032217503,1,-2.192626238,1,-8.151494026,1,-0.00299801,1,0.00100131,1,0.003173283,1,0.266502738,1,-0.525805593,1,-0.014372012,1
1.127842069,-5.02761364,1,-2.225694895,1,-8.151003838,1,-8.71E-05,1,-0.001158734,1,0.002391251,1,0.26648286,1,-0.52581048,1,-0.014364241,1
1.131843567,-5.021160603,1,-2.21043396,1,-8.150427818,1,-0.003248181,1,-0.002657744,1,0.000261692,1,0.266472518,1,-0.525817692,1,-0.014356473,1
1.13584125,-5.025386333,1,-2.254958868,1,-8.144491196,1,-0.006024064,1,0.000271829,1,0.003001515,1,0.266452551,1,-0.525815129,1,-0.014355152,1
1.139840484,-5.029497623,1,-2.205974102,1,-8.15897274,1,-0.001178447,1,0.003384827,1,0.001533756,1,0.266433984,1,-0.525813162,1,-0.014340562,1
1.143841743,-4.990622044,1,-2.226402283,1,-8.148277283,1,-0.00522723,1,0.001683975,1,0.004057146,1,0.266418815,1,-0.525806785,1,-0.014332526,1
1.147839189,-5.015815735,1,-2.184228182,1,-8.161683083,1,-0.002004276,1,0.002100096,1,0.00141059,1,0.266400456,1,-0.525807381,1,-0.01432463,1
1.151838422,-5.030917645,1,-2.202811241,1,-8.139253616,1,-0.001773918,1,0.003037365,1,0.001772873,1,0.266391069,1,-0.525805831,1,-0.014323073,1
1.155845642,-5.037210464,1,-2.186884165,1,-8.150524139,1,-0.000510981,1,0.003649434,1,0.000473395,1,0.26638335,1,-0.525803328,1,-0.014313579,1
1.159849167,-5.013617039,1,-2.164443254,1,-8.145041466,1,-0.003080721,1,-0.001267174,1,-0.001013679,1,0.266380876,1,-0.525790393,1,-0.014316279,1
1.163848758,-5.022987366,1,-2.16661191,1,-8.164908409,1,0.003358909,1,0.008045143,1,0.000519713,1,0.266382039,1,-0.525778651,1,-0.014315052,1
1.167849779,-4.978814602,1,-2.179852247,1,-8.143836021,1,-0.000796603,1,0.003556743,1,-0.003764341,1,0.26637578,1,-0.525760591,1,-0.014314314,1
1.171847224,-4.980527878,1,-2.155817747,1,-8.13487339,1,0.000820855,1,0.003951333,1,-0.004598835,1,0.266379595,1,-0.525737345,1,-0.014316699,1
1.1758461,-5.012588501,1,-2.206049204,1,-8.154510498,1,0.002052462,1,0.006646533,1,-0.000781493,1,0.266386986,1,-0.525710404,1,-0.01432092,1
1.179847121,-5.024727821,1,-2.171818733,1,-8.153488159,1,0.003978645,1,0.002834048,1,-0.000137073,1,0.266399026,1,-0.525693417,1,-0.014320143,1
1.183844566,-4.99367094,1,-2.219518185,1,-8.147879601,1,0.003660174,1,0.004915549,1,-0.007198565,1,0.266415179,1,-0.525657237,1,-0.014325731,1
1.187843561,-5.028544903,1,-2.232159138,1,-8.156284332,1,0.001114987,1,0.007181968,1,-0.000626028,1,0.266427994,1,-0.525631487,1,-0.014335238,1
1.191844821,-4.975086689,1,-2.210343122,1,-8.161860466,1,0.005760654,1,0.008533123,1,-0.002174003,1,0.266441524,1,-0.52560401,1,-0.014339598,1
1.195842028,-4.980919838,1,-2.184537172,1,-8.160794258,1,0.002749855,1,0.006606011,1,-0.006612889,1,0.266462684,1,-0.525565267,1,-0.014346505,1
1.199841022,-5.002869129,1,-2.203643799,1,-8.185556412,1,0.003108953,1,0.007630683,1,-0.005627716,1,0.266475946,1,-0.525530338,1,-0.014359082,1
1.203842282,-5.035324097,1,-2.215943336,1,-8.147033691,1,0.00374723,1,0.008088735,1,-0.001807644,1,0.266486585,1,-0.525502622,1,-0.014368549,1
1.207839489,-5.026409626,1,-2.260887146,1,-8.14292717,1,0.002375544,1,0.006420454,1,-0.006615088,1,0.266509414,1,-0.525469482,1,-0.014383203,1
1.211838484,-5.023866177,1,-2.239849329,1,-8.149620056,1,0.002156,1,0.010244752,1,-0.007186691,1,0.266531199,1,-0.525429964,1,-0.014389725,1
1.215839505,-5.007086277,1,-2.192692518,1,-8.155569077,1,0.003655433,1,0.007386193,1,-0.003698243,1,0.266553968,1,-0.525390983,1,-0.014404171,1
1.219836712,-4.955917358,1,-2.139718771,1,-8.162419319,1,0.004870801,1,0.010583807,1,-0.006043613,1,0.266591191,1,-0.525354385,1,-0.014418329,1
1.223835945,-4.977256298,1,-2.199928045,1,-8.180953979,1,0.005791617,1,0.005797374,1,-0.005897649,1,0.266627312,1,-0.525321186,1,-0.01444342,1
1.227837205,-4.983293056,1,-2.232400894,1,-8.177792549,1,0.007614083,1,0.002374119,1,-0.007402549,1,0.266671717,1,-0.525296271,1,-0.014466921,1
1.231834412,-5.001434326,1,-2.298747063,1,-8.152647018,1,0.003167372,1,0.00615871,1,-0.000958838,1,0.266706735,1,-0.52527231,1,-0.014488373,1
1.235833287,-4.956793308,1,-2.313100576,1,-8.218717575,1,0.004356499,1,0.004916869,1,-0.004955848,1,0.266737014,1,-0.52524364,1,-0.014510359,1
1.239834309,-4.974534512,1,-2.26792407,1,-8.185711861,1,-0.002186134,1,1.96E-05,1,0.002747384,1,0.266749144,1,-0.525224984,1,-0.014513622,1
1.243831277,-4.944229126,1,-2.191124916,1,-8.207011223,1,-0.000247515,1,-0.000850488,1,-0.001310727,1,0.26675868,1,-0.525212109,1,-0.014512977,1
1.24783051,-4.997115612,1,-2.265885115,1,-8.19728756,1,-0.000682045,1,0.001625402,1,-0.000273574,1,0.266753823,1,-0.525207281,1,-0.014516197,1
1.25183177,-4.997777939,1,-2.240874767,1,-8.153486252,1,-0.000198296,1,0.000664611,1,-0.001521406,1,0.266748607,1,-0.525198936,1,-0.014515038,1
1.255829215,-5.009400368,1,-2.245617628,1,-8.152066231,1,0.001256179,1,-0.000348896,1,-0.001855789,1,0.26674372,1,-0.525196254,1,-0.014518118,1
1.259828448,-4.986537457,1,-2.244892836,1,-8.158987999,1,-0.003894133,1,-0.002877328,1,0.001278271,1,0.266744137,1,-0.525192976,1,-0.014520567,1
1.26382947,-4.995540619,1,-2.19350338,1,-8.194454193,1,0.001454202,1,-3.20E-05,1,0.001673634,1,0.266732872,1,-0.525195062,1,-0.014515691,1
1.267826676,-4.984007835,1,-2.193045616,1,-8.177790642,1,0.000169519,1,8.85E-06,1,0.001491999,1,0.266727448,1,-0.525197804,1,-0.014502415,1
1.27182591,-5.025105953,1,-2.198248386,1,-8.13894558,1,-0.004903682,1,-0.000479579,1,0.002356956,1,0.266720086,1,-0.525196254,1,-0.014506782,1
1.275832891,-5.018630028,1,-2.188446999,1,-8.155707359,1,0.001529408,1,0.000361829,1,-0.000674638,1,0.26672101,1,-0.525196552,1,-0.01450558,1
1.279836178,-5.019903183,1,-2.194520473,1,-8.163608551,1,-0.000333843,1,-0.001458282,1,0.003475234,1,0.266720325,1,-0.525206268,1,-0.014507481,1
1.283835411,-5.017494202,1,-2.219977379,1,-8.154856682,1,0.001061494,1,0.00055207,1,-0.000719126,1,0.266726255,1,-0.525205433,1,-0.014508334,1
1.287836671,-4.995635033,1,-2.175933599,1,-8.152704239,1,0.000339839,1,0.003002245,1,-0.003698271,1,0.266729891,1,-0.525209486,1,-0.014512287,1
1.291833878,-5.009251595,1,-2.175415516,1,-8.171806335,1,0.004987221,1,0.002191508,1,-0.000804115,1,0.266746491,1,-0.525203943,1,-0.014519014,1
1.295832872,-4.965631485,1,-2.195057392,1,-8.168891907,1,-0.000374889,1,-0.002626006,1,-0.002610063,1,0.26673615,1,-0.52531147,1,-0.014469332,1
1.299834132,-5.020235062,1,-2.201938629,1,-8.170696259,1,0.005431774,1,0.004318574,1,-0.001673007,1,0.266743153,1,-0.525276244,1,-0.014311243,1
1.303831339,-5.012096405,1,-2.228892803,1,-8.171936035,1,0.000196901,1,-0.000772946,1,-0.001795927,1,0.266764313,1,-0.525265634,1,-0.014321463,1
1.307830215,-4.972800255,1,-2.197842598,1,-8.14083004,1,0.003823257,1,0.003596077,1,-0.001795399,1,0.266777515,1,-0.525259614,1,-0.014335279,1
1.311831355,-4.993013859,1,-2.208757162,1,-8.161902428,1,0.004895263,1,0.001105793,1,-0.001942382,1,0.266794711,1,-0.525259554,1,-0.014341064,1
1.315828443,-4.979287148,1,-2.208282948,1,-8.150437355,1,0.006547417,1,-0.002539473,1,-0.004291744,1,0.266825229,1,-0.525262892,1,-0.014358512,1
1.319827676,-4.968026638,1,-2.221956491,1,-8.17510891,1,0.00276604,1,0.002522159,1,-0.00063114,1,0.266848266,1,-0.525253296,1,-0.014367501,1
1.323828936,-4.995949268,1,-2.204309702,1,-8.130119324,1,9.03E-05,1,0.00226962,1,-0.005056509,1,0.266863555,1,-0.525244415,1,-0.014380604,1
1.327826142,-4.780554295,1,-2.221833229,1,-8.011293411,1,0.013678431,1,0.005825842,1,-0.005713149,1,0.266889513,1,-0.525241792,1,-0.014394026,1
1.331825376,-5.162831306,1,-2.133798599,1,-8.218399048,1,0.014244842,1,0.002584995,1,-0.004936373,1,0.266962796,1,-0.525214732,1,-0.01440629,1
1.335826397,-5.044820309,1,-2.061888695,1,-8.277947426,1,0.007116572,1,0.002713697,1,-0.006469953,1,0.267017454,1,-0.525198221,1,-0.014422829,1
1.339823365,-4.975792885,1,-2.163169384,1,-8.118546486,1,0.002730161,1,0.003298254,1,-0.007878478,1,0.267049462,1,-0.52518189,1,-0.014446202,1
1.343822598,-4.959027767,1,-2.285871506,1,-8.117773056,1,0.009517998,1,0.002885208,1,-0.008322738,1,0.267100275,1,-0.525165141,1,-0.014478604,1
1.347823858,-5.033297539,1,-2.301259756,1,-8.164777756,1,0.002513856,1,0.001811018,1,-0.005539271,1,0.267137975,1,-0.525147676,1,-0.014502912,1
1.351821303,-5.001666546,1,-2.24735117,1,-8.113530159,1,0.002089962,1,0.006707897,1,-0.003686269,1,0.267158508,1,-0.525123775,1,-0.014523467,1
1.355820298,-4.983325005,1,-2.180622101,1,-8.138874054,1,0.002271933,1,0.010252775,1,-0.008184117,1,0.26718086,1,-0.525092602,1,-0.014543225,1
1.359821558,-5.058022976,1,-2.181596994,1,-8.122611046,1,0.001751403,1,0.008698673,1,-0.002940351,1,0.267186761,1,-0.525054693,1,-0.014549948,1
1.363819003,-5.009761333,1,-2.208052874,1,-8.096722603,1,0.006248926,1,0.009604157,1,-0.008684488,1,0.2672126,1,-0.525013268,1,-0.014561403,1
1.367818236,-5.00592947,1,-2.217669487,1,-8.126105309,1,0.005725061,1,0.013180028,1,-0.005843376,1,0.267242819,1,-0.524964511,1,-0.014581232,1
1.371819496,-5.019749641,1,-2.217663765,1,-8.117441177,1,0.00579156,1,0.007238431,1,-0.008947352,1,0.267278403,1,-0.524910808,1,-0.014601636,1
1.375816941,-4.990689278,1,-2.265188694,1,-8.1472826,1,0.005282225,1,0.011843523,1,-0.00711916,1,0.267311513,1,-0.524860561,1,-0.014619377,1
1.379816175,-4.995738983,1,-2.246498823,1,-8.136586189,1,0.001781696,1,0.013639008,1,-0.007029746,1,0.267337143,1,-0.524803698,1,-0.014631573,1
1.383817434,-5.013438225,1,-2.263264656,1,-8.133704185,1,0.002845273,1,0.013931391,1,-0.007600296,1,0.267354578,1,-0.524744511,1,-0.014638077,1
1.387814879,-4.99822998,1,-2.28378582,1,-8.127365112,1,0.004125706,1,0.012330246,1,0.000665498,1,0.267373115,1,-0.524690807,1,-0.014645044,1
1.391813874,-5.019320965,1,-2.284053326,1,-8.176965714,1,-0.002915337,1,0.016467581,1,-0.005251611,1,0.267379224,1,-0.524621487,1,-0.014643295,1
1.395821095,-4.961690903,1,-2.275938988,1,-8.15639782,1,-0.000479395,1,0.013949448,1,-0.003508761,1,0.267376572,1,-0.524563015,1,-0.014647027,1
1.399824381,-4.957906723,1,-2.290845156,1,-8.158034325,1,-0.003346312,1,0.017032374,1,-0.000746307,1,0.267357677,1,-0.524500191,1,-0.014635439,1
1.403823614,-4.980566502,1,-2.323145628,1,-8.179457664,1,-0.00260126,1,0.015215477,1,0.000707039,1,0.267331004,1,-0.524442077,1,-0.014606799,1
1.407824874,-4.994193554,1,-2.346141815,1,-8.154010773,1,-0.006688384,1,0.013542484,1,0.002210482,1,0.267296195,1,-0.524387181,1,-0.014583534,1
1.411822319,-5.00144577,1,-2.259988308,1,-8.188661575,1,-0.010152237,1,0.015511061,1,0.003232931,1,0.267243832,1,-0.524336636,1,-0.014545374,1
1.415821791,-5.040589333,1,-2.252545118,1,-8.200032234,1,-0.01325048,1,0.013895887,1,0.006026318,1,0.267178804,1,-0.524283409,1,-0.014504385,1
1.41982305,-4.984958172,1,-2.241393328,1,-8.173436165,1,-0.011638515,1,0.014845832,1,0.008989222,1,0.267101884,1,-0.524231911,1,-0.014450528,1
1.423820496,-4.994596958,1,-2.229158878,1,-8.168272972,1,-0.015702354,1,0.011283976,1,0.010279752,1,0.267018944,1,-0.524196208,1,-0.014394579,1
1.427820086,-5.010378361,1,-2.265065193,1,-8.159832954,1,-0.009380606,1,0.014982399,1,0.005072232,1,0.266937226,1,-0.524149895,1,-0.014337457,1
1.431821346,-4.8762393,1,-2.275274038,1,-8.074904442,1,-0.014699199,1,0.019439908,1,0.007569979,1,0.266855597,1,-0.524103403,1,-0.014281217,1
1.43581903,-5.198115349,1,-2.112453222,1,-8.183151245,1,-0.00375571,1,0.016919937,1,0.009521186,1,0.266796052,1,-0.524040103,1,-0.014217952,1
1.439818263,-5.007740021,1,-2.143019915,1,-8.236211777,1,-0.009084688,1,0.0177196,1,0.009795776,1,0.266733497,1,-0.523976445,1,-0.014152153,1
1.443819523,-4.966579437,1,-2.08378458,1,-8.147369385,1,-0.012667169,1,0.015243488,1,0.005816855,1,0.26666373,1,-0.523929477,1,-0.014100168,1
1.447817206,-4.965125561,1,-2.217514277,1,-8.106415749,1,-0.010344682,1,0.017382523,1,0.005907273,1,0.266594619,1,-0.523861229,1,-0.014062773,1
1.45181644,-5.027487755,1,-2.208175182,1,-8.17908287,1,-0.014060939,1,0.019608052,1,0.003913809,1,0.266530246,1,-0.523795664,1,-0.014014873,1
1.455817699,-4.978428841,1,-2.114147663,1,-8.101209641,1,-0.011820876,1,0.017810792,1,0.003487604,1,0.266458631,1,-0.523732185,1,-0.013974837,1
1.459815145,-4.967503071,1,-2.122401714,1,-8.140547752,1,-0.00700116,1,0.022201968,1,0.0038477,1,0.26640147,1,-0.52365303,1,-0.013935925,1
1.463814378,-5.004413605,1,-2.080551386,1,-8.157540321,1,-0.010080446,1,0.024796478,1,-0.001911467,1,0.266359538,1,-0.523572206,1,-0.013909956,1
1.467815995,-5.003770351,1,-2.064837217,1,-8.168715477,1,-0.000351982,1,0.023627233,1,0.000577354,1,0.266329497,1,-0.523482442,1,-0.013882861,1
1.471813917,-4.957078934,1,-2.116271019,1,-8.192293167,1,0.004453993,1,0.025776239,1,-0.003714365,1,0.266327411,1,-0.523383319,1,-0.01385685,1
1.47581315,-4.963295937,1,-2.103363037,1,-8.169971466,1,0.003662443,1,0.027544733,1,-0.004635867,1,0.266341835,1,-0.523279548,1,-0.01384432,1
1.479814649,-4.964234829,1,-2.10335207,1,-8.171794891,1,0.009161141,1,0.025526537,1,-0.008933865,1,0.266365647,1,-0.523173034,1,-0.0138397,1
1.483812094,-4.990535259,1,-2.123940229,1,-8.203066826,1,0.011573386,1,0.025213465,1,-0.007641227,1,0.266407758,1,-0.523072481,1,-0.013839877,1
1.487811327,-4.999371052,1,-2.165646315,1,-8.183894157,1,0.013587325,1,0.021109667,1,-0.006311347,1,0.266457826,1,-0.522973895,1,-0.013844879,1
1.491812825,-5.020759106,1,-2.215897083,1,-8.167556763,1,0.013817686,1,0.024477649,1,-0.003224696,1,0.266500205,1,-0.522874057,1,-0.013833926,1
1.49581027,-5.001077652,1,-2.257710457,1,-8.18642807,1,0.011820424,1,0.022429381,1,-0.006263347,1,0.266543061,1,-0.522775769,1,-0.013825382,1
1.499809742,-4.964173317,1,-2.236903906,1,-8.167892456,1,0.0101859,1,0.021274021,1,-0.004680666,1,0.26658681,1,-0.522679806,1,-0.013821895,1
1.503811121,-4.957859993,1,-2.274687767,1,-8.181090355,1,0.010593737,1,0.024871873,1,-0.00602785,1,0.266628176,1,-0.522575676,1,-0.013820435,1
1.507808566,-4.94890213,1,-2.28047514,1,-8.175965309,1,0.011505427,1,0.024126941,1,-0.000950751,1,0.266654462,1,-0.522482336,1,-0.013802987,1
1.511807799,-4.978642464,1,-2.278991699,1,-8.226885796,1,0.008879171,1,0.02489299,1,-0.000488827,1,0.266664773,1,-0.522395849,1,-0.013781169,1
1.5158149,-4.960725784,1,-2.288460255,1,-8.175769806,1,0.006242014,1,0.021346569,1,0.003135033,1,0.266671717,1,-0.52230227,1,-0.01375197,1
1.519818187,-4.970323563,1,-2.314974785,1,-8.17725563,1,-0.000641254,1,0.022087935,1,0.004113727,1,0.266660005,1,-0.522222459,1,-0.013709673,1
1.523817778,-4.996005535,1,-2.375010014,1,-8.188606262,1,-0.002195677,1,0.019371692,1,0.006572412,1,0.266632587,1,-0.522141278,1,-0.013662028,1
1.527819037,-4.966511726,1,-2.359673262,1,-8.220915794,1,-0.006569311,1,0.019113384,1,0.008640187,1,0.266582221,1,-0.522068381,1,-0.013601402,1
1.531816721,-4.967355728,1,-2.325316191,1,-8.214100838,1,-0.0088942,1,0.020574039,1,0.009263242,1,0.266520113,1,-0.521993577,1,-0.013535403,1
1.535815954,-4.95628643,1,-2.264643431,1,-8.205767632,1,-0.012285545,1,0.014647216,1,0.010250295,1,0.266439885,1,-0.521937311,1,-0.013468154,1
1.539816976,-4.933528423,1,-2.255250931,1,-8.22834301,1,-0.014289428,1,0.017251328,1,0.01432091,1,0.266349226,1,-0.521880627,1,-0.013391281,1
1.543814421,-4.944924831,1,-2.280571699,1,-8.238500595,1,-0.015558979,1,0.01120522,1,0.016578615,1,0.266253531,1,-0.521840036,1,-0.013311225,1
1.547813416,-4.930969715,1,-2.278055906,1,-8.215147018,1,-0.017070223,1,0.014050465,1,0.015263807,1,0.266134173,1,-0.521871209,1,-0.013032206,1
1.551814437,-4.92086792,1,-2.250106573,1,-8.234578133,1,-0.017301947,1,0.009127257,1,0.015714966,1,0.266034961,1,-0.521844387,1,-0.012947984,1
1.555811882,-4.89683485,1,-2.166839361,1,-8.246067047,1,-0.017291553,1,0.006886457,1,0.014744028,1,0.265930533,1,-0.521824837,1,-0.01287376,1
1.559811115,-4.932941914,1,-2.220935822,1,-8.254109383,1,-0.017828893,1,0.005720002,1,0.018282766,1,0.265817225,1,-0.521816373,1,-0.012789296,1
1.563812375,-4.953425884,1,-2.213825703,1,-8.208065987,1,-0.018308762,1,0.000832893,1,0.01542839,1,0.265716016,1,-0.521812737,1,-0.012714714,1
1.567809582,-4.958723068,1,-2.230045319,1,-8.208833694,1,-0.016353695,1,0.001734534,1,0.016551003,1,0.265606254,1,-0.521820605,1,-0.012642778,1
1.571808457,-4.970482349,1,-2.278995514,1,-8.190547943,1,-0.019475523,1,0.002459744,1,0.014571022,1,0.26549682,1,-0.521826088,1,-0.012570206,1
1.575809836,-4.934448719,1,-2.245705605,1,-8.1866436,1,-0.019911021,1,0.002998195,1,0.015992686,1,0.265375853,1,-0.521833241,1,-0.012493411,1
1.579806924,-4.925835609,1,-2.284515142,1,-8.22618103,1,-0.023148915,1,0.002995301,1,0.01649094,1,0.265257448,1,-0.521832466,1,-0.012424026,1
1.583805919,-4.883799076,1,-2.191184521,1,-8.237765312,1,-0.023787851,1,-0.001765655,1,0.014235824,1,0.265129566,1,-0.521848679,1,-0.012359606,1
1.587807178,-4.936402798,1,-2.234965563,1,-8.193655014,1,-0.023202814,1,-0.001812518,1,0.016655581,1,0.265001982,1,-0.521863401,1,-0.012295856,1
1.591804385,-4.94513464,1,-2.323342085,1,-8.202309608,1,-0.026980108,1,-0.000708921,1,0.01611764,1,0.264869452,1,-0.521881819,1,-0.012224426,1
1.595803618,-4.952123642,1,-2.407406807,1,-8.196022034,1,-0.031339798,1,-0.002730955,1,0.015532274,1,0.26471886,1,-0.521907389,1,-0.012139397,1
1.599804878,-4.919076443,1,-2.396374941,1,-8.208984375,1,-0.031168889,1,-0.001293313,1,0.017584009,1,0.264558464,1,-0.52193594,1,-0.012064551,1
1.603802323,-4.932488918,1,-2.398079395,1,-8.202539444,1,-0.040249433,1,-0.007606159,1,0.022517452,1,0.264376193,1,-0.521976709,1,-0.011989661,1
1.607801557,-4.947258949,1,-2.366294384,1,-8.20780468,1,-0.039894424,1,-0.010006892,1,0.02354347,1,0.264173537,1,-0.522031367,1,-0.011904708,1
1.611802936,-4.964290619,1,-2.346048355,1,-8.235301971,1,-0.044417534,1,-0.008056406,1,0.023896499,1,0.2639575,1,-0.522088289,1,-0.011809836,1
1.615800023,-4.950854778,1,-2.301953077,1,-8.237894058,1,-0.049034253,1,-0.01318252,1,0.0243963,1,0.263716727,1,-0.522157431,1,-0.011715177,1
1.619799018,-4.927667141,1,-2.234593153,1,-8.237808228,1,-0.051595818,1,-0.010933008,1,0.029970996,1,0.263466418,1,-0.522227705,1,-0.011614168,1
1.623800039,-4.965680599,1,-2.218967676,1,-8.243286133,1,-0.051990665,1,-0.012645966,1,0.024855861,1,0.263208538,1,-0.522310555,1,-0.011502926,1
1.627797246,-4.979324818,1,-2.26415062,1,-8.213129997,1,-0.051492337,1,-0.015507347,1,0.025191212,1,0.26295045,1,-0.522388518,1,-0.011402732,1
1.631796479,-4.996155739,1,-2.246252775,1,-8.188311577,1,-0.056447815,1,-0.019972812,1,0.02946537,1,0.262677521,1,-0.522486925,1,-0.011292329,1
1.635803699,-4.998139381,1,-2.291188717,1,-8.218166351,1,-0.056702472,1,-0.016992897,1,0.024895264,1,0.262403995,1,-0.522574246,1,-0.01119664,1
1.639806986,-5.002325535,1,-2.229391098,1,-8.234996796,1,-0.059297163,1,-0.019032484,1,0.025824331,1,0.262123257,1,-0.522670686,1,-0.011103582,1
1.643806219,-4.982442856,1,-2.191644907,1,-8.232703209,1,-0.057063494,1,-0.016398869,1,0.024743376,1,0.261843652,1,-0.52276516,1,-0.011006006,1
1.64780724,-4.979471207,1,-2.178477526,1,-8.232386589,1,-0.058833364,1,-0.020914299,1,0.026056547,1,0.261554152,1,-0.522863865,1,-0.010908143,1
1.651804686,-4.979660511,1,-2.169700384,1,-8.228720665,1,-0.060541946,1,-0.018409926,1,0.029062752,1,0.261273772,1,-0.522967398,1,-0.010815756,1
1.65580368,-4.995285988,1,-2.195512533,1,-8.253631592,1,-0.062516242,1,-0.021222267,1,0.027570944,1,0.260983825,1,-0.523073554,1,-0.01072768,1
1.65980494,-5.007391453,1,-2.220302343,1,-8.173434258,1,-0.064935543,1,-0.019700687,1,0.025022799,1,0.260690957,1,-0.523179948,1,-0.010641696,1
1.663802147,-5.055371284,1,-2.222355366,1,-8.191620827,1,-0.062967315,1,-0.024817418,1,0.020733995,1,0.260388643,1,-0.523285151,1,-0.01055818,1
1.667801142,-5.039299488,1,-2.247045279,1,-8.193141937,1,-0.065937646,1,-0.019727062,1,0.025972977,1,0.26008147,1,-0.523393154,1,-0.010472011,1
1.671802402,-5.041707039,1,-2.165853024,1,-8.191124916,1,-0.068414651,1,-0.018985745,1,0.023529628,1,0.259773761,1,-0.523498476,1,-0.010393452,1
1.675799608,-5.014851093,1,-2.081096888,1,-8.196930885,1,-0.066453293,1,-0.024516135,1,0.02147791,1,0.259460539,1,-0.523604393,1,-0.010319119,1
1.679798484,-5.052640438,1,-1.981640577,1,-8.194702148,1,-0.067647606,1,-0.021633258,1,0.018744063,1,0.259162098,1,-0.523703873,1,-0.01025528,1
1.683799863,-5.043580055,1,-1.957587838,1,-8.197062492,1,-0.061350111,1,-0.020707704,1,0.015956927,1,0.258884221,1,-0.523797333,1,-0.010204058,1
1.68779695,-5.031085491,1,-1.92905283,1,-8.181237221,1,-0.054137219,1,-0.017141895,1,0.010020709,1,0.258625627,1,-0.52388519,1,-0.010164776,1
1.691796184,-5.035721302,1,-1.973457575,1,-8.200460434,1,-0.052197866,1,-0.019339137,1,0.004710066,1,0.258402914,1,-0.523964405,1,-0.010146137,1
1.695797563,-5.042467117,1,-2.01695919,1,-8.206827164,1,-0.04750647,1,-0.019561211,1,0.002196455,1,0.258200645,1,-0.524035513,1,-0.010143686,1
1.69979465,-4.983752728,1,-2.051510096,1,-8.213644981,1,-0.041688319,1,-0.016072514,1,0.004483858,1,0.258023143,1,-0.524111271,1,-0.010149074,1
1.703793883,-4.982943535,1,-2.129343748,1,-8.23740387,1,-0.045698203,1,-0.018293923,1,0.00116994,1,0.257848829,1,-0.524179935,1,-0.010156869,1
1.707795143,-4.897494316,1,-2.271332264,1,-8.246442795,1,-0.044223603,1,-0.019354485,1,0.005160212,1,0.257680446,1,-0.524251282,1,-0.010175348,1
1.71179235,-4.871451855,1,-2.352374315,1,-8.214924812,1,-0.04848944,1,-0.023846278,1,0.004978911,1,0.257503569,1,-0.524337769,1,-0.010179554,1
1.715791583,-4.861816406,1,-2.389647722,1,-8.258059502,1,-0.052611556,1,-0.027042767,1,0.00813495,1,0.257302821,1,-0.524430513,1,-0.010182622,1
1.719792843,-4.889492035,1,-2.383994341,1,-8.262639046,1,-0.061981142,1,-0.030049346,1,0.0060155,1,0.257070005,1,-0.524540603,1,-0.010179383,1
1.723790288,-4.845442295,1,-2.295282364,1,-8.268387794,1,-0.0619867,1,-0.030663863,1,0.008362906,1,0.256817997,1,-0.524667084,1,-0.010176049,1
1.727789521,-4.852102757,1,-2.272033453,1,-8.291298866,1,-0.068956584,1,-0.035259463,1,0.012495179,1,0.256557554,1,-0.524812996,1,-0.010170601,1
1.7317909,-4.831712246,1,-2.250898123,1,-8.331954002,1,-0.069035292,1,-0.045158971,1,0.01608216,1,0.25627619,1,-0.524993598,1,-0.010160505,1
1.735788345,-4.837216377,1,-2.215454578,1,-8.34954834,1,-0.068869084,1,-0.047713887,1,0.02371618,1,0.255979449,1,-0.525194407,1,-0.010127764,1
1.739787579,-4.868857384,1,-2.244964361,1,-8.348740578,1,-0.071713194,1,-0.056786131,1,0.020644682,1,0.255674332,1,-0.525422335,1,-0.010095209,1
1.743789077,-4.872811317,1,-2.283998251,1,-8.372956276,1,-0.073826589,1,-0.066613719,1,0.027618106,1,0.255367875,1,-0.525682032,1,-0.010063792,1
1.747786522,-4.839911461,1,-2.210995913,1,-8.442538261,1,-0.067398109,1,-0.072531566,1,0.023871915,1,0.255065739,1,-0.525974333,1,-0.010033625,1
1.751785755,-4.759232044,1,-2.135055542,1,-8.520094872,1,-0.066538803,1,-0.087446868,1,0.025073972,1,0.254793048,1,-0.526311457,1,-0.010021571,1
1.755787492,-4.67591095,1,-2.078716993,1,-8.615831375,1,-0.054984588,1,-0.101672694,1,0.030068241,1,0.254540771,1,-0.526705325,1,-0.01000667,1
1.759790897,-4.634658813,1,-1.955711246,1,-8.680800438,1,-0.041923117,1,-0.12714681,1,0.031436574,1,0.254341662,1,-0.527177095,1,-0.010001723,1
1.763790369,-4.664985657,1,-1.94870007,1,-8.728679657,1,-0.035445239,1,-0.148641378,1,0.03649269,1,0.25418058,1,-0.527747452,1,-0.010013057,1
1.767791867,-4.666757107,1,-2.160309553,1,-8.779766083,1,-0.019545838,1,-0.172119811,1,0.045293771,1,0.254073381,1,-0.528407037,1,-0.010014946,1
1.771789312,-4.604910851,1,-2.698011398,1,-9.040433884,1,0.016915275,1,-0.210663408,1,0.070894331,1,0.254031301,1,-0.529205024,1,-0.009986005,1
1.775788784,-4.307190895,1,-2.860261202,1,-9.158921242,1,0.123630993,1,-0.250672817,1,0.113528326,1,0.254220694,1,-0.530200779,1,-0.009833554,1
1.779790044,-3.898352146,1,-2.537812233,1,-9.157114029,1,0.188400477,1,-0.294590265,1,0.116389059,1,0.254764348,1,-0.53137064,1,-0.009631721,1
1.783787489,-3.658648729,1,-2.911891937,1,-9.23751545,1,0.213288158,1,-0.359049112,1,0.135236189,1,0.255479127,1,-0.532764792,1,-0.009454635,1
1.787786961,-3.584115028,1,-2.940459013,1,-9.755264282,1,0.283073068,1,-0.443392277,1,0.168472141,1,0.256361812,1,-0.534472823,1,-0.009247513,1
1.79178834,-4.644145966,1,-2.552968979,1,-9.793491364,1,0.378923029,1,-0.476403594,1,0.193175361,1,0.25754109,1,-0.536446571,1,-0.008985891,1
1.795785785,-4.547259331,1,-3.123012781,1,-9.901693344,1,0.472909629,1,-0.478792995,1,0.224128634,1,0.259056836,1,-0.538507283,1,-0.008610246,1
1.799785256,-4.604568958,1,-2.890560627,1,-10.53899574,1,0.582870245,1,-0.509822905,1,0.245413736,1,0.260935158,1,-0.540615261,1,-0.007971458,1
1.803786516,-4.387631416,1,-2.609675646,1,-10.86992645,1,0.652419388,1,-0.62474817,1,0.239253387,1,0.263182312,1,-0.543054879,1,-0.007543683,1
1.807783961,-4.201074123,1,-3.025097847,1,-10.52848148,1,0.704012334,1,-0.695834577,1,0.223347396,1,0.265805453,1,-0.545867741,1,-0.007311277,1
1.811783195,-4.22883749,1,-2.051732063,1,-11.08321476,1,0.724272609,1,-0.789848387,1,0.205362484,1,0.26860404,1,-0.548944056,1,-0.007245413,1
1.815784454,-4.849870682,1,-3.173927069,1,-12.32991314,1,0.764753938,1,-0.924502611,1,0.217094064,1,0.271702796,1,-0.552484035,1,-0.007374801,1
1.819781899,-5.017213345,1,-3.994559765,1,-11.21630573,1,0.720233142,1,-0.967010379,1,0.229864165,1,0.274759769,1,-0.556390047,1,-0.007564511,1
1.823781133,-5.301804066,1,-2.892785072,1,-10.87330437,1,0.772024155,1,-1.05240345,1,0.317812324,1,0.277744055,1,-0.56055069,1,-0.007620039,1
1.827782393,-6.424399376,1,-2.71999383,1,-11.04404545,1,0.9122774,1,-1.15240097,1,0.375966489,1,0.280992866,1,-0.565142751,1,-0.007512655,1
1.831780076,-8.083767891,1,-4.085155964,1,-11.95027351,1,0.99371475,1,-1.209758878,1,0.491216749,1,0.284669638,1,-0.570168734,1,-0.007155036,1
1.835779309,-6.840209484,1,-5.769186497,1,-10.87740803,1,0.902113736,1,-1.213592768,1,0.608607352,1,0.287983835,1,-0.575468004,1,-0.006202863,1
1.839780807,-6.48277998,1,-5.767792225,1,-10.09360981,1,0.780103803,1,-1.269384503,1,0.654975772,1,0.290682375,1,-0.580918014,1,-0.004992473,1
1.84377861,-7.52557373,1,-5.578631878,1,-10.372365,1,0.641631305,1,-1.355131149,1,0.709737003,1,0.292817473,1,-0.586734772,1,-0.00368303,1
1.847777843,-7.921438217,1,-5.983184338,1,-10.58956432,1,0.473764598,1,-1.404127717,1,0.747472286,1,0.29424724,1,-0.5928666,1,-0.002235007,1
1.851779103,-7.917143822,1,-5.833175659,1,-10.5659647,1,0.29548952,1,-1.45038712,1,0.717742145,1,0.295000404,1,-0.599199474,1,-0.000842051,1
1.855776548,-10.3671627,1,-6.228541851,1,-11.45018005,1,0.149814501,1,-1.416709781,1,0.653473854,1,0.295233727,1,-0.605502486,1,0.000309825,1
1.859775543,-10.9015379,1,-6.228910446,1,-12.40207005,1,-0.041367687,1,-1.276287079,1,0.573164999,1,0.294912696,1,-0.611391783,1,0.001268714,1
1.863776803,-10.38253593,1,-5.825053692,1,-13.21595383,1,-0.201984599,1,-1.087307334,1,0.450053632,1,0.294005185,1,-0.61650151,1,0.001990156,1
1.86777401,-8.86964035,1,-5.127876759,1,-13.12584782,1,-0.32441026,1,-0.926132083,1,0.336745411,1,0.2927019,1,-0.620793223,1,0.00239947,1
1.871773243,-7.070024014,1,-4.272404671,1,-12.65999031,1,-0.396894246,1,-0.861262143,1,0.272772193,1,0.291140974,1,-0.624548674,1,0.002565784,1
1.875774503,-5.4653759,1,-3.569796324,1,-12.04836941,1,-0.425531179,1,-0.857697248,1,0.24627912,1,0.2894907,1,-0.628128231,1,0.002565283,1
1.879777551,-4.239477158,1,-3.103877306,1,-11.61578369,1,-0.417407483,1,-0.889469624,1,0.268744051,1,0.287802964,1,-0.631767094,1,0.002553484,1
1.883776784,-3.375093699,1,-2.691417694,1,-11.2992239,1,-0.39655894,1,-0.946307123,1,0.320414931,1,0.286096424,1,-0.635616422,1,0.00266772,1
1.887778044,-3.035555363,1,-2.358352184,1,-11.11357212,1,-0.351739347,1,-1.015264034,1,0.403135002,1,0.28438729,1,-0.639792085,1,0.003012631,1
1.89177525,-2.744467735,1,-2.36572814,1,-10.84752941,1,-0.320740074,1,-1.079150558,1,0.497907698,1,0.282639205,1,-0.644326627,1,0.003694897,1
1.895774484,-2.628801107,1,-2.424669743,1,-10.82732964,1,-0.297855407,1,-1.120158434,1,0.595990419,1,0.280749589,1,-0.649158597,1,0.004786821,1
1.899775743,-2.780873775,1,-2.618386745,1,-10.96152306,1,-0.28503868,1,-1.139617085,1,0.705063403,1,0.278636277,1,-0.654225171,1,0.006357476,1
1.903773189,-2.808673859,1,-2.828695297,1,-11.1069479,1,-0.296432197,1,-1.130773783,1,0.799285412,1,0.276198298,1,-0.659427524,1,0.008446549,1
1.907772422,-2.637893677,1,-2.899515152,1,-11.23737717,1,-0.317087948,1,-1.094250679,1,0.893521488,1,0.273368269,1,-0.66464138,1,0.011058155,1
1.911773682,-2.458017826,1,-2.767598391,1,-11.42796135,1,-0.32798177,1,-1.035235882,1,0.972765982,1,0.270145863,1,-0.669755101,1,0.014179369,1
1.915771127,-2.295374632,1,-2.710605145,1,-11.63290787,1,-0.323652595,1,-0.957724452,1,1.023969889,1,0.266609102,1,-0.674668372,1,0.017754845,1
1.91977036,-2.040016174,1,-2.717946291,1,-11.71431828,1,-0.311352551,1,-0.856630802,1,1.06902802,1,0.262835711,1,-0.679272652,1,0.021733826,1
1.923771381,-1.679750323,1,-2.853307724,1,-11.70198345,1,-0.296600491,1,-0.742746174,1,1.099816442,1,0.258885354,1,-0.683480322,1,0.026071357,1
1.927768826,-1.169176221,1,-2.951464653,1,-11.58229828,1,-0.275495142,1,-0.620376527,1,1.121131301,1,0.254793167,1,-0.687247872,1,0.030732507,1
1.931767821,-0.583879888,1,-2.995589495,1,-11.51078987,1,-0.258839607,1,-0.496923625,1,1.135429144,1,0.25058639,1,-0.690548301,1,0.035669189,1
1.935769081,0.059327595,1,-2.971513033,1,-11.27750397,1,-0.243468255,1,-0.38612777,1,1.148985744,1,0.24627459,1,-0.693383157,1,0.040860478,1
1.939766526,0.682161987,1,-2.897533178,1,-11.08105755,1,-0.21165061,1,-0.277546138,1,1.15839386,1,0.241910577,1,-0.695781708,1,0.046252012,1
1.943765521,1.342891932,1,-2.741739511,1,-10.8405714,1,-0.175331458,1,-0.177983478,1,1.16269505,1,0.237546235,1,-0.697773814,1,0.051843975,1
1.947766781,1.899332881,1,-2.542871714,1,-10.62686348,1,-0.119317822,1,-0.101787329,1,1.162393332,1,0.23326236,1,-0.699396491,1,0.057583086,1
1.951763988,2.39366436,1,-2.427047253,1,-10.42252254,1,-0.052661922,1,-0.021761212,1,1.172560453,1,0.229133606,1,-0.700698614,1,0.063456081,1
1.955763221,2.744612455,1,-2.210672617,1,-10.2506237,1,0.020069342,1,0.044351034,1,1.168208599,1,0.225223929,1,-0.701709628,1,0.069427803,1
1.959764481,3.00857234,1,-2.153259277,1,-10.095294,1,0.092676297,1,0.095970772,1,1.161509514,1,0.221561372,1,-0.70246911,1,0.075441718,1
1.963761687,3.126929283,1,-2.162959814,1,-9.945776939,1,0.167557195,1,0.150288284,1,1.15046823,1,0.218169302,1,-0.702985287,1,0.081496075,1
1.967760921,3.200512648,1,-2.195706606,1,-9.858592987,1,0.238088503,1,0.202190802,1,1.129790545,1,0.215076014,1,-0.703271031,1,0.087543793,1
1.97176218,3.260126829,1,-2.304564476,1,-9.785904884,1,0.295010805,1,0.249974549,1,1.114644408,1,0.212259933,1,-0.703336239,1,0.093559965,1
1.975759387,3.294315577,1,-2.427623272,1,-9.722301483,1,0.337520868,1,0.299051464,1,1.078406096,1,0.209696397,1,-0.70318079,1,0.099486791,1
1.97975862,3.250586748,1,-2.58765173,1,-9.662600517,1,0.366555333,1,0.34937337,1,1.03997767,1,0.207368165,1,-0.702782333,1,0.1052818,1
1.98375988,3.142657518,1,-2.695353508,1,-9.717014313,1,0.374780983,1,0.39594847,1,0.997919261,1,0.205215067,1,-0.702161193,1,0.110914834,1
1.987757087,2.874606371,1,-2.766248703,1,-9.807469368,1,0.381642967,1,0.447032988,1,0.944356084,1,0.203223735,1,-0.701303601,1,0.116348766,1
1.99175632,2.609232664,1,-2.852974653,1,-9.903811455,1,0.381249428,1,0.506986201,1,0.885330379,1,0.201404482,1,-0.700166285,1,0.12154413,1
1.995757341,2.302222967,1,-2.821804285,1,-10.13835239,1,0.384308279,1,0.57417202,1,0.815214097,1,0.1997751,1,-0.698729098,1,0.126465052,1
1.999760628,1.924854636,1,-2.677155018,1,-10.32616138,1,0.398941338,1,0.639565587,1,0.72764802,1,0.198398322,1,-0.696958065,1,0.131036878,1
2.003760099,1.548336625,1,-2.619277,1,-10.54401684,1,0.414542705,1,0.720534205,1,0.631373405,1,0.197341904,1,-0.694824219,1,0.13521418,1
2.00776124,1.11470747,1,-2.527544022,1,-10.61093807,1,0.430197597,1,0.809216559,1,0.524796724,1,0.196646556,1,-0.69227922,1,0.138945088,1
2.011758566,0.801691175,1,-2.604896307,1,-10.7163496,1,0.445989162,1,0.905585825,1,0.408873111,1,0.196337491,1,-0.689282596,1,0.142187625,1
2.015757561,0.534631371,1,-2.642352581,1,-10.76716805,1,0.451053947,1,0.998284638,1,0.28915754,1,0.196399257,1,-0.685821652,1,0.144921243,1
2.01975894,0.380477518,1,-2.690844059,1,-10.74603558,1,0.449041456,1,1.102375746,1,0.170564786,1,0.196805403,1,-0.681876898,1,0.147142828,1
2.023756027,0.23410219,1,-2.738385916,1,-10.76946259,1,0.442331135,1,1.196594954,1,0.053345934,1,0.197511032,1,-0.677456617,1,0.148860976,1
2.02775526,0.092728466,1,-2.703151226,1,-10.76882648,1,0.432183295,1,1.283980608,1,-0.052558325,1,0.198474467,1,-0.672598004,1,0.150108859,1
2.031756639,-0.036709629,1,-2.611851215,1,-10.71438789,1,0.413977683,1,1.375188589,1,-0.155955657,1,0.199665248,1,-0.667300224,1,0.150913492,1
2.035753965,-0.092201963,1,-2.453352451,1,-10.66237545,1,0.40128243,1,1.451554298,1,-0.254097342,1,0.201039746,1,-0.66159302,1,0.151331931,1
2.039753199,-0.226307034,1,-2.23324132,1,-10.73690033,1,0.385939091,1,1.538589954,1,-0.345094472,1,0.202597827,1,-0.655495942,1,0.151359215,1
2.043754816,-0.02789145,1,-2.169374466,1,-10.28601456,1,0.396278203,1,1.595082402,1,-0.401956856,1,0.204311892,1,-0.649025142,1,0.151099771,1
2.04775238,-0.080053203,1,-1.957544684,1,-10.20024014,1,0.402673036,1,1.629719019,1,-0.455575943,1,0.206203043,1,-0.64236331,1,0.15063332,1
2.051751614,-0.328432292,1,-2.080932856,1,-10.23194885,1,0.402734458,1,1.683543324,1,-0.499450743,1,0.208203286,1,-0.635463476,1,0.150152192,1
2.055752993,-0.316483706,1,-1.863214254,1,-10.1480875,1,0.403931558,1,1.729243636,1,-0.54262948,1,0.21026358,1,-0.628354907,1,0.149376839,1
2.059750319,-0.407808632,1,-1.768568873,1,-9.97918129,1,0.412437111,1,1.766328931,1,-0.566258013,1,0.212409616,1,-0.621052623,1,0.148502707,1
2.06374979,-0.60590297,1,-1.762943983,1,-9.937433243,1,0.413239479,1,1.792224646,1,-0.579106092,1,0.214587286,1,-0.613604426,1,0.147600979,1
2.067751169,-0.743744552,1,-1.758397341,1,-9.873517036,1,0.422481596,1,1.828627586,1,-0.582354665,1,0.216761246,1,-0.60602653,1,0.146726251,1
2.071748495,-0.974136353,1,-1.735031366,1,-9.844599724,1,0.438107699,1,1.855643749,1,-0.589684844,1,0.218972594,1,-0.598324239,1,0.145867154,1
2.075748205,-1.195612431,1,-1.64159739,1,-9.773514748,1,0.4482719,1,1.886965156,1,-0.58416158,1,0.221187979,1,-0.590506017,1,0.145064726,1
2.079749346,-1.386172533,1,-1.671264768,1,-9.707710266,1,0.453151256,1,1.908443689,1,-0.591726661,1,0.223406702,1,-0.582585335,1,0.144325525,1
2.083747149,-1.54209888,1,-1.680938959,1,-9.612527847,1,0.459554374,1,1.934557796,1,-0.58397001,1,0.225613937,1,-0.57456708,1,0.143638119,1
2.08774662,-1.657242537,1,-1.754197836,1,-9.552344322,1,0.463735998,1,1.947559953,1,-0.574920654,1,0.22778593,1,-0.566482067,1,0.143032849,1
2.091747761,-1.685743928,1,-1.787451982,1,-9.44907856,1,0.448813051,1,1.954956651,1,-0.569021046,1,0.229889721,1,-0.558350444,1,0.142495915,1
2.095745325,-1.759456515,1,-1.733643174,1,-9.463894844,1,0.444732457,1,1.954749584,1,-0.555729687,1,0.231927902,1,-0.550223291,1,0.142022863,1
2.099744558,-1.950712323,1,-1.823910475,1,-9.389162064,1,0.433794439,1,1.945565104,1,-0.549448252,1,0.233893931,1,-0.542120039,1,0.141615942,1
2.103745699,-2.078462839,1,-1.809715509,1,-9.311573029,1,0.423820019,1,1.942488194,1,-0.534091711,1,0.235786527,1,-0.534053206,1,0.141271487,1
2.107743263,-2.215713978,1,-1.889291763,1,-9.313512802,1,0.412423164,1,1.933678031,1,-0.513526201,1,0.237585157,1,-0.526021361,1,0.141021505,1
2.111742496,-2.379718781,1,-1.932290792,1,-9.316235542,1,0.40977928,1,1.924443364,1,-0.492023081,1,0.239305928,1,-0.518042982,1,0.140863806,1
2.115744114,-2.59479022,1,-1.953047752,1,-9.501467705,1,0.408497751,1,1.919506073,1,-0.473920465,1,0.240969583,1,-0.510119021,1,0.140807718,1
2.1197474,-3.008308172,1,-1.986102343,1,-9.695174217,1,0.434875488,1,1.92643559,1,-0.45452252,1,0.242629856,1,-0.502209067,1,0.140859425,1
2.123746872,-3.528585434,1,-1.986801744,1,-9.868254662,1,0.457609385,1,1.947286844,1,-0.447522581,1,0.244341061,1,-0.494260818,1,0.140995204,1
2.127748251,-4.048791885,1,-1.876212358,1,-10.10412979,1,0.498575985,1,1.993469238,1,-0.450827211,1,0.246159792,1,-0.486188859,1,0.141198114,1
2.131745815,-4.673772812,1,-1.848852396,1,-10.28033066,1,0.545562863,1,2.051437378,1,-0.466379195,1,0.248139605,1,-0.47790879,1,0.141420797,1
2.135745049,-5.130916595,1,-1.826163769,1,-10.39344406,1,0.599091709,1,2.13544631,1,-0.491451412,1,0.250323623,1,-0.469319701,1,0.141655922,1
2.139746666,-5.521401882,1,-1.909855485,1,-10.39854527,1,0.647919118,1,2.22921896,1,-0.532992959,1,0.252721488,1,-0.460359991,1,0.141871452,1
2.143743992,-5.660717487,1,-1.970726728,1,-10.39559746,1,0.68070972,1,2.324235439,1,-0.570169866,1,0.255303442,1,-0.450995505,1,0.142040074,1
2.147743464,-5.687748909,1,-2.152320147,1,-10.27198601,1,0.703792453,1,2.419944763,1,-0.608286202,1,0.25802201,1,-0.441215038,1,0.142173842,1
2.151744843,-5.406883717,1,-2.433622599,1,-10.08708477,1,0.704675138,1,2.495399475,1,-0.643327057,1,0.260786474,1,-0.43106702,1,0.142292634,1
2.155742168,-5.263630867,1,-2.496259212,1,-9.948356628,1,0.696797073,1,2.554466963,1,-0.664990485,1,0.263548791,1,-0.420624018,1,0.142393649,1
2.15974164,-5.109848499,1,-2.490843296,1,-9.746747017,1,0.683336675,1,2.609815836,1,-0.68678993,1,0.266275555,1,-0.409945071,1,0.142485693,1
2.163743258,-4.91970396,1,-2.408952713,1,-9.464110374,1,0.667530298,1,2.63361764,1,-0.697253346,1,0.268928707,1,-0.399098039,1,0.142608225,1
2.167740583,-4.748868942,1,-2.371286154,1,-9.227264404,1,0.654680252,1,2.646835566,1,-0.698112667,1,0.271511793,1,-0.388163447,1,0.142751873,1
2.171739817,-4.613296986,1,-2.317730904,1,-9.093257904,1,0.64089185,1,2.647891521,1,-0.703212142,1,0.274039745,1,-0.377214789,1,0.142908499,1
2.175741434,-4.607503891,1,-2.280759811,1,-8.956110954,1,0.634629369,1,2.626422405,1,-0.698268592,1,0.276524365,1,-0.366303146,1,0.1430915,1
2.179739475,-4.659284592,1,-2.224508047,1,-8.817256927,1,0.628575981,1,2.598864794,1,-0.693836033,1,0.278979927,1,-0.355497539,1,0.143288285,1
2.183738708,-4.753757477,1,-2.316507101,1,-8.686451912,1,0.622818828,1,2.568955183,1,-0.681699455,1,0.281405121,1,-0.344808817,1,0.143514961,1
2.187739849,-4.832214832,1,-2.406273365,1,-8.554597855,1,0.615967751,1,2.537261009,1,-0.672464132,1,0.283799082,1,-0.334241301,1,0.143782884,1
2.191737413,-4.881287575,1,-2.517788649,1,-8.490487099,1,0.605051875,1,2.508349657,1,-0.655304253,1,0.286146522,1,-0.323805034,1,0.144093424,1
2.195736647,-4.911706448,1,-2.571550608,1,-8.49220562,1,0.596311331,1,2.476042747,1,-0.639405012,1,0.28843087,1,-0.313505173,1,0.14445658,1
2.199737787,-4.920924664,1,-2.493537188,1,-8.460115433,1,0.577201009,1,2.442819595,1,-0.621574342,1,0.29065457,1,-0.303359807,1,0.144870788,1
2.203735352,-4.881066322,1,-2.413435221,1,-8.460140228,1,0.572744846,1,2.391335249,1,-0.601562619,1,0.292830408,1,-0.293405026,1,0.145320594,1
2.207734346,-4.790100098,1,-2.3311553,1,-8.391197205,1,0.564280033,1,2.339839458,1,-0.586025715,1,0.294968188,1,-0.283656359,1,0.145808682,1
2.211735487,-4.664450169,1,-2.2969172,1,-8.327476501,1,0.56879133,1,2.277278185,1,-0.560873806,1,0.297087759,1,-0.274149299,1,0.146330208,1
2.215732813,-4.653559208,1,-2.247487307,1,-8.365491867,1,0.575746775,1,2.214146852,1,-0.54372412,1,0.299226165,1,-0.264911413,1,0.146876156,1
2.219732285,-4.720263481,1,-2.15466404,1,-8.353832245,1,0.583078027,1,2.143770456,1,-0.518706977,1,0.301400781,1,-0.25595957,1,0.147442684,1
2.223733425,-4.799077988,1,-1.950268507,1,-8.37676239,1,0.600809216,1,2.07887125,1,-0.507032514,1,0.30362314,1,-0.247280762,1,0.148016274,1
2.227730989,-4.96706295,1,-1.767965794,1,-8.391802788,1,0.618402481,1,2.015249014,1,-0.497321397,1,0.305932939,1,-0.238880008,1,0.148572639,1
2.231730223,-5.078252316,1,-1.767239571,1,-8.386096001,1,0.637772143,1,1.951172948,1,-0.491312832,1,0.308320701,1,-0.230717987,1,0.149098113,1
2.235731363,-5.2396698,1,-1.725387096,1,-8.437628746,1,0.660024703,1,1.894073844,1,-0.488812655,1,0.310803115,1,-0.222792491,1,0.14958927,1
2.239734411,-5.578526974,1,-1.614247441,1,-8.432474136,1,0.68907702,1,1.839095354,1,-0.490176558,1,0.313401103,1,-0.215089157,1,0.150030151,1
2.243734121,-5.842422009,1,-1.593168259,1,-8.422159195,1,0.712474406,1,1.801135659,1,-0.504032671,1,0.316128641,1,-0.207548678,1,0.150401816,1
2.247735262,-6.0747962,1,-1.591418982,1,-8.385741234,1,0.731630564,1,1.774761319,1,-0.521057367,1,0.318962216,1,-0.200116336,1,0.150699198,1
2.251732826,-6.251471996,1,-1.673882246,1,-8.315597534,1,0.740763545,1,1.744817257,1,-0.545132339,1,0.321874142,1,-0.192769319,1,0.150901586,1
2.255732059,-6.38049984,1,-1.651458979,1,-8.320293427,1,0.74611342,1,1.727749348,1,-0.578218877,1,0.324842304,1,-0.185467348,1,0.15098612,1
2.2597332,-6.660683632,1,-1.599216461,1,-8.262929916,1,0.747856736,1,1.711916089,1,-0.610866666,1,0.327845395,1,-0.178193524,1,0.15094246,1
2.263730764,-6.844161987,1,-1.727431178,1,-8.087883949,1,0.733343601,1,1.709218264,1,-0.657427907,1,0.33084923,1,-0.170910239,1,0.150753215,1
2.267729998,-6.849387646,1,-1.747436404,1,-7.812356472,1,0.698078394,1,1.712282658,1,-0.694130182,1,0.33377105,1,-0.163566083,1,0.150418907,1
2.271731138,-6.531606197,1,-2.021074295,1,-7.778026104,1,0.646502674,1,1.704133153,1,-0.742573202,1,0.336538076,1,-0.156157494,1,0.149953425,1
2.275728941,-6.405627728,1,-2.367041111,1,-7.622787476,1,0.570003808,1,1.701943398,1,-0.780372202,1,0.339073956,1,-0.14871645,1,0.149327606,1
2.279728174,-6.213675499,1,-2.53949976,1,-7.525251865,1,0.47790575,1,1.680194497,1,-0.807969034,1,0.341280937,1,-0.141270846,1,0.148585275,1
2.283729315,-6.113674641,1,-2.479439259,1,-7.409615517,1,0.376897544,1,1.649452925,1,-0.83577621,1,0.343101412,1,-0.133895904,1,0.147720128,1
2.287727118,-6.051297665,1,-2.226264715,1,-7.38321209,1,0.297517478,1,1.609233737,1,-0.855102181,1,0.344572842,1,-0.126615748,1,0.146733269,1
2.291726351,-6.087915421,1,-2.070571899,1,-7.235755444,1,0.234399617,1,1.566762447,1,-0.86518085,1,0.345766246,1,-0.119464159,1,0.145636842,1
2.295727968,-6.160289288,1,-2.095893145,1,-7.041890144,1,0.18504262,1,1.528361917,1,-0.868214846,1,0.346070826,1,-0.112872913,1,0.143103912,1
2.299725294,-6.272924423,1,-2.19826436,1,-6.886227131,1,0.146515757,1,1.482364774,1,-0.857514143,1,0.346874654,1,-0.106003314,1,0.142003655,1
2.303725004,-6.434501171,1,-2.272307634,1,-6.708155155,1,0.117279783,1,1.430805206,1,-0.840211034,1,0.347518235,1,-0.09937641,1,0.140783638,1
2.307726622,-6.571320057,1,-2.262536287,1,-6.497485161,1,0.098997027,1,1.380401969,1,-0.814541578,1,0.34805876,1,-0.092962943,1,0.139585525,1
2.311724186,-6.61996603,1,-2.140699148,1,-6.292626858,1,0.082898408,1,1.322943211,1,-0.783992648,1,0.34853065,1,-0.086781241,1,0.138422877,1
2.315723419,-6.616725922,1,-1.989928722,1,-6.14202404,1,0.090372697,1,1.269331217,1,-0.757144988,1,0.348974288,1,-0.080850869,1,0.137294039,1
2.319725037,-6.514760017,1,-1.856850028,1,-6.037242889,1,0.100373983,1,1.205912828,1,-0.737124801,1,0.349437475,1,-0.075179398,1,0.136166558,1
2.323722601,-6.554271221,1,-1.847620964,1,-5.941140652,1,0.111637294,1,1.131374955,1,-0.712989569,1,0.349945724,1,-0.069797099,1,0.135039568,1
2.327721834,-6.530560017,1,-1.842431188,1,-5.843176842,1,0.119504869,1,1.060951352,1,-0.700768888,1,0.350498885,1,-0.06470076,1,0.133880019,1
2.331722975,-6.474918365,1,-1.90225482,1,-5.754776478,1,0.114435568,1,0.986864567,1,-0.701442778,1,0.35104996,1,-0.059887715,1,0.132649839,1
2.335720301,-6.406378269,1,-2.044808149,1,-5.63344717,1,0.096506014,1,0.91402483,1,-0.691085875,1,0.351542592,1,-0.055358112,1,0.131349862,1
2.339719534,-6.336937428,1,-2.096062422,1,-5.588684082,1,0.056790657,1,0.835571468,1,-0.687968254,1,0.351934254,1,-0.051126011,1,0.129965886,1
2.343720675,-6.186630249,1,-2.089497089,1,-5.467008114,1,0.012889779,1,0.739246666,1,-0.69457972,1,0.352149844,1,-0.047204908,1,0.128455833,1
2.347718,-6.140364647,1,-2.026177645,1,-5.3561306,1,-0.041918747,1,0.642397821,1,-0.707400441,1,0.352170676,1,-0.043632377,1,0.126786277,1
2.351717472,-6.131828308,1,-1.902150512,1,-5.209831238,1,-0.09213908,1,0.538664103,1,-0.717172086,1,0.351984382,1,-0.040428981,1,0.124924108,1
2.355718613,-6.189482212,1,-1.792527199,1,-5.000935078,1,-0.146541536,1,0.431137919,1,-0.739850879,1,0.351585925,1,-0.037602011,1,0.122856401,1
2.359721899,-6.305025578,1,-1.725167155,1,-4.822658539,1,-0.191211864,1,0.321883082,1,-0.755765319,1,0.350996643,1,-0.035156161,1,0.120561048,1
2.363721132,-6.502826214,1,-1.728096604,1,-4.588956356,1,-0.241201565,1,0.20670858,1,-0.782565892,1,0.350212038,1,-0.033105951,1,0.118041106,1
2.367722511,-6.735880852,1,-1.647455096,1,-4.388700962,1,-0.285316229,1,0.098188438,1,-0.800290883,1,0.34924978,1,-0.031447977,1,0.115276761,1
2.371719837,-6.998784542,1,-1.672000408,1,-4.225254536,1,-0.337263435,1,-0.014083876,1,-0.83200109,1,0.34808439,1,-0.030178932,1,0.112265073,1
2.37571907,-7.369250774,1,-1.673475385,1,-4.056540489,1,-0.371798843,1,-0.119780064,1,-0.865130484,1,0.346761048,1,-0.029271666,1,0.108994521,1
2.379720449,-7.799379826,1,-1.632001758,1,-3.959267616,1,-0.413926989,1,-0.218487203,1,-0.906820059,1,0.345295787,1,-0.028715281,1,0.105429515,1
2.383717775,-8.31944561,1,-1.660269022,1,-3.836049557,1,-0.450621158,1,-0.317163616,1,-0.953545749,1,0.343669772,1,-0.028466944,1,0.101562083,1
2.387717009,-8.706137657,1,-1.840710044,1,-3.664310694,1,-0.495795727,1,-0.400632977,1,-1.002298355,1,0.341893554,1,-0.028507778,1,0.097400315,1
2.391718388,-8.994747162,1,-2.026843071,1,-3.488213062,1,-0.54296124,1,-0.479775995,1,-1.040911913,1,0.339943171,1,-0.028793877,1,0.092954077,1
2.395715475,-9.221336365,1,-2.138295889,1,-3.353112698,1,-0.594866574,1,-0.562166989,1,-1.084956646,1,0.337805599,1,-0.029348671,1,0.088236496,1
2.399714708,-9.331899643,1,-2.303026199,1,-3.140809774,1,-0.65152514,1,-0.647218287,1,-1.113157272,1,0.335463136,1,-0.030179949,1,0.083279058,1
2.403716087,-9.389310837,1,-2.414086342,1,-2.925456524,1,-0.696112394,1,-0.73551178,1,-1.141469836,1,0.332927376,1,-0.031307958,1,0.078114398,1
2.407713175,-9.457715988,1,-2.422414064,1,-2.731646299,1,-0.749243796,1,-0.825285971,1,-1.155962706,1,0.330195308,1,-0.032765791,1,0.072756127,1
2.41171217,-9.45447731,1,-2.293503523,1,-2.563456774,1,-0.790186644,1,-0.920227945,1,-1.167743325,1,0.327305228,1,-0.034564998,1,0.067221403,1
2.415713549,-9.399553299,1,-2.165922403,1,-2.435609579,1,-0.817884922,1,-1.0156672,1,-1.177127838,1,0.324287772,1,-0.03672969,1,0.061540071,1
2.419710636,-9.35720253,1,-2.033149958,1,-2.34373045,1,-0.836123884,1,-1.115840077,1,-1.179993153,1,0.321199119,1,-0.039275046,1,0.055708665,1
2.423709869,-9.380096436,1,-1.94504261,1,-2.254821777,1,-0.837360919,1,-1.213603973,1,-1.181025743,1,0.318094373,1,-0.042220235,1,0.049760386,1
2.427711248,-9.530173302,1,-1.982982635,1,-2.163738728,1,-0.83253938,1,-1.303012967,1,-1.170086861,1,0.315015882,1,-0.04553644,1,0.043706637,1
2.431708336,-9.700248718,1,-2.006735325,1,-2.151545763,1,-0.821141422,1,-1.383559465,1,-1.145108223,1,0.312001586,1,-0.049218718,1,0.037637088,1
2.435707569,-9.899764061,1,-2.116786242,1,-2.128766537,1,-0.807534039,1,-1.459495544,1,-1.117027402,1,0.309052765,1,-0.05325355,1,0.031574812,1
2.439708948,-6.740534306,1,0.841808796,1,-5.384278774,1,-0.613309026,1,-1.538610935,1,-1.039654136,1,0.306365788,1,-0.057641767,1,0.025606705,1
2.443706036,21.0677166,1,8.341003418,1,-16.98417664,1,1.406164169,1,-2.274473906,1,-0.694177508,1,0.308328807,1,-0.063621275,1,0.0201577,1
2.447705269,-2.416263819,1,-3.428933859,1,-14.67047787,1,0.876503885,1,-2.242232561,1,-0.656592607,1,0.313747585,1,-0.071816862,1,0.014662359,1
2.451706648,18.42529488,1,-9.353777885,1,-18.51930428,1,0.587669134,1,-1.909739733,1,-0.680925429,1,0.316705614,1,-0.078666881,1,0.009616572,1
2.455703974,20.08401299,1,-15.83397102,1,-18.09490585,1,0.438736379,1,-2.23443675,1,-0.427238107,1,0.31938234,1,-0.085790992,1,0.004824705,1
2.459703207,12.62575817,1,-14.12692738,1,-17.92481232,1,-0.0380968,1,-2.295210123,1,-0.062991641,1,0.320490658,1,-0.094144419,1,0.001041674,1
2.463704348,11.60725498,1,-8.345024109,1,-15.93632317,1,-0.212604791,1,-2.376585007,1,0.253235817,1,0.320156544,1,-0.103086606,1,-0.001544657,1
2.467701674,10.48256397,1,-3.515035629,1,-12.6022644,1,-0.348357469,1,-2.625023127,1,0.575076878,1,0.319229066,1,-0.113052428,1,-0.003102186,1
2.471700907,6.444589138,1,-0.909945309,1,-10.48291874,1,-0.365260959,1,-3.061350346,1,0.849381506,1,0.317867041,1,-0.124720842,1,-0.003943393,1
2.475702047,2.942500353,1,-1.093709111,1,-9.881919861,1,-0.316138864,1,-3.560445786,1,0.96897316,1,0.316566765,1,-0.138445467,1,-0.004588544,1
2.479705334,-3.710679293,1,-0.222622529,1,-9.442365646,1,-0.225487635,1,-3.909151793,1,0.940454185,1,0.31563136,1,-0.153924137,1,-0.005576408,1
2.483704567,-9.00552845,1,1.205157638,1,-9.581409454,1,-0.120293573,1,-3.9863379,1,0.785233617,1,0.315184176,1,-0.170065552,1,-0.007213141,1
2.487705946,-11.9057312,1,2.676306486,1,-10.11314392,1,0.016611982,1,-3.950693846,1,0.604559004,1,0.315380871,1,-0.186033875,1,-0.009538048,1
2.491703033,-11.54869938,1,3.475447655,1,-11.53841209,1,0.258030474,1,-3.862165213,1,0.470471472,1,0.316420853,1,-0.201553449,1,-0.012415634,1
2.495702267,-9.584003448,1,1.377998233,1,-14.11282539,1,0.484607637,1,-3.818636894,1,0.377677977,1,0.31870237,1,-0.216657862,1,-0.015674697,1
2.499703646,-11.71771336,1,0.705793679,1,-13.91171265,1,0.532628655,1,-3.657373905,1,0.386313498,1,0.321483314,1,-0.231378317,1,-0.019047162,1
2.503700972,-9.950732231,1,1.321861863,1,-13.41389751,1,0.65077281,1,-3.456633806,1,0.424706846,1,0.32457149,1,-0.245362625,1,-0.022112021,1
2.507699966,-10.09231186,1,1.47114718,1,-12.68383408,1,0.777550459,1,-3.31222558,1,0.502523363,1,0.328116566,1,-0.25878787,1,-0.024779454,1
2.511701345,-11.13794994,1,0.574642062,1,-12.31251621,1,0.868013084,1,-3.128460169,1,0.598597944,1,0.331986278,1,-0.271721512,1,-0.026955394,1
2.515698671,-10.18092346,1,-1.036553144,1,-12.5004158,1,0.846898019,1,-2.964985609,1,0.725103378,1,0.335824966,1,-0.284083664,1,-0.02851465,1
2.519697905,-10.43063164,1,-2.743671179,1,-11.64572811,1,0.852715611,1,-2.793889999,1,0.778081715,1,0.339531153,1,-0.295956552,1,-0.029517753,1
2.523699284,-10.13044834,1,-3.924114943,1,-10.83534718,1,0.873033226,1,-2.580779314,1,0.761890829,1,0.343181491,1,-0.30712238,1,-0.030228836,1
2.527696371,-10.0701685,1,-6.082663536,1,-10.38749504,1,0.789368629,1,-2.430454254,1,0.731343567,1,0.346719027,1,-0.317528844,1,-0.030848041,1
2.531695604,-9.026403427,1,-6.76558733,1,-9.315353394,1,0.762053549,1,-2.31356287,1,0.669959843,1,0.350000024,1,-0.327412397,1,-0.031440746,1
2.535696983,-9.050081253,1,-7.940252781,1,-8.972354889,1,0.700378239,1,-2.175322294,1,0.551530302,1,0.353228122,1,-0.336669207,1,-0.032293513,1
2.539694071,-8.497763634,1,-8.278784752,1,-8.345788002,1,0.579635262,1,-2.093152285,1,0.461666435,1,0.356159419,1,-0.345376849,1,-0.03340878,1
2.543693542,-8.335268021,1,-9.27765274,1,-8.14874649,1,0.422269523,1,-2.026477575,1,0.392338067,1,0.358635902,1,-0.353685915,1,-0.034791339,1
2.547694921,-7.509440899,1,-8.755127907,1,-7.931498528,1,0.285851389,1,-1.944784999,1,0.313396394,1,0.360572994,1,-0.361579776,1,-0.036219988,1
2.551692247,-7.141029835,1,-7.685870171,1,-7.954175949,1,0.179093957,1,-1.876038074,1,0.255957991,1,0.36213401,1,-0.369134307,1,-0.037973147,1
2.555691481,-7.038172722,1,-7.879681587,1,-8.566866875,1,0.049185537,1,-1.811723113,1,0.231116429,1,0.363292694,1,-0.376358867,1,-0.039820418,1
2.559692621,-7.625833511,1,-6.601248741,1,-8.360157967,1,-0.086636931,1,-1.735848188,1,0.281577468,1,0.363820136,1,-0.383383274,1,-0.04150876,1
2.563689709,-7.552960873,1,-5.334231853,1,-8.54929924,1,-0.145531461,1,-1.616783381,1,0.283637941,1,0.363890767,1,-0.390047908,1,-0.042956494,1
2.567688942,-7.851714611,1,-4.381189346,1,-8.977150917,1,-0.189368844,1,-1.498971939,1,0.302243531,1,0.363689661,1,-0.396299064,1,-0.044182543,1
2.571690559,-8.119603157,1,-3.902914286,1,-8.931763649,1,-0.234851867,1,-1.376712084,1,0.364527911,1,0.363152802,1,-0.402163684,1,-0.045041244,1
2.575688124,-7.669897556,1,-2.919508696,1,-8.957785606,1,-0.23180443,1,-1.259632945,1,0.393369138,1,0.362401605,1,-0.407622576,1,-0.045528438,1
2.579687119,-7.547410488,1,-2.407868862,1,-9.094374657,1,-0.200918391,1,-1.153795719,1,0.397031009,1,0.361649722,1,-0.412693143,1,-0.045779232,1
2.583688736,-6.890330791,1,-2.529360294,1,-9.073186874,1,-0.175042018,1,-1.065404296,1,0.410550088,1,0.360918611,1,-0.417402714,1,-0.045837216,1
2.587686062,-6.940531731,1,-3.194725275,1,-9.081944466,1,-0.173614979,1,-0.991521418,1,0.429352134,1,0.360165447,1,-0.421836913,1,-0.045694526,1
2.591685295,-6.7747612,1,-3.417542696,1,-8.861880302,1,-0.175538287,1,-0.918443024,1,0.410319656,1,0.359340608,1,-0.426009148,1,-0.045435525,1
2.595686674,-6.343413353,1,-3.599553585,1,-8.689213753,1,-0.180800214,1,-0.858486354,1,0.39031291,1,0.35852164,1,-0.429899126,1,-0.045157943,1
2.599689722,-5.872095108,1,-3.81192708,1,-8.424782753,1,-0.190377727,1,-0.813502431,1,0.385795474,1,0.357660651,1,-0.433559,1,-0.044853866,1
2.603689194,-5.255997181,1,-3.683210611,1,-8.204794884,1,-0.202576026,1,-0.794158161,1,0.382100463,1,0.356730402,1,-0.437109709,1,-0.044506919,1
2.607690573,-4.880083561,1,-3.697817326,1,-8.168041229,1,-0.216854647,1,-0.784785807,1,0.383359671,1,0.355739921,1,-0.4405981,1,-0.044144817,1
2.61168766,-4.656589985,1,-3.752911806,1,-8.147118568,1,-0.233818874,1,-0.774942458,1,0.412470549,1,0.354651064,1,-0.444067895,1,-0.043703124,1
2.615687132,-4.44652319,1,-3.894039154,1,-8.142342567,1,-0.271522164,1,-0.762456775,1,0.463838875,1,0.353370488,1,-0.447554171,1,-0.043069046,1
2.619688511,-4.313943386,1,-4.015010834,1,-8.065282822,1,-0.305137843,1,-0.748546898,1,0.514346004,1,0.351833582,1,-0.451070368,1,-0.042187799,1
2.623685598,-4.189110756,1,-4.060912609,1,-7.979871273,1,-0.345171392,1,-0.734583139,1,0.563321292,1,0.350041837,1,-0.454600871,1,-0.041065168,1
2.627684832,-4.133146763,1,-4.005364418,1,-7.930087566,1,-0.379527301,1,-0.73015213,1,0.60794431,1,0.348000705,1,-0.458148897,1,-0.039716892,1
2.631686211,-4.144243717,1,-3.901081324,1,-7.836295128,1,-0.419957191,1,-0.721346319,1,0.643528104,1,0.345726848,1,-0.461726427,1,-0.038189914,1
2.635683537,-4.431688309,1,-3.970423937,1,-7.837460041,1,-0.462892681,1,-0.719933152,1,0.675365925,1,0.343216002,1,-0.465336502,1,-0.036511026,1
2.63968277,-4.481579781,1,-3.714021444,1,-7.809586525,1,-0.498084038,1,-0.721825898,1,0.676267385,1,0.340486825,1,-0.468963385,1,-0.03472922,1
2.643684149,-4.286780834,1,-3.481011391,1,-7.893551826,1,-0.529253662,1,-0.724500716,1,0.676777899,1,0.337632298,1,-0.472578973,1,-0.032951478,1
2.647681475,-4.76234293,1,-3.460154295,1,-8.134937286,1,-0.56944114,1,-0.724597216,1,0.68763268,1,0.334604651,1,-0.476219207,1,-0.031131782,1
2.651680708,-4.869711876,1,-2.751866341,1,-8.284517288,1,-0.597331822,1,-0.707231045,1,0.684865296,1,0.331388593,1,-0.479829222,1,-0.02926426,1
2.655682087,-4.756855011,1,-2.428090811,1,-8.478417397,1,-0.61888355,1,-0.693040907,1,0.684646428,1,0.328091502,1,-0.483368725,1,-0.027366998,1
2.659679413,-5.519329071,1,-2.14517808,1,-8.667032242,1,-0.63677609,1,-0.658533573,1,0.703932762,1,0.324641645,1,-0.486826688,1,-0.025376072,1
2.663678646,-5.448009968,1,-1.592527866,1,-8.835285187,1,-0.635727048,1,-0.606964946,1,0.69905889,1,0.321093321,1,-0.490116656,1,-0.023260631,1
2.667680264,-6.3150177,1,-1.273382068,1,-9.222993851,1,-0.634855747,1,-0.552579701,1,0.675928295,1,0.317550242,1,-0.493205607,1,-0.02111504,1
2.671677589,-5.469241619,1,-1.380512595,1,-8.848299026,1,-0.599838376,1,-0.488581419,1,0.655920625,1,0.314065456,1,-0.495993227,1,-0.018981282,1
2.675676823,-5.604151726,1,-1.338894486,1,-8.877748489,1,-0.590885162,1,-0.473282158,1,0.646661639,1,0.310654908,1,-0.498626649,1,-0.016835634,1
2.67967844,-7.518662453,1,-1.509644389,1,-9.154919624,1,-0.572637796,1,-0.379683852,1,0.613722503,1,0.307290792,1,-0.501037776,1,-0.014688502,1
2.683676243,-6.555598736,1,-1.58063364,1,-9.03318119,1,-0.529641271,1,-0.281219214,1,0.570796609,1,0.304077595,1,-0.502994597,1,-0.012571756,1
2.687675476,-5.211606026,1,-1.823228002,1,-8.405768394,1,-0.505787015,1,-0.260031939,1,0.558796167,1,0.300995052,1,-0.504685521,1,-0.010469851,1
2.691676855,-4.358932018,1,-2.315173864,1,-8.480494499,1,-0.479271799,1,-0.280555427,1,0.548716187,1,0.298022836,1,-0.506373703,1,-0.008395756,1
2.695674419,-5.303262711,1,-2.927012682,1,-8.717963219,1,-0.47765252,1,-0.278752148,1,0.516285956,1,0.295145869,1,-0.508076191,1,-0.00643157,1
2.699673891,-5.37622118,1,-2.962542534,1,-8.542268753,1,-0.477236003,1,-0.249558225,1,0.489686161,1,0.29233259,1,-0.509656549,1,-0.00457619,1
2.703675747,-5.928851128,1,-2.653157711,1,-8.419900894,1,-0.470108956,1,-0.231373444,1,0.467554331,1,0.289564401,1,-0.511134565,1,-0.002804878,1
2.70767355,-6.965093136,1,-1.989278793,1,-8.663967133,1,-0.436744452,1,-0.165775299,1,0.426436335,1,0.28690055,1,-0.512402773,1,-0.00109635,1
2.711673021,-5.364317894,1,-1.949423075,1,-8.075313568,1,-0.422374189,1,-0.158744141,1,0.401122421,1,0.284391701,1,-0.513474464,1,0.000522764,1
2.7156744,-5.439539909,1,-1.948110938,1,-8.182620049,1,-0.39544335,1,-0.173988834,1,0.3763327,1,0.282021284,1,-0.514562786,1,0.002027969,1
2.719677687,-5.627036095,1,-2.167921543,1,-8.468989372,1,-0.376762718,1,-0.165415868,1,0.357477576,1,0.279787123,1,-0.515626788,1,0.003424999,1
2.723677158,-5.646719456,1,-2.429722548,1,-8.234012604,1,-0.374593318,1,-0.150503397,1,0.333307981,1,0.277640879,1,-0.516611099,1,0.004737902,1
2.727678776,-5.22376585,1,-2.537401199,1,-8.06146431,1,-0.356955498,1,-0.154000893,1,0.316932529,1,0.275571734,1,-0.517544806,1,0.005983176,1
2.73167634,-5.341818333,1,-2.557726145,1,-8.083950996,1,-0.357194006,1,-0.144157425,1,0.306557387,1,0.273557872,1,-0.518455744,1,0.007174216,1
2.735675573,-5.418554783,1,-2.552437782,1,-8.13792038,1,-0.357320666,1,-0.131519452,1,0.298066378,1,0.271541148,1,-0.519314587,1,0.008350268,1
2.739676952,-5.271965504,1,-2.533164978,1,-7.993889809,1,-0.354494363,1,-0.123789608,1,0.287132233,1,0.269549847,1,-0.520117879,1,0.009503053,1
2.743674278,-5.502050877,1,-2.667871475,1,-7.988772869,1,-0.354785204,1,-0.110781878,1,0.283300459,1,0.267572731,1,-0.520877361,1,0.010625313,1
2.747673512,-5.74801445,1,-2.544164181,1,-8.040433884,1,-0.354828328,1,-0.097989231,1,0.271394849,1,0.265607834,1,-0.521578848,1,0.011722418,1
2.751674891,-5.580392361,1,-2.190199137,1,-8.193144798,1,-0.337510109,1,-0.083375663,1,0.249385253,1,0.263715714,1,-0.522196352,1,0.01277622,1
2.755672216,-5.405909538,1,-1.885855794,1,-8.159880638,1,-0.320035756,1,-0.072498783,1,0.239369869,1,0.261895508,1,-0.522755325,1,0.013770689,1
2.75967145,-5.486336708,1,-1.774631262,1,-8.273097038,1,-0.30021441,1,-0.060065228,1,0.226269215,1,0.260188967,1,-0.523255944,1,0.014718891,1
2.763673067,-5.373877048,1,-1.803030133,1,-8.204864502,1,-0.266030073,1,-0.062500164,1,0.212513044,1,0.258605063,1,-0.523720205,1,0.015624573,1
2.767670631,-5.390061378,1,-1.767704964,1,-8.190210342,1,-0.240909383,1,-0.054544207,1,0.200352535,1,0.257161438,1,-0.524167657,1,0.016481657,1
2.771669865,-5.456353664,1,-1.611139297,1,-8.125475883,1,-0.212224469,1,-0.056808736,1,0.191079944,1,0.255855739,1,-0.524585724,1,0.017284762,1
2.775671244,-5.2803092,1,-1.604123116,1,-8.157804489,1,-0.193689942,1,-0.055727109,1,0.1747417,1,0.254659832,1,-0.524990797,1,0.018038888,1
2.779668808,-5.290771008,1,-1.595839143,1,-8.204997063,1,-0.170382127,1,-0.056453962,1,0.168809891,1,0.253585696,1,-0.525382578,1,0.018736986,1
2.783667803,-5.226004601,1,-1.573640943,1,-8.137763023,1,-0.151537374,1,-0.060274746,1,0.151039347,1,0.25260967,1,-0.52577436,1,0.019380679,1
2.787668943,-5.176662922,1,-1.525137305,1,-8.127150536,1,-0.134379715,1,-0.063033894,1,0.143739969,1,0.251747966,1,-0.526151061,1,0.019973537,1
2.791666269,-5.203222752,1,-1.539837837,1,-8.151349068,1,-0.115321636,1,-0.066250868,1,0.126285002,1,0.250991613,1,-0.526532769,1,0.020497249,1
2.795665503,-5.168183804,1,-1.5836972,1,-8.152507782,1,-0.096800022,1,-0.068449527,1,0.115378857,1,0.25075227,1,-0.528528094,1,0.01608786,1
2.799666643,-5.115195751,1,-1.659572721,1,-8.182169914,1,-0.082393594,1,-0.075883873,1,0.102845088,1,0.250183821,1,-0.528855979,1,0.016803306,1
2.803664207,-5.208133698,1,-1.613819838,1,-8.218434334,1,-0.068400763,1,-0.082215719,1,0.086480685,1,0.249709919,1,-0.529249966,1,0.017142981,1
2.807663679,-5.237905025,1,-1.680336833,1,-8.270330429,1,-0.054274671,1,-0.072627649,1,0.075667031,1,0.249325335,1,-0.529630125,1,0.017415404,1
2.81166482,-5.257120132,1,-1.8021909,1,-8.26220417,1,-0.04216329,1,-0.065670356,1,0.070128553,1,0.249006197,1,-0.529967189,1,0.01766015,1
2.815662146,-5.217923641,1,-1.807646155,1,-8.226870537,1,-0.03134422,1,-0.062460054,1,0.054088432,1,0.248756081,1,-0.530275047,1,0.017856915,1
2.819661379,-5.294415951,1,-1.959171295,1,-8.165564537,1,-0.021467803,1,-0.063831478,1,0.046040833,1,0.248574033,1,-0.530567527,1,0.018005297,1
2.823662519,-5.106806278,1,-2.065687895,1,-8.153268814,1,-0.017375879,1,-0.057673167,1,0.042108703,1,0.248433903,1,-0.530848384,1,0.018131146,1
2.827660084,-5.245288849,1,-1.982804298,1,-8.212103844,1,-0.011149802,1,-0.057585929,1,0.037894849,1,0.248324305,1,-0.531112075,1,0.018241292,1
2.831659317,-5.185575485,1,-1.93657887,1,-8.131727219,1,-0.0111857,1,-0.056610838,1,0.042293865,1,0.248208463,1,-0.531378329,1,0.0183699,1
2.835660219,-5.211000919,1,-1.797318339,1,-8.153261185,1,-0.001365365,1,-0.053250618,1,0.046435233,1,0.248110786,1,-0.531639576,1,0.018507976,1
2.839657784,-5.400195599,1,-1.796805024,1,-8.047621727,1,0.017265378,1,-0.042147826,1,0.051220115,1,0.248065487,1,-0.531876147,1,0.018669412,1
2.843663216,-4.700113297,1,-1.854266524,1,-8.307250977,1,0.019905478,1,-0.04688216,1,0.044829402,1,0.248041078,1,-0.532075465,1,0.018864661,1
2.847664356,-5.110097408,1,-2.001882076,1,-8.110503197,1,0.024033008,1,-0.052102264,1,0.042965099,1,0.248063147,1,-0.532324672,1,0.019006142,1
2.851661921,-5.026877403,1,-2.038924932,1,-8.173141479,1,0.026237557,1,-0.055693485,1,0.044875998,1,0.248096094,1,-0.532584488,1,0.019135488,1
2.855660915,-5.058350563,1,-2.087186813,1,-8.165391922,1,0.026823014,1,-0.051978305,1,0.043086324,1,0.248136669,1,-0.532834291,1,0.019272663,1
2.859662056,-5.05906868,1,-2.139845848,1,-8.138717651,1,0.025094425,1,-0.051116485,1,0.049341131,1,0.248166248,1,-0.533079267,1,0.019420022,1
2.863659382,-5.312341213,1,-2.2164042,1,-7.970191002,1,0.021797281,1,-0.037158396,1,0.062363375,1,0.248160586,1,-0.533315718,1,0.019603347,1
2.867658615,-4.704389095,1,-2.221932888,1,-8.198422432,1,0.010022612,1,-0.053715166,1,0.05973633,1,0.248106971,1,-0.533537865,1,0.019834176,1
2.871659756,-4.883135796,1,-2.382915258,1,-8.126117706,1,0.000145005,1,-0.065019742,1,0.067292571,1,0.248011902,1,-0.533832848,1,0.020059675,1
2.87565732,-4.875450134,1,-2.549372673,1,-8.157506943,1,-0.012696198,1,-0.066024631,1,0.07564465,1,0.247859284,1,-0.534151614,1,0.020309325,1
2.879656553,-5.018904209,1,-2.648455381,1,-8.070689201,1,-0.032169487,1,-0.063869752,1,0.094309971,1,0.247607172,1,-0.534492731,1,0.02062406,1
2.883657694,-5.01151371,1,-2.6733675,1,-8.13995266,1,-0.047023132,1,-0.058159538,1,0.107361756,1,0.247264892,1,-0.534831166,1,0.021006875,1
2.88765502,-4.943980694,1,-2.681719542,1,-8.077673912,1,-0.071795881,1,-0.059809357,1,0.118993171,1,0.246797204,1,-0.535171866,1,0.021452688,1
2.891654491,-4.971151829,1,-2.706912041,1,-8.063700676,1,-0.086535424,1,-0.05938708,1,0.138949081,1,0.246213958,1,-0.535529792,1,0.021965222,1
2.895655632,-4.968911171,1,-2.631774187,1,-8.119609833,1,-0.109107137,1,-0.043806911,1,0.156105265,1,0.245485529,1,-0.535868227,1,0.022589108,1
2.899652958,-5.021429062,1,-2.637457371,1,-8.131848335,1,-0.129348993,1,-0.036998559,1,0.171496972,1,0.244656324,1,-0.536192954,1,0.023285396,1
2.903652191,-5.060730457,1,-2.586414099,1,-8.15324688,1,-0.142906904,1,-0.028343763,1,0.176279902,1,0.243723109,1,-0.536489189,1,0.024049837,1
2.907653332,-5.026410103,1,-2.546750069,1,-8.121357918,1,-0.161647007,1,-0.027046526,1,0.18846488,1,0.242706493,1,-0.536769271,1,0.024840938,1
2.911651134,-5.072043419,1,-2.360954285,1,-8.111927986,1,-0.178873003,1,-0.022060113,1,0.191256344,1,0.241603374,1,-0.537048399,1,0.025671804,1
2.915650845,-5.125311852,1,-2.217449188,1,-8.167822838,1,-0.18024829,1,-0.020266796,1,0.191687793,1,0.240440309,1,-0.537315309,1,0.026527327,1
2.919652462,-5.078282356,1,-2.034223318,1,-8.205215454,1,-0.194221288,1,-0.019269671,1,0.195969909,1,0.239252791,1,-0.537582874,1,0.027380314,1
2.923650265,-5.089948654,1,-2.000406742,1,-8.237796783,1,-0.197686791,1,-0.027184211,1,0.186649933,1,0.238046736,1,-0.537852705,1,0.028221684,1
2.927650213,-5.168839931,1,-1.867844701,1,-8.179204941,1,-0.199459165,1,-0.027018346,1,0.186245516,1,0.236832693,1,-0.538134873,1,0.029035501,1
2.931651592,-5.212142944,1,-1.88431561,1,-8.179900169,1,-0.200944304,1,-0.024054557,1,0.183888599,1,0.235627234,1,-0.538402617,1,0.029845102,1
2.935648918,-5.166785717,1,-1.820916295,1,-8.167046547,1,-0.192994788,1,-0.021932645,1,0.180228874,1,0.234424233,1,-0.53865087,1,0.030657299,1
2.939648151,-5.144341469,1,-1.922834158,1,-8.122410774,1,-0.197665408,1,-0.018850209,1,0.176685765,1,0.233227,1,-0.538900435,1,0.031448334,1
2.943649769,-5.172502995,1,-1.941672206,1,-8.117472649,1,-0.200933769,1,-0.011930048,1,0.183778062,1,0.232020319,1,-0.539125979,1,0.032247912,1
2.947647333,-5.049395561,1,-2.098577261,1,-8.068511963,1,-0.204377353,1,-0.008548217,1,0.194170445,1,0.230782166,1,-0.539342761,1,0.03308719,1
2.951646566,-4.983512878,1,-2.15226841,1,-8.15381813,1,-0.216433927,1,-0.00837828,1,0.202268451,1,0.229475513,1,-0.53955406,1,0.033979852,1
2.955647945,-5.013675213,1,-2.151497126,1,-8.134916306,1,-0.220170408,1,-0.005005985,1,0.209554911,1,0.228117198,1,-0.539772153,1,0.034915753,1
2.95964551,-5.025505543,1,-2.110995531,1,-8.166459084,1,-0.231786698,1,-0.001678555,1,0.219274178,1,0.2267133,1,-0.539984941,1,0.035889052,1
2.96365118,-5.099104881,1,-1.947220802,1,-8.207848549,1,-0.234994128,1,-0.003249513,1,0.221712679,1,0.225273967,1,-0.540195704,1,0.036881305,1
2.967652798,-5.074719429,1,-1.894211769,1,-8.243849754,1,-0.235253766,1,-0.002369567,1,0.218657643,1,0.223828107,1,-0.540404201,1,0.037877612,1
2.9716506,-5.068608761,1,-1.756430387,1,-8.218662262,1,-0.227982849,1,-0.000909619,1,0.223086178,1,0.222376302,1,-0.540614545,1,0.038891524,1
2.975650072,-5.116258621,1,-1.777811766,1,-8.268548012,1,-0.227698416,1,-0.006919804,1,0.224706769,1,0.220937893,1,-0.540828466,1,0.039915618,1
2.979651213,-5.080183029,1,-1.882015824,1,-8.193544388,1,-0.228493914,1,-0.002476377,1,0.226688087,1,0.219505325,1,-0.54104495,1,0.04094144,1
2.983648539,-5.132204533,1,-1.951342821,1,-8.201490402,1,-0.227713376,1,0.002405661,1,0.235310063,1,0.218052208,1,-0.541253269,1,0.041992307,1
2.987647772,-5.058487892,1,-2.063734531,1,-8.199864388,1,-0.231331885,1,-0.003983229,1,0.238400102,1,0.216580451,1,-0.54145813,1,0.043069009,1
2.991648912,-5.139733791,1,-2.098998785,1,-8.199176788,1,-0.238870665,1,-0.001018158,1,0.244759962,1,0.215071574,1,-0.541673779,1,0.044174407,1
2.995646477,-5.145009995,1,-2.155115843,1,-8.124891281,1,-0.24197726,1,0.003006893,1,0.252918631,1,0.213523984,1,-0.54188025,1,0.045312565,1
2.99964571,-5.070910931,1,-2.09898591,1,-8.210092545,1,-0.25142473,1,0.000681157,1,0.259521455,1,0.211928278,1,-0.542086124,1,0.046484843,1
3.003647089,-5.177733898,1,-2.011051416,1,-8.146704674,1,-0.255261332,1,0.005887051,1,0.264846385,1,0.210305929,1,-0.542294323,1,0.047681097,1
3.007644415,-5.178765774,1,-1.760703325,1,-8.125430107,1,-0.258131683,1,0.01090482,1,0.260126919,1,0.208656475,1,-0.542472601,1,0.048891094,1
3.011643648,-5.203883171,1,-1.55633831,1,-8.180215836,1,-0.254111022,1,0.010481551,1,0.259228617,1,0.20701471,1,-0.542647481,1,0.050095081,1
3.015645027,-5.149292946,1,-1.389644265,1,-8.241137505,1,-0.247358233,1,0.01188093,1,0.253185928,1,0.20541288,1,-0.542814136,1,0.051270764,1
3.019642353,-5.201954365,1,-1.340989351,1,-8.232951164,1,-0.231669217,1,0.010526309,1,0.24382858,1,0.203857422,1,-0.54296881,1,0.052422307,1
3.023641586,-5.200677395,1,-1.282999635,1,-8.174660683,1,-0.225680828,1,0.014736394,1,0.233589381,1,0.202377662,1,-0.54312396,1,0.053517651,1
3.027642965,-5.270326614,1,-1.353559732,1,-8.19190979,1,-0.21390608,1,0.013374949,1,0.2229978,1,0.200958312,1,-0.543249547,1,0.054569673,1
3.031640291,-5.228042126,1,-1.439984322,1,-8.165629387,1,-0.208234742,1,0.018271718,1,0.208416432,1,0.199592963,1,-0.543356299,1,0.05557999,1
3.035639524,-5.204091072,1,-1.479767203,1,-8.212203979,1,-0.204148114,1,0.018637853,1,0.205971196,1,0.198272184,1,-0.543452084,1,0.056538761,1
3.039641142,-5.18066597,1,-1.495577455,1,-8.279380798,1,-0.198028132,1,0.015710946,1,0.199495703,1,0.196974203,1,-0.543546796,1,0.057482354,1
3.043638468,-5.114802837,1,-1.52715528,1,-8.231945992,1,-0.201153576,1,0.016590759,1,0.197738305,1,0.19570069,1,-0.543637872,1,0.058400847,1
3.047637701,-5.137206554,1,-1.496400952,1,-8.297296524,1,-0.189845398,1,0.011926183,1,0.194639385,1,0.194522932,1,-0.543807149,1,0.059355598,1
3.05163908,-5.106280804,1,-1.571846485,1,-8.28117466,1,-0.190736398,1,0.01320926,1,0.192649752,1,0.193291232,1,-0.543906569,1,0.060250837,1
3.055636406,-5.096382618,1,-1.59982276,1,-8.230472565,1,-0.18668215,1,0.007010295,1,0.19823055,1,0.192051604,1,-0.544008791,1,0.061166611,1
3.059635639,-5.152518272,1,-1.799736857,1,-8.251662254,1,-0.194573745,1,0.01269383,1,0.202591032,1,0.190805465,1,-0.544115901,1,0.062107284,1
3.063637257,-5.11522007,1,-1.836883307,1,-8.178492546,1,-0.20011723,1,0.016645467,1,0.21080634,1,0.189526767,1,-0.544217825,1,0.063069917,1
3.067634583,-5.133298874,1,-1.900544167,1,-8.156349182,1,-0.202261284,1,0.022301741,1,0.213590279,1,0.18821615,1,-0.544304073,1,0.064060338,1
3.071634293,-5.122068405,1,-1.840517044,1,-8.173174858,1,-0.214536011,1,0.021118682,1,0.22396183,1,0.186848059,1,-0.544384837,1,0.06507542,1
3.075635672,-5.196193218,1,-1.717327476,1,-8.155426025,1,-0.218898132,1,0.024429288,1,0.224280745,1,0.185436741,1,-0.544459939,1,0.066128373,1
3.079633236,-5.151990414,1,-1.627358437,1,-8.225361824,1,-0.226240024,1,0.026969107,1,0.224228621,1,0.184003562,1,-0.544524133,1,0.067181721,1
3.08363843,-5.170760632,1,-1.448052645,1,-8.195667267,1,-0.222826064,1,0.03444897,1,0.227733955,1,0.182556048,1,-0.544560015,1,0.068249822,1
3.087640047,-5.177738667,1,-1.347069144,1,-8.21594429,1,-0.221946433,1,0.035272487,1,0.223151609,1,0.181113154,1,-0.544583201,1,0.06932167,1
3.091637611,-5.15851593,1,-1.235694766,1,-8.229158401,1,-0.213364318,1,0.040121302,1,0.223351374,1,0.179695591,1,-0.544596791,1,0.070379838,1
3.095636845,-5.151867867,1,-1.202330351,1,-8.220631599,1,-0.206203759,1,0.031676244,1,0.217038184,1,0.178303793,1,-0.54461205,1,0.071425088,1
3.099637985,-5.209474087,1,-1.231345892,1,-8.22461319,1,-0.201978579,1,0.03970658,1,0.212920561,1,0.176956996,1,-0.544624209,1,0.072450034,1
3.10363555,-5.139793396,1,-1.216434002,1,-8.194377899,1,-0.199453786,1,0.042596031,1,0.210866302,1,0.175634295,1,-0.544613659,1,0.07345441,1
3.107634783,-5.090390682,1,-1.172557592,1,-8.257250786,1,-0.194858313,1,0.048106246,1,0.209326297,1,0.174319595,1,-0.544590056,1,0.07447432,1
3.111635923,-5.06415987,1,-1.324706674,1,-8.29776001,1,-0.191366076,1,0.040807512,1,0.210705191,1,0.173026875,1,-0.544563353,1,0.075481415,1
3.115633488,-5.081655502,1,-1.295081258,1,-8.329236984,1,-0.188184008,1,0.039650623,1,0.206848621,1,0.171757475,1,-0.544545591,1,0.076465614,1
3.119632959,-5.079691887,1,-1.366565943,1,-8.322757721,1,-0.186737016,1,0.039328799,1,0.206208333,1,0.17050153,1,-0.544537246,1,0.077443555,1
3.1236341,-5.005998611,1,-1.500382066,1,-8.315213203,1,-0.182444751,1,0.037993725,1,0.206258774,1,0.169252098,1,-0.544527888,1,0.078421868,1
3.127631664,-5.028977871,1,-1.517659068,1,-8.402364731,1,-0.185309231,1,0.030991539,1,0.206640512,1,0.167997628,1,-0.544526219,1,0.079414777,1
3.131630898,-4.95888567,1,-1.489208102,1,-8.40807724,1,-0.18602784,1,0.025585262,1,0.207995594,1,0.166746303,1,-0.544549823,1,0.080393322,1
3.135632277,-4.988153458,1,-1.428027511,1,-8.39809227,1,-0.191068485,1,0.018866358,1,0.224518508,1,0.165457115,1,-0.544614434,1,0.081408009,1
3.139629841,-5.01862669,1,-1.40638113,1,-8.388736725,1,-0.187553152,1,0.010512673,1,0.220033705,1,0.164168507,1,-0.544704795,1,0.082435906,1
3.143629074,-5.018315315,1,-1.342738152,1,-8.395632744,1,-0.187280789,1,0.000232477,1,0.229164198,1,0.162869453,1,-0.544835389,1,0.083481237,1
3.147630453,-5.007842064,1,-1.314409614,1,-8.373596191,1,-0.186319023,1,-0.008633372,1,0.2307657,1,0.16157189,1,-0.54499948,1,0.084542245,1
3.151627779,-5.105279922,1,-1.332779884,1,-8.37988472,1,-0.182480648,1,-0.010709876,1,0.234290674,1,0.160277426,1,-0.545189142,1,0.085611805,1
3.155627251,-5.031286716,1,-1.366538644,1,-8.403184891,1,-0.184928074,1,-0.021333082,1,0.239172429,1,0.158978462,1,-0.545397758,1,0.086697131,1
3.159628868,-5.047092915,1,-1.314882398,1,-8.448407173,1,-0.181380764,1,-0.024564601,1,0.233749464,1,0.157690167,1,-0.545635819,1,0.087766312,1
3.163626194,-5.057214737,1,-1.374165654,1,-8.468192101,1,-0.185342863,1,-0.034551997,1,0.238652572,1,0.156404078,1,-0.545908213,1,0.088832647,1
3.167625666,-5.073271751,1,-1.267688751,1,-8.512111664,1,-0.185306698,1,-0.040502116,1,0.233063921,1,0.155113146,1,-0.546206772,1,0.08989422,1
3.171627045,-5.093738079,1,-1.225623846,1,-8.505527496,1,-0.185258806,1,-0.046960004,1,0.234369382,1,0.15383096,1,-0.546528101,1,0.090934925,1
3.175624132,-5.042973518,1,-1.3102988,1,-8.491593361,1,-0.187411457,1,-0.054796215,1,0.227827862,1,0.152555272,1,-0.546863317,1,0.091957092,1
3.179623365,-5.07552433,1,-1.134405971,1,-8.497733116,1,-0.186873883,1,-0.063986152,1,0.222638249,1,0.151289791,1,-0.547239125,1,0.092955634,1
3.183624744,-4.981383801,1,-1.205951095,1,-8.50304985,1,-0.186893672,1,-0.075579852,1,0.223263144,1,0.15003553,1,-0.547650874,1,0.093931407,1
3.187622309,-5.073184013,1,-1.123476863,1,-8.548757553,1,-0.180415705,1,-0.085520372,1,0.215339437,1,0.148804456,1,-0.548095763,1,0.094886787,1
3.19162178,-5.106169701,1,-1.13474381,1,-8.486086845,1,-0.183070347,1,-0.086921006,1,0.209619477,1,0.147586823,1,-0.548564672,1,0.095806614,1
3.195623159,-5.118268967,1,-1.373551607,1,-8.47467041,1,-0.186968237,1,-0.095329516,1,0.203421503,1,0.146380305,1,-0.54903698,1,0.096712165,1
3.199620962,-5.014825821,1,-1.389761329,1,-8.512364388,1,-0.203166679,1,-0.10130126,1,0.208420485,1,0.145135656,1,-0.549535215,1,0.097607993,1
3.203626394,-5.002001762,1,-1.406680584,1,-8.499194145,1,-0.206642821,1,-0.111640878,1,0.214409396,1,0.143839031,1,-0.550079763,1,0.098523945,1
3.207628012,-5.015599251,1,-1.510116458,1,-8.511621475,1,-0.218000278,1,-0.116577119,1,0.219366536,1,0.142501786,1,-0.550647736,1,0.099464528,1
3.211626053,-5.000967979,1,-1.546776533,1,-8.566557884,1,-0.228695363,1,-0.128707021,1,0.224296153,1,0.141116425,1,-0.551255345,1,0.100406446,1
3.215625286,-4.99458313,1,-1.407947302,1,-8.640780449,1,-0.226936102,1,-0.138301298,1,0.235521287,1,0.13968122,1,-0.55191797,1,0.101391867,1
3.219626665,-5.143169403,1,-1.673087597,1,-8.579490662,1,-0.239156216,1,-0.14971821,1,0.246283695,1,0.138217047,1,-0.552621067,1,0.10241387,1
3.223624468,-5.12211895,1,-1.912650585,1,-8.63342762,1,-0.253223926,1,-0.16192615,1,0.260293722,1,0.136668861,1,-0.553379178,1,0.103490852,1
3.227623701,-5.123462677,1,-2.054735899,1,-8.764832497,1,-0.26376906,1,-0.178563878,1,0.275903642,1,0.135026604,1,-0.554198802,1,0.104626432,1
3.231625319,-5.052352905,1,-2.005285978,1,-8.886939049,1,-0.295119524,1,-0.21406287,1,0.308399975,1,0.133262947,1,-0.555128872,1,0.105860785,1
3.235622883,-4.858926296,1,-1.93852663,1,-9.16362381,1,-0.315386742,1,-0.249500632,1,0.331909537,1,0.131338477,1,-0.556218624,1,0.107215546,1
3.239622355,-4.735820293,1,-2.463286161,1,-9.33261013,1,-0.374839127,1,-0.288809061,1,0.349304467,1,0.129216447,1,-0.557455182,1,0.108634241,1
3.243623972,-4.790709972,1,-2.435763359,1,-9.096953392,1,-0.410040736,1,-0.327373087,1,0.367480725,1,0.126847088,1,-0.558865011,1,0.110116035,1
3.247621298,-5.184242249,1,-2.650335073,1,-9.418759346,1,-0.433248729,1,-0.365119517,1,0.394799352,1,0.124332644,1,-0.560431004,1,0.111693323,1
3.25162077,-5.040828705,1,-2.995368958,1,-9.228656769,1,-0.503499985,1,-0.412144452,1,0.430530429,1,0.121533267,1,-0.562176466,1,0.113414414,1
3.255622387,-5.22048378,1,-2.984339714,1,-9.703243256,1,-0.54926163,1,-0.455296576,1,0.473010272,1,0.118434578,1,-0.564124584,1,0.115286343,1
3.25962019,-5.140376568,1,-2.799370766,1,-9.681800842,1,-0.620738804,1,-0.516298056,1,0.524493217,1,0.114975557,1,-0.566286147,1,0.117373265,1
3.263619661,-4.554358959,1,-2.226595402,1,-9.667090416,1,-0.591260135,1,-0.577034116,1,0.554473937,1,0.111384876,1,-0.568709731,1,0.119607635,1
3.26762104,-4.806567669,1,-2.145750999,1,-9.573370934,1,-0.619923353,1,-0.628186822,1,0.591744423,1,0.107661352,1,-0.571355104,1,0.122005865,1
3.271618843,-5.067879677,1,-1.293717027,1,-10.33273697,1,-0.616901577,1,-0.717942357,1,0.62882638,1,0.103778787,1,-0.574276567,1,0.124573782,1
3.275618315,-5.160329342,1,-1.373571634,1,-10.375247,1,-0.592745364,1,-0.788435221,1,0.668761671,1,0.09993688,1,-0.577533603,1,0.127255931,1
3.279619932,-4.441985607,1,-0.014270152,1,-10.34139061,1,-0.572560906,1,-0.883754015,1,0.68364054,1,0.095982336,1,-0.581123531,1,0.130108684,1
3.283617735,-4.930004597,1,-1.131417871,1,-10.64748001,1,-0.560725987,1,-0.978104234,1,0.719563067,1,0.092133425,1,-0.585089982,1,0.133024976,1
3.287617207,-5.228291512,1,-1.3089993,1,-10.93716049,1,-0.58018446,1,-1.071924806,1,0.759392381,1,0.088160969,1,-0.589439511,1,0.136111647,1
3.291618586,-4.741790295,1,-1.464142919,1,-10.78106403,1,-0.646355093,1,-1.177737594,1,0.789803743,1,0.083880931,1,-0.59418869,1,0.139375657,1
3.29561615,-4.114257336,1,1.042867661,1,-11.29026413,1,-0.591991961,1,-1.298835993,1,0.766225994,1,0.07951691,1,-0.599378586,1,0.142633304,1
3.29961586,-4.053554535,1,0.095105693,1,-11.36641121,1,-0.532734215,1,-1.442028522,1,0.783019423,1,0.075445324,1,-0.605026722,1,0.146007508,1
3.303617239,-4.421448231,1,-0.748825073,1,-11.44090271,1,-0.492148966,1,-1.551312089,1,0.797046363,1,0.071511343,1,-0.611226857,1,0.149318248,1
3.307615042,-4.537292957,1,-1.015662193,1,-11.56632233,1,-0.494850427,1,-1.678244114,1,0.799407542,1,0.067608878,1,-0.617903352,1,0.152670518,1
3.311614513,-3.825949669,1,-0.644393265,1,-11.27767181,1,-0.491731137,1,-1.822689295,1,0.800976038,1,0.063668959,1,-0.625089645,1,0.156031504,1
3.315616369,-4.435982227,1,0.153344065,1,-11.85988712,1,-0.444556922,1,-1.996642947,1,0.797519207,1,0.059822939,1,-0.632911921,1,0.159382761,1
3.319613934,-4.706968307,1,0.903472364,1,-12.21815014,1,-0.345813185,1,-2.158157349,1,0.793942392,1,0.056216318,1,-0.641403019,1,0.162739605,1
3.323619366,-2.919166088,1,-0.067736857,1,-11.69369698,1,-0.25057283,1,-2.333785534,1,0.821142197,1,0.052980922,1,-0.650529563,1,0.166149497,1
3.327621222,-2.331549644,1,0.013847249,1,-12.16155624,1,-0.149275824,1,-2.567045689,1,0.820085526,1,0.050045647,1,-0.660485029,1,0.169638291,1
3.331618786,-2.855243921,1,-0.880322814,1,-12.1685009,1,-0.082685687,1,-2.797699213,1,0.85440439,1,0.04738085,1,-0.671369314,1,0.17322661,1
