Time,inertial-6253.76535:estCompensatedAccelX,inertial-6253.76535:estCompensatedAccelX:valid,inertial-6253.76535:estCompensatedAccelY,inertial-6253.76535:estCompensatedAccelY:valid,inertial-6253.76535:estCompensatedAccelZ,inertial-6253.76535:estCompensatedAccelZ:valid,inertial-6253.76535:estAngularRateX,inertial-6253.76535:estAngularRateX:valid,inertial-6253.76535:estAngularRateY,inertial-6253.76535:estAngularRateY:valid,inertial-6253.76535:estAngularRateZ,inertial-6253.76535:estAngularRateZ:valid,inertial-6253.76535:estRoll,inertial-6253.76535:estRoll:valid,inertial-6253.76535:estPitch,inertial-6253.76535:estPitch:valid,inertial-6253.76535:estYaw,inertial-6253.76535:estYaw:valid
0,-5.163020611,1,-0.639904022,1,-8.35697937,1,-0.004923024,1,0.000676242,1,0.004903052,1,0.07503096,1,-0.551190078,1,0.245590732,1
0.004001792,-5.161633492,1,-0.651655614,1,-8.33769989,1,-0.004556213,1,-0.002794138,1,0.006298022,1,0.075003415,1,-0.551204324,1,0.24560912,1
0.007999744,-5.167662144,1,-0.630171537,1,-8.351759911,1,-0.003191891,1,0.000536655,1,0.000739249,1,0.07497941,1,-0.551212728,1,0.245632723,1
0.011999232,-5.133232594,1,-0.629237354,1,-8.330541611,1,-0.004474191,1,0.000982862,1,0.007324406,1,0.074955784,1,-0.551220059,1,0.245654523,1
0.016001023,-5.147695065,1,-0.659185886,1,-8.331104279,1,-0.004792404,1,-0.006255801,1,0.000327981,1,0.074927159,1,-0.551230252,1,0.245669574,1
0.01999872,-5.155147076,1,-0.65405196,1,-8.320311546,1,-0.004332552,1,-0.00233588,1,0.004860707,1,0.07490246,1,-0.551244617,1,0.245692298,1
0.023998208,-5.166935444,1,-0.654589236,1,-8.359530449,1,-0.006403774,1,-4.84E-05,1,0.001787409,1,0.074878454,1,-0.551251948,1,0.245709866,1
0.028000001,-5.154197216,1,-0.645986736,1,-8.329112053,1,-0.005283439,1,-0.002963015,1,0.005939881,1,0.074854165,1,-0.55126369,1,0.245724857,1
0.031997953,-5.156777382,1,-0.659922361,1,-8.330429077,1,-0.0042731,1,0.00096618,1,0.00705886,1,0.074826173,1,-0.551268101,1,0.245744154,1
0.035997439,-5.149774075,1,-0.695579767,1,-8.350253105,1,-0.006455195,1,-0.004019119,1,0.003642958,1,0.074797623,1,-0.551277637,1,0.245771319,1
0.039999232,-5.171747208,1,-0.672745943,1,-8.314605713,1,-0.006098781,1,-0.001872308,1,0.006676085,1,0.074765407,1,-0.551285684,1,0.245798871,1
0.043996926,-5.14879179,1,-0.690556765,1,-8.322433472,1,-0.004973014,1,-0.003248611,1,0.006493049,1,0.074725807,1,-0.551288068,1,0.245832816,1
0.047996674,-5.161437988,1,-0.616951466,1,-8.322612762,1,-0.005383681,1,-0.002661677,1,0.007360872,1,0.074691333,1,-0.551301003,1,0.245864317,1
0.051998463,-5.132476807,1,-0.647102654,1,-8.391616821,1,-0.00871385,1,0.00063893,1,0.005399,1,0.074650764,1,-0.55129987,1,0.245900527,1
0.055996161,-5.139501572,1,-0.692930877,1,-8.311850548,1,-0.007187119,1,-0.000591448,1,0.004419248,1,0.074605152,1,-0.551298618,1,0.245927975,1
0.059995905,-5.147738457,1,-0.671848953,1,-8.360563278,1,-0.004086034,1,-0.000572604,1,0.004541864,1,0.07456439,1,-0.551306307,1,0.245964155,1
0.06399744,-5.115402222,1,-0.598255038,1,-8.349647522,1,-0.008431432,1,-0.004831563,1,0.006291368,1,0.07452292,1,-0.551312864,1,0.245992243,1
0.068001024,-5.151145935,1,-0.548962235,1,-8.364571571,1,-0.005418434,1,-0.001908809,1,0.004016744,1,0.074480057,1,-0.551326692,1,0.246024027,1
0.072000764,-5.171602249,1,-0.611818671,1,-8.351311684,1,-0.002447229,1,0.000452445,1,0.002537346,1,0.074448369,1,-0.551336825,1,0.246043369,1
0.076002307,-5.152079105,1,-0.609514117,1,-8.326265335,1,-0.002829489,1,-0.002734423,1,0.00231293,1,0.07443855,1,-0.551338553,1,0.246054932,1
0.080000259,-5.182709217,1,-0.629896104,1,-8.351387024,1,-0.000458795,1,-0.002666249,1,0.002459778,1,0.074429572,1,-0.551351547,1,0.246066168,1
0.083999999,-5.154511929,1,-0.642119765,1,-8.332137108,1,0.000446986,1,7.42E-06,1,0.001108269,1,0.074419208,1,-0.551361144,1,0.246078327,1
0.088001534,-5.137397289,1,-0.656426013,1,-8.348279953,1,-0.004553779,1,-0.002139633,1,0.000564423,1,0.074412465,1,-0.551361799,1,0.246085972,1
0.091999486,-5.162985802,1,-0.682693958,1,-8.351196289,1,0.000398573,1,-0.002925628,1,0.004213331,1,0.074403949,1,-0.551368713,1,0.246092796,1
0.095998973,-5.171248436,1,-0.635881245,1,-8.346225739,1,-0.002095366,1,-0.001797428,1,0.003990618,1,0.074390277,1,-0.551374674,1,0.246105999,1
0.100000769,-5.121333122,1,-0.663329661,1,-8.314077377,1,-0.006107128,1,-0.003909733,1,0.004892364,1,0.074367866,1,-0.55138284,1,0.246122092,1
0.103998721,-5.145297527,1,-0.679405212,1,-8.332010269,1,-0.004772767,1,-0.003628224,1,0.003302602,1,0.074347556,1,-0.551391602,1,0.246140197,1
0.107998461,-5.168544769,1,-0.666017413,1,-8.35963726,1,-0.001651346,1,0.001139094,1,0.005522354,1,0.074318729,1,-0.551399052,1,0.246159762,1
0.112000257,-5.146233082,1,-0.619972289,1,-8.334519386,1,-0.00205489,1,0.001622996,1,0.001265986,1,0.074298069,1,-0.551400244,1,0.246172339,1
0.115998209,-5.13532114,1,-0.594168603,1,-8.344089508,1,-0.003541868,1,0.001272757,1,0.002522257,1,0.074278831,1,-0.551397443,1,0.246183708,1
0.119997695,-5.15147543,1,-0.638456821,1,-8.340528488,1,-0.00183632,1,-0.000537873,1,0.002493299,1,0.074268147,1,-0.551389813,1,0.24619922,1
0.123999491,-5.170495033,1,-0.612186551,1,-8.307437897,1,0.001143692,1,0.003048849,1,0.000755742,1,0.074255466,1,-0.551382363,1,0.24621661,1
0.12799719,-5.119747162,1,-0.624361455,1,-8.313239098,1,-0.004826288,1,0.00424041,1,0.004003255,1,0.074247845,1,-0.551372647,1,0.246224523,1
0.131996676,-5.166187763,1,-0.613638937,1,-8.3259058,1,0.001502478,1,0.002790168,1,0.000577878,1,0.074243784,1,-0.551361799,1,0.246237099,1
0.135998458,-5.12024498,1,-0.613025367,1,-8.327476501,1,0.002948631,1,0.001589102,1,-0.001865278,1,0.074238434,1,-0.551358044,1,0.246242106,1
0.139996156,-5.165839195,1,-0.659222245,1,-8.343460083,1,-0.000680916,1,0.005567596,1,0.004737593,1,0.07423988,1,-0.551343799,1,0.246242106,1
0.143995911,-5.132017136,1,-0.625121534,1,-8.346024513,1,0.000754645,1,0.00640475,1,-0.000219086,1,0.07424821,1,-0.551325262,1,0.246247977,1
0.147997692,-5.140942097,1,-0.660381317,1,-8.317755699,1,-0.000878405,1,0.002032735,1,9.03E-06,1,0.074246526,1,-0.55131191,1,0.246247977,1
0.151995391,-5.140138149,1,-0.68973732,1,-8.33300209,1,0.001231581,1,0.003815105,1,-0.000745822,1,0.074246995,1,-0.551296473,1,0.246254519,1
0.155995131,-5.136396885,1,-0.644727349,1,-8.318412781,1,-0.002321179,1,0.002764906,1,-0.001054915,1,0.074240252,1,-0.55128628,1,0.24626556,1
0.159996927,-5.188310146,1,-0.645451307,1,-8.331017494,1,0.000787583,1,0.006686435,1,0.001202762,1,0.074229762,1,-0.551268816,1,0.246272013,1
0.163994879,-5.172252178,1,-0.638242304,1,-8.330954552,1,-0.001359703,1,0.005450328,1,-0.000521746,1,0.074225612,1,-0.551248431,1,0.246275559,1
0.167994618,-5.140232563,1,-0.639624953,1,-8.3446064,1,0.002442831,1,0.004418473,1,-0.000626798,1,0.074218981,1,-0.551226497,1,0.246277139,1
0.171996161,-5.13515377,1,-0.679658115,1,-8.326435089,1,0.001216425,1,0.007377717,1,0.002362381,1,0.074214563,1,-0.55119437,1,0.246282265,1
0.17599386,-5.187093735,1,-0.674671233,1,-8.334580421,1,0.000174244,1,0.007807955,1,-0.002605745,1,0.07421533,1,-0.55117017,1,0.246282265,1
0.1799936,-5.154983997,1,-0.655494332,1,-8.331816673,1,-0.000850742,1,0.012326513,1,0.000728312,1,0.074205525,1,-0.551136494,1,0.246290147,1
0.183995396,-5.18878746,1,-0.645797968,1,-8.297810555,1,-0.002964301,1,0.009616675,1,0.00019027,1,0.074187517,1,-0.551098585,1,0.246297449,1
0.187999234,-5.249491215,1,-0.629681766,1,-8.309037209,1,-0.000975484,1,0.01278287,1,-0.001708354,1,0.07418523,1,-0.551050305,1,0.24629961,1
0.191998973,-5.286012173,1,-0.621445119,1,-8.247501373,1,-0.000159795,1,0.018197415,1,0.003280059,1,0.074176185,1,-0.550978363,1,0.246305689,1
0.196000516,-5.159939766,1,-0.686344981,1,-8.228386879,1,0.000183737,1,0.027943337,1,-0.003788539,1,0.074171484,1,-0.550886095,1,0.24630776,1
0.199998215,-5.052050114,1,-0.654528022,1,-8.365801811,1,-0.00163897,1,0.020963771,1,0.000389687,1,0.074164197,1,-0.550786495,1,0.246314704,1
0.203997701,-5.175789833,1,-0.580607474,1,-8.354845047,1,-0.002730242,1,0.023815647,1,-0.000680781,1,0.074196339,1,-0.550715327,1,0.246272504,1
0.207999483,-5.250422955,1,-0.661827743,1,-8.379476547,1,-0.000413735,1,0.025657488,1,-0.003033343,1,0.074208654,1,-0.550589621,1,0.246086225,1
0.211997181,-5.163205147,1,-0.608918488,1,-8.357037544,1,-0.000923869,1,0.028865477,1,-0.001879949,1,0.074204423,1,-0.550484419,1,0.246086881,1
0.215996668,-5.158379555,1,-0.564317226,1,-8.377864838,1,0.002843149,1,0.027571311,1,-0.003074025,1,0.07421127,1,-0.550380051,1,0.246084079,1
0.219998464,-5.184720039,1,-0.564649403,1,-8.370586395,1,0.002616271,1,0.030511193,1,-0.004538923,1,0.074212842,1,-0.550275385,1,0.246091694,1
0.223996162,-5.203246593,1,-0.503320396,1,-8.356620789,1,0.007182176,1,0.033445951,1,-0.007184194,1,0.074237898,1,-0.550154209,1,0.246075585,1
0.227995649,-5.254518509,1,-0.495823771,1,-8.329516411,1,0.009071012,1,0.035788525,1,-0.009267012,1,0.074287921,1,-0.550025523,1,0.246041834,1
0.231997445,-5.253156662,1,-0.500971854,1,-8.292284012,1,0.013856462,1,0.038297534,1,-0.01053966,1,0.074352473,1,-0.549874246,1,0.246002555,1
0.235995129,-5.26232481,1,-0.531611264,1,-8.271845818,1,0.01666148,1,0.045733366,1,-0.01712819,1,0.07443694,1,-0.549703956,1,0.245953172,1
0.239995137,-5.197684765,1,-0.596203208,1,-8.274115562,1,0.019936446,1,0.052663285,1,-0.015335934,1,0.074545264,1,-0.549511373,1,0.245884091,1
0.243996933,-5.069223881,1,-0.55913955,1,-8.323051453,1,0.02192924,1,0.048990764,1,-0.019147862,1,0.074667186,1,-0.54930985,1,0.24581176,1
0.247994617,-5.035996437,1,-0.560252607,1,-8.394052505,1,0.022038497,1,0.049599923,1,-0.020229442,1,0.07480403,1,-0.549107492,1,0.245739669,1
0.251994371,-5.017893791,1,-0.681208014,1,-8.324206352,1,0.023520868,1,0.049246244,1,-0.019117888,1,0.074927926,1,-0.54890722,1,0.245676279,1
0.255995899,-5.088798523,1,-0.728539526,1,-8.243727684,1,0.022292212,1,0.046912026,1,-0.016123405,1,0.075062916,1,-0.54871279,1,0.245601162,1
0.259993613,-5.152123928,1,-0.68843776,1,-8.276799202,1,0.021005599,1,0.047424335,1,-0.01701168,1,0.075162895,1,-0.548517406,1,0.245538846,1
0.263993353,-5.046584129,1,-0.608196735,1,-8.309113503,1,0.020597009,1,0.049634349,1,-0.015998837,1,0.075277701,1,-0.548318863,1,0.245478466,1
0.267994881,-4.962980747,1,-0.641306162,1,-8.314971924,1,0.020671692,1,0.046739776,1,-0.015243189,1,0.075396806,1,-0.548121095,1,0.245424584,1
0.271992832,-4.915792465,1,-0.699133217,1,-8.321673393,1,0.017177226,1,0.039806284,1,-0.013377702,1,0.075509861,1,-0.547944069,1,0.245367989,1
0.275992334,-4.956190109,1,-0.818122327,1,-8.382668495,1,0.017007003,1,0.034718703,1,-0.003546682,1,0.075604439,1,-0.547796369,1,0.245327652,1
0.279993862,-4.965125561,1,-0.83248049,1,-8.330935478,1,0.011522164,1,0.029122852,1,-0.009262927,1,0.075679891,1,-0.547661841,1,0.245304346,1
0.283991545,-5.101983547,1,-0.839867651,1,-8.329059601,1,0.008627325,1,0.027648227,1,0.000562408,1,0.075726464,1,-0.547545373,1,0.245297089,1
0.287991285,-5.082952499,1,-0.713539422,1,-8.308582306,1,0.004401693,1,0.026148241,1,-0.00139353,1,0.07576488,1,-0.547440529,1,0.245292157,1
0.291992843,-5.204698563,1,-0.67011416,1,-8.356337547,1,0.005395498,1,0.024882698,1,-0.001997566,1,0.075783968,1,-0.547335982,1,0.24528949,1
0.295990795,-5.186886311,1,-0.645366311,1,-8.389975548,1,0.006823895,1,0.027062971,1,-0.004615553,1,0.07581342,1,-0.547226906,1,0.24528423,1
0.299990267,-5.143928051,1,-0.685251653,1,-8.389793396,1,0.005502903,1,0.031094607,1,-0.002772341,1,0.075840689,1,-0.547109842,1,0.245286748,1
0.303992063,-5.128112316,1,-0.761570513,1,-8.42340374,1,0.005890608,1,0.028344724,1,0.001090438,1,0.075866044,1,-0.546996534,1,0.245284617,1
0.307989746,-5.11415863,1,-0.67293644,1,-8.428966522,1,0.004031491,1,0.023647778,1,-0.001058205,1,0.075884856,1,-0.54688853,1,0.24528785,1
0.311995387,-5.083528996,1,-0.73006165,1,-8.410733223,1,-0.000290215,1,0.021888664,1,0.00297154,1,0.075893179,1,-0.546787441,1,0.245296106,1
0.315997183,-5.128697395,1,-0.612662673,1,-8.43789959,1,0.002436361,1,0.022510914,1,0.001367232,1,0.075895138,1,-0.546694994,1,0.245310068,1
0.319995135,-5.137206078,1,-0.632917225,1,-8.431689262,1,0.007145901,1,0.02471566,1,0.002376736,1,0.075893357,1,-0.546610534,1,0.245332524,1
0.323994637,-5.091025352,1,-0.653191924,1,-8.418876648,1,0.002279334,1,0.021269372,1,-0.00367651,1,0.075909823,1,-0.546524763,1,0.245333597,1
0.327996403,-5.155546665,1,-0.588241339,1,-8.451827049,1,0.006713168,1,0.015804939,1,-0.004232906,1,0.075934835,1,-0.546449482,1,0.245326057,1
0.331994116,-5.079393864,1,-0.66903764,1,-8.429869652,1,0.007262026,1,0.016552968,1,-0.000943203,1,0.075965732,1,-0.546375513,1,0.245325699,1
0.335993856,-5.111970901,1,-0.615850925,1,-8.421780586,1,0.004581403,1,0.013076461,1,-0.005480202,1,0.075995289,1,-0.546308756,1,0.245314389,1
0.339995652,-5.109684944,1,-0.586250842,1,-8.419979095,1,0.006714717,1,0.013149309,1,-0.002789083,1,0.076029837,1,-0.546254039,1,0.245305568,1
0.343993336,-5.082309723,1,-0.683968246,1,-8.421338081,1,0.004344734,1,0.014697585,1,0.001715973,1,0.076061741,1,-0.54619801,1,0.245305195,1
0.347993076,-5.073921204,1,-0.642719865,1,-8.423009872,1,0.007512731,1,0.007493486,1,-0.00260578,1,0.076090232,1,-0.546157897,1,0.245302111,1
0.351994872,-5.073499203,1,-0.634515285,1,-8.42195034,1,0.009550411,1,0.01145256,1,-0.00307927,1,0.076123051,1,-0.54610914,1,0.245296329,1
0.355992585,-5.051126957,1,-0.586032152,1,-8.386352539,1,0.008074865,1,0.006006144,1,-0.004876981,1,0.076164246,1,-0.546076179,1,0.245285973,1
0.359992325,-5.079787254,1,-0.569196403,1,-8.371360779,1,0.011424955,1,0.009435577,1,-0.005149468,1,0.076210946,1,-0.546038747,1,0.245270297,1
0.363993853,-5.104528427,1,-0.602943182,1,-8.369674683,1,0.013058051,1,0.008540768,1,-0.005993296,1,0.07626123,1,-0.546002746,1,0.245252818,1
0.367991805,-5.107023716,1,-0.643604875,1,-8.334704399,1,0.013129472,1,0.008119354,1,-0.005973781,1,0.076317802,1,-0.545968115,1,0.245228291,1
0.371991545,-5.141475677,1,-0.61047554,1,-8.325744629,1,0.006978319,1,0.013401911,1,-0.006977159,1,0.076368049,1,-0.545916319,1,0.245207742,1
0.375993103,-5.191893578,1,-0.586177766,1,-8.256467819,1,0.013529507,1,0.015332491,1,-0.005764416,1,0.076422758,1,-0.545862854,1,0.245193303,1
0.379990786,-5.073709011,1,-0.574585378,1,-8.286159515,1,0.018973935,1,0.01762614,1,-0.009763818,1,0.076505795,1,-0.545793116,1,0.245158777,1
0.383990258,-5.219232559,1,-0.515142262,1,-8.309804916,1,0.022821613,1,0.017766181,1,-0.008640046,1,0.076603517,1,-0.545729339,1,0.245119676,1
0.387991816,-5.167957306,1,-0.513169646,1,-8.238427162,1,0.034343593,1,0.020149255,1,-0.013925714,1,0.076737531,1,-0.545654356,1,0.245069787,1
0.391989768,-5.077829361,1,-0.558198333,1,-8.314709663,1,0.046406254,1,0.012712486,1,-0.011519458,1,0.07692948,1,-0.54557991,1,0.245016843,1
0.395989239,-5.120705605,1,-0.520955443,1,-8.281289101,1,0.057224628,1,0.011865421,1,-0.010732712,1,0.077164531,1,-0.545533001,1,0.244973555,1
0.399991035,-5.170224667,1,-0.479014844,1,-8.186138153,1,0.069354385,1,0.01082502,1,-0.010385547,1,0.077445179,1,-0.545492232,1,0.244926617,1
0.403988749,-5.213409901,1,-0.535869122,1,-8.172958374,1,0.06962958,1,0.019688608,1,-0.015242742,1,0.077756993,1,-0.545429409,1,0.24487564,1
0.40798822,-5.24518919,1,-0.624595582,1,-8.175695419,1,0.079587601,1,0.028349034,1,-0.011794278,1,0.078092337,1,-0.545328259,1,0.244814754,1
0.411990017,-5.114192009,1,-0.716233075,1,-8.202951431,1,0.090292566,1,0.03398009,1,-0.012534456,1,0.078455947,1,-0.545198858,1,0.244777173,1
0.4159877,-5.145885468,1,-0.717032254,1,-8.172598839,1,0.09396334,1,0.034587037,1,-0.004444215,1,0.078841567,1,-0.5450629,1,0.244752213,1
0.41998747,-5.310136318,1,-0.725536585,1,-8.198485374,1,0.097223617,1,0.045464583,1,-0.004618628,1,0.079235576,1,-0.544903517,1,0.244736388,1
0.423989236,-5.343750954,1,-0.689911127,1,-8.23358345,1,0.097348042,1,0.058313567,1,-0.006896812,1,0.079632774,1,-0.544695199,1,0.244725168,1
0.42798695,-5.371356964,1,-0.651756704,1,-8.201756477,1,0.099878021,1,0.075232491,1,-0.008227163,1,0.080034144,1,-0.544432104,1,0.244709596,1
0.431992829,-5.376228333,1,-0.739078879,1,-8.237123489,1,0.096606985,1,0.086698852,1,-0.010505925,1,0.080439016,1,-0.544114232,1,0.244693428,1
0.435994625,-5.311045647,1,-0.69220978,1,-8.295539856,1,0.094260745,1,0.104142502,1,-0.00869996,1,0.08082816,1,-0.543726385,1,0.244682565,1
0.439992309,-5.343468189,1,-0.706214547,1,-8.300901413,1,0.09660583,1,0.119296975,1,-0.01694105,1,0.081226826,1,-0.543279469,1,0.244667277,1
0.443992078,-5.364155293,1,-0.674830616,1,-8.216474533,1,0.094644733,1,0.13070035,1,-0.011475831,1,0.081614055,1,-0.542783856,1,0.244650826,1
0.447993606,-5.373511791,1,-0.652457535,1,-8.294383049,1,0.086236179,1,0.140487701,1,-0.018730724,1,0.081988305,1,-0.542232931,1,0.244626299,1
0.45199129,-5.392523766,1,-0.663552344,1,-8.278404236,1,0.084892876,1,0.161224291,1,-0.021089364,1,0.082354262,1,-0.541621268,1,0.244585589,1
0.45599103,-5.303977966,1,-0.586947441,1,-8.297688484,1,0.082955144,1,0.171394914,1,-0.025502438,1,0.082727715,1,-0.541011333,1,0.244322345,1
0.459992588,-5.229727745,1,-0.536293149,1,-8.314090729,1,0.081855193,1,0.176176652,1,-0.033278145,1,0.083091602,1,-0.540297449,1,0.244257286,1
0.463990271,-5.224949837,1,-0.574460268,1,-8.327717781,1,0.08408615,1,0.188846707,1,-0.035461187,1,0.083470434,1,-0.539552689,1,0.244165108,1
0.467990011,-5.151799202,1,-0.610852063,1,-8.359506607,1,0.080051713,1,0.187791705,1,-0.036792431,1,0.083852969,1,-0.538784862,1,0.244057819,1
0.471991539,-4.878982067,1,-0.592945397,1,-8.257985115,1,0.082417861,1,0.194998294,1,-0.043628059,1,0.084240228,1,-0.538012266,1,0.243934199,1
0.475989491,-4.474103451,1,-0.636070073,1,-8.35282135,1,0.087584451,1,0.179734841,1,-0.04327758,1,0.084639974,1,-0.537253439,1,0.243807778,1
0.479988992,-4.243021965,1,-0.795037448,1,-8.717017174,1,0.081891842,1,0.154920399,1,-0.037891816,1,0.085033223,1,-0.53656882,1,0.243690476,1
0.483990788,-4.366930008,1,-0.957340717,1,-8.731703758,1,0.071167566,1,0.132835746,1,-0.038004506,1,0.085405074,1,-0.535984814,1,0.243574739,1
0.48798874,-4.653663635,1,-0.973624468,1,-8.682242393,1,0.0574852,1,0.109076522,1,-0.03239616,1,0.085717462,1,-0.535493374,1,0.243456796,1
0.491988212,-4.91084671,1,-0.942456543,1,-8.586820602,1,0.048838116,1,0.09954612,1,-0.030678574,1,0.08599136,1,-0.53506434,1,0.243353561,1
0.495990276,-4.88587141,1,-0.791381121,1,-8.552841187,1,0.049386594,1,0.088363022,1,-0.029450383,1,0.086226612,1,-0.534674466,1,0.243259922,1
0.499988228,-4.708856106,1,-0.666797936,1,-8.639271736,1,0.047206637,1,0.08115124,1,-0.032372419,1,0.086467691,1,-0.534317911,1,0.243157208,1
0.50398773,-4.635900974,1,-0.658384264,1,-8.691352844,1,0.04445539,1,0.065464996,1,-0.029658819,1,0.086715378,1,-0.534017324,1,0.24303934,1
0.507989526,-4.681089878,1,-0.770741642,1,-8.698026657,1,0.045662846,1,0.045580231,1,-0.03268357,1,0.086958289,1,-0.533784509,1,0.242911696,1
0.511987209,-4.854741096,1,-0.876943111,1,-8.581859589,1,0.039260302,1,0.037814781,1,-0.031965319,1,0.087193534,1,-0.533610404,1,0.242781237,1
0.515986681,-4.969824314,1,-0.978341758,1,-8.593073845,1,0.028898278,1,0.030894119,1,-0.026376614,1,0.087394543,1,-0.533471406,1,0.24265328,1
0.519988477,-4.943353653,1,-0.987698376,1,-8.532567978,1,0.0233206,1,0.02898154,1,-0.02720882,1,0.08755596,1,-0.533347785,1,0.242548347,1
0.523986161,-4.840415955,1,-0.954637408,1,-8.56578064,1,0.018583152,1,0.019520519,1,-0.023480967,1,0.087692991,1,-0.53325063,1,0.242455199,1
0.52798593,-4.771738052,1,-0.892014325,1,-8.605340958,1,0.012437668,1,0.009657023,1,-0.020648547,1,0.087792143,1,-0.533180118,1,0.242356792,1
0.531987727,-4.70440197,1,-0.855817676,1,-8.589511871,1,0.008117035,1,-0.006396153,1,-0.017810268,1,0.08787737,1,-0.533164144,1,0.242267102,1
0.53598541,-4.827149391,1,-0.966199458,1,-8.594842911,1,0.000847417,1,-0.014229431,1,-0.01250454,1,0.087940611,1,-0.533202112,1,0.242187589,1
0.53998518,-4.869844437,1,-1.100176334,1,-8.59636879,1,-0.007315156,1,-0.027129048,1,-0.011032491,1,0.087970831,1,-0.533275127,1,0.242120445,1
0.543986678,-4.844118595,1,-1.201740026,1,-8.592132568,1,-0.015689878,1,-0.032958038,1,-0.002411457,1,0.087947808,1,-0.53338182,1,0.242069572,1
0.547984362,-4.809338093,1,-1.182770252,1,-8.627979279,1,-0.030648239,1,-0.045073628,1,0.004342459,1,0.08786089,1,-0.533537626,1,0.242060423,1
0.551990032,-4.822295189,1,-1.150069356,1,-8.624960899,1,-0.039508253,1,-0.058518451,1,0.00902446,1,0.087707423,1,-0.533729017,1,0.242076993,1
0.555991828,-4.799859524,1,-1.08771646,1,-8.573987961,1,-0.048420604,1,-0.065039001,1,0.016151989,1,0.087511986,1,-0.533978343,1,0.242106289,1
0.55998975,-4.832546234,1,-1.17896533,1,-8.608556747,1,-0.066207409,1,-0.076530777,1,0.024120266,1,0.08724317,1,-0.534272909,1,0.24218002,1
0.563989222,-4.712861061,1,-1.055531859,1,-8.734436989,1,-0.065384589,1,-0.092025466,1,0.037161212,1,0.086928032,1,-0.534606278,1,0.242281437,1
0.567991018,-4.626792431,1,-0.941860974,1,-8.712290764,1,-0.077250019,1,-0.105163164,1,0.0357133,1,0.086563379,1,-0.535009086,1,0.242410228,1
0.571989,-4.66712141,1,-1.102706909,1,-8.688768387,1,-0.09204518,1,-0.116234191,1,0.050814036,1,0.086145326,1,-0.535461605,1,0.242560968,1
0.57598871,-4.758376122,1,-1.147910833,1,-8.722491264,1,-0.101750329,1,-0.135912165,1,0.053450767,1,0.085661113,1,-0.535981774,1,0.242747024,1
0.579990268,-4.74805212,1,-1.151663303,1,-8.663391113,1,-0.116230465,1,-0.148411259,1,0.062843271,1,0.085114032,1,-0.536578298,1,0.242967024,1
0.583987951,-4.630930901,1,-1.078449011,1,-8.631971359,1,-0.13131696,1,-0.170947507,1,0.071227819,1,0.084492147,1,-0.53724432,1,0.243216723,1
0.587987483,-4.605515957,1,-0.887884438,1,-8.74612236,1,-0.135875523,1,-0.1916399,1,0.083035164,1,0.083813146,1,-0.537989438,1,0.243503362,1
0.591989219,-4.682409286,1,-0.839615524,1,-8.838719368,1,-0.144486904,1,-0.215518653,1,0.085378818,1,0.083106764,1,-0.538819969,1,0.243805081,1
0.595986962,-4.62410593,1,-0.867254257,1,-8.813298225,1,-0.14966321,1,-0.238514602,1,0.089626893,1,0.082350947,1,-0.539747715,1,0.244128272,1
0.599986672,-4.642539978,1,-0.932118475,1,-8.861412048,1,-0.151657283,1,-0.255735606,1,0.098962873,1,0.081571706,1,-0.540760517,1,0.24446784,1
0.603988469,-4.7858181,1,-1.035846472,1,-8.885313988,1,-0.163950771,1,-0.281344295,1,0.113921627,1,0.080744229,1,-0.541869342,1,0.244855449,1
0.607986152,-4.603770256,1,-1.054086685,1,-8.915079117,1,-0.167938516,1,-0.305179745,1,0.121450774,1,0.079840057,1,-0.543066621,1,0.245286912,1
0.611985683,-4.680803299,1,-1.197225332,1,-8.853321075,1,-0.189378753,1,-0.330274463,1,0.126400366,1,0.078888454,1,-0.544371486,1,0.245749533,1
0.61598748,-4.900635242,1,-1.084605217,1,-8.918782234,1,-0.20080246,1,-0.359392822,1,0.139872789,1,0.077845842,1,-0.545785785,1,0.246250272,1
0.619985163,-4.765196323,1,-1.229633689,1,-8.929551125,1,-0.222296476,1,-0.383666962,1,0.148820058,1,0.076731913,1,-0.54729718,1,0.246781528,1
0.623984873,-4.790243149,1,-0.971699715,1,-8.992917061,1,-0.234435573,1,-0.413636088,1,0.153257892,1,0.075521685,1,-0.548931479,1,0.24735029,1
0.62798667,-4.558682919,1,-1.156066179,1,-9.158756256,1,-0.253501028,1,-0.432106644,1,0.163365811,1,0.074218072,1,-0.550658345,1,0.247957662,1
0.631984413,-4.508716106,1,-1.198113203,1,-9.393209457,1,-0.266581178,1,-0.492340893,1,0.175073534,1,0.07285361,1,-0.55255264,1,0.248588219,1
0.635984123,-4.211354256,1,-0.869361162,1,-9.467794418,1,-0.251714438,1,-0.559072554,1,0.187633917,1,0.071451858,1,-0.554691076,1,0.249269962,1
0.639985681,-3.53294301,1,-0.061330631,1,-10.27460575,1,-0.190098479,1,-0.646250546,1,0.18865867,1,0.070195086,1,-0.557142079,1,0.249960452,1
0.643983364,-4.073720932,1,0.405691624,1,-10.14858627,1,-0.137306556,1,-0.767498434,1,0.188246623,1,0.069213778,1,-0.560023248,1,0.250597388,1
0.647983134,-3.529348612,1,1.226600409,1,-11.6115551,1,0.016474029,1,-0.873208642,1,0.190514863,1,0.068573378,1,-0.563353956,1,0.2512151,1
0.651984632,-1.338007808,1,0.09424071,1,-11.784235,1,0.068964012,1,-1.053838968,1,0.17741926,1,0.068506576,1,-0.567227483,1,0.251778603,1
0.655982614,-2.151700974,1,0.445708334,1,-12.21183395,1,0.159646139,1,-1.322276235,1,0.170943797,1,0.068699285,1,-0.572025299,1,0.25219053,1
0.659982085,-1.728411078,1,-1.475051284,1,-12.74345589,1,0.112523884,1,-1.499531865,1,0.174078792,1,0.069068685,1,-0.577718973,1,0.252575487,1
0.663983643,-1.974459171,1,-0.483877867,1,-13.49584484,1,0.194099903,1,-1.768625259,1,0.148650631,1,0.069532841,1,-0.584246278,1,0.252776384,1
0.667981327,-1.746269822,1,-1.374030352,1,-14.33383274,1,0.196427733,1,-2.020445108,1,0.173591048,1,0.070291467,1,-0.591853321,1,0.252934039,1
0.671986938,-2.757469654,1,-1.656527519,1,-13.56381702,1,0.098904625,1,-2.291970968,1,0.159932062,1,0.070825398,1,-0.600514889,1,0.253041595,1
0.675988734,-1.194655061,1,-1.247031212,1,-12.7410841,1,0.151511803,1,-2.551724195,1,0.187562197,1,0.071314916,1,-0.610206306,1,0.253000468,1
0.679986715,-3.184051037,1,-1.427094936,1,-12.7772274,1,0.136312321,1,-2.810953617,1,0.268921852,1,0.07176549,1,-0.620991766,1,0.253171623,1
0.683986187,-5.7024827,1,-2.965065956,1,-13.64200783,1,0.037946738,1,-3.016559839,1,0.392995447,1,0.071775906,1,-0.632729292,1,0.253780276,1
0.687987983,-2.540998697,1,-2.246330738,1,-13.40699768,1,0.143474951,1,-3.141262054,1,0.372388005,1,0.07156609,1,-0.645091057,1,0.254601091,1
0.691985667,-4.662200928,1,-4.162212372,1,-13.50278759,1,0.149449989,1,-3.424654961,1,0.54120928,1,0.071569569,1,-0.658339202,1,0.255658925,1
0.695985138,-8.808107376,1,-6.827556133,1,-14.33668613,1,-0.024910474,1,-3.465041876,1,0.8035478,1,0.070463181,1,-0.672379494,1,0.257858604,1
0.699986935,-5.662219524,1,-6.740143299,1,-12.48428059,1,-0.08182805,1,-3.407195807,1,0.864636958,1,0.068256252,1,-0.686278582,1,0.260940641,1
0.703984618,-6.792677879,1,-6.722079277,1,-12.54295731,1,-0.102549091,1,-3.562166691,1,0.968783319,1,0.065685332,1,-0.700407088,1,0.264442772,1
0.707984149,-10.52762604,1,-6.316139698,1,-12.87935734,1,-0.196332723,1,-3.508093357,1,1.110130668,1,0.06236688,1,-0.714825153,1,0.268475413,1
0.711985946,-11.80237579,1,-5.589745522,1,-13.54398823,1,-0.232248142,1,-3.244469643,1,1.255945683,1,0.058036249,1,-0.728614688,1,0.273681045,1
0.715983629,-9.222594261,1,-5.077662945,1,-12.60126495,1,-0.179278836,1,-3.040416956,1,1.456418157,1,0.052957773,1,-0.741421938,1,0.280013293,1
0.719983339,-9.035409927,1,-5.77642107,1,-10.92165089,1,-0.218509495,1,-2.944690228,1,1.654199481,1,0.046960674,1,-0.753685832,1,0.287708104,1
0.723985136,-9.171812057,1,-6.346092224,1,-11.10402966,1,-0.236884952,1,-2.871886969,1,1.743627548,1,0.040038787,1,-0.765601933,1,0.296411574,1
0.727982819,-11.5384779,1,-5.336925983,1,-12.54908657,1,-0.145327955,1,-2.686908007,1,1.844503284,1,0.032694712,1,-0.777035356,1,0.305803269,1
0.731982589,-11.6766386,1,-5.620026588,1,-11.41487217,1,-0.090327822,1,-2.440776587,1,2.043663979,1,0.024840819,1,-0.787487447,1,0.316337168,1
0.735984147,-8.081087112,1,-6.291709423,1,-10.48301029,1,-0.068181023,1,-2.33647275,1,2.146510601,1,0.01614205,1,-0.79720211,1,0.328058273,1
0.73998183,-7.987951279,1,-5.861400127,1,-11.41342735,1,0.040840171,1,-2.175122023,1,2.226600647,1,0.007189289,1,-0.806337237,1,0.340446472,1
0.743981302,-10.20210934,1,-5.394951344,1,-12.39103508,1,0.005347051,1,-1.803893805,1,2.349287271,1,-0.002314033,1,-0.814384401,1,0.353698134,1
0.74798286,-9.085151672,1,-5.501602173,1,-13.52494907,1,0.088844165,1,-1.359566808,1,2.48687911,1,-0.012521237,1,-0.820620358,1,0.367905587,1
0.751980782,-7.465148449,1,-5.454521179,1,-13.37427044,1,0.154469043,1,-1.004979134,1,2.577744007,1,-0.023039663,1,-0.825141549,1,0.382934153,1
0.755980551,-3.837991476,1,-4.980578423,1,-13.36783028,1,0.281698734,1,-0.71604079,1,2.660746813,1,-0.033680364,1,-0.828241706,1,0.398482203,1
0.759982109,-2.316815376,1,-6.235004902,1,-12.38067436,1,0.42118454,1,-0.605953872,1,2.850679636,1,-0.044374637,1,-0.830437362,1,0.414956868,1
0.763979793,-1.680882692,1,-5.376793861,1,-11.06716919,1,0.372130424,1,-0.516110659,1,2.965575695,1,-0.055669166,1,-0.832072675,1,0.432442307,1
0.767979264,-4.092603683,1,-2.31959343,1,-11.83357143,1,0.62284863,1,-0.417715222,1,2.884600878,1,-0.066847824,1,-0.833247185,1,0.449995339,1
0.771980822,-6.587044716,1,-4.409150124,1,-12.40010452,1,1.120069265,1,-0.165011972,1,2.830354929,1,-0.075943701,1,-0.833643615,1,0.467073739,1
0.775978506,-4.416007042,1,-5.767316818,1,-13.12986755,1,1.301455379,1,0.23255682,1,2.766337156,1,-0.083354458,1,-0.832627773,1,0.483681709,1
0.779978216,-1.389311552,1,-6.133621216,1,-12.79919529,1,1.49941957,1,0.586834013,1,2.63685298,1,-0.089424528,1,-0.830025136,1,0.499444485,1
0.783980012,1.120915174,1,-7.057427883,1,-11.78034401,1,1.665863752,1,0.760963738,1,2.544608355,1,-0.094012551,1,-0.826348603,1,0.514313936,1
0.787977755,3.09194541,1,-7.741097927,1,-10.46105385,1,1.706414938,1,0.801115513,1,2.477560759,1,-0.097742319,1,-0.822250724,1,0.528598905,1
0.791983366,4.177611351,1,-8.081606865,1,-9.684089661,1,1.777356505,1,0.7817927,1,2.375656128,1,-0.100804031,1,-0.818121552,1,0.542306304,1
0.795985162,3.876415014,1,-8.941338539,1,-9.375104904,1,1.84683907,1,0.746210635,1,2.272054911,1,-0.103061527,1,-0.814142346,1,0.555357039,1
0.799982846,3.322312355,1,-9.517613411,1,-9.456003189,1,1.836240888,1,0.764817655,1,2.151865005,1,-0.104643628,1,-0.810221255,1,0.567702889,1
0.803982317,2.81084156,1,-9.619628906,1,-9.582024574,1,1.775897264,1,0.816066027,1,1.997799873,1,-0.105720967,1,-0.806207061,1,0.57918638,1
0.807984114,2.371756315,1,-9.44274807,1,-9.74720192,1,1.720057845,1,0.896601677,1,1.814846992,1,-0.106227577,1,-0.801999331,1,0.589602947,1
0.811981797,1.973031044,1,-8.937990189,1,-9.9053936,1,1.679890156,1,0.978136182,1,1.600730062,1,-0.106023394,1,-0.797543645,1,0.59879601,1
0.815981567,1.726027608,1,-8.479224205,1,-9.899492264,1,1.684702158,1,1.064673901,1,1.375258565,1,-0.104913533,1,-0.79284966,1,0.60663712,1
0.819983363,1.413912177,1,-8.06791687,1,-9.949313164,1,1.710594773,1,1.155476332,1,1.122726917,1,-0.102680013,1,-0.787908435,1,0.613040686,1
0.823981047,1.332127929,1,-7.88295126,1,-9.935565948,1,1.751987696,1,1.253034472,1,0.86528933,1,-0.099223822,1,-0.782708704,1,0.617944419,1
0.827980816,1.456126094,1,-7.703341484,1,-9.824379921,1,1.780557156,1,1.333868742,1,0.615200043,1,-0.094589703,1,-0.777276754,1,0.621384501,1
0.831982315,1.597759485,1,-7.486442566,1,-9.689573288,1,1.795454621,1,1.398523092,1,0.364233285,1,-0.088859677,1,-0.771656573,1,0.62340945,1
0.835980058,1.773430824,1,-7.408176899,1,-9.47395134,1,1.793230295,1,1.436521769,1,0.126336828,1,-0.082149312,1,-0.765918732,1,0.624093413,1
0.839979768,1.828326225,1,-7.28717947,1,-9.360595703,1,1.787032127,1,1.460988879,1,-0.10107246,1,-0.074595161,1,-0.760127723,1,0.623528361,1
0.843981326,1.754763126,1,-7.124948978,1,-9.230914116,1,1.763543367,1,1.474114895,1,-0.318091691,1,-0.066296279,1,-0.754338086,1,0.621797025,1
0.847979248,1.552341461,1,-6.824623585,1,-9.1624403,1,1.729646802,1,1.480858922,1,-0.526459336,1,-0.057399731,1,-0.748541474,1,0.618988752,1
0.851978779,1.236706972,1,-6.519585609,1,-9.162157059,1,1.692507863,1,1.483965516,1,-0.721513033,1,-0.047964834,1,-0.742749035,1,0.615167856,1
0.855980515,0.9166857,1,-6.087551594,1,-9.148558617,1,1.648872256,1,1.487357616,1,-0.916211426,1,-0.038057923,1,-0.736949205,1,0.610372722,1
0.859978497,0.562162459,1,-5.624356747,1,-9.151175499,1,1.605813026,1,1.494360566,1,-1.098816633,1,-0.027737848,1,-0.731122315,1,0.604675949,1
0.863977969,0.225070566,1,-5.257619858,1,-9.17441082,1,1.556642771,1,1.50141561,1,-1.270177007,1,-0.017073942,1,-0.725242198,1,0.598147154,1
0.867979527,-0.079119682,1,-4.852127075,1,-9.174034119,1,1.506215215,1,1.510406256,1,-1.434697509,1,-0.0061142,1,-0.719278455,1,0.590842962,1
0.87197721,-0.427987546,1,-4.398155212,1,-9.211239815,1,1.468191385,1,1.518856883,1,-1.577086926,1,0.00509587,1,-0.713224351,1,0.582840025,1
0.875976682,-0.680596292,1,-3.973746538,1,-9.207824707,1,1.428520083,1,1.524944782,1,-1.713025808,1,0.016487928,1,-0.707067788,1,0.57424432,1
0.879978478,-0.934975684,1,-3.52411437,1,-9.20348835,1,1.396610379,1,1.526539087,1,-1.836371541,1,0.028057616,1,-0.700805902,1,0.565106571,1
0.883976221,-1.233046055,1,-3.219511032,1,-9.203766823,1,1.36250484,1,1.529163122,1,-1.953574538,1,0.039762888,1,-0.694435656,1,0.555487096,1
0.887975693,-1.48841083,1,-2.810682297,1,-9.216170311,1,1.337005496,1,1.527741313,1,-2.051791668,1,0.05154901,1,-0.687958717,1,0.545472026,1
0.891977489,-1.685548186,1,-2.334818602,1,-9.223372459,1,1.309035182,1,1.519745469,1,-2.145343542,1,0.063404568,1,-0.681379199,1,0.535091817,1
0.895975173,-1.893477082,1,-1.980296254,1,-9.178048134,1,1.293738127,1,1.50859201,1,-2.23592186,1,0.075320207,1,-0.674734116,1,0.524397314,1
0.899974644,-2.153730631,1,-1.64259088,1,-9.177019119,1,1.284226894,1,1.490809202,1,-2.31685853,1,0.087308347,1,-0.668013334,1,0.513414264,1
0.90397644,-2.409050941,1,-1.332257986,1,-9.209482193,1,1.284217358,1,1.464666009,1,-2.39116931,1,0.099360824,1,-0.661249697,1,0.502206564,1
0.907974124,-2.779192448,1,-1.164848447,1,-9.23687458,1,1.288999677,1,1.442630529,1,-2.451172113,1,0.111482851,1,-0.654439211,1,0.490806937,1
0.911980033,-3.192191362,1,-1.039718509,1,-9.307170868,1,1.294379592,1,1.4186939,1,-2.510919333,1,0.123656601,1,-0.64759618,1,0.479258895,1
0.915981829,-3.633644104,1,-0.928694904,1,-9.363238335,1,1.29318738,1,1.404122949,1,-2.560243368,1,0.13583535,1,-0.640680611,1,0.467588872,1
0.919979513,-4.054875851,1,-0.975282669,1,-9.474634171,1,1.284530401,1,1.391562462,1,-2.61057663,1,0.147991121,1,-0.633677721,1,0.455834985,1
0.923979282,-4.533624649,1,-0.983388841,1,-9.606554031,1,1.278180003,1,1.388341069,1,-2.649101496,1,0.160078853,1,-0.626578271,1,0.44402647,1
0.927981079,-5.085095406,1,-0.994736373,1,-9.727829933,1,1.262037277,1,1.396488667,1,-2.688598633,1,0.17205742,1,-0.619318426,1,0.432200789,1
0.931978762,-5.446763039,1,-1.047316194,1,-9.824531555,1,1.244335771,1,1.404508114,1,-2.730563641,1,0.183915436,1,-0.611882687,1,0.420353293,1
0.935978234,-6.388936043,1,-1.076966405,1,-9.760320663,1,1.21600771,1,1.444626331,1,-2.754410505,1,0.195598245,1,-0.604243934,1,0.408522069,1
0.939979792,-6.660681248,1,-1.227685332,1,-9.862565994,1,1.181080103,1,1.491933942,1,-2.779760838,1,0.207004935,1,-0.5962767,1,0.396808922,1
0.943977714,-7.170592785,1,-1.226869106,1,-9.956620216,1,1.144172668,1,1.550196052,1,-2.802730799,1,0.218134329,1,-0.587975264,1,0.38519913,1
0.947977483,-7.66390419,1,-1.263049126,1,-10.00134277,1,1.09886682,1,1.631196022,1,-2.818953753,1,0.228921771,1,-0.57927531,1,0.373758733,1
0.95197928,-8.00104332,1,-1.256374836,1,-9.922663689,1,1.059253097,1,1.70911634,1,-2.835734844,1,0.239371642,1,-0.570165992,1,0.362493336,1
0.955977201,-8.236759186,1,-1.194051385,1,-9.884740829,1,1.016425848,1,1.783565998,1,-2.841154814,1,0.249463648,1,-0.560602605,1,0.351436764,1
0.959976733,-8.573870659,1,-1.248953104,1,-9.796141624,1,0.971801043,1,1.867248178,1,-2.845801115,1,0.259143293,1,-0.550679803,1,0.340640247,1
0.963978231,-8.732254028,1,-1.376505733,1,-9.664996147,1,0.916476667,1,1.951763153,1,-2.836775064,1,0.26837492,1,-0.540346861,1,0.330136955,1
0.967975914,-8.760429382,1,-1.338397026,1,-9.580424309,1,0.865558267,1,2.019392967,1,-2.822890759,1,0.277133852,1,-0.529641092,1,0.319960713,1
0.971975446,-8.886774063,1,-1.357028484,1,-9.428898811,1,0.804169118,1,2.08127141,1,-2.805847645,1,0.285414517,1,-0.518637359,1,0.310109735,1
0.975977242,-8.994616508,1,-1.433500648,1,-9.301186562,1,0.738556564,1,2.134552956,1,-2.771428823,1,0.293170571,1,-0.507374525,1,0.300600588,1
0.979974926,-9.016467094,1,-1.444639087,1,-9.154607773,1,0.669332445,1,2.179588795,1,-2.735665798,1,0.300376415,1,-0.495891005,1,0.291469187,1
0.983974397,-9.23134613,1,-1.434878707,1,-9.045432091,1,0.594583571,1,2.227713585,1,-2.684572458,1,0.307034731,1,-0.484239638,1,0.282722831,1
0.987976193,-9.382987976,1,-1.429729819,1,-8.812590599,1,0.526197135,1,2.261072874,1,-2.63445425,1,0.313111961,1,-0.472449362,1,0.274394333,1
0.991973877,-9.482156754,1,-1.385489702,1,-8.685922623,1,0.450603187,1,2.292920589,1,-2.571819067,1,0.318622559,1,-0.460553229,1,0.266479164,1
0.995973647,-9.635761261,1,-1.342740893,1,-8.488555908,1,0.373883903,1,2.324138403,1,-2.504625559,1,0.323547721,1,-0.448584378,1,0.259000957,1
0.999975443,-9.677124977,1,-1.298068523,1,-8.328858376,1,0.297826111,1,2.356738329,1,-2.427659988,1,0.327898413,1,-0.436559498,1,0.25198102,1
1.003973126,-9.538396835,1,-1.14588058,1,-8.167286873,1,0.234443724,1,2.385686159,1,-2.34710598,1,0.331691444,1,-0.424492002,1,0.245420486,1
1.007972836,-9.450407028,1,-0.854134977,1,-7.984111786,1,0.181933954,1,2.389778376,1,-2.263767481,1,0.335004181,1,-0.41245237,1,0.239304557,1
1.011974692,-9.349459648,1,-0.573919058,1,-7.836445808,1,0.148526579,1,2.395267248,1,-2.184075832,1,0.337922633,1,-0.400466949,1,0.233599052,1
1.015972376,-9.197965622,1,-0.240377694,1,-7.650553703,1,0.132692531,1,2.391025543,1,-2.112264633,1,0.340534925,1,-0.388574719,1,0.228280187,1
1.019972086,-9.051579475,1,0.0809514,1,-7.505063534,1,0.144131437,1,2.370290279,1,-2.0442698,1,0.342951089,1,-0.376810968,1,0.223276779,1
1.023973942,-8.894948006,1,0.330135286,1,-7.298009872,1,0.163192362,1,2.337379694,1,-1.977687955,1,0.345270336,1,-0.365229666,1,0.218556076,1
1.027971864,-8.751010895,1,0.549674928,1,-7.161159515,1,0.202069134,1,2.30269289,1,-1.925086737,1,0.347573996,1,-0.353846878,1,0.214079291,1
1.031977773,-8.601484299,1,0.645156443,1,-7.01160717,1,0.24491404,1,2.245467186,1,-1.86795485,1,0.349938393,1,-0.342709929,1,0.209802642,1
1.035979509,-8.542966843,1,0.717561841,1,-6.889622688,1,0.300586879,1,2.19724679,1,-1.822155714,1,0.352395296,1,-0.331827641,1,0.205702215,1
1.039977431,-8.422608376,1,0.736092329,1,-6.771292686,1,0.35033223,1,2.133988142,1,-1.777774692,1,0.354958355,1,-0.321212411,1,0.201744109,1
1.043976903,-8.361597061,1,0.876929224,1,-6.738275051,1,0.398238987,1,2.066751957,1,-1.732741117,1,0.357651412,1,-0.310886443,1,0.197902486,1
1.04797852,-8.327999115,1,1.080644011,1,-6.60968256,1,0.448493034,1,1.996508121,1,-1.701361537,1,0.360474169,1,-0.300863147,1,0.194157884,1
1.051976442,-8.443319321,1,1.349504232,1,-6.534133911,1,0.510477364,1,1.927374601,1,-1.673834562,1,0.363461733,1,-0.291139454,1,0.190468535,1
1.055975914,-8.597630501,1,1.531857729,1,-6.401432991,1,0.57241261,1,1.863594174,1,-1.648973227,1,0.36665076,1,-0.281689823,1,0.186821759,1
1.059977531,-8.806765556,1,1.568652153,1,-6.196417809,1,0.626683056,1,1.809850812,1,-1.621981382,1,0.370034277,1,-0.272483975,1,0.183230311,1
1.063975453,-9.018688202,1,1.489249825,1,-5.983010769,1,0.684984982,1,1.763577104,1,-1.595185876,1,0.373594314,1,-0.263490319,1,0.17971313,1
1.067974925,-9.17105484,1,1.498158336,1,-5.820025921,1,0.714222789,1,1.721781492,1,-1.562807202,1,0.377272278,1,-0.254683346,1,0.176274613,1
1.071976662,-9.184538841,1,1.422579646,1,-5.585722923,1,0.735889196,1,1.684043169,1,-1.5284307,1,0.381000787,1,-0.246068388,1,0.172945887,1
1.075974345,-9.169518471,1,1.243355393,1,-5.31253624,1,0.742276013,1,1.643896222,1,-1.486320257,1,0.384727001,1,-0.237641186,1,0.16974099,1
1.079973936,-9.226500511,1,1.326228738,1,-5.067895889,1,0.743080318,1,1.601712584,1,-1.431554198,1,0.388403416,1,-0.229430988,1,0.166700602,1
1.083975673,-9.196446419,1,1.403340697,1,-4.827908516,1,0.738822341,1,1.546064973,1,-1.37422812,1,0.392019421,1,-0.221467108,1,0.163834319,1
1.087973356,-9.141911507,1,1.462882519,1,-4.56797123,1,0.733775616,1,1.495555758,1,-1.297238827,1,0.395550311,1,-0.2137952,1,0.161166623,1
1.091973066,-8.985610962,1,1.656643748,1,-4.32178688,1,0.724843383,1,1.43392992,1,-1.227044106,1,0.398964852,1,-0.206427574,1,0.158726543,1
1.095974922,-8.857449532,1,1.823905468,1,-4.103298664,1,0.716678023,1,1.366657376,1,-1.146796465,1,0.402297288,1,-0.199417725,1,0.156492159,1
1.099972606,-8.82753849,1,2.029527903,1,-3.931073189,1,0.715916812,1,1.292564154,1,-1.064509392,1,0.405554891,1,-0.192804709,1,0.154478967,1
1.103972316,-8.891426086,1,2.153991699,1,-3.779903173,1,0.719593585,1,1.209115148,1,-0.975222945,1,0.408762574,1,-0.186598361,1,0.152690172,1
1.107973933,-8.823848724,1,2.244153976,1,-3.621874332,1,0.711008072,1,1.136471391,1,-0.879358888,1,0.411914229,1,-0.180801749,1,0.151139647,1
1.111971617,-8.82331562,1,2.163360596,1,-3.465704441,1,0.698227048,1,1.065980434,1,-0.778703153,1,0.414964855,1,-0.175426453,1,0.14984709,1
1.115971327,-8.833376884,1,2.075552225,1,-3.313541889,1,0.668301523,1,0.993848681,1,-0.671313405,1,0.417867661,1,-0.170491621,1,0.148834914,1
1.119973063,-8.784380913,1,1.939701796,1,-3.265688181,1,0.62550348,1,0.913003087,1,-0.557181537,1,0.420571208,1,-0.166000351,1,0.148131475,1
1.123971105,-8.75493145,1,1.796714783,1,-3.189562559,1,0.563703597,1,0.834419429,1,-0.429461986,1,0.423020005,1,-0.16199623,1,0.147767127,1
1.127970576,-8.812125206,1,1.71946764,1,-3.177292347,1,0.494599938,1,0.758749366,1,-0.297424048,1,0.425129205,1,-0.158481389,1,0.147750273,1
1.131972075,-8.891989708,1,1.668383002,1,-3.106217623,1,0.409875423,1,0.676311374,1,-0.162563816,1,0.42688185,1,-0.155484915,1,0.148112729,1
1.135969758,-8.975293159,1,1.527203321,1,-3.050377369,1,0.323950529,1,0.599719763,1,-0.027665479,1,0.42824626,1,-0.153001219,1,0.148830563,1
1.139969587,-8.896390915,1,1.40255928,1,-3.051366329,1,0.236658573,1,0.520044506,1,0.108603112,1,0.429209113,1,-0.151034474,1,0.149930179,1
1.143971324,-8.82083416,1,1.220837355,1,-3.100213528,1,0.1418937,1,0.434152901,1,0.235483482,1,0.42975077,1,-0.149581522,1,0.151368454,1
1.147969246,-8.769162178,1,1.149599195,1,-3.142958641,1,0.050607409,1,0.350744724,1,0.357005656,1,0.429874212,1,-0.148653045,1,0.1531194,1
1.151974916,-8.687342644,1,1.077768445,1,-3.162544489,1,-0.026492797,1,0.268006355,1,0.467716902,1,0.429620504,1,-0.148227379,1,0.155149743,1
1.155976415,-8.562839508,1,1.001677036,1,-3.322451591,1,-0.08528395,1,0.171618223,1,0.558633924,1,0.429060698,1,-0.148282453,1,0.157420963,1
1.159974098,-8.366929054,1,0.829713583,1,-3.418287277,1,-0.136272684,1,0.081885181,1,0.638494313,1,0.428264618,1,-0.148815185,1,0.159832433,1
1.163973927,-8.130828857,1,0.520034432,1,-3.5525527,1,-0.173955768,1,-0.014528247,1,0.698460937,1,0.427265197,1,-0.149801061,1,0.162348211,1
1.167975903,-7.882254601,1,0.173809871,1,-3.685034275,1,-0.212228164,1,-0.110333502,1,0.743570924,1,0.426108241,1,-0.1512281,1,0.164907694,1
1.171973944,-7.655086994,1,-0.15472509,1,-3.823953152,1,-0.247793421,1,-0.21350193,1,0.775839508,1,0.424812049,1,-0.153071299,1,0.167440653,1
1.175973415,-7.304592609,1,-0.685961008,1,-4.01499939,1,-0.280362487,1,-0.318734646,1,0.791404128,1,0.423387855,1,-0.155333281,1,0.169894904,1
1.179975152,-7.046404839,1,-1.135501623,1,-4.245332241,1,-0.318330199,1,-0.431746095,1,0.794561803,1,0.421821296,1,-0.158002794,1,0.172208086,1
1.183972836,-6.757405281,1,-1.581027985,1,-4.415431976,1,-0.364542902,1,-0.530181646,1,0.778368652,1,0.420115173,1,-0.161037877,1,0.174323604,1
1.187972665,-6.60350275,1,-1.911476493,1,-4.625835896,1,-0.416669458,1,-0.635376513,1,0.748575747,1,0.418246925,1,-0.164408356,1,0.176196873,1
1.191974401,-6.487587452,1,-2.270895958,1,-4.904567242,1,-0.452651173,1,-0.73626864,1,0.694433212,1,0.416256815,1,-0.168089509,1,0.177747563,1
1.195972085,-6.335587978,1,-2.499763966,1,-5.179260731,1,-0.490818918,1,-0.823484957,1,0.625346184,1,0.414160371,1,-0.172011718,1,0.1789307,1
1.199971795,-6.376196861,1,-2.629121304,1,-5.473209858,1,-0.522685409,1,-0.90814513,1,0.540998876,1,0.41199106,1,-0.176120594,1,0.179700151,1
1.203973651,-6.290066719,1,-2.803900242,1,-5.664590359,1,-0.541661739,1,-0.977161705,1,0.447653294,1,0.409805477,1,-0.180369511,1,0.180010185,1
1.207971334,-6.326038361,1,-2.876901627,1,-5.839205265,1,-0.559725583,1,-1.042795539,1,0.338435709,1,0.407636106,1,-0.184654295,1,0.180016384,1
1.211971045,-6.599596977,1,-2.914951324,1,-6.045729637,1,-0.565346956,1,-1.096717358,1,0.225244462,1,0.405509919,1,-0.189038947,1,0.179346472,1
1.2159729,-6.725229263,1,-3.044061422,1,-6.12788868,1,-0.567945063,1,-1.143339038,1,0.11449194,1,0.403471768,1,-0.193419367,1,0.178179681,1
1.219970822,-6.840801239,1,-3.11073184,1,-6.251445293,1,-0.580973327,1,-1.184138775,1,-0.009807182,1,0.401495725,1,-0.197789893,1,0.176515788,1
1.223970532,-6.97477293,1,-3.226802826,1,-6.297624111,1,-0.604752004,1,-1.222181559,1,-0.107378267,1,0.399547964,1,-0.20213294,1,0.174380273,1
1.22797215,-7.09016943,1,-3.338847399,1,-6.27830267,1,-0.644970596,1,-1.254449129,1,-0.197337866,1,0.39757815,1,-0.206457838,1,0.171833947,1
1.231969833,-7.210274696,1,-3.456054211,1,-6.255851746,1,-0.697812378,1,-1.288537025,1,-0.264401942,1,0.395499885,1,-0.210791051,1,0.168948412,1
1.235969305,-7.33878088,1,-3.434780121,1,-6.25874424,1,-0.787166417,1,-1.323487759,1,-0.309649557,1,0.393200696,1,-0.215176105,1,0.165801689,1
1.239970803,5.848227978,1,-15.85852051,1,-18.32509422,1,-1.44384253,1,-1.310477734,1,-0.365667492,1,0.389945209,1,-0.219594941,1,0.162471682,1
1.243968725,19.81369591,1,-16.03688812,1,-16.50027275,1,-2.11257863,1,-2.005391836,1,0.053590611,1,0.383052409,1,-0.224932194,1,0.159410119,1
1.247968554,-7.834213257,1,-12.81880569,1,-11.15360928,1,-2.329033136,1,-2.478355169,1,0.18315205,1,0.374989271,1,-0.234113887,1,0.15636459,1
1.251970291,13.47607231,1,-17.43617249,1,-16.19456863,1,-2.834678888,1,-1.270133495,1,0.260288715,1,0.365048379,1,-0.241259009,1,0.154339761,1
1.255967975,26.82655716,1,-17.40810013,1,-21.8839016,1,-2.92459774,1,-1.438034058,1,0.652936101,1,0.353565514,1,-0.246720597,1,0.154255673,1
1.259967446,9.503252029,1,-20.47547913,1,-18.70096207,1,-3.425979614,1,-2.188453913,1,0.835338891,1,0.340756714,1,-0.254565895,1,0.154605299,1
1.263969302,4.030379772,1,-14.28972244,1,-14.17653465,1,-3.642551422,1,-2.00509119,1,1.046182394,1,0.326400906,1,-0.263976872,1,0.155350506,1
1.267966986,6.795582771,1,-6.481357574,1,-12.02830601,1,-3.736097097,1,-2.032877922,1,1.151725769,1,0.31110841,1,-0.272777945,1,0.157158643,1
1.271972656,-2.092890263,1,-0.640493691,1,-9.574156761,1,-3.788622618,1,-2.437516928,1,1.126090765,1,0.295547366,1,-0.282722354,1,0.158898652,1
1.275974393,-5.632843494,1,5.568134308,1,-7.329247952,1,-3.491608858,1,-2.566430569,1,1.148159027,1,0.280439496,1,-0.293616593,1,0.160517156,1
1.279972076,-11.12651825,1,8.015885353,1,-7.800681114,1,-3.275003433,1,-2.835297585,1,1.041719556,1,0.266444921,1,-0.305214345,1,0.16188252,1
1.283971786,-13.38882065,1,11.02666378,1,-8.898733139,1,-2.785786152,1,-2.934663296,1,0.915403962,1,0.254011571,1,-0.317365944,1,0.162723213,1
1.287973404,-16.22395897,1,10.20030499,1,-11.67077637,1,-2.314126492,1,-2.961362123,1,0.826092422,1,0.24373804,1,-0.329723179,1,0.163242131,1
1.291971087,-13.20650578,1,10.57839584,1,-15.67147636,1,-1.771945715,1,-2.702261209,1,0.753458858,1,0.235359251,1,-0.341462314,1,0.163600758,1
1.295970798,-12.1355505,1,10.58567333,1,-17.38005447,1,-1.329145551,1,-2.573251009,1,0.72554642,1,0.229058206,1,-0.352439135,1,0.164052755,1
1.299972653,-10.45341873,1,10.56411076,1,-17.0032444,1,-1.082376599,1,-2.309144974,1,0.799511909,1,0.224023983,1,-0.362639129,1,0.164873302,1
1.303970337,-8.964753151,1,8.696761131,1,-15.52060795,1,-0.98589915,1,-2.146567822,1,0.979214728,1,0.219277859,1,-0.372093439,1,0.166500807,1
1.307970047,-9.931242943,1,5.840183735,1,-13.5511446,1,-0.904248893,1,-2.0459764,1,1.181797504,1,0.214559734,1,-0.381212354,1,0.169093624,1
1.311971545,-9.7216959,1,4.114461899,1,-12.48663998,1,-0.845025599,1,-1.877983809,1,1.272066236,1,0.209768027,1,-0.389911652,1,0.17252551,1
1.315969229,-11.9683857,1,1.566361785,1,-11.70980644,1,-0.829476118,1,-1.766539574,1,1.320673347,1,0.204820812,1,-0.398140132,1,0.176447496,1
1.31996882,-13.18358421,1,-0.220692962,1,-11.70585918,1,-0.70148176,1,-1.654664159,1,1.131048679,1,0.200362206,1,-0.40581879,1,0.180177018,1
1.323970318,-12.27190018,1,-0.936405122,1,-10.48318386,1,-0.598692656,1,-1.488135338,1,0.904993176,1,0.196529865,1,-0.412784278,1,0.183220461,1
1.32796824,-9.880553246,1,-2.980037689,1,-9.889665604,1,-0.508134127,1,-1.39321959,1,0.672927916,1,0.193485871,1,-0.419026405,1,0.185339928,1
1.331967711,-9.009720802,1,-4.073786736,1,-8.985775948,1,-0.494459659,1,-1.358041286,1,0.563189745,1,0.190856501,1,-0.424901068,1,0.186837688,1
1.335969329,-6.193914413,1,-4.134334564,1,-8.500189781,1,-0.500980794,1,-1.30785346,1,0.515141487,1,0.188398659,1,-0.430521369,1,0.188030705,1
1.339967012,-5.816599369,1,-2.38044405,1,-8.838981628,1,-0.527443826,1,-1.310611248,1,0.550621212,1,0.185824648,1,-0.436071157,1,0.189258605,1
1.343966484,-5.628045082,1,-1.00227356,1,-8.567519188,1,-0.535766006,1,-1.248996496,1,0.595731914,1,0.183074653,1,-0.441531062,1,0.190700427,1
1.347968221,-5.911408901,1,-0.266136944,1,-8.527459145,1,-0.553128839,1,-1.180403113,1,0.674238026,1,0.180129662,1,-0.446752876,1,0.192505717,1
1.351966262,-7.176789284,1,-0.205868542,1,-8.299365997,1,-0.57407552,1,-1.074324369,1,0.734533012,1,0.176921383,1,-0.451715142,1,0.194698155,1
1.355965734,-7.50258255,1,-1.629213691,1,-7.841609001,1,-0.604389548,1,-0.933204353,1,0.786068618,1,0.173443154,1,-0.456197202,1,0.197255611,1
1.35996747,-7.526505947,1,-2.954954386,1,-7.83686018,1,-0.659523427,1,-0.82115078,1,0.817586303,1,0.169643626,1,-0.460186541,1,0.200130612,1
1.363965392,-6.933661461,1,-5.004389763,1,-7.867101192,1,-0.739477813,1,-0.7247473,1,0.843464494,1,0.165482104,1,-0.463786691,1,0.20320107,1
1.367964983,-6.284020424,1,-5.815287113,1,-8.003410339,1,-0.864838123,1,-0.647355795,1,0.847992539,1,0.160799727,1,-0.467040837,1,0.206454903,1
1.37196672,-5.244056225,1,-6.229054451,1,-8.30032444,1,-0.991544843,1,-0.613433838,1,0.857474864,1,0.155615866,1,-0.470058292,1,0.209763229,1
1.375964642,-4.583329201,1,-4.808700085,1,-8.411298752,1,-1.102386713,1,-0.584564149,1,0.885873318,1,0.149810553,1,-0.472967237,1,0.213237494,1
1.379964471,-4.603831768,1,-3.364590883,1,-9.533564568,1,-1.199271917,1,-0.535509109,1,0.934939206,1,0.143542051,1,-0.47571972,1,0.216915682,1
1.383966208,-5.695469856,1,-0.772460938,1,-9.81069088,1,-1.272895813,1,-0.481324404,1,0.969222844,1,0.136794716,1,-0.478297323,1,0.2208336,1
1.387963891,-5.10452652,1,1.020886183,1,-9.702051163,1,-1.250657082,1,-0.454795033,1,0.965377748,1,0.129855067,1,-0.480638176,1,0.224874094,1
1.391963601,-5.942501545,1,1.633704543,1,-9.624844551,1,-1.231144905,1,-0.46643728,1,0.963898599,1,0.123020649,1,-0.482959747,1,0.228944063,1
1.395971298,-7.276283741,1,2.112038612,1,-10.08084393,1,-1.171327353,1,-0.373051614,1,0.922262371,1,0.116332777,1,-0.48510021,1,0.232960463,1
1.399974942,-6.976273537,1,1.513595104,1,-9.914021492,1,-1.08644402,1,-0.270933181,1,0.860601485,1,0.110040024,1,-0.486785173,1,0.236792549,1
1.403974652,-5.946043968,1,0.744079232,1,-9.851919174,1,-1.010015011,1,-0.2348952,1,0.784520745,1,0.104171991,1,-0.48812592,1,0.240373105,1
1.407976389,-4.717029095,1,0.294404566,1,-9.637955666,1,-0.948514462,1,-0.221096769,1,0.731508255,1,0.098718032,1,-0.489312589,1,0.243683547,1
1.411974192,-4.178256512,1,0.25657326,1,-9.825118065,1,-0.887887955,1,-0.264502436,1,0.663944602,1,0.09359283,1,-0.490542382,1,0.246733487,1
1.415973663,-4.457835674,1,0.729718506,1,-9.924283981,1,-0.837486744,1,-0.282700747,1,0.611897588,1,0.088827454,1,-0.491858482,1,0.249505907,1
1.419975162,-5.218444824,1,1.452978373,1,-9.974220276,1,-0.751338363,1,-0.279515505,1,0.555923402,1,0.084454194,1,-0.493192077,1,0.2520459,1
1.423973083,-5.361087799,1,1.547048926,1,-9.603303909,1,-0.661179066,1,-0.269248635,1,0.508576453,1,0.080547526,1,-0.494476914,1,0.254343688,1
1.427972913,-4.540188789,1,0.86549592,1,-9.365880013,1,-0.580771208,1,-0.283179045,1,0.434248984,1,0.077071153,1,-0.495699257,1,0.256402254,1
1.431974411,-4.040779591,1,0.82701093,1,-9.620416641,1,-0.509762943,1,-0.33342132,1,0.363190532,1,0.074074484,1,-0.497044086,1,0.258107185,1
1.435972333,-4.086738586,1,0.658156812,1,-9.597222328,1,-0.45825386,1,-0.36819151,1,0.326949,1,0.071442738,1,-0.498559415,1,0.259569228,1
1.439972043,-4.464073181,1,0.195284218,1,-9.427461624,1,-0.412523925,1,-0.403444201,1,0.303214073,1,0.069077022,1,-0.500189185,1,0.26086399,1
1.443973899,-5.009795189,1,-0.140036389,1,-9.163535118,1,-0.380260348,1,-0.410116702,1,0.28090471,1,0.066907354,1,-0.5018875,1,0.26207304,1
1.447971821,-5.541460514,1,0.073376849,1,-9.152675629,1,-0.338475764,1,-0.408377677,1,0.257471502,1,0.06493964,1,-0.503590822,1,0.263167143,1
1.451971292,-5.844409943,1,0.980151892,1,-8.935976982,1,-0.277642816,1,-0.390389651,1,0.212026983,1,0.063240886,1,-0.505245626,1,0.264120728,1
1.455973148,-4.846973896,1,0.582860768,1,-9.017019272,1,-0.218363121,1,-0.393752575,1,0.157195285,1,0.061898533,1,-0.506771088,1,0.265108556,1
1.459970832,-4.857251167,1,0.454118907,1,-9.178103447,1,-0.182738066,1,-0.40726772,1,0.126619607,1,0.060847614,1,-0.508400261,1,0.265643805,1
1.463970304,-4.791799545,1,0.294460863,1,-8.996293068,1,-0.144262403,1,-0.407476366,1,0.108815998,1,0.059987456,1,-0.510050952,1,0.266064227,1
1.46797204,-4.583148956,1,-0.160110131,1,-8.854347229,1,-0.120287806,1,-0.424729347,1,0.097909182,1,0.059270289,1,-0.511731505,1,0.26642859,1
1.471969843,-4.76722908,1,-0.442578316,1,-8.748347282,1,-0.098363146,1,-0.439422339,1,0.075480796,1,0.058701489,1,-0.513483644,1,0.266702056,1
1.475969553,-4.917215347,1,-0.230850413,1,-8.85093689,1,-0.077404849,1,-0.450976342,1,0.056708898,1,0.058267117,1,-0.515293956,1,0.266894639,1
1.47997129,-4.889266014,1,0.417179257,1,-8.817836761,1,-0.044634927,1,-0.46608299,1,0.037111934,1,0.057981383,1,-0.517136753,1,0.266968548,1
1.483968973,-4.844412327,1,0.730001092,1,-8.739419937,1,-0.013226122,1,-0.455970854,1,0.016763533,1,0.057858404,1,-0.518981695,1,0.266974449,1
1.487968802,-5.468102455,1,0.826215804,1,-8.807983398,1,0.00528763,1,-0.441856176,1,0.007863374,1,0.057881698,1,-0.520792007,1,0.266906261,1
1.491970539,-4.302959919,1,0.59597981,1,-8.90069294,1,0.068008088,1,-0.479631156,1,-0.037607472,1,0.058134999,1,-0.52260536,1,0.26670444,1
1.495968223,-4.874320984,1,0.429487169,1,-8.805287361,1,0.084343553,1,-0.494334906,1,-0.059058297,1,0.058604974,1,-0.524539471,1,0.266344011,1
1.49996829,-4.974681854,1,0.398731232,1,-8.937484741,1,0.111686818,1,-0.49710536,1,-0.077608898,1,0.059229016,1,-0.52650243,1,0.265889287,1
1.503970027,-4.802453518,1,0.510818958,1,-8.681253433,1,0.147742704,1,-0.496828347,1,-0.09960904,1,0.06002022,1,-0.528461456,1,0.265344709,1
1.507967949,-5.043907642,1,0.557283461,1,-8.721199989,1,0.170737684,1,-0.502128065,1,-0.119546972,1,0.060973663,1,-0.530431986,1,0.264693975,1
1.51196754,-5.091166973,1,0.58019501,1,-8.644237518,1,0.201189607,1,-0.494584233,1,-0.137611225,1,0.062090166,1,-0.532393813,1,0.263956785,1
1.515975118,-5.030035973,1,0.460505903,1,-8.668593407,1,0.223779216,1,-0.493956,1,-0.157218903,1,0.063360199,1,-0.534320712,1,0.263130963,1
1.519979,-4.918674469,1,0.098895885,1,-8.440741539,1,0.248019814,1,-0.487812281,1,-0.170880467,1,0.064759634,1,-0.536236584,1,0.262230724,1
1.52397871,-4.982829571,1,0.032920215,1,-8.584109306,1,0.263889223,1,-0.486813724,1,-0.190132797,1,0.066291034,1,-0.538130701,1,0.261246234,1
1.527980566,-5.25019455,1,0.007189087,1,-8.449485779,1,0.285037398,1,-0.486778408,1,-0.212321877,1,0.067944534,1,-0.540023327,1,0.260169923,1
1.531978488,-5.264811993,1,0.117388867,1,-8.390113831,1,0.311995447,1,-0.480087459,1,-0.23770225,1,0.06975057,1,-0.541894495,1,0.258971661,1
1.53597796,-5.496739388,1,0.222194389,1,-8.368619919,1,0.331400275,1,-0.469750553,1,-0.255408704,1,0.071715787,1,-0.543724537,1,0.257659972,1
1.539979577,-5.368196964,1,0.004232463,1,-8.145386696,1,0.359072596,1,-0.453134626,1,-0.275345981,1,0.073819607,1,-0.545487881,1,0.256266594,1
1.543977261,-5.263156891,1,-0.022523193,1,-8.176876068,1,0.364870459,1,-0.440520018,1,-0.293418348,1,0.076042876,1,-0.547177494,1,0.254772872,1
1.547976732,-5.358776093,1,-0.441889733,1,-8.152518272,1,0.375077426,1,-0.424686342,1,-0.302535743,1,0.078341439,1,-0.548806667,1,0.253217518,1
1.551978469,-5.37477541,1,-1.065494657,1,-8.025492668,1,0.361193061,1,-0.405365348,1,-0.29368332,1,0.080622189,1,-0.550369382,1,0.251668215,1
1.555976152,-5.487988472,1,-1.335783839,1,-8.040211678,1,0.334994704,1,-0.389879614,1,-0.28140077,1,0.082794048,1,-0.551845729,1,0.250174731,1
1.559975624,-5.738394737,1,-1.613319993,1,-7.840502739,1,0.301993132,1,-0.350341201,1,-0.256878674,1,0.084809989,1,-0.553240478,1,0.248774007,1
1.56397748,-5.514927387,1,-1.670732975,1,-7.977796555,1,0.281194001,1,-0.33596459,1,-0.240991011,1,0.086663038,1,-0.554516613,1,0.247469723,1
1.567975163,-5.477855682,1,-1.558864355,1,-7.86293745,1,0.25239554,1,-0.320902199,1,-0.222466111,1,0.088366561,1,-0.555734634,1,0.246243805,1
1.571974635,-5.639273643,1,-1.482233524,1,-7.832967281,1,0.230376482,1,-0.293384701,1,-0.206642106,1,0.089929312,1,-0.556884706,1,0.245109171,1
1.575976491,-5.796887398,1,-1.329114795,1,-7.77897501,1,0.205839634,1,-0.267329007,1,-0.189262822,1,0.091354571,1,-0.55793339,1,0.244053215,1
1.579974174,-5.445828915,1,-1.310862541,1,-7.725669384,1,0.195387334,1,-0.224593222,1,-0.182666153,1,0.092668451,1,-0.558833241,1,0.243084505,1
1.583973885,-5.505442142,1,-1.425560951,1,-7.871053696,1,0.168514222,1,-0.220771268,1,-0.163329676,1,0.093884483,1,-0.559668601,1,0.242181957,1
1.587975621,-5.495765686,1,-1.794515729,1,-7.834681988,1,0.142354727,1,-0.191231266,1,-0.116367795,1,0.094912179,1,-0.560439944,1,0.241419464,1
1.591973424,-5.364577293,1,-2.097280741,1,-7.941989899,1,0.098032594,1,-0.164000958,1,-0.077362269,1,0.095672548,1,-0.561116219,1,0.240882754,1
1.595973134,-6.011277676,1,-2.486378193,1,-7.871199131,1,0.044497404,1,-0.133585379,1,-0.030094014,1,0.096129641,1,-0.561711967,1,0.240562409,1
1.599974871,-5.011404991,1,-2.500075579,1,-8.021386147,1,0.01372481,1,-0.133563206,1,-0.002439147,1,0.09634047,1,-0.562201142,1,0.24042277,1
1.603972554,-5.421716213,1,-2.175466299,1,-7.893492222,1,-0.032244448,1,-0.113891423,1,0.034022331,1,0.096287318,1,-0.56271112,1,0.24043937,1
1.607972383,-6.023803234,1,-1.963722467,1,-8.044858932,1,-0.075998142,1,-0.078552373,1,0.072757326,1,0.095970482,1,-0.56313324,1,0.24063243,1
1.611973882,-4.894872665,1,-1.119179845,1,-7.921061039,1,-0.078063816,1,-0.080376312,1,0.065595224,1,0.095509917,1,-0.563432097,1,0.24091877,1
1.615971565,-5.372034073,1,-0.845403373,1,-8.186696053,1,-0.088195182,1,-0.074996769,1,0.083229072,1,0.095019139,1,-0.563786924,1,0.241229519,1
1.619971037,-5.491413116,1,-0.927933753,1,-8.185787201,1,-0.097195365,1,-0.05085405,1,0.079736575,1,0.094458006,1,-0.564074636,1,0.241575152,1
1.623972654,-4.995372772,1,-0.995987415,1,-8.204405785,1,-0.096986972,1,-0.064707577,1,0.080079056,1,0.093886994,1,-0.564322293,1,0.241932094,1
1.627970338,-5.522348404,1,-1.039960742,1,-8.109732628,1,-0.105754979,1,-0.05856641,1,0.097834736,1,0.093278497,1,-0.564603925,1,0.242319599,1
1.631970048,-5.310188293,1,-0.735755265,1,-8.024202347,1,-0.106589027,1,-0.027327456,1,0.092738688,1,0.092608184,1,-0.564814746,1,0.24275066,1
1.635977983,-5.248637676,1,-0.805224001,1,-8.204079628,1,-0.1118422,1,-0.037099138,1,0.09828078,1,0.091955274,1,-0.564984918,1,0.243179038,1
1.639981866,-5.429602623,1,-0.772215128,1,-8.149053574,1,-0.112770699,1,-0.020572571,1,0.10228043,1,0.091252692,1,-0.565138638,1,0.243643999,1
1.643981814,-5.160672188,1,-0.907594919,1,-8.235412598,1,-0.107736759,1,-0.024736568,1,0.094372399,1,0.090563305,1,-0.565253973,1,0.244093686,1
1.64798367,-5.295149326,1,-0.543806493,1,-8.18136692,1,-0.115276791,1,-0.021727342,1,0.093058728,1,0.089879327,1,-0.565386891,1,0.24452132,1
1.651981354,-5.287924767,1,-0.531092107,1,-8.168110847,1,-0.11193683,1,-0.018328333,1,0.082716316,1,0.089204453,1,-0.565503836,1,0.244930565,1
1.655980825,-5.3775177,1,-0.719893277,1,-8.219902039,1,-0.111287743,1,-0.014505604,1,0.089311726,1,0.088540673,1,-0.56559813,1,0.24532257,1
1.659982562,-5.430653095,1,-0.644747376,1,-8.194469452,1,-0.110015184,1,-0.010166466,1,0.08209604,1,0.087887816,1,-0.565678656,1,0.245725527,1
1.663980246,-5.516824722,1,-0.533600748,1,-8.203721046,1,-0.105097748,1,0.000990193,1,0.078204013,1,0.087255873,1,-0.56571728,1,0.24610512,1
1.667979717,-5.447537422,1,-0.616952002,1,-8.283121109,1,-0.099869117,1,0.008034814,1,0.074947812,1,0.086649239,1,-0.565720737,1,0.246475756,1
1.671981573,-5.483623028,1,-0.467862755,1,-8.351251602,1,-0.095156439,1,0.013215601,1,0.072962597,1,0.086069867,1,-0.565711677,1,0.246828288,1
1.675979257,-5.423379898,1,-0.563506067,1,-8.329594612,1,-0.090357684,1,0.020805249,1,0.066138618,1,0.085522756,1,-0.565665305,1,0.247165188,1
1.679978967,-5.547221661,1,-0.677421987,1,-8.35468483,1,-0.084688991,1,0.028913647,1,0.065154105,1,0.084996082,1,-0.565590978,1,0.24748446,1
1.683980823,-5.480264187,1,-0.696139514,1,-8.201481819,1,-0.08654473,1,0.046662454,1,0.069824204,1,0.084460467,1,-0.565472782,1,0.247824416,1
1.687978506,-5.370351791,1,-0.875676692,1,-8.129063606,1,-0.093353242,1,0.048739675,1,0.07456091,1,0.08391197,1,-0.565303922,1,0.24818036,1
1.691978216,-5.046666145,1,-1.061396837,1,-8.23506546,1,-0.103635788,1,0.054413982,1,0.090732656,1,0.083289228,1,-0.565119624,1,0.248601481,1
1.695980072,-4.846748352,1,-1.189596176,1,-8.295178413,1,-0.118593588,1,0.054500036,1,0.09892939,1,0.082597412,1,-0.564928949,1,0.249062747,1
1.699977756,-4.779094219,1,-1.473100305,1,-8.309060097,1,-0.164174721,1,0.038896915,1,0.121803604,1,0.081746899,1,-0.564767659,1,0.249597773,1
1.703977227,-5.252844334,1,-1.371471763,1,-8.174612045,1,-0.176770315,1,0.03807351,1,0.137232348,1,0.080625296,1,-0.564886451,1,0.250197291,1
1.707978725,-4.970993042,1,-1.327800393,1,-8.154141426,1,-0.193749279,1,0.035857312,1,0.155562729,1,0.079507567,1,-0.564739466,1,0.251058638,1
1.711976647,-4.510166168,1,-1.089692354,1,-8.124080658,1,-0.198017225,1,0.023527039,1,0.164793447,1,0.078308046,1,-0.564660788,1,0.251821756,1
1.715976477,-4.300494194,1,-1.039746046,1,-8.53071785,1,-0.211187303,1,0.002299786,1,0.180491447,1,0.077056304,1,-0.564666688,1,0.252644986,1
1.719977975,-4.378379822,1,-1.216979504,1,-8.451443672,1,-0.220767334,1,-0.021959249,1,0.198575571,1,0.075698838,1,-0.56476897,1,0.253549367,1
1.723975658,-4.579456329,1,-1.364025235,1,-8.365269661,1,-0.237685323,1,-0.044912748,1,0.218571246,1,0.074258283,1,-0.564970374,1,0.254521012,1
1.72797513,-4.933260441,1,-1.284544706,1,-8.39915657,1,-0.246938527,1,-0.057422575,1,0.244416043,1,0.072712801,1,-0.565247774,1,0.255598813,1
1.731976748,-4.886912346,1,-1.079079866,1,-8.48696804,1,-0.261906922,1,-0.068873607,1,0.255521685,1,0.071074061,1,-0.565559506,1,0.256756425,1
1.735974431,-5.059279442,1,-0.603018105,1,-8.471884727,1,-0.258711308,1,-0.071777873,1,0.268973947,1,0.069383934,1,-0.565918326,1,0.257985204,1
1.739973903,-5.028969288,1,-0.308669418,1,-8.437047958,1,-0.24973245,1,-0.085563287,1,0.269836813,1,0.067685984,1,-0.566315055,1,0.259233028,1
1.743975639,-5.014473915,1,-0.344103307,1,-8.468238831,1,-0.235265061,1,-0.10520374,1,0.264444709,1,0.066065192,1,-0.566767156,1,0.260459721,1
1.747973323,-5.105713367,1,-0.157067299,1,-8.521432877,1,-0.22650139,1,-0.12027026,1,0.262946099,1,0.064500339,1,-0.567281187,1,0.261677355,1
1.751972914,-5.207054615,1,-0.126697317,1,-8.530928612,1,-0.211717442,1,-0.132601157,1,0.24858208,1,0.062991954,1,-0.567840695,1,0.262852818,1
1.755980849,-5.317619324,1,-0.146038666,1,-8.484272003,1,-0.19725053,1,-0.148818389,1,0.239755481,1,0.061572522,1,-0.568475068,1,0.263970882,1
1.759984612,-5.253554344,1,0.118465707,1,-8.5433321,1,-0.184109122,1,-0.155447811,1,0.22964105,1,0.060254674,1,-0.569132209,1,0.265029997,1
1.763984442,-5.23759222,1,0.045809805,1,-8.504250526,1,-0.16591695,1,-0.171809256,1,0.220760062,1,0.059009466,1,-0.569840133,1,0.266034782,1
1.76798594,-5.203062057,1,0.14998816,1,-8.458110809,1,-0.133919597,1,-0.196901277,1,0.198247463,1,0.057901949,1,-0.570613444,1,0.266973257,1
1.771983624,-5.130623817,1,0.15930596,1,-8.460072517,1,-0.121239074,1,-0.205917403,1,0.176382214,1,0.056919824,1,-0.571458161,1,0.267812043,1
1.775983334,-5.111353397,1,0.204869658,1,-8.492165565,1,-0.101472929,1,-0.230122358,1,0.16028583,1,0.05607247,1,-0.572372139,1,0.26855737,1
1.779984951,-5.132300377,1,-0.0522344,1,-8.490434647,1,-0.08665289,1,-0.241674438,1,0.149697781,1,0.055338819,1,-0.573358715,1,0.269229829,1
1.783982277,-4.816379547,1,-0.087445579,1,-8.621089935,1,-0.078485399,1,-0.263883293,1,0.139140606,1,0.054659627,1,-0.574396312,1,0.269863218,1
1.787982106,-5.294228554,1,-0.250010937,1,-8.533624649,1,-0.072030306,1,-0.289108932,1,0.132303476,1,0.054044545,1,-0.575540125,1,0.270437986,1
1.791983843,-5.28930521,1,-0.164702207,1,-8.516382217,1,-0.05435843,1,-0.295701176,1,0.128260776,1,0.053491704,1,-0.576727867,1,0.270981461,1
1.795981526,-5.353602409,1,-0.446748972,1,-8.462652206,1,-0.055206291,1,-0.304549813,1,0.128436372,1,0.052982159,1,-0.577951729,1,0.271522284,1
1.799980998,-5.135909081,1,-0.557400942,1,-8.489605904,1,-0.052568503,1,-0.323807389,1,0.125931472,1,0.05246703,1,-0.579232097,1,0.272054076,1
1.803982615,-5.094569683,1,-0.374101758,1,-8.493067741,1,-0.049813613,1,-0.343511671,1,0.139324859,1,0.051948275,1,-0.580593944,1,0.272605032,1
1.807980537,-5.181898117,1,-0.535215735,1,-8.501803398,1,-0.044407189,1,-0.35868296,1,0.139987081,1,0.051449303,1,-0.582023263,1,0.273178071,1
1.811980009,-5.190815926,1,-0.563606799,1,-8.551800728,1,-0.048870951,1,-0.372406542,1,0.139581546,1,0.050948996,1,-0.5835253,1,0.273752391,1
1.815981627,-4.990418434,1,-0.559146166,1,-8.6270895,1,-0.035224028,1,-0.405711859,1,0.147991151,1,0.05045731,1,-0.585107327,1,0.274345517,1
1.81997931,-5.48765707,1,-0.367679715,1,-8.686114311,1,-0.035703178,1,-0.424918473,1,0.15609926,1,0.049947735,1,-0.586803496,1,0.274980158,1
1.823978782,-5.058578968,1,-0.67765981,1,-8.648402214,1,-0.03078372,1,-0.440572053,1,0.15380618,1,0.049459774,1,-0.588552237,1,0.27561301,1
1.82798028,-5.291759014,1,-0.683086753,1,-8.750518799,1,-0.032946553,1,-0.473659068,1,0.163934097,1,0.048965227,1,-0.590410471,1,0.27626887,1
1.831977963,-4.984571934,1,-0.439093828,1,-8.847351074,1,-0.010323206,1,-0.500420511,1,0.161668807,1,0.048483107,1,-0.592391849,1,0.276945442,1
1.835977435,-4.058053493,1,-0.378137559,1,-8.975034714,1,-0.000618892,1,-0.57729578,1,0.159962878,1,0.048115645,1,-0.594573379,1,0.277577579,1
1.839979291,-5.107126713,1,-0.09677875,1,-8.868356705,1,0.03384763,1,-0.63407588,1,0.156699523,1,0.04782778,1,-0.597028017,1,0.278204948,1
1.843976974,-5.205862522,1,-0.249853671,1,-8.831504822,1,0.053696346,1,-0.674992859,1,0.153875634,1,0.047668334,1,-0.599675179,1,0.278810412,1
1.847976446,-5.090743065,1,0.500124812,1,-8.965919495,1,0.130096689,1,-0.728126824,1,0.14387165,1,0.04770197,1,-0.602518022,1,0.279357076,1
1.851978183,-5.296387672,1,1.0303514,1,-9.028508186,1,0.188849613,1,-0.764396846,1,0.123503245,1,0.048052363,1,-0.605532408,1,0.279838622,1
1.855975986,-4.929559708,1,0.504770458,1,-8.929438591,1,0.244096696,1,-0.81915915,1,0.103850447,1,0.048708703,1,-0.608709276,1,0.28021431,1
1.859975457,-4.990304947,1,0.74895668,1,-8.689752579,1,0.286452234,1,-0.86139971,1,0.072734646,1,0.049580034,1,-0.612107098,1,0.280473769,1
1.863977194,-4.692224503,1,0.551285803,1,-8.791010857,1,0.321078777,1,-0.9433285,1,0.042493407,1,0.050776165,1,-0.615709603,1,0.28053391,1
1.867974877,-5.338335037,1,0.832179785,1,-9.111683846,1,0.362778187,1,-0.994757831,1,0.009510788,1,0.052206971,1,-0.619596064,1,0.280414402,1
1.871974707,-4.797729969,1,0.589524448,1,-9.2075243,1,0.388989925,1,-1.06681931,1,-0.01893504,1,0.053890731,1,-0.62369436,1,0.280127287,1
1.875982285,-4.993208408,1,0.549038827,1,-9.235044479,1,0.442129254,1,-1.14107728,1,-0.043905322,1,0.055828266,1,-0.628096223,1,0.279660702,1
1.879985929,-5.052714348,1,-1.182309866,1,-9.769656181,1,0.421985209,1,-1.211286783,1,-0.055276006,1,0.057945393,1,-0.632770717,1,0.279094756,1
1.883985639,-4.380857944,1,-0.686780155,1,-9.0564785,1,0.345998317,1,-1.307768822,1,-0.100457974,1,0.059878491,1,-0.637761891,1,0.278343707,1
1.887987256,-5.463687897,1,0.455356389,1,-9.619522095,1,0.39664048,1,-1.380820155,1,-0.097172409,1,0.061898995,1,-0.643124998,1,0.277436972,1
1.891984582,-4.932929516,1,0.458425254,1,-9.590373993,1,0.466521621,1,-1.446888328,1,-0.097914159,1,0.064183369,1,-0.648730397,1,0.276514649,1
1.895984411,-4.893158436,1,-0.018355614,1,-9.564406395,1,0.511412621,1,-1.532469511,1,-0.121202342,1,0.066765964,1,-0.654640079,1,0.275477171,1
1.899985909,-4.938011169,1,-0.025536155,1,-10.03108692,1,0.532248437,1,-1.632398725,1,-0.130688295,1,0.069574334,1,-0.660928309,1,0.274291694,1
1.903983593,-4.866249561,1,-0.650570631,1,-10.47247314,1,0.50845772,1,-1.746844649,1,-0.139890403,1,0.072465472,1,-0.667630732,1,0.273001701,1
1.907983065,-4.340209961,1,-0.052522078,1,-10.92727757,1,0.521164536,1,-1.891913891,1,-0.17217876,1,0.075431719,1,-0.67483294,1,0.271509498,1
1.911984682,-4.598754883,1,-0.009844738,1,-11.85259056,1,0.56693244,1,-2.0519557,1,-0.188778803,1,0.078673638,1,-0.68263495,1,0.269796282,1
1.915982366,-4.475285053,1,-0.667653441,1,-12.22619343,1,0.57836026,1,-2.233993769,1,-0.201920509,1,0.08217261,1,-0.691099584,1,0.267915875,1
1.919981837,-3.276669502,1,-1.56313014,1,-11.74735832,1,0.60612756,1,-2.448462963,1,-0.18698515,1,0.085863389,1,-0.700349331,1,0.265874088,1
1.923983335,-3.86399579,1,-2.942213774,1,-12.33765793,1,0.570028782,1,-2.686421156,1,-0.147173777,1,0.089586355,1,-0.710527837,1,0.263795853,1
1.927981019,-3.600790977,1,-3.352756739,1,-11.81550407,1,0.520959675,1,-2.883270264,1,-0.097919635,1,0.093065821,1,-0.721579671,1,0.261809975,1
1.931980491,-2.776710272,1,-3.193787575,1,-11.8634634,1,0.470774233,1,-3.150005817,1,-0.032466993,1,0.096320756,1,-0.733554959,1,0.259924501,1
1.935982347,-4.397602558,1,-2.315198183,1,-12.64116192,1,0.426581353,1,-3.40683651,1,0.030049842,1,0.099273279,1,-0.746613145,1,0.258189559,1
1.93998003,-3.670431614,1,-2.46617341,1,-12.90450573,1,0.437321454,1,-3.646856546,1,0.082836717,1,0.102139316,1,-0.760656059,1,0.256551832,1
1.943979502,-2.929376602,1,-3.188058138,1,-12.24587631,1,0.367095172,1,-3.928896904,1,0.100601286,1,0.104883239,1,-0.775767684,1,0.254921645,1
1.947981358,-2.799474716,1,-2.635255575,1,-12.5493927,1,0.301264852,1,-4.268471718,1,0.087843478,1,0.107590504,1,-0.792110085,1,0.252979279,1
1.951979041,-4.243558884,1,-1.87558341,1,-13.3182106,1,0.307005107,1,-4.607805729,1,0.101616845,1,0.110368505,1,-0.809817433,1,0.250739127,1
1.955978513,-3.507366419,1,-1.863591909,1,-13.54267788,1,0.392188758,1,-4.923511982,1,0.133715823,1,0.113550864,1,-0.828727603,1,0.248520151,1
1.959980011,-5.737785816,1,-3.589082956,1,-14.83166504,1,0.321410507,1,-5.261687756,1,0.266971231,1,0.116739139,1,-0.849092007,1,0.246198893,1
1.963977695,-6.192119598,1,-4.080488682,1,-15.36802769,1,0.23196201,1,-5.481707096,1,0.373710901,1,0.119249642,1,-0.870590389,1,0.244302884,1
1.967977524,-1.396177173,1,-3.612803936,1,-12.99610233,1,0.248443857,1,-5.810317993,1,0.413746446,1,0.121592194,1,-0.893106222,1,0.24248606,1
1.971979022,-2.417481184,1,-4.548356533,1,-13.92243767,1,0.228662044,1,-6.376275539,1,0.547738791,1,0.124004424,1,-0.917525172,1,0.240679607,1
1.975976706,-6.199794292,1,-5.213460922,1,-14.80960941,1,0.214551747,1,-6.656555653,1,0.684222102,1,0.125940293,1,-0.943804264,1,0.239381,1
1.979976416,-6.220901012,1,-5.952352524,1,-16.19072723,1,0.125173077,1,-6.836375237,1,0.834690273,1,0.127233982,1,-0.970907629,1,0.238615602,1
1.983978033,-7.865874767,1,-5.821202755,1,-17.29617882,1,-0.06770514,1,-6.945431232,1,1.062753201,1,0.126992375,1,-0.998829246,1,0.239175513,1
1.987975478,-11.81064129,1,-6.000799179,1,-19.15332794,1,-0.337230444,1,-7.004496574,1,1.215818048,1,0.124530293,1,-1.027084947,1,0.24103491,1
1.99197495,-10.08719063,1,-7.127337933,1,-16.14359474,1,-0.476133406,1,-6.92804575,1,1.405225039,1,0.119818971,1,-1.055363774,1,0.244644538,1
1.995982647,-8.689588547,1,-7.813802719,1,-14.38523769,1,-0.680787504,1,-7.094586849,1,1.534381747,1,0.112797797,1,-1.083855152,1,0.249994293,1
1.99998641,-15.25385094,1,-7.63413763,1,-16.59554291,1,-0.898148119,1,-7.160693169,1,1.706055999,1,0.103056356,1,-1.112991691,1,0.257425696,1
2.00398612,-18.42174721,1,-6.658786774,1,-16.74659157,1,-1.045704365,1,-6.818740368,1,1.92111218,1,0.089680903,1,-1.141572952,1,0.26789248,1
2.007987976,-13.73187447,1,-7.823234081,1,-14.97861099,1,-1.182291627,1,-6.690152168,1,2.166534901,1,0.071656726,1,-1.169072866,1,0.282747269,1
2.011986017,-13.22190952,1,-7.281754971,1,-14.94865227,1,-1.316110134,1,-6.683819771,1,2.338940382,1,0.048486754,1,-1.196327448,1,0.302353561,1
2.015985489,-15.57977581,1,-5.79624033,1,-15.70740414,1,-1.310577035,1,-6.541429996,1,2.389080286,1,0.020527583,1,-1.223130345,1,0.32657212,1
2.019986868,-17.19485474,1,-5.890971661,1,-16.44276428,1,-1.207113385,1,-6.274343014,1,2.540875912,1,-0.012398907,1,-1.248788476,1,0.356109321,1
2.023984671,-17.22241592,1,-7.126476765,1,-12.92006493,1,-1.14889729,1,-6.064306736,1,2.606656075,1,-0.051961619,1,-1.273094654,1,0.39271149,1
2.027984381,-9.039765358,1,-7.971861839,1,-9.14702034,1,-1.172429562,1,-6.172522545,1,2.641285896,1,-0.098391704,1,-1.296596169,1,0.43636319,1
2.031986237,-14.71916008,1,-6.685189724,1,-10.90388298,1,-1.286094427,1,-6.242220879,1,2.595610857,1,-0.153583691,1,-1.32003212,1,0.488378197,1
2.035983801,-20.75234413,1,-5.784640789,1,-9.971837044,1,-1.378674746,1,-5.804694176,1,2.595829248,1,-0.219081476,1,-1.341882944,1,0.550353169,1
2.039983273,-18.08023834,1,-4.978055,1,-8.91108799,1,-1.516571045,1,-5.299096107,1,2.498317957,1,-0.294403881,1,-1.360753775,1,0.621583581,1
2.04398489,-15.45382404,1,-4.828797817,1,-9.775948524,1,-1.494818091,1,-4.794186592,1,2.413631678,1,-0.378224313,1,-1.376568556,1,0.700984716,1
2.047982693,-17.25722313,1,-3.424893618,1,-12.19235325,1,-1.493860483,1,-4.12677002,1,2.216228247,1,-0.467727602,1,-1.389090776,1,0.785975516,1
2.051982164,-16.47830582,1,-2.983673811,1,-14.89187717,1,-1.154232025,1,-3.264457703,1,1.951968551,1,-0.553795993,1,-1.397941589,1,0.867939949,1
2.055983782,-12.46636581,1,-2.896049976,1,-15.19843197,1,-0.742497504,1,-2.527004242,1,1.852069497,1,-0.631712437,1,-1.403250694,1,0.94316107,1
2.059981585,-8.753905296,1,-3.713151217,1,-14.96517754,1,-0.395816863,1,-2.003384113,1,1.728075266,1,-0.700832129,1,-1.405920267,1,1.010954618,1
2.063981295,-4.947386742,1,-4.697419643,1,-14.51669216,1,-0.02207162,1,-1.610636353,1,1.572927237,1,-0.760279655,1,-1.406863451,1,1.070345163,1
2.067982912,-1.607282639,1,-6.126198769,1,-13.95903492,1,0.379378021,1,-1.305341244,1,1.432290435,1,-0.810019016,1,-1.406736374,1,1.121500492,1
2.071980476,1.842692375,1,-7.330933094,1,-12.88191795,1,0.584709346,1,-1.030580759,1,1.391976357,1,-0.851477087,1,-1.405737281,1,1.165555477,1
2.075979948,4.294453144,1,-7.6142869,1,-10.23516846,1,0.547777772,1,-0.937676549,1,1.407644749,1,-0.888688803,1,-1.403951287,1,1.205610275,1
2.079981804,2.144556046,1,-6.05140686,1,-8.501395226,1,0.486113638,1,-1.095389366,1,1.390229583,1,-0.925529957,1,-1.402046442,1,1.245071054,1
2.083979607,-10.88272572,1,-7.238852024,1,-9.887125969,1,0.547977269,1,-0.846192896,1,1.494713306,1,-0.962617815,1,-1.399788022,1,1.284761906,1
2.087979317,-9.202345848,1,-8.213666916,1,-12.03190231,1,0.650384068,1,-0.129832193,1,1.49234283,1,-0.988732576,1,-1.395890594,1,1.313720703,1
2.091980696,-4.645728111,1,-8.859830856,1,-12.83345318,1,0.72134614,1,0.495835125,1,1.35111022,1,-0.999718606,1,-1.390699744,1,1.327684879,1
2.095978498,-1.386746168,1,-8.72890377,1,-11.54173851,1,0.682454824,1,0.972495854,1,1.277513981,1,-0.998558879,1,-1.384677649,1,1.329400659,1
2.09997797,0.991016448,1,-7.613125801,1,-9.896633148,1,0.573023915,1,1.241711974,1,1.255650878,1,-0.990898073,1,-1.377989888,1,1.324143529,1
2.103979588,3.292705774,1,-7.133188725,1,-8.610303879,1,0.563628137,1,1.357288837,1,1.254487991,1,-0.980648339,1,-1.370933294,1,1.316002846,1
2.107977152,4.989311218,1,-5.828534126,1,-7.844037056,1,0.62259084,1,1.365346074,1,1.273031116,1,-0.970081031,1,-1.363673449,1,1.307602525,1
2.111976862,5.10283041,1,-4.79180336,1,-7.456522465,1,0.811446548,1,1.311738372,1,1.298711419,1,-0.960270584,1,-1.356397867,1,1.300478458,1
2.11598444,4.581198215,1,-4.332201481,1,-7.429902077,1,1.042963386,1,1.297126651,1,1.329694033,1,-0.951033771,1,-1.349106789,1,1.294817209,1
2.119988203,4.373687744,1,-4.313562393,1,-7.345333099,1,1.234808803,1,1.303559899,1,1.332943678,1,-0.941697001,1,-1.341743112,1,1.28991127,1
2.123987913,4.245565891,1,-4.136647224,1,-7.090112209,1,1.408443451,1,1.325720549,1,1.29778564,1,-0.931660354,1,-1.334380269,1,1.285030603,1
2.127989769,4.113724709,1,-4.03881073,1,-6.798143864,1,1.586833596,1,1.336791873,1,1.240052581,1,-0.92074585,1,-1.327126265,1,1.279958367,1
2.131987572,3.510156393,1,-4.229282856,1,-6.620374203,1,1.764820576,1,1.352333546,1,1.17323637,1,-0.908855736,1,-1.320013165,1,1.274615765,1
2.135987043,2.677380323,1,-4.464170456,1,-6.58293581,1,1.928695083,1,1.391623974,1,1.098804832,1,-0.89577353,1,-1.313049197,1,1.268734455,1
2.139988661,1.74281311,1,-4.898826122,1,-6.693732262,1,2.05482316,1,1.457573295,1,1.013210654,1,-0.881214678,1,-1.306178212,1,1.261926174,1
2.143986464,1.062674761,1,-5.365228176,1,-6.855512142,1,2.129170656,1,1.555067301,1,0.898985684,1,-0.864981055,1,-1.299371123,1,1.253782749,1
2.147985935,0.584065974,1,-5.729888916,1,-6.979720592,1,2.15984726,1,1.669291615,1,0.776806533,1,-0.846917868,1,-1.292606711,1,1.24394381,1
2.151987791,0.262304664,1,-6.010782242,1,-7.067462921,1,2.157209158,1,1.781663418,1,0.628965855,1,-0.827075839,1,-1.285900116,1,1.232283592,1
2.155985355,0.12127839,1,-6.207849026,1,-7.033261299,1,2.13550663,1,1.893448353,1,0.468078375,1,-0.805508971,1,-1.27926147,1,1.21875608,1
2.159985065,-0.023353932,1,-6.255701542,1,-7.113828659,1,2.096348763,1,1.989246964,1,0.305033624,1,-0.782383084,1,-1.27270937,1,1.203433037,1
2.163986683,-0.248523772,1,-6.089268208,1,-7.200386524,1,2.042472601,1,2.072690964,1,0.133752778,1,-0.757959723,1,-1.266267657,1,1.186533451,1
2.167984486,-0.443994492,1,-5.908335209,1,-7.306396484,1,1.993873119,1,2.149159908,1,-0.043020535,1,-0.732258439,1,-1.259929419,1,1.168038011,1
2.171983957,-0.482098728,1,-5.557665348,1,-7.414114952,1,1.951057076,1,2.212850332,1,-0.224122182,1,-0.70543766,1,-1.253712893,1,1.148124695,1
2.175985336,-0.622923911,1,-5.165688515,1,-7.619247913,1,1.916755557,1,2.255797386,1,-0.417810649,1,-0.677526355,1,-1.247640252,1,1.126860499,1
2.179982901,-0.810969532,1,-4.726766586,1,-7.860416889,1,1.905905843,1,2.297357321,1,-0.61432898,1,-0.648519039,1,-1.241731405,1,1.104308009,1
2.183982611,-1.085345984,1,-4.206058502,1,-8.126103401,1,1.920631409,1,2.331945181,1,-0.820941746,1,-0.618257642,1,-1.235960722,1,1.08038795,1
2.187984467,-1.651440024,1,-3.637527704,1,-8.477694511,1,1.954613328,1,2.373222589,1,-1.034375787,1,-0.586624324,1,-1.230302215,1,1.055067778,1
2.191982508,-2.338585615,1,-3.346875429,1,-8.731271744,1,1.994073868,1,2.436480999,1,-1.248559475,1,-0.55346334,1,-1.224659443,1,1.028235197,1
2.195981979,-2.973675489,1,-3.233782053,1,-8.967178345,1,2.042649031,1,2.513483763,1,-1.453337789,1,-0.518732727,1,-1.218917489,1,0.999869704,1
2.199983597,-3.5388484,1,-3.244515419,1,-9.168564796,1,2.068709612,1,2.600058079,1,-1.66289556,1,-0.482483387,1,-1.212936878,1,0.969989598,1
2.2039814,-4.161969185,1,-3.34589529,1,-9.391366005,1,2.081080675,1,2.704347372,1,-1.858732581,1,-0.444915622,1,-1.206602931,1,0.938711345,1
2.207980871,-4.662818909,1,-3.38903594,1,-9.531839371,1,2.07141614,1,2.820022106,1,-2.037134886,1,-0.40616703,1,-1.199734449,1,0.906299174,1
2.21198225,-5.01559639,1,-3.417203665,1,-9.711837769,1,2.040596485,1,2.936533689,1,-2.201989889,1,-0.366933823,1,-1.192266941,1,0.872986495,1
2.215980053,-5.301885605,1,-3.355416059,1,-9.887990952,1,1.994056106,1,3.062266588,1,-2.348826647,1,-0.327439606,1,-1.184077501,1,0.839116812,1
2.219979525,-5.525180817,1,-3.170781612,1,-10.0293932,1,1.934185624,1,3.181123257,1,-2.477977276,1,-0.288107336,1,-1.175102711,1,0.805065155,1
2.22398138,-5.719809055,1,-2.986252546,1,-10.16657829,1,1.875558615,1,3.298586369,1,-2.592539549,1,-0.249266461,1,-1.165297985,1,0.77116555,1
2.227978945,-5.866143703,1,-2.690276384,1,-10.22999954,1,1.825459123,1,3.405835629,1,-2.680247068,1,-0.211268961,1,-1.154653668,1,0.737783551,1
2.231978416,-6.054314613,1,-2.395912647,1,-10.28395462,1,1.763915658,1,3.507051706,1,-2.765088558,1,-0.174359918,1,-1.14316678,1,0.705188811,1
2.235986233,-6.294958115,1,-2.166212082,1,-10.36719131,1,1.717220187,1,3.606430531,1,-2.81813097,1,-0.138788298,1,-1.130854845,1,0.673658669,1
2.239989996,-6.538865566,1,-1.874902487,1,-10.4638052,1,1.669126511,1,3.710077047,1,-2.868021011,1,-0.104699746,1,-1.117709994,1,0.643369853,1
2.243989706,-6.789879322,1,-1.627347708,1,-10.59538651,1,1.626126647,1,3.810172796,1,-2.893364906,1,-0.0722581,1,-1.103756428,1,0.614528716,1
2.247991562,-6.996813297,1,-1.454965591,1,-10.74166775,1,1.591559887,1,3.905633926,1,-2.899155617,1,-0.041562583,1,-1.089010715,1,0.587259293,1
2.251989365,-7.221628666,1,-1.242667317,1,-10.79052353,1,1.55103004,1,3.999122381,1,-2.892717123,1,-0.012739806,1,-1.073526502,1,0.561719418,1
2.255989075,-7.425563812,1,-1.003087997,1,-10.84581184,1,1.513299942,1,4.090888977,1,-2.867296696,1,0.014203042,1,-1.057338357,1,0.537934184,1
2.259990692,-7.554204464,1,-0.718299925,1,-10.93885708,1,1.478767872,1,4.186038494,1,-2.834676266,1,0.039256226,1,-1.040473938,1,0.515936196,1
2.263988495,-7.714332581,1,-0.352006882,1,-11.0322876,1,1.443750739,1,4.275142193,1,-2.78535676,1,0.06243569,1,-1.023003578,1,0.495740473,1
2.267988205,-7.860958099,1,0.147507712,1,-11.22887135,1,1.430019259,1,4.354394436,1,-2.725746155,1,0.083820984,1,-1.004966617,1,0.477316737,1
2.271990061,-8.023964882,1,0.615051866,1,-11.31877613,1,1.434931874,1,4.431656837,1,-2.655035496,1,0.103539385,1,-0.986456335,1,0.460636318,1
2.275987625,-8.221768379,1,0.968614936,1,-11.48286724,1,1.458741188,1,4.503769398,1,-2.568438292,1,0.121734694,1,-0.967524707,1,0.445661306,1
2.279987097,-8.482069969,1,1.351263404,1,-11.68951225,1,1.487667203,1,4.569549561,1,-2.468316078,1,0.138488933,1,-0.948218822,1,0.432377458,1
2.283988714,-8.61250782,1,1.533139586,1,-11.75698566,1,1.524952292,1,4.632919788,1,-2.359977007,1,0.153897762,1,-0.928598046,1,0.420737565,1
2.287986517,-8.761074066,1,1.594121814,1,-11.90243435,1,1.570623517,1,4.686096668,1,-2.247424126,1,0.168094367,1,-0.908732653,1,0.410659075,1
2.291985989,-9.072793961,1,1.779636025,1,-12.24353504,1,1.609218717,1,4.74931097,1,-2.126680613,1,0.181180492,1,-0.888639927,1,0.402065903,1
2.295987368,-9.298365593,1,2.000405788,1,-12.46853638,1,1.666863799,1,4.807315826,1,-1.99461937,1,0.193234071,1,-0.868335307,1,0.394947618,1
2.29998517,-9.611766815,1,1.934875131,1,-12.6926136,1,1.729611993,1,4.858141422,1,-1.86430335,1,0.204369888,1,-0.847861886,1,0.389219522,1
2.303984642,-9.969876289,1,1.944684625,1,-12.90065384,1,1.786301136,1,4.918125153,1,-1.739507198,1,0.214707419,1,-0.827235639,1,0.384761333,1
2.307986259,-10.30217552,1,1.869190454,1,-13.14605045,1,1.835669518,1,4.978560448,1,-1.622360826,1,0.224354044,1,-0.80644381,1,0.381475717,1
2.311983824,-10.63998985,1,1.683346987,1,-13.44585609,1,1.878643394,1,5.04460907,1,-1.506905437,1,0.233362153,1,-0.78549993,1,0.379269361,1
2.315983295,-10.93102455,1,1.563646793,1,-13.70761299,1,1.912787199,1,5.106461048,1,-1.408434868,1,0.241801694,1,-0.764395952,1,0.378033936,1
2.31998539,-11.1021204,1,1.485542178,1,-13.91977024,1,1.948687792,1,5.164732933,1,-1.315572262,1,0.249793023,1,-0.743146181,1,0.377646029,1
2.323983431,-11.29096222,1,1.615376592,1,-14.21456814,1,1.994200706,1,5.216907024,1,-1.240906119,1,0.257449895,1,-0.721776009,1,0.377990544,1
2.327982903,-11.56315422,1,1.763425469,1,-14.54341507,1,2.048448801,1,5.247981071,1,-1.181957603,1,0.264901966,1,-0.70030725,1,0.378948748,1
2.331984758,-11.83827686,1,1.864621043,1,-14.82268143,1,2.122787952,1,5.272993088,1,-1.140899658,1,0.272312284,1,-0.678772807,1,0.38039279,1
2.335982323,-12.22019577,1,1.747646689,1,-15.06958103,1,2.188404799,1,5.289700031,1,-1.098911285,1,0.279784709,1,-0.657222033,1,0.382242352,1
2.339981794,-12.69617939,1,1.616268277,1,-15.27396584,1,2.25651741,1,5.296757221,1,-1.070843458,1,0.287356794,1,-0.635676086,1,0.384442896,1
2.34398365,-13.17500114,1,1.609409451,1,-15.42599201,1,2.299716711,1,5.295490265,1,-1.050822973,1,0.295023769,1,-0.614159882,1,0.386927366,1
2.347981215,-13.70700264,1,1.662814021,1,-15.55790806,1,2.35095644,1,5.285300732,1,-1.035499215,1,0.302782953,1,-0.592706323,1,0.389654756,1
2.351981163,-14.25372982,1,1.78996408,1,-15.5976305,1,2.393844128,1,5.260708809,1,-1.029005647,1,0.31067735,1,-0.571355879,1,0.392557174,1
2.355982542,-14.91116047,1,2.282994986,1,-15.6397028,1,2.442301035,1,5.234809875,1,-1.03742826,1,0.318730652,1,-0.550108731,1,0.395598292,1
2.359986067,-15.65582085,1,2.76568222,1,-15.49466991,1,2.501402617,1,5.185677052,1,-1.028794408,1,0.327001452,1,-0.529039323,1,0.398741305,1
2.363986015,-16.28738976,1,3.345196247,1,-15.2160902,1,2.573351145,1,5.134879112,1,-1.032014012,1,0.33553046,1,-0.508168817,1,0.401986629,1
2.367987394,-16.8541832,1,4.014913082,1,-14.82501316,1,2.638708591,1,5.075844288,1,-1.019168615,1,0.344352424,1,-0.487549305,1,0.405342072,1
2.371985197,-17.50147247,1,4.525546074,1,-14.35398102,1,2.706612349,1,5.000763893,1,-0.999515951,1,0.35343492,1,-0.467231065,1,0.408831269,1
2.375984907,-18.00057793,1,5.238681316,1,-13.65815067,1,2.776121378,1,4.907357693,1,-0.981876016,1,0.362808943,1,-0.447277278,1,0.412434518,1
2.379986525,-18.48178673,1,5.917531013,1,-12.67727184,1,2.842834949,1,4.790677547,1,-0.957233191,1,0.372469127,1,-0.427773774,1,0.416140139,1
2.383984089,-19.15379143,1,6.076512814,1,-11.36087894,1,2.889420509,1,4.659515858,1,-0.927508354,1,0.382399976,1,-0.408810526,1,0.419928432,1
2.387983561,-20.02781487,1,5.316428661,1,-9.724375725,1,2.892492533,1,4.52671814,1,-0.894180894,1,0.392473876,1,-0.390417933,1,0.423790783,1
2.391985178,-21.16714668,1,3.228334904,1,-7.992004395,1,2.801981926,1,4.405887127,1,-0.835795105,1,0.40239501,1,-0.372591525,1,0.427805245,1
2.395982742,-22.87187386,1,1.394202232,1,-6.198338509,1,2.584564447,1,4.308722019,1,-0.745330691,1,0.411695093,1,-0.355353534,1,0.432070732,1
2.399982452,-24.19600677,1,1.023582816,1,-4.42703104,1,2.266772985,1,4.212942123,1,-0.673773825,1,0.419858992,1,-0.33861804,1,0.436620325,1
2.403983831,-25.39694405,1,1.382225752,1,-2.896260738,1,1.946012974,1,4.107962132,1,-0.602677703,1,0.426735342,1,-0.322387457,1,0.441393673,1
2.407981634,-26.84151459,1,2.514777184,1,-1.385789752,1,1.671648264,1,3.985876083,1,-0.579224408,1,0.432459891,1,-0.306691766,1,0.446231484,1
2.411981106,-28.32447052,1,4.523561954,1,0.432796359,1,1.471338034,1,3.875136614,1,-0.601553023,1,0.437338054,1,-0.291426182,1,0.450928926,1
2.415982962,-29.50414467,1,7.33632803,1,2.529323339,1,1.379982829,1,3.739976406,1,-0.632779956,1,0.441772521,1,-0.276597381,1,0.455360055,1
2.419980526,-29.84423447,1,10.05694294,1,4.896410465,1,1.405653954,1,3.561058283,1,-0.676461756,1,0.446232945,1,-0.262264907,1,0.459418565,1
2.423979998,-29.96834183,1,13.12152386,1,7.313047886,1,1.539543748,1,3.299006462,1,-0.705278873,1,0.451193959,1,-0.248690113,1,0.463008642,1
2.427981853,-29.25074387,1,15.12606621,1,9.342154503,1,1.745131493,1,2.934875488,1,-0.716574848,1,0.457040966,1,-0.236206904,1,0.466005087,1
2.431979418,-28.68088341,1,17.29480743,1,10.92901993,1,1.921011925,1,2.467743397,1,-0.714203358,1,0.463843048,1,-0.225253999,1,0.468313247,1
2.435978889,-26.9312706,1,17.95875359,1,12.03626347,1,1.998723984,1,1.954514384,1,-0.692982793,1,0.471388161,1,-0.216058701,1,0.46982789,1
2.439980507,-25.86037254,1,18.30265617,1,12.25831223,1,1.910052657,1,1.367067099,1,-0.657474399,1,0.47909978,1,-0.208918288,1,0.470496714,1
2.44397831,-24.72835159,1,16.80440712,1,12.1239996,1,1.648051262,1,0.776941657,1,-0.616003692,1,0.486321002,1,-0.203939557,1,0.470218837,1
2.44797802,-23.74250793,1,14.3867836,1,11.64578342,1,1.162102461,1,0.169619203,1,-0.551321626,1,0.492240816,1,-0.201177433,1,0.469019085,1
2.451980114,-23.65971184,1,11.51733685,1,10.78692436,1,0.448032498,1,-0.382921427,1,-0.445348203,1,0.495909482,1,-0.200621486,1,0.466999382,1
2.455977917,-24.10143471,1,9.158227921,1,9.611495018,1,-0.402191669,1,-0.828660429,1,-0.302072138,1,0.496476293,1,-0.201982588,1,0.464232057,1
2.459977388,-24.75451469,1,7.967602253,1,8.273748398,1,-1.27444911,1,-1.164520025,1,-0.162746191,1,0.493665874,1,-0.205063075,1,0.461440384,1
2.463979006,-25.53733253,1,7.958228111,1,6.521100998,1,-2.04341197,1,-1.379820704,1,-0.028326781,1,0.487567306,1,-0.209397852,1,0.458643973,1
2.467976809,-23.47765732,1,6.094282627,1,1.096987009,1,-2.728661299,1,-1.502132535,1,0.127103254,1,0.47862035,1,-0.214568138,1,0.456059337,1
2.47197628,-5.745184898,1,2.4383955,1,-1.846559405,1,-3.656826258,1,-2.544383764,1,0.933176517,1,0.465767652,1,-0.222024575,1,0.454258382,1
2.475977659,-19.91256332,1,12.49834728,1,-1.849737287,1,-2.711815834,1,-3.39098525,1,1.658616066,1,0.453400671,1,-0.236059934,1,0.453549713,1
2.479981422,-4.168380737,1,-1.644417644,1,-1.976889491,1,-3.370163441,1,-1.971233368,1,1.168934941,1,0.441288352,1,-0.24793537,1,0.454125077,1
2.483981133,-1.380714893,1,-11.35138416,1,-11.31295872,1,-3.755037785,1,-1.821118593,1,1.406115294,1,0.426712424,1,-0.256722152,1,0.455521643,1
2.487982512,-4.343376637,1,-18.72680092,1,-14.03156948,1,-4.496001244,1,-1.840301156,1,1.966834545,1,0.40923208,1,-0.266237736,1,0.458815038,1
2.491980314,2.869654179,1,-19.63439178,1,-18.8690033,1,-4.654305458,1,-1.475278974,1,2.124144077,1,0.389321178,1,-0.275697917,1,0.463977545,1
2.495979786,5.832001209,1,-21.44539261,1,-21.57596207,1,-5.089621067,1,-1.462323666,1,1.96493721,1,0.368448168,1,-0.283942759,1,0.469796926,1
2.499981403,2.192978382,1,-16.16781235,1,-19.01544952,1,-4.992506504,1,-1.442824006,1,1.716244102,1,0.346533656,1,-0.292199671,1,0.474795669,1
2.503978968,0.055477791,1,-12.84681511,1,-13.89603806,1,-5.125975609,1,-1.513380051,1,1.329664111,1,0.325119913,1,-0.29963389,1,0.478773326,1
2.507978678,-0.47892797,1,-4.050088882,1,-9.942343712,1,-4.969552994,1,-1.962818861,1,1.087600708,1,0.304192185,1,-0.30755794,1,0.481421381,1
2.511980534,-5.561785698,1,6.741060257,1,-8.419898033,1,-4.378292561,1,-2.633849382,1,0.848918259,1,0.28520292,1,-0.31747818,1,0.482578337,1
2.515978336,-14.52443218,1,12.3748827,1,-11.13820362,1,-3.799465418,1,-3.220497131,1,0.621145785,1,0.269145101,1,-0.329631746,1,0.482108802,1
2.519977808,-19.51940727,1,14.73742294,1,-13.2939043,1,-3.066540241,1,-3.358735561,1,0.51208204,1,0.255798638,1,-0.343072385,1,0.480779499,1
2.523979187,-26.78500175,1,12.26514435,1,-15.92456436,1,-2.849170685,1,-3.078603745,1,0.677786291,1,0.244359568,1,-0.356206954,1,0.479671299,1
2.52797699,-25.23687553,1,15.14218712,1,-18.83304024,1,-2.54639554,1,-2.430947065,1,1.013145208,1,0.23338148,1,-0.367704749,1,0.480409145,1
2.5319767,-21.73376846,1,19.35286903,1,-19.44366837,1,-2.138450861,1,-1.931422353,1,1.3636235,1,0.222905114,1,-0.377281785,1,0.483294219,1
2.535978556,-16.7199707,1,20.62314415,1,-18.73265076,1,-1.717058539,1,-1.573930025,1,1.497768402,1,0.213519052,1,-0.385328114,1,0.48773393,1
2.53997612,-10.20719814,1,16.95505333,1,-16.23198891,1,-1.303145766,1,-1.50078547,1,1.364901304,1,0.205720782,1,-0.39249301,1,0.492488563,1
2.543975592,-5.527932644,1,7.90708828,1,-13.45710468,1,-1.022194505,1,-1.576019168,1,1.110034943,1,0.199600607,1,-0.399470359,1,0.496416807,1
2.547977209,-5.18530941,1,1.349033713,1,-11.40762329,1,-0.885118902,1,-1.677105546,1,0.832383156,1,0.194737002,1,-0.406637937,1,0.499189943,1
2.551974773,-4.890595436,1,-2.969207525,1,-9.916308403,1,-0.778986275,1,-1.710664749,1,0.574325502,1,0.190793961,1,-0.413835645,1,0.500765979,1
2.555974483,-4.596869946,1,-1.695577145,1,-9.723845482,1,-0.719548345,1,-1.725902319,1,0.379354417,1,0.187534273,1,-0.420944273,1,0.501392722,1
2.559975863,-5.058738708,1,1.854534507,1,-10.11765575,1,-0.610951006,1,-1.738291264,1,0.267304808,1,0.184865013,1,-0.427997112,1,0.501347542,1
2.563973665,-7.160345554,1,5.479507923,1,-10.59524727,1,-0.517897129,1,-1.602324367,1,0.280836016,1,0.182666317,1,-0.434778571,1,0.501157165,1
2.567973375,-7.007870197,1,8.819132805,1,-10.66930008,1,-0.334222645,1,-1.468043327,1,0.3033171,1,0.180904314,1,-0.441005111,1,0.501222432,1
2.571974993,-6.562473297,1,9.754419327,1,-10.34134865,1,-0.113254793,1,-1.362393737,1,0.314785004,1,0.179903448,1,-0.446802944,1,0.501452088,1
2.575972557,-5.699059963,1,7.416632652,1,-9.913463593,1,0.082189828,1,-1.325406075,1,0.274579495,1,0.179748476,1,-0.452307224,1,0.501674712,1
2.579972506,-5.259540081,1,2.981287479,1,-9.376329422,1,0.1983428,1,-1.298289299,1,0.222103715,1,0.180310607,1,-0.457655817,1,0.501717806,1
2.5839746,-5.65528059,1,-2.490604639,1,-8.84779644,1,0.232563794,1,-1.294167757,1,0.178830177,1,0.181280017,1,-0.462892354,1,0.501558423,1
2.587972879,-5.95054388,1,-6.155620098,1,-7.986927032,1,0.17309542,1,-1.240271449,1,0.130130485,1,0.182235658,1,-0.467983067,1,0.501224935,1
2.591972351,-5.717579842,1,-6.32446146,1,-8.041145325,1,0.100526646,1,-1.201536179,1,0.08311297,1,0.183028877,1,-0.472861886,1,0.500708401,1
2.595974207,-5.395510197,1,-5.215511799,1,-8.553202629,1,0.058847811,1,-1.214198589,1,0.054282457,1,0.183663324,1,-0.477651775,1,0.499981374,1
2.599977732,-6.521854401,1,-3.262502193,1,-9.327602386,1,0.015618992,1,-1.136929035,1,0.063498817,1,0.184123158,1,-0.482337296,1,0.499281734,1
2.603977203,-5.113564968,1,-0.651982427,1,-10.12026024,1,0.005074285,1,-1.075570107,1,0.038097039,1,0.184480995,1,-0.486705333,1,0.498577982,1
2.607979059,-5.580940247,1,0.188329741,1,-9.834797859,1,0.021542415,1,-1.014442682,1,0.056925192,1,0.184845358,1,-0.490858287,1,0.497914255,1
2.611976624,-6.139774323,1,-0.002547655,1,-9.883876801,1,0.053597413,1,-0.955318272,1,0.07798969,1,0.185257047,1,-0.494785875,1,0.497386664,1
2.615976095,-6.318714142,1,-1.030822992,1,-9.565042496,1,0.074280798,1,-0.882403493,1,0.062389135,1,0.185710505,1,-0.498443216,1,0.496958435,1
2.619977713,-6.848464489,1,-2.870927095,1,-8.874101639,1,0.08545392,1,-0.827382386,1,0.037905402,1,0.186291978,1,-0.50184983,1,0.496449292,1
2.623975515,-6.426967144,1,-3.171759367,1,-8.827970505,1,0.082005285,1,-0.771763444,1,-0.003836995,1,0.186918318,1,-0.504999459,1,0.495862335,1
2.627974749,-6.300777435,1,-2.766433001,1,-8.973579407,1,0.083265103,1,-0.751359403,1,-0.023775443,1,0.187591508,1,-0.507979095,1,0.495131403,1
2.631976366,-6.416547298,1,-1.998622775,1,-9.238334656,1,0.082784213,1,-0.715944529,1,-0.04571734,1,0.188316673,1,-0.510831177,1,0.494334966,1
2.635974169,-6.211648464,1,-1.103885055,1,-9.543210983,1,0.115327924,1,-0.669628203,1,-0.061270926,1,0.189111948,1,-0.513498187,1,0.493495196,1
2.639973879,-5.926858425,1,-0.559264779,1,-9.317277908,1,0.124375097,1,-0.624810159,1,-0.067650646,1,0.190011844,1,-0.515998125,1,0.492634147,1
2.643975496,-5.230028629,1,-1.043394089,1,-9.125819206,1,0.150556013,1,-0.617976367,1,-0.101105988,1,0.191035166,1,-0.518370926,1,0.491708219,1
2.647973061,-5.525388241,1,-1.448846936,1,-8.914952278,1,0.163833886,1,-0.609649062,1,-0.116409391,1,0.192170471,1,-0.520705342,1,0.490684301,1
2.651972532,-5.298806667,1,-1.225034595,1,-8.808116913,1,0.175073519,1,-0.596479177,1,-0.134080842,1,0.193393856,1,-0.522973478,1,0.489584088,1
2.655974388,-5.512648582,1,-0.795418024,1,-8.800711632,1,0.2030738,1,-0.586589992,1,-0.158701539,1,0.194752365,1,-0.525191784,1,0.488382638,1
2.659972191,-5.887141228,1,-0.664725006,1,-8.862782478,1,0.226435319,1,-0.548695028,1,-0.170291826,1,0.196226522,1,-0.527290225,1,0.487135112,1
2.663971901,-5.191274166,1,-0.743428826,1,-8.950331688,1,0.254215747,1,-0.536541939,1,-0.175890803,1,0.197839692,1,-0.529275,1,0.485861659,1
2.66797328,-5.499935627,1,-1.162234068,1,-8.854471207,1,0.259331226,1,-0.522145391,1,-0.166606873,1,0.199512586,1,-0.531234264,1,0.484586537,1
2.671971083,-4.986935139,1,-1.778954864,1,-8.899578094,1,0.26605776,1,-0.521499574,1,-0.154313624,1,0.201181203,1,-0.533137381,1,0.483370215,1
2.675970554,-5.09115696,1,-1.902617335,1,-8.775899887,1,0.246857017,1,-0.527523458,1,-0.150768533,1,0.20281665,1,-0.535077333,1,0.482189119,1
2.679972172,-5.429666519,1,-1.955929875,1,-8.77809906,1,0.248132691,1,-0.53115356,1,-0.149237737,1,0.204427764,1,-0.537052333,1,0.48099786,1
2.683969736,-5.066679955,1,-1.573246717,1,-8.708537102,1,0.260205925,1,-0.528985679,1,-0.157561302,1,0.206047937,1,-0.538977504,1,0.479814112,1
2.687969208,-5.289320469,1,-1.339449167,1,-8.659250259,1,0.28343761,1,-0.536116123,1,-0.160212889,1,0.207781002,1,-0.540940762,1,0.478581876,1
2.691971064,-5.311066151,1,-1.616840124,1,-8.529621124,1,0.284752399,1,-0.522958398,1,-0.154123276,1,0.209550589,1,-0.542885542,1,0.477348387,1
2.695968866,-5.280910969,1,-1.932343364,1,-8.458042145,1,0.289470017,1,-0.51786691,1,-0.144776344,1,0.211312443,1,-0.544801652,1,0.476152301,1
2.699968338,-5.044555187,1,-2.335166693,1,-8.247204781,1,0.286534965,1,-0.517335832,1,-0.131898314,1,0.213068962,1,-0.546701908,1,0.475015461,1
2.703969955,-4.69335413,1,-2.350295544,1,-8.366577148,1,0.288801819,1,-0.529104769,1,-0.115609057,1,0.206278667,1,-0.558142781,1,0.460425436,1
2.707967758,-5.850852013,1,-2.318637371,1,-8.303059578,1,0.264505535,1,-0.531005979,1,-0.097194433,1,0.207986757,1,-0.560091376,1,0.459115982,1
2.71196723,-4.602864265,1,-2.220812082,1,-8.134542465,1,0.277668208,1,-0.530568004,1,-0.102533095,1,0.209577814,1,-0.562019646,1,0.458141416,1
2.715969086,-5.409879208,1,-2.265224218,1,-7.911329746,1,0.255097091,1,-0.531695545,1,-0.08501368,1,0.211154222,1,-0.564031601,1,0.457181901,1
2.71997261,-5.240544796,1,-2.371243238,1,-7.873309612,1,0.237784356,1,-0.517600477,1,-0.061908428,1,0.212599501,1,-0.566015959,1,0.456327945,1
2.723972321,-5.110846043,1,-2.550755501,1,-7.862211704,1,0.217630997,1,-0.511003792,1,-0.021657879,1,0.213883698,1,-0.568002701,1,0.455625862,1
2.727973938,-4.72800684,1,-2.712667704,1,-7.790527344,1,0.18439953,1,-0.517809629,1,0.008644393,1,0.214987844,1,-0.569999576,1,0.455065906,1
2.731971502,-4.753025532,1,-2.939709663,1,-7.68040514,1,0.175612494,1,-0.532495439,1,0.047005214,1,0.215935737,1,-0.572078764,1,0.454661131,1
2.735971212,-5.184136391,1,-3.104315281,1,-7.475541115,1,0.11803288,1,-0.523627222,1,0.083033621,1,0.21665439,1,-0.574194729,1,0.454419553,1
2.739973068,-4.881870747,1,-3.388597727,1,-7.409265995,1,0.075860471,1,-0.516430199,1,0.121190041,1,0.217097685,1,-0.576306283,1,0.454355627,1
2.743970871,-5.190610409,1,-3.519026279,1,-7.126440048,1,0.02536149,1,-0.523427308,1,0.153290913,1,0.217256695,1,-0.578453124,1,0.454454422,1
2.747970581,-5.247024059,1,-3.766026974,1,-7.094943523,1,-0.05059259,1,-0.511439323,1,0.187701613,1,0.21706596,1,-0.580624282,1,0.454719484,1
2.751972198,-5.081727505,1,-3.76011157,1,-7.089797974,1,-0.118728012,1,-0.506086707,1,0.217034861,1,0.216490358,1,-0.582787156,1,0.45514217,1
2.755969763,-5.301971436,1,-3.590103865,1,-7.006390095,1,-0.179396927,1,-0.499793828,1,0.260396123,1,0.215566441,1,-0.584953308,1,0.45574224,1
2.759969234,-5.183537006,1,-3.463078022,1,-7.082956314,1,-0.258124888,1,-0.486877024,1,0.289702058,1,0.21424751,1,-0.58711797,1,0.456533462,1
2.76397109,-5.226194382,1,-3.466058493,1,-6.988560677,1,-0.326813847,1,-0.47316435,1,0.328919768,1,0.212548152,1,-0.589260995,1,0.457503915,1
2.76796937,-5.482394218,1,-3.668390989,1,-7.011343956,1,-0.395530254,1,-0.459029406,1,0.364103556,1,0.210463911,1,-0.591376543,1,0.458665848,1
2.77196908,-5.432870388,1,-3.654974699,1,-7.136389256,1,-0.469653636,1,-0.437034428,1,0.386441022,1,0.207992762,1,-0.593445599,1,0.45998311,1
2.775970459,-5.600252628,1,-3.409454584,1,-7.141010284,1,-0.531806231,1,-0.415640712,1,0.420859486,1,0.205149382,1,-0.5954476,1,0.461460382,1
2.779968262,-5.995509148,1,-3.561807156,1,-7.171296597,1,-0.582849085,1,-0.392157525,1,0.449234188,1,0.201995239,1,-0.597398281,1,0.463118613,1
2.783967733,-6.518163681,1,-3.265176535,1,-7.187641144,1,-0.633851111,1,-0.346272439,1,0.465487272,1,0.198542103,1,-0.599219799,1,0.464925587,1
2.787969589,-6.42087698,1,-3.077161074,1,-7.053406715,1,-0.671273112,1,-0.283203632,1,0.497219235,1,0.194816396,1,-0.600832283,1,0.466918021,1
2.791967154,-6.346539021,1,-3.144956112,1,-7.033616066,1,-0.732684255,1,-0.217185587,1,0.521167994,1,0.190752476,1,-0.602201045,1,0.469130278,1
2.795966625,-6.459012985,1,-2.969046593,1,-7.063822746,1,-0.771000803,1,-0.165841654,1,0.527549088,1,0.186426893,1,-0.603361726,1,0.471463025,1
2.799968481,-6.600896835,1,-2.763069868,1,-7.169157028,1,-0.824714184,1,-0.10624519,1,0.543715775,1,0.181857109,1,-0.604299128,1,0.47390309,1
2.803966284,-6.702366829,1,-2.321011543,1,-7.000889778,1,-0.835652471,1,-0.036639184,1,0.55188328,1,0.17709893,1,-0.604967117,1,0.47644189,1
2.807965755,-6.74337244,1,-2.293010712,1,-6.751503468,1,-0.879758596,1,0.058944728,1,0.567706883,1,0.17210035,1,-0.605312109,1,0.479159325,1
2.811967373,-6.19370985,1,-2.093941689,1,-6.893527985,1,-0.902154803,1,0.122299284,1,0.561992824,1,0.16692394,1,-0.605321467,1,0.481961489,1
2.815965414,-6.632423878,1,-1.566946149,1,-6.99702692,1,-0.914728999,1,0.175195679,1,0.569453835,1,0.161712945,1,-0.605128169,1,0.48475787,1
2.819965124,-5.916435242,1,-1.772300005,1,-6.901202202,1,-0.932789028,1,0.260559469,1,0.56924051,1,0.156321809,1,-0.604606271,1,0.487690449,1
2.82396698,-5.901695251,1,-1.513606787,1,-7.196894646,1,-0.944837332,1,0.275311917,1,0.544354975,1,0.150930911,1,-0.603888094,1,0.49055931,1
2.827964783,-5.621142387,1,-0.669371963,1,-7.215997219,1,-0.934340477,1,0.334081471,1,0.542029917,1,0.145542622,1,-0.603006303,1,0.493405282,1
2.831964254,-5.302906036,1,-0.292633772,1,-7.676079273,1,-0.916119874,1,0.33488524,1,0.518771887,1,0.140297711,1,-0.601976693,1,0.496167213,1
2.835965633,-5.310526371,1,0.143536523,1,-7.907723427,1,-0.883499384,1,0.34893328,1,0.499144226,1,0.13518545,1,-0.6008991,1,0.498826474,1
2.839969635,-5.161476612,1,0.265101582,1,-8.306145668,1,-0.828754544,1,0.338496447,1,0.466376305,1,0.130343258,1,-0.599788785,1,0.501359463,1
2.843969584,-5.103519917,1,0.31839022,1,-8.42280674,1,-0.78317821,1,0.334559053,1,0.430584699,1,0.125781775,1,-0.598680258,1,0.50372684,1
2.847970963,-4.675494194,1,0.525523841,1,-8.730531693,1,-0.733360648,1,0.303028017,1,0.400971413,1,0.121509433,1,-0.59760493,1,0.505918145,1
2.851969004,-4.970740795,1,0.877047241,1,-8.961201668,1,-0.675893843,1,0.264822245,1,0.368718356,1,0.117555231,1,-0.59665972,1,0.507929504,1
2.855968475,-5.063029766,1,1.428226113,1,-9.210301399,1,-0.591642201,1,0.236544162,1,0.327364922,1,0.113992378,1,-0.595832944,1,0.509745657,1
2.859970093,-4.669802189,1,1.535105467,1,-9.260396004,1,-0.501954675,1,0.184636369,1,0.288009644,1,0.110902123,1,-0.595128655,1,0.51134634,1
2.863967657,-4.89593792,1,1.445348024,1,-9.190759659,1,-0.428879708,1,0.131040156,1,0.231194556,1,0.108299553,1,-0.594602108,1,0.512666285,1
2.867967129,-5.027778625,1,1.4015944,1,-9.218400002,1,-0.354593962,1,0.09533263,1,0.185049295,1,0.106143214,1,-0.594243705,1,0.51372242,1
2.871968746,-5.459815025,1,1.272528291,1,-9.135748863,1,-0.282388628,1,0.066377066,1,0.15214166,1,0.104401357,1,-0.593998075,1,0.514558673,1
2.875966787,-4.71761179,1,1.093701482,1,-9.135435104,1,-0.20600453,1,0.020085152,1,0.094061621,1,0.10308747,1,-0.593848765,1,0.515165448,1
2.879966259,-4.883450985,1,0.829383314,1,-9.041762352,1,-0.155465782,1,-0.024224715,1,0.057768736,1,0.102158643,1,-0.593898892,1,0.51553452,1
2.883968115,-5.017234325,1,0.595979512,1,-8.964179039,1,-0.102681108,1,-0.063371897,1,0.028974477,1,0.101530455,1,-0.594104826,1,0.515722454,1
2.887965679,-5.051203728,1,0.278637201,1,-8.780183792,1,-0.060076784,1,-0.096823342,1,0.005662319,1,0.101196334,1,-0.594434261,1,0.515767217,1
2.891965151,-5.158470154,1,0.020397224,1,-8.679216385,1,-0.036454342,1,-0.129007936,1,-0.005289477,1,0.101057015,1,-0.594887733,1,0.515711129,1
2.895967007,-5.042023182,1,-0.419441402,1,-8.558405876,1,-0.004170652,1,-0.155089572,1,-0.01731813,1,0.101055823,1,-0.595455229,1,0.515578747,1
2.899964571,-5.730919838,1,-0.8450284,1,-8.778058052,1,-0.013725973,1,-0.184141725,1,0.006762969,1,0.101111025,1,-0.596129775,1,0.515448749,1
2.903964043,-4.15157032,1,-1.077046037,1,-8.546550751,1,0.003062523,1,-0.185816899,1,-0.008446652,1,0.10110642,1,-0.596791804,1,0.515380681,1
2.90796566,-5.072219849,1,-1.444053769,1,-8.3860569,1,-0.022384252,1,-0.237896785,1,0.006270654,1,0.101142943,1,-0.597655118,1,0.515261412,1
2.911963463,-5.409780979,1,-1.492048264,1,-8.263000488,1,-0.029851191,1,-0.248682961,1,0.01767488,1,0.101069674,1,-0.598631024,1,0.515194356,1
2.915963173,-5.554376602,1,-1.631219029,1,-8.224104881,1,-0.058237359,1,-0.25894922,1,0.044597361,1,0.100877516,1,-0.599656701,1,0.515223205,1
2.91996479,-4.647243023,1,-1.519541621,1,-7.957215786,1,-0.058888938,1,-0.246617511,1,0.055708569,1,0.100510158,1,-0.600657463,1,0.515387714,1
2.923962116,-5.555753708,1,-1.657922029,1,-7.910058498,1,-0.086066224,1,-0.277077705,1,0.064035341,1,0.100151666,1,-0.601751804,1,0.51553756,1
2.927961826,-6.288485527,1,-1.435079336,1,-7.892487049,1,-0.101084657,1,-0.244173601,1,0.1003282,1,0.099634118,1,-0.602831542,1,0.515801132,1
2.931963444,-5.277793407,1,-1.643807173,1,-7.980983257,1,-0.102844805,1,-0.235554084,1,0.099476114,1,0.099017829,1,-0.603806198,1,0.516178012,1
2.935961008,-5.630181313,1,-1.793730617,1,-7.905993938,1,-0.137208089,1,-0.24130404,1,0.127785116,1,0.098290525,1,-0.604803324,1,0.516605854,1
2.939960718,-5.326401234,1,-1.68533349,1,-7.892313957,1,-0.145796433,1,-0.228580177,1,0.138781309,1,0.097414024,1,-0.605773091,1,0.517134368,1
2.943962336,-5.475088596,1,-1.747034311,1,-7.950881958,1,-0.167282537,1,-0.225437045,1,0.175253481,1,0.096404456,1,-0.606746137,1,0.517799795,1
2.947960138,-5.311758518,1,-1.750846863,1,-8.02833271,1,-0.171564505,1,-0.23087506,1,0.196178213,1,0.095252328,1,-0.607716978,1,0.518602073,1
2.95195961,-5.4336133,1,-1.728231788,1,-7.996500969,1,-0.197114825,1,-0.235542774,1,0.219049498,1,0.094014406,1,-0.608732462,1,0.519488871,1
2.955960989,-5.475535393,1,-1.396740556,1,-8.12853241,1,-0.20874992,1,-0.23286818,1,0.237809762,1,0.093754441,1,-0.60974586,1,0.519630551,1
2.959964752,-5.385793209,1,-1.233880997,1,-8.247573853,1,-0.208863378,1,-0.248030886,1,0.259188384,1,0.092290953,1,-0.610798001,1,0.520732522,1
2.963964224,-5.342066765,1,-1.141704679,1,-8.295981407,1,-0.208133936,1,-0.264385998,1,0.266921818,1,0.090795137,1,-0.611920416,1,0.521893501,1
2.967965603,-5.104498386,1,-0.998201489,1,-8.426549911,1,-0.202963993,1,-0.285679072,1,0.267759562,1,0.089290462,1,-0.613109887,1,0.523077726,1
2.971963406,-5.02406311,1,-0.816966057,1,-8.62815094,1,-0.175997749,1,-0.315144718,1,0.279218048,1,0.087832667,1,-0.614409804,1,0.524285078,1
2.975962877,-5.082356453,1,-0.856688142,1,-8.630590439,1,-0.174505606,1,-0.361232579,1,0.281634599,1,0.086421959,1,-0.615866721,1,0.525508642,1
2.979964733,-5.160564899,1,-0.881747186,1,-8.771105766,1,-0.161263674,1,-0.405987352,1,0.283926249,1,0.085056536,1,-0.617481291,1,0.526723862,1
2.983962297,-4.627287388,1,-0.88236022,1,-8.733485222,1,-0.208519146,1,-0.453747988,1,0.262380153,1,0.083625406,1,-0.61927861,1,0.527901053,1
2.987961769,-5.049647331,1,0.104046077,1,-8.913166046,1,-0.170090467,1,-0.527124524,1,0.247409508,1,0.08225318,1,-0.621323109,1,0.528937101,1
2.991963625,-5.505223751,1,0.291438758,1,-9.067445755,1,-0.128718153,1,-0.560350835,1,0.238244355,1,0.081093498,1,-0.623569906,1,0.529916465,1
2.995961428,-4.79645443,1,-0.238303795,1,-9.137327194,1,-0.082509153,1,-0.612421751,1,0.224478811,1,0.080147728,1,-0.625966191,1,0.530821502,1
2.999960899,-4.777026653,1,-0.242199332,1,-9.337975502,1,-0.039616831,1,-0.696274817,1,0.210356995,1,0.079429016,1,-0.628649533,1,0.531620502,1
3.003962278,-4.820903301,1,-0.404462069,1,-9.620469093,1,-0.008725232,1,-0.780287147,1,0.211226761,1,0.078881659,1,-0.631650507,1,0.532369614,1
3.007960081,-4.633524418,1,-0.710376203,1,-9.665007591,1,0.023328181,1,-0.860802174,1,0.222882062,1,0.078479938,1,-0.634976804,1,0.53310734,1
3.011959791,-4.454267502,1,-1.29229188,1,-9.884886742,1,0.021360502,1,-0.972408712,1,0.227686465,1,0.078139327,1,-0.638697267,1,0.533856213,1
3.015961409,-4.451561451,1,-0.652699947,1,-10.1140728,1,0.058625069,1,-1.098258376,1,0.232620791,1,0.077838972,1,-0.642888367,1,0.534595311,1
3.019958735,-4.562560558,1,-1.406653166,1,-10.63380241,1,0.055334859,1,-1.216825247,1,0.251340121,1,0.07764028,1,-0.647591233,1,0.535361588,1
3.023958445,-3.799968958,1,-0.810599983,1,-10.391469,1,0.045112882,1,-1.363462448,1,0.246124566,1,0.077375285,1,-0.652799368,1,0.536114633,1
3.027960062,-4.199672222,1,-0.08423318,1,-11.14996529,1,0.089760102,1,-1.504344463,1,0.242635056,1,0.077240989,1,-0.658596754,1,0.536784053,1
3.031957865,-3.928063631,1,0.243752524,1,-11.36860275,1,0.134815156,1,-1.667107105,1,0.221000195,1,0.07732705,1,-0.664983988,1,0.537339747,1
3.035957575,-3.810587406,1,0.024919853,1,-12.20415974,1,0.1803727,1,-1.872526407,1,0.200670555,1,0.077725783,1,-0.672102273,1,0.537703037,1
3.039958954,-3.616969109,1,-1.193602443,1,-12.79978085,1,0.183471099,1,-2.085065603,1,0.201180905,1,0.078306384,1,-0.680061698,1,0.537938416,1
3.043956757,-2.787382126,1,-1.874693751,1,-12.82844448,1,0.166695431,1,-2.358732939,1,0.190059468,1,0.07895989,1,-0.68896842,1,0.53803128,1
3.047956228,-3.258416176,1,-2.325298548,1,-13.45241261,1,0.185403004,1,-2.621595383,1,0.237122849,1,0.079626001,1,-0.698974192,1,0.538086414,1
3.051957846,-3.474550724,1,-3.127333641,1,-13.67331791,1,0.180566326,1,-2.88947916,1,0.294682324,1,0.080200642,1,-0.710035026,1,0.538339317,1
3.05595541,-2.861702442,1,-4.164356232,1,-14.03817844,1,0.166187063,1,-3.187164307,1,0.382815897,1,0.080579892,1,-0.722257733,1,0.538821816,1
3.059954882,-2.217190742,1,-3.841835737,1,-13.4414959,1,0.106335595,1,-3.495082617,1,0.439240128,1,0.080609664,1,-0.735689282,1,0.539583266,1
3.063956499,-2.742066383,1,-3.285062313,1,-14.33333492,1,0.1068758,1,-3.83338809,1,0.505844891,1,0.080371201,1,-0.750441372,1,0.540528417,1
3.06795454,-4.957983971,1,-3.992022276,1,-16.1559639,1,0.026696559,1,-4.256239414,1,0.65200597,1,0.079718731,1,-0.766730547,1,0.541905046,1
3.071954012,-1.625788927,1,-2.584690332,1,-14.0091753,1,0.103102155,1,-4.608178139,1,0.634768724,1,0.078757308,1,-0.784546793,1,0.543571591,1
3.075955629,-1.797267675,1,-1.615409732,1,-14.95516396,1,0.234813392,1,-5.20063591,1,0.681369424,1,0.078332193,1,-0.804326355,1,0.545095205,1
3.079959393,-4.672625065,1,-2.862459898,1,-16.56714058,1,0.324930459,1,-5.649537086,1,0.819689155,1,0.078101613,1,-0.826229334,1,0.546995044,1
3.083958864,-4.953155994,1,-3.870363951,1,-16.93199539,1,0.41299808,1,-6.134491444,1,0.929396927,1,0.07779409,1,-0.849914014,1,0.549394131,1
3.087960482,-7.154592991,1,-4.588955879,1,-19.58602905,1,0.494976819,1,-6.651366711,1,1.166895509,1,0.077004224,1,-0.875820339,1,0.552751243,1
3.091958284,-0.718271792,1,-3.344865561,1,-15.45070648,1,0.72213465,1,-7.001340389,1,1.386532307,1,0.075684793,1,-0.903371632,1,0.557583094,1
3.095957756,1.886331081,1,-1.509498,1,-16.92788315,1,0.987249255,1,-7.748653889,1,1.567128539,1,0.074286118,1,-0.933185458,1,0.56361109,1
3.099959373,-7.160019398,1,-4.904530048,1,-21.1812191,1,1.116153359,1,-8.247398376,1,1.880158901,1,0.072259516,1,-0.965772271,1,0.571415782,1
3.103956938,-14.38953114,1,-10.82621193,1,-24.72937012,1,0.829591215,1,-8.063996315,1,2.091037273,1,0.067834593,1,-0.998993099,1,0.581526816,1
3.107956648,-14.4064188,1,-12.29508972,1,-22.63232422,1,0.321285367,1,-7.75853157,1,2.30414772,1,0.05917595,1,-1.031077504,1,0.59437716,1
3.111958265,-9.242632866,1,-11.88805485,1,-21.20884514,1,-0.07564529,1,-7.75308466,1,2.584472418,1,0.045600068,1,-1.062464237,1,0.610567093,1
3.115956068,-14.95770645,1,-9.74140358,1,-22.59362221,1,-0.419335634,1,-7.776141644,1,2.788192987,1,0.026654905,1,-1.094035268,1,0.630960226,1
3.119955778,-18.18226624,1,-8.074420929,1,-21.93169022,1,-0.69083643,1,-7.353674889,1,3.102769375,1,0.001696081,1,-1.12446785,1,0.656323195,1
3.123957157,-13.5216608,1,-7.633350849,1,-18.83265114,1,-0.949179947,1,-7.217102051,1,3.296323299,1,-0.030453591,1,-1.153357267,1,0.688099027,1
3.12795496,-11.1150732,1,-7.315784454,1,-17.43491364,1,-1.047882557,1,-7.323973179,1,3.416345835,1,-0.069306917,1,-1.181716561,1,0.725951433,1
3.131954432,-15.52885818,1,-5.394035816,1,-19.56796646,1,-1.031212687,1,-7.269133091,1,3.466028452,1,-0.11524681,1,-1.209638119,1,0.770823002,1
3.135956049,-17.3949604,1,-5.604180813,1,-17.97878456,1,-1.013960361,1,-6.924787045,1,3.607954025,1,-0.168901399,1,-1.235697031,1,0.823573887,1
3.139953613,-12.98236752,1,-7.307920456,1,-13.19648647,1,-1.115361333,1,-6.800855637,1,3.640084982,1,-0.231939763,1,-1.259696722,1,0.885604978,1
3.143953085,-10.69353104,1,-6.829311848,1,-13.208395,1,-1.387297869,1,-6.927356243,1,3.636754036,1,-0.306135178,1,-1.282312989,1,0.958066106,1
3.147954702,-15.7942543,1,-4.552454472,1,-12.51357079,1,-1.43665278,1,-6.592112064,1,3.427417517,1,-0.390910685,1,-1.303022623,1,1.040234447,1
3.151952267,-12.0506258,1,-5.491605759,1,-10.40920067,1,-1.416956902,1,-5.996056557,1,3.374218702,1,-0.483175606,1,-1.320153713,1,1.129856825,1
3.155951977,-10.91153049,1,-5.860249996,1,-12.26862431,1,-1.575532556,1,-5.457993507,1,3.25737524,1,-0.581885636,1,-1.333150744,1,1.225371122,1
3.159953356,-12.56300545,1,-5.187369823,1,-14.02829552,1,-1.518069267,1,-4.754615307,1,3.150125742,1,-0.68260175,1,-1.342089057,1,1.322484016,1
3.163951397,-11.47449398,1,-4.199655056,1,-15.91625404,1,-1.325810075,1,-3.982885838,1,3.006317139,1,-0.778773606,1,-1.346871138,1,1.415296555,1
3.167950869,-8.073676109,1,-3.898878813,1,-16.93173409,1,-0.973968029,1,-3.330894947,1,2.868928194,1,-0.865774751,1,-1.348183513,1,1.499757051,1
3.171952724,-5.597362041,1,-4.067159653,1,-16.63391304,1,-0.628699601,1,-2.777188063,1,2.714232922,1,-0.941676974,1,-1.346946597,1,1.574304819,1
3.175950289,-2.823523998,1,-4.211928368,1,-15.91342258,1,-0.312032819,1,-2.259045839,1,2.519407511,1,-1.005572915,1,-1.343941212,1,1.637935996,1
3.17994976,1.082415223,1,-4.424374104,1,-15.31443787,1,0.061377428,1,-1.840628743,1,2.325015306,1,-1.057439923,1,-1.33983326,1,1.690657496,1
3.183951616,4.014110565,1,-4.650540352,1,-12.95583248,1,0.397941589,1,-1.640182257,1,2.239234686,1,-1.100145459,1,-1.335051298,1,1.735545754,1
3.187949419,5.082773209,1,-3.131335735,1,-10.19608784,1,0.61970365,1,-1.648804903,1,2.055606127,1,-1.137752891,1,-1.330155492,1,1.77635324,1
3.191948891,-5.260278225,1,-3.291469812,1,-10.68993282,1,0.951472461,1,-1.541850686,1,1.900611162,1,-1.171566963,1,-1.325558543,1,1.814362884,1
3.195950508,-9.510800362,1,-5.961353302,1,-12.05315018,1,1.272807956,1,-0.895814061,1,1.811250329,1,-1.196285725,1,-1.32052815,1,1.84449029,1
3.199954271,-4.922700405,1,-8.060845375,1,-12.91084003,1,1.467159629,1,-0.212613091,1,1.561193943,1,-1.208110094,1,-1.315001726,1,1.862391949,1
3.203953981,-0.893464327,1,-9.122974396,1,-12.11328793,1,1.510618091,1,0.329427004,1,1.31376791,1,-1.208862782,1,-1.309543252,1,1.86939013,1
3.20795536,1.931091666,1,-9.081028938,1,-10.52678299,1,1.322590113,1,0.70736438,1,1.128651261,1,-1.202248693,1,-1.304490447,1,1.867639542,1
3.211953163,3.306877851,1,-8.604656219,1,-9.252752304,1,1.19193697,1,0.926218033,1,0.953777432,1,-1.191652298,1,-1.299419761,1,1.861810207,1
3.215952873,4.759430885,1,-7.486746788,1,-8.055906296,1,1.214548826,1,1.047455668,1,0.824938715,1,-1.178561687,1,-1.294638753,1,1.853173852,1
3.219954491,5.522078991,1,-7.078099251,1,-7.092769146,1,1.330107808,1,1.062676191,1,0.709320188,1,-1.163962126,1,-1.290164709,1,1.843281984,1
3.223952055,5.09041214,1,-6.652632236,1,-6.817646027,1,1.420322895,1,1.090996146,1,0.576102972,1,-1.148516536,1,-1.286079526,1,1.832932591,1
3.227951527,4.958730221,1,-5.831537247,1,-6.944854736,1,1.509584188,1,1.150301337,1,0.41616258,1,-1.131657124,1,-1.282397628,1,1.8214643,1
3.231953144,5.00532341,1,-5.184617996,1,-6.974503994,1,1.610725641,1,1.218437314,1,0.252379894,1,-1.113036275,1,-1.279126525,1,1.808536768,1
3.235950947,4.999384403,1,-4.656075478,1,-6.742250443,1,1.736799598,1,1.273557425,1,0.079367034,1,-1.092568636,1,-1.276279688,1,1.794152021,1
3.239950418,4.654901028,1,-4.355377197,1,-6.412676334,1,1.896450877,1,1.299701214,1,-0.104628325,1,-1.070280671,1,-1.273906112,1,1.778437734,1
3.243951797,3.894276619,1,-4.260137558,1,-6.336991787,1,2.058684826,1,1.330841422,1,-0.281742305,1,-1.046200871,1,-1.271998286,1,1.761530876,1
3.2479496,2.897459507,1,-4.225651264,1,-6.581365108,1,2.198544741,1,1.393237472,1,-0.467312038,1,-1.020105124,1,-1.270492792,1,1.743138075,1
3.251949072,2.158297539,1,-4.284920216,1,-6.900984764,1,2.311871052,1,1.488043189,1,-0.656643927,1,-0.991552055,1,-1.269309282,1,1.722688913,1
3.255950689,1.566231132,1,-4.333657265,1,-7.208222389,1,2.39343071,1,1.60357213,1,-0.843920648,1,-0.960279047,1,-1.268331528,1,1.699802399,1
3.259948254,1.085579038,1,-4.48582983,1,-7.37839222,1,2.442248583,1,1.732021093,1,-1.036476612,1,-0.926249802,1,-1.267455697,1,1.674290419,1
3.263947725,0.567103088,1,-4.523452759,1,-7.538584709,1,2.464545012,1,1.857653618,1,-1.21848321,1,-0.889509916,1,-1.266597033,1,1.646084309,1
3.267949581,-0.055118259,1,-4.279434681,1,-7.792489052,1,2.477607965,1,1.987178087,1,-1.414267778,1,-0.850136042,1,-1.265671015,1,1.615165114,1
3.271947145,-0.723973393,1,-4.002969742,1,-8.008641243,1,2.487959146,1,2.130476952,1,-1.598050237,1,-0.808067322,1,-1.264556408,1,1.581464052,1
3.275946856,-1.231144786,1,-3.63005805,1,-8.291073799,1,2.491471052,1,2.290322542,1,-1.786925912,1,-0.763274372,1,-1.263100386,1,1.544918418,1
3.279948473,-1.631084919,1,-3.209649563,1,-8.508724213,1,2.493670225,1,2.447546005,1,-1.969439507,1,-0.715885103,1,-1.261166692,1,1.505637646,1
3.283946276,-1.868653417,1,-2.735717535,1,-8.765907288,1,2.503990889,1,2.60693121,1,-2.150666475,1,-0.666056156,1,-1.258625746,1,1.463795781,1
3.287945747,-2.111752272,1,-2.195276499,1,-9.023996353,1,2.521229744,1,2.7452631,1,-2.331558228,1,-0.614149451,1,-1.255393863,1,1.419786334,1
3.291947365,-2.429695606,1,-1.578115225,1,-9.330423355,1,2.555660009,1,2.888883352,1,-2.51525259,1,-0.560395539,1,-1.251374483,1,1.373887897,1
3.295944929,-2.781558752,1,-0.927070498,1,-9.705780983,1,2.588759184,1,3.018808365,1,-2.697012424,1,-0.505192399,1,-1.24649024,1,1.326532006,1
3.299944639,-3.152445316,1,-0.212154388,1,-10.00274944,1,2.616812229,1,3.1510427,1,-2.876932859,1,-0.448897064,1,-1.240638375,1,1.278068662,1
3.303946495,-3.476995468,1,0.162872598,1,-10.21157074,1,2.648206949,1,3.277282,1,-3.050450802,1,-0.3919487,1,-1.233743906,1,1.228949785,1
3.307944298,-3.763034344,1,0.389338136,1,-10.42750549,1,2.66124773,1,3.394593716,1,-3.203877211,1,-0.335000515,1,-1.22571063,1,1.179796696,1
3.311944008,-4.023331165,1,0.678189039,1,-10.63527966,1,2.634948015,1,3.508694172,1,-3.343271971,1,-0.278717101,1,-1.216503263,1,1.131169915,1
3.315945625,-4.378979683,1,1.030941963,1,-10.95714188,1,2.577637196,1,3.616015673,1,-3.452978134,1,-0.223801136,1,-1.206089377,1,1.083655357,1
3.319949389,-4.681059361,1,1.494855046,1,-11.26799679,1,2.512204885,1,3.717612028,1,-3.544706345,1,-0.170849741,1,-1.194448471,1,1.03777945,1
3.323949099,-4.995290279,1,1.998028159,1,-11.55911446,1,2.428180933,1,3.820986032,1,-3.599206448,1,-0.120424777,1,-1.181603074,1,0.994077861,1
3.327950478,-5.418063164,1,2.559552431,1,-11.89847374,1,2.338873386,1,3.920353174,1,-3.626832485,1,-0.072921522,1,-1.167592645,1,0.952919841,1
3.331948519,-5.829153538,1,3.157156229,1,-12.24557495,1,2.248517513,1,4.022811413,1,-3.620132446,1,-0.028664125,1,-1.152455807,1,0.914646208,1
3.33594799,-6.41457653,1,3.762525558,1,-12.53524876,1,2.157539368,1,4.132042885,1,-3.5868783,1,0.012183004,1,-1.136265993,1,0.879471958,1
3.339949608,-6.934073925,1,4.338377953,1,-12.9314642,1,2.056320906,1,4.257884502,1,-3.521005154,1,0.049470384,1,-1.119052768,1,0.847532988,1
3.343947172,-7.47819376,1,4.850625992,1,-13.11723995,1,1.952017784,1,4.392487049,1,-3.416602135,1,0.083100453,1,-1.100873232,1,0.818941832,1
3.347947121,-7.852626801,1,5.512822151,1,-13.214674,1,1.853596926,1,4.536537647,1,-3.28687048,1,0.113026351,1,-1.081781745,1,0.793793976,1
3.3519485,-8.092701912,1,6.100143909,1,-13.28690052,1,1.769742727,1,4.678119659,1,-3.113237619,1,0.139328733,1,-1.061885476,1,0.772088587,1
3.355946302,-8.151647568,1,6.649991035,1,-13.36023998,1,1.700355053,1,4.819209099,1,-2.917931795,1,0.162152767,1,-1.041294813,1,0.753795445,1
