Time,inertial-6253.76535:estCompensatedAccelX,inertial-6253.76535:estCompensatedAccelX:valid,inertial-6253.76535:estCompensatedAccelY,inertial-6253.76535:estCompensatedAccelY:valid,inertial-6253.76535:estCompensatedAccelZ,inertial-6253.76535:estCompensatedAccelZ:valid,inertial-6253.76535:estAngularRateX,inertial-6253.76535:estAngularRateX:valid,inertial-6253.76535:estAngularRateY,inertial-6253.76535:estAngularRateY:valid,inertial-6253.76535:estAngularRateZ,inertial-6253.76535:estAngularRateZ:valid,inertial-6253.76535:estRoll,inertial-6253.76535:estRoll:valid,inertial-6253.76535:estPitch,inertial-6253.76535:estPitch:valid,inertial-6253.76535:estYaw,inertial-6253.76535:estYaw:valid,inertial-6253.76535:estLinearAccelX,inertial-6253.76535:estLinearAccelX:valid,inertial-6253.76535:estLinearAccelY,inertial-6253.76535:estLinearAccelY:valid,inertial-6253.76535:estLinearAccelZ,inertial-6253.76535:estLinearAccelZ:valid
0,-4.720336914,1,-2.0815804,1,-8.355669975,1,-0.002770854,1,-0.007335871,1,-0.000828051,1,0.2457506656646729,1,-0.497752339,1,-0.369531035,1,-0.050779819,1,0.009065866,1,-0.020439148,1
0.00399744,-4.732465267,1,-2.072825909,1,-8.339696884,1,-0.004391751,1,-0.001564065,1,0.003267625,1,0.2457405775785446,1,-0.497773826,1,-0.36953336,1,-0.06272316,1,0.017711639,1,-0.004541397,1
0.007996928,-4.750401974,1,-2.069903851,1,-8.338521957,1,-0.003527395,1,-0.00658842,1,-0.001934846,1,0.2457326501607895,1,-0.497790307,1,-0.369548261,1,-0.080518246,1,0.020548582,1,-0.003425598,1
0.011998464,-4.755071163,1,-2.100208044,1,-8.349015236,1,-0.006080684,1,-0.004329252,1,0.002175839,1,0.2457217872142792,1,-0.49781692,1,-0.369557798,1,-0.084958553,1,-0.009875774,1,-0.014016151,1
0.01599616,-4.720982075,1,-2.118575096,1,-8.367351532,1,-0.006519175,1,-0.002913658,1,-0.001829775,1,0.2457024753093719,1,-0.497829288,1,-0.369552493,1,-0.050763607,1,-0.028418064,1,-0.032367706,1
0.019995648,-4.720726013,1,-2.096636295,1,-8.361998558,1,-0.001506443,1,-0.00375069,1,0.003128908,1,0.2456802576780319,1,-0.497851878,1,-0.369552642,1,-0.050313473,1,-0.006690502,1,-0.027071953,1
0.023997184,-4.708602428,1,-2.083724737,1,-8.354312897,1,-0.004581777,1,-0.005407535,1,-0.002152002,1,0.245667502,1,-0.497878402,1,-0.369554013,1,-0.03796196,1,0.006084919,1,-0.019478798,1
0.02799488,-4.666879654,1,-2.133908272,1,-8.354006767,1,-0.004188004,1,-0.006463873,1,0.001080345,1,0.2456541508436203,1,-0.497906029,1,-0.369561076,1,0.003998756,1,-0.044240952,1,-0.019268036,1
0.032000512,-4.641033173,1,-2.135390997,1,-8.341580391,1,-0.00746869,1,-0.011825457,1,0.000785219,1,0.2456256151199341,1,-0.497938961,1,-0.369561374,1,0.030128002,1,-0.04599905,1,-0.006933212,1
0.036002047,-4.701478958,1,-2.096202374,1,-8.386073112,1,-0.004944368,1,-0.010245493,1,0.005841291,1,0.2456032037734985,1,-0.497979522,1,-0.369555175,1,-0.029969215,1,-0.007042885,1,-0.051562309,1
0.039999999,-4.679716587,1,-2.098573208,1,-8.344534874,1,-0.007225775,1,-0.015067046,1,0.008061148,1,0.2455665916204453,1,-0.498030305,1,-0.36954844,1,-0.007770538,1,-0.009777069,1,-0.010177612,1
0.043999232,-4.700696945,1,-2.05490303,1,-8.395496368,1,-0.003042104,1,-0.013495757,1,0.001454249,1,0.2455405443906784,1,-0.498101324,1,-0.369626015,1,-0.028140545,1,0.033595085,1,-0.061408997,1
0.048000768,-4.734861374,1,-2.051428795,1,-8.378648758,1,-0.008342481,1,-0.014784141,1,0.005063577,1,0.2455219775438309,1,-0.498150676,1,-0.369631708,1,-0.061881542,1,0.036859035,1,-0.044744492,1
0.051998209,-4.695483208,1,-2.036047697,1,-8.387475014,1,-0.001042445,1,-0.016039098,1,0.005968591,1,0.2455036640167236,1,-0.498216033,1,-0.369631529,1,-0.021941662,1,0.052013397,1,-0.053827286,1
0.055997439,-4.720829487,1,-2.053272724,1,-8.403012276,1,-0.004783468,1,-0.018274466,1,0.002100185,1,0.2454913705587387,1,-0.498283267,1,-0.369633824,1,-0.046710014,1,0.034609318,1,-0.069644928,1
0.059998974,-4.727813244,1,-2.046718836,1,-8.410719872,1,-0.001406427,1,-0.0225408,1,0.001704641,1,0.2454919666051865,1,-0.498357832,1,-0.36965701,1,-0.053053856,1,0.041083574,1,-0.077692032,1
0.063996673,-4.739476204,1,-2.072697639,1,-8.361927986,1,1.956196501851082e-05,1,-0.020385381,1,-0.000381658,1,0.2454958111047745,1,-0.498437047,1,-0.369677693,1,-0.064035416,1,0.015046597,1,-0.029266357,1
0.067996159,-4.763240814,1,-2.039085627,1,-8.384411812,1,0.000133971,1,-0.021820456,1,-0.001855933,1,0.2455061823129654,1,-0.49852258,1,-0.369691133,1,-0.087066174,1,0.048648119,1,-0.052158356,1
0.071997695,-4.772137165,1,-2.039698124,1,-8.410090446,1,0.003195294,1,-0.021731725,1,0.001505241,1,0.2455247193574905,1,-0.498600721,1,-0.36971426,1,-0.095290661,1,0.048100471,1,-0.078234673,1
0.075995393,-4.741143227,1,-2.004241467,1,-8.417314529,1,0.0107992,1,-0.023235023,1,0.000213065,1,0.2455605268478394,1,-0.498683631,1,-0.369735658,1,-0.063585281,1,0.08376193,1,-0.085906982,1
0.07999488,-4.748168945,1,-2.075660229,1,-8.416191101,1,0.007297515,1,-0.022541214,1,-0.005296489,1,0.2456033676862717,1,-0.498765945,1,-0.369769841,1,-0.069903851,1,0.012606382,1,-0.085246086,1
0.083996415,-4.785752773,1,-2.073048353,1,-8.376058578,1,0.006412786,1,-0.020803059,1,-0.001316169,1,0.2456503808498383,1,-0.498851329,1,-0.369813472,1,-0.106754303,1,0.015512943,1,-0.045598984,1
0.087993853,-4.738500595,1,-2.13585043,1,-8.377149582,1,0.006593021,1,-0.022258805,1,-0.002767483,1,0.2456962615251541,1,-0.498933643,1,-0.369846404,1,-0.058794975,1,-0.047000408,1,-0.047159195,1
0.091993347,-4.797573566,1,-2.107083797,1,-8.360509872,1,0.00511842,1,-0.02052444,1,-0.000320016,1,0.2457313984632492,1,-0.499011338,1,-0.369881749,1,-0.117200851,1,-0.01802969,1,-0.030946732,1
0.095994882,-4.772288322,1,-2.071578741,1,-8.373243332,1,0.007600646,1,-0.020900147,1,0.000506673,1,0.2457742989063263,1,-0.499085635,1,-0.369921327,1,-0.091277599,1,0.017747879,1,-0.044106483,1
0.09999232,-4.784584045,1,-2.015735626,1,-8.338100433,1,0.005041281,1,-0.016888337,1,-0.002245944,1,0.2458215057849884,1,-0.499158919,1,-0.369951963,1,-0.102943897,1,0.0739007,1,-0.009394646,1
0.103991553,-4.785429001,1,-2.056612968,1,-8.337731361,1,0.007058335,1,-0.018173389,1,-0.00353492,1,0.2458619326353073,1,-0.499223381,1,-0.369986862,1,-0.103235245,1,0.033286572,1,-0.009403229,1
0.107992835,-4.750922203,1,-2.094727993,1,-8.340072632,1,0.00677352,1,-0.018491525,1,-0.003471732,1,0.2459093928337097,1,-0.499289453,1,-0.370029151,1,-0.068161011,1,-0.004508257,1,-0.012144089,1
0.111996412,-4.757314682,1,-2.11790657,1,-8.32137394,1,0.005461075,1,-0.016766682,1,-0.006303188,1,0.2459598481655121,1,-0.499355435,1,-0.37006712,1,-0.073987484,1,-0.027342081,1,0.006148338,1
0.115995906,-4.722648621,1,-2.091100454,1,-8.359982491,1,0.003847695,1,-0.018801332,1,-0.002707821,1,0.2459900230169296,1,-0.499424279,1,-0.370098174,1,-0.038729668,1,-0.000363111,1,-0.032835007,1
0.119997442,-4.763731956,1,-2.086007833,1,-8.316864967,1,0.006969884,1,-0.010585959,1,-0.003989027,1,0.2460364550352097,1,-0.49948284,1,-0.370132715,1,-0.079310417,1,0.005049467,1,0.00992012,1
0.123995133,-4.757621765,1,-2.079822779,1,-8.336866379,1,0.006000975,1,-0.015622124,1,-0.002233159,1,0.2460756599903107,1,-0.499538243,1,-0.370164752,1,-0.072724819,1,0.011497736,1,-0.010416031,1
0.127994373,-4.758128643,1,-2.056225538,1,-8.317831039,1,0.006270778,1,-0.012797153,1,-0.00502844,1,0.2461137026548386,1,-0.499596834,1,-0.370194256,1,-0.072728634,1,0.035344839,1,0.008274078,1
0.131995901,-4.799082279,1,-2.071741581,1,-8.320096016,1,0.005451221,1,-0.009234858,1,-0.000724078,1,0.2461480349302292,1,-0.499643713,1,-0.370224655,1,-0.113279343,1,0.020059824,1,0.005720139,1
0.1359936,-4.748182297,1,-2.098089695,1,-8.317317009,1,0.004703344,1,-0.008365636,1,-0.003715238,1,0.2461796253919601,1,-0.499674022,1,-0.370252579,1,-0.062119961,1,-0.006058931,1,0.008298874,1
0.139992833,-4.736958981,1,-2.074610472,1,-8.322867393,1,0.002541637,1,-0.011260403,1,-0.003278471,1,0.2461981177330017,1,-0.499712288,1,-0.370278448,1,-0.050568104,1,0.017530918,1,0.002536774,1
0.143994361,-4.760736465,1,-2.026961803,1,-8.324950218,1,0.00469729,1,-0.010465357,1,-0.006015284,1,0.2462267279624939,1,-0.499741495,1,-0.370313704,1,-0.074094772,1,0.065383911,1,0.000260353,1
0.147991806,-4.751630306,1,-2.057537556,1,-8.328007698,1,0.0022594,1,-0.011889745,1,-0.00696631,1,0.2462625801563263,1,-0.499771923,1,-0.370342374,1,-0.064727306,1,0.03507185,1,-0.00301075,1
0.15199104,-4.703441143,1,-2.092652798,1,-8.328131676,1,0.00884624,1,-0.00929268,1,-0.005525776,1,0.2462953627109528,1,-0.499805212,1,-0.370369911,1,-0.016252041,1,0.00019145,1,-0.003355026,1
0.155992582,-4.683455944,1,-2.126862526,1,-8.338101387,1,0.005525846,1,-0.011137159,1,-0.006172678,1,0.2463303655385971,1,-0.499842167,1,-0.37040177,1,0.004050255,1,-0.033769608,1,-0.013566971,1
0.159990266,-4.69933939,1,-2.099571943,1,-8.321472168,1,0.003780148,1,-0.011641513,1,-0.006027253,1,0.246369481,1,-0.499872983,1,-0.370434612,1,-0.011568546,1,-0.006188154,1,0.002841949,1
0.163989499,-4.759552002,1,-2.047982216,1,-8.322635651,1,0.003940892,1,-0.009537878,1,-0.007586102,1,0.24641192,1,-0.499912798,1,-0.37047559,1,-0.071439743,1,0.045710087,1,0.001409531,1
0.167991042,-4.80772543,1,-2.093042135,1,-8.332008362,1,0.007863688,1,-0.008715751,1,-0.005210537,1,0.2464557588100433,1,-0.499943465,1,-0.370509088,1,-0.119349957,1,0.000980139,1,-0.008193016,1
0.171988487,-4.760072708,1,-2.076167345,1,-8.339097977,1,0.004911627,1,-0.009369455,1,-0.002896717,1,0.2464918345212936,1,-0.499976099,1,-0.370540321,1,-0.071416855,1,0.018117189,1,-0.015508652,1
0.175987974,-4.75034523,1,-2.086466312,1,-8.349484444,1,0.0071939,1,-0.004680279,1,-0.009042799,1,0.2465388178825378,1,-0.499998182,1,-0.37057814,1,-0.061500549,1,0.008184671,1,-0.026092529,1
0.179989502,-4.730926037,1,-2.113109827,1,-8.303277969,1,0.005696238,1,-0.008260789,1,-0.006967231,1,0.2465846091508865,1,-0.500017703,1,-0.370609164,1,-0.041913033,1,-0.0181005,1,0.019928932,1
0.183986947,-4.751524925,1,-2.153434515,1,-8.323906898,1,0.006664728,1,-0.0099604,1,-0.002096089,1,0.2466294318437576,1,-0.50004226,1,-0.370644957,1,-0.062301159,1,-0.058080912,1,-0.000908852,1
0.187992573,-4.733014107,1,-2.094411135,1,-8.337815285,1,0.005434932,1,-0.007969447,1,-0.004481778,1,0.2466678023338318,1,-0.500067413,1,-0.370679319,1,-0.04357481,1,0.001233578,1,-0.01500988,1
0.191994116,-4.767979145,1,-2.110009193,1,-8.327119827,1,0.007063826,1,-0.008351811,1,-0.005631905,1,0.2467088848352432,1,-0.500093579,1,-0.370713383,1,-0.078315258,1,-0.014052391,1,-0.004519463,1
0.195991546,-4.746563435,1,-2.148832083,1,-8.331459999,1,0.00346719,1,-0.006837646,1,0.000354817,1,0.2467406690120697,1,-0.500119984,1,-0.370732486,1,-0.05667305,1,-0.052641153,1,-0.009045601,1
0.199991047,-4.725728035,1,-2.145212173,1,-8.303581238,1,0.000846572,1,-0.007368359,1,-0.005580654,1,0.2467586845159531,1,-0.500141919,1,-0.370754033,1,-0.035649776,1,-0.048896313,1,0.018694878,1
0.203992829,-4.728188515,1,-2.145193815,1,-8.346879005,1,0.002002131,1,-0.004413986,1,-0.004534643,1,0.2467758357524872,1,-0.500175416,1,-0.370768875,1,-0.037822723,1,-0.048774004,1,-0.024792671,1
0.20799078,-4.741795063,1,-2.162142038,1,-8.347159386,1,-0.001903582,1,-0.004750798,1,0.00119403,1,0.2467866837978363,1,-0.500201225,1,-0.370781362,1,-0.051207542,1,-0.065661192,1,-0.025212288,1
0.211990535,-4.738037586,1,-2.104500771,1,-8.341362,1,-0.000494481,1,-0.006983633,1,0.003755898,1,0.2467824369668961,1,-0.50023818,1,-0.370785981,1,-0.047132492,1,-0.00809741,1,-0.019573212,1
0.21599181,-4.755350113,1,-2.059121609,1,-8.351817131,1,-0.002422652,1,-0.009073243,1,0.004221517,1,0.2467830032110214,1,-0.500261784,1,-0.370785773,1,-0.06424284,1,0.037259817,1,-0.030135155,1
0.219989508,-4.732513428,1,-2.113501072,1,-8.381173134,1,-0.000279526,1,-0.009235553,1,-0.002315569,1,0.2467723488807678,1,-0.500302315,1,-0.370784283,1,-0.041058064,1,-0.017256021,1,-0.059658051,1
0.223988742,-4.74801445,1,-2.146952391,1,-8.323622704,1,-0.002923644,1,-0.006102807,1,0.00421943,1,0.246772438,1,-0.500335157,1,-0.370789707,1,-0.056277752,1,-0.050743818,1,-0.002256393,1
0.227990016,-4.78258419,1,-2.114132166,1,-8.332777023,1,-0.001001846,1,-0.009447378,1,0.004667682,1,0.2467601001262665,1,-0.500373721,1,-0.370789528,1,-0.09051609,1,-0.018070698,1,-0.011559486,1
0.231987715,-4.717039108,1,-2.133102417,1,-8.366174698,1,-0.004114412,1,-0.010693701,1,0.005112592,1,0.2467454075813293,1,-0.500412524,1,-0.370784938,1,-0.024638176,1,-0.037207603,1,-0.045103073,1
0.235986948,-4.77062273,1,-2.077575207,1,-8.357361794,1,-0.002874105,1,-0.009812547,1,0.003393732,1,0.2467246204614639,1,-0.50045079,1,-0.370778233,1,-0.077893257,1,0.018103361,1,-0.036418915,1
0.239988476,-4.78083086,1,-2.139993191,1,-8.318407059,1,-0.003136977,1,-0.009320083,1,0.005725712,1,0.2467103004455566,1,-0.500487208,1,-0.370771229,1,-0.087789059,1,-0.044475794,1,0.002399445,1
0.243986174,-4.774678707,1,-2.11473608,1,-8.332871437,1,-0.004707083,1,-0.008808792,1,0.004126539,1,0.2466782927513123,1,-0.500524521,1,-0.370756805,1,-0.081316471,1,-0.019527912,1,-0.012168884,1
0.247985408,-4.74176836,1,-2.092055559,1,-8.34476757,1,-0.009475911,1,-0.009746389,1,0.002882077,1,0.2466472983360291,1,-0.500565708,1,-0.370733976,1,-0.048053265,1,0.002847433,1,-0.024187088,1
0.251986951,-4.776591301,1,-2.085430384,1,-8.348031044,1,-0.003785376,1,-0.010623376,1,0.005669337,1,0.2466213256120682,1,-0.500606775,1,-0.370731473,1,-0.082523823,1,0.009209633,1,-0.027583122,1
0.255984396,-4.718596458,1,-2.097776175,1,-8.363184929,1,-0.008370811,1,-0.007586629,1,0.002747014,1,0.2465889155864716,1,-0.500635564,1,-0.370718002,1,-0.024281979,1,-0.003438711,1,-0.042798996,1
0.259983629,-4.772697926,1,-2.109258175,1,-8.36118412,1,-0.00874968,1,-0.009082112,1,0.00226879,1,0.2465519309043884,1,-0.500672579,1,-0.370708376,1,-0.078065872,1,-0.01527071,1,-0.040887833,1
0.263985157,-4.751135826,1,-2.078275919,1,-8.344619751,1,-0.005696977,1,-0.00620959,1,0.005051419,1,0.2465097904205322,1,-0.5007056,1,-0.3706958,1,-0.056220055,1,0.015323162,1,-0.024386406,1
0.267988473,-4.738738537,1,-2.067303419,1,-8.370545387,1,-0.007315898,1,-0.00901467,1,0.003405861,1,0.2464801520109177,1,-0.500732899,1,-0.370688677,1,-0.043588638,1,0.026017904,1,-0.050374985,1
0.271987975,-4.781116962,1,-2.040144682,1,-8.348452568,1,-0.006501734,1,-0.00740345,1,0.000891677,1,0.2464492172002792,1,-0.500766933,1,-0.370691538,1,-0.08567524,1,0.05287981,1,-0.028373718,1
0.275989503,-4.765772343,1,-2.085715771,1,-8.335809708,1,-0.007333179,1,-0.006938188,1,0.002023465,1,0.2464208751916885,1,-0.500799954,1,-0.370685101,1,-0.070047379,1,0.007035494,1,-0.01581955,1
0.279986948,-4.787908554,1,-2.042231798,1,-8.346546173,1,-0.006176267,1,-0.004048325,1,0.002869349,1,0.2463981658220291,1,-0.500825703,1,-0.370687783,1,-0.091962814,1,0.050301313,1,-0.02662468,1
0.283986419,-4.74171114,1,-2.069796324,1,-8.325728416,1,-0.006090831,1,-0.006188922,1,0.000125824,1,0.2463794499635696,1,-0.500844836,1,-0.370694429,1,-0.045600891,1,0.022559166,1,-0.00585556,1
0.287987977,-4.741057396,1,-2.07015729,1,-8.330953598,1,-0.009695785,1,-0.007224564,1,-0.002956233,1,0.2463590502738953,1,-0.500870585,1,-0.370701075,1,-0.044726372,1,0.021998644,1,-0.011156082,1
0.291985422,-4.764797211,1,-2.091747522,1,-8.312289238,1,-0.006362424,1,-0.003678754,1,-0.000256031,1,0.2463446408510208,1,-0.500898123,1,-0.370713413,1,-0.068230152,1,0.000257015,1,0.007413864,1
0.295984626,-4.758579731,1,-2.131973982,1,-8.333545685,1,-0.006756395,1,-0.009085967,1,-0.001539318,1,0.2462985217571259,1,-0.500935555,1,-0.370779604,1,-0.061691284,1,-0.040396452,1,-0.013918877,1
0.299986184,-4.761629105,1,-2.071017981,1,-8.295630455,1,-0.008766077,1,-0.004346712,1,-0.001090629,1,0.2462779134511948,1,-0.500950217,1,-0.37079525,1,-0.064614773,1,0.020371437,1,0.023972511,1
0.303984135,-4.804062366,1,-2.086513519,1,-8.302140236,1,-0.004313232,1,-0.00294748,1,-0.003837039,1,0.2462549954652786,1,-0.500962436,1,-0.370805621,1,-0.106943607,1,0.004671574,1,0.017457008,1
0.307983369,-4.759290695,1,-2.089828968,1,-8.278594971,1,-0.004866104,1,-0.0012027,1,0.000233442,1,0.2462376654148102,1,-0.500963748,1,-0.370811641,1,-0.062160015,1,0.00121069,1,0.041033745,1
0.311984628,-4.764623642,1,-2.094491482,1,-8.298616409,1,-0.009349289,1,0.001130479,1,-0.003692218,1,0.2462067604064941,1,-0.500967145,1,-0.370821565,1,-0.067464352,1,-0.003713131,1,0.021059036,1
0.315982342,-4.74130249,1,-2.102707624,1,-8.355278969,1,-0.004566945,1,0.001767037,1,-0.004246825,1,0.246172234,1,-0.500952423,1,-0.370832801,1,-0.044269562,1,-0.012199879,1,-0.03546524,1
0.319981575,-4.741285324,1,-2.120616674,1,-8.364433289,1,-0.010156825,1,-0.001802181,1,-0.003561228,1,0.246136799,1,-0.500946641,1,-0.370833933,1,-0.044301987,1,-0.030397654,1,-0.044519424,1
0.323982835,-4.746403694,1,-2.090263367,1,-8.397539139,1,-0.01175437,1,0.002822862,1,-0.00111533,1,0.2460968494415283,1,-0.500940681,1,-0.370845854,1,-0.049470901,1,-0.000370026,1,-0.077516556,1
0.32798028,-4.811365128,1,-2.063160658,1,-8.387834549,1,-0.010884291,1,5.499168764799833e-05,1,-0.000289178,1,0.2460570484399796,1,-0.500945687,1,-0.370846808,1,-0.11438942,1,0.026396036,1,-0.067749977,1
0.331979513,-4.807651997,1,-2.041999102,1,-8.341587067,1,-0.008644787,1,0.002962762,1,0.001248638,1,0.246011496,1,-0.500938535,1,-0.370844364,1,-0.110738277,1,0.047186613,1,-0.021375656,1
0.335981041,-4.766880989,1,-2.026987553,1,-8.313370705,1,-0.008643987,1,0.000532815,1,-0.001719333,1,0.2459792941808701,1,-0.500925839,1,-0.370850086,1,-0.070075989,1,0.061944723,1,0.006966591,1
0.339978755,-4.695394993,1,-2.010664225,1,-8.301421165,1,-0.008342067,1,0.001498566,1,-0.002243559,1,0.2459471970796585,1,-0.500915825,1,-0.370859087,1,0.001324654,1,0.078012943,1,0.019029617,1
0.343977988,-4.66623354,1,-1.989210606,1,-8.334904671,1,-0.007354305,1,0.000451351,1,-0.00229239,1,0.2459228187799454,1,-0.500909686,1,-0.370867521,1,0.030432701,1,0.099270344,1,-0.01437664,1
0.347985417,-4.732172012,1,-1.973731756,1,-8.329702377,1,-0.005561516,1,-0.002959525,1,-0.002466418,1,0.2459114640951157,1,-0.500898719,1,-0.370893061,1,-0.035599232,1,0.1146674156188965,1,-0.009099007,1
0.351989001,-4.788815975,1,-1.978167892,1,-8.281620026,1,-0.002840078,1,0.003198633,1,-0.007047067,1,0.2459003031253815,1,-0.500895143,1,-0.370904624,1,-0.092274666,1,0.1101428270339966,1,0.039023399,1
0.355988473,-4.750812531,1,-2.001349688,1,-8.333129883,1,-0.001802654,1,-0.003855099,1,-0.007095137,1,0.2459113001823425,1,-0.500889182,1,-0.370933592,1,-0.054321766,1,0.087059021,1,-0.012483597,1
0.359990031,-4.728153706,1,-2.001589537,1,-8.33965683,1,0.004955824,1,2.425757702440023e-05,1,-0.007308356,1,0.2459348887205124,1,-0.500890791,1,-0.370971322,1,-0.03164959,1,0.087014198,1,-0.019065857,1
0.363987446,-4.746913433,1,-1.98153007,1,-8.327132225,1,0.004471088,1,-0.002391648,1,-0.010610742,1,0.2459750175476074,1,-0.500887036,1,-0.371012747,1,-0.050441742,1,0.107411265,1,-0.006608963,1
0.367986947,-4.749593258,1,-2.019954443,1,-8.31872654,1,0.008475599,1,-0.004655349,1,-0.012631783,1,0.246023566,1,-0.500889599,1,-0.371067584,1,-0.053099155,1,0.06938839,1,0.001685143,1
0.371988475,-4.738676071,1,-2.043143034,1,-8.269804001,1,0.014562713,1,-0.003454033,1,-0.009983026,1,0.2460918426513672,1,-0.500882804,1,-0.371122032,1,-0.04224062,1,0.046775341,1,0.050495148,1
0.37598592,-4.721628189,1,-2.063506365,1,-8.338090897,1,0.010688568,1,-0.002968899,1,-0.011634935,1,0.246161014,1,-0.500878036,1,-0.371175706,1,-0.025233746,1,0.026993036,1,-0.017913818,1
0.379985422,-4.736391068,1,-2.045506954,1,-8.33618927,1,0.01214439,1,-0.006278159,1,-0.01129938,1,0.2462437301874161,1,-0.500884652,1,-0.371238768,1,-0.03993988,1,0.045673132,1,-0.016215324,1
0.38398695,-4.761532784,1,-2.04227376,1,-8.316199303,1,0.015350107,1,-0.003267238,1,-0.012551958,1,0.2463248670101166,1,-0.500898719,1,-0.371307194,1,-0.064960003,1,0.049565315,1,0.003540993,1
0.387984395,-4.839757442,1,-2.107048512,1,-8.337157249,1,0.015365697,1,-0.002643237,1,-0.012591518,1,0.246414989,1,-0.50090313,1,-0.371369272,1,-0.143147469,1,-0.014464617,1,-0.017624855,1
0.391983628,-4.812893391,1,-2.060545921,1,-8.333914757,1,0.014796698,1,-0.004088594,1,-0.014778574,1,0.246512234,1,-0.500902414,1,-0.371436834,1,-0.116289139,1,0.032847643,1,-0.014583588,1
0.395985156,-4.75442934,1,-2.109781981,1,-8.344032288,1,0.013268728,1,0.000226184,1,-0.012312343,1,0.2465967535972595,1,-0.500893056,1,-0.371497393,1,-0.057905197,1,-0.015674591,1,-0.02483654,1
0.39998284,-4.748264313,1,-2.14627409,1,-8.346358299,1,0.010968042,1,-0.003893924,1,-0.012173134,1,0.2466798573732376,1,-0.500886023,1,-0.371551096,1,-0.051800728,1,-0.051467896,1,-0.027305603,1
0.403982073,-4.758557796,1,-2.112652779,1,-8.299435616,1,0.014612924,1,-0.002117461,1,-0.013899065,1,0.2467653900384903,1,-0.500885189,1,-0.371606529,1,-0.062101364,1,-0.01713419,1,0.019440651,1
0.407983631,-4.769712925,1,-2.14456296,1,-8.288898468,1,0.009004459,1,0.002085442,1,-0.01062798,1,0.2468357384204865,1,-0.500868797,1,-0.371652216,1,-0.07339716,1,-0.048440218,1,0.029906273,1
0.411981314,-4.733382225,1,-2.178716898,1,-8.281939507,1,0.010327017,1,0.003028891,1,-0.007422282,1,0.2468963265419006,1,-0.500855207,1,-0.371692479,1,-0.037183762,1,-0.082074165,1,0.036801338,1
0.415980548,-4.732243538,1,-2.171672106,1,-8.277658463,1,0.005870013,1,0.003247235,1,-0.007347916,1,0.2469412684440613,1,-0.500829995,1,-0.371727943,1,-0.036261082,1,-0.074626446,1,0.041102409,1
0.419987708,-4.720012665,1,-2.168386698,1,-8.295377731,1,0.00583535,1,0.004113511,1,-0.010957319,1,0.2469722926616669,1,-0.500801563,1,-0.371755332,1,-0.024273872,1,-0.071050406,1,0.023447037,1
0.423991293,-4.66638279,1,-2.155914068,1,-8.344666481,1,-0.001085115,1,0.003058462,1,-0.003603919,1,0.2469939142465591,1,-0.500779033,1,-0.371779561,1,0.029162884,1,-0.058371782,1,-0.025783539,1
0.427990794,-4.646237373,1,-2.138607264,1,-8.50506115,1,0.002647511,1,-0.010589702,1,-0.007683268,1,0.2470046728849411,1,-0.500791311,1,-0.37180686,1,0.049413681,1,-0.040989637,1,-0.186256409,1
0.431992322,-4.590041161,1,-2.062204838,1,-8.543903351,1,0.004498478,1,-0.034837756,1,-0.005414669,1,0.2470407336950302,1,-0.500863254,1,-0.371856451,1,0.106226921,1,0.035629988,1,-0.225502014,1
0.435990006,-4.567488194,1,-2.008914948,1,-8.600242615,1,0.009666215,1,-0.061161011,1,-0.009249187,1,0.2471033781766891,1,-0.501035094,1,-0.371939957,1,0.130253792,1,0.089243174,1,-0.282755852,1
0.439989239,-4.651207924,1,-2.047777891,1,-8.562384605,1,0.012120822,1,-0.082217164,1,-0.006688735,1,0.2472076863050461,1,-0.501303613,1,-0.372063875,1,0.048837662,1,0.050939798,1,-0.246338844,1
0.443990797,-4.669494152,1,-2.070008755,1,-8.493743896,1,0.014704913,1,-0.098968834,1,-0.012947079,1,0.2473345547914505,1,-0.501641333,1,-0.372208834,1,0.033447742,1,0.029375076,1,-0.179504395,1
0.44798848,-4.734740257,1,-2.146502495,1,-8.388627052,1,0.020204378,1,-0.104883954,1,-0.012881683,1,0.2474816888570786,1,-0.502020955,1,-0.372375011,1,-0.028543472,1,-0.046332359,1,-0.076426506,1
0.451987714,-4.790589809,1,-2.207920074,1,-8.48913765,1,0.027487408,1,-0.105888769,1,-0.00924703,1,0.2476543486118317,1,-0.502406597,1,-0.372538745,1,-0.081087112,1,-0.106761217,1,-0.179063797,1
0.455989242,-4.878539562,1,-2.216650963,1,-8.39805603,1,0.040102549,1,-0.102107383,1,0.001451887,1,0.2478602528572083,1,-0.50280571,1,-0.372682303,1,-0.165616035,1,-0.1142416,1,-0.090236664,1
0.459986687,-4.798388481,1,-2.218596697,1,-8.325920105,1,0.051387236,1,-0.098015182,1,0.003696165,1,0.2480913102626801,1,-0.503195941,1,-0.372787535,1,-0.082121372,1,-0.114719152,1,-0.020367622,1
0.463986188,-4.717010498,1,-2.263025761,1,-8.317986488,1,0.050009299,1,-0.101090372,1,0.007173951,1,0.2483372539281845,1,-0.503584683,1,-0.37286967,1,0.002587318,1,-0.157556534,1,-0.014730453,1
0.467987716,-4.806652546,1,-2.296642303,1,-8.335715294,1,0.051621296,1,-0.097347654,1,0.012087419,1,0.2485751956701279,1,-0.503970802,1,-0.372939467,1,-0.083748341,1,-0.189645529,1,-0.034726143,1
0.471985161,-4.776916504,1,-2.33072257,1,-8.339713097,1,0.04823228,1,-0.090077296,1,0.01614349,1,0.248794749,1,-0.504350126,1,-0.372974098,1,-0.05076313,1,-0.222344875,1,-0.040924072,1
0.475984633,-4.738202095,1,-2.356221437,1,-8.306916237,1,0.044518545,1,-0.086590365,1,0.022965826,1,0.2489795237779617,1,-0.504712045,1,-0.372984588,1,-0.00895071,1,-0.246731758,1,-0.010174751,1
0.479985923,-4.741008759,1,-2.424675465,1,-8.289420128,1,0.037210256,1,-0.08381182,1,0.024112973,1,0.2491330653429031,1,-0.505071223,1,-0.372967839,1,-0.008682728,1,-0.314331532,1,0.005348206,1
0.483983368,-4.781536102,1,-2.352118969,1,-8.295827866,1,0.025593674,1,-0.087373562,1,0.032695953,1,0.2492416054010391,1,-0.505437613,1,-0.372932136,1,-0.04607439,1,-0.241302729,1,-0.002969742,1
0.487982839,-4.83587265,1,-2.38260746,1,-8.231960297,1,0.021834817,1,-0.076052569,1,0.038865913,1,0.2493086159229279,1,-0.505790532,1,-0.372868985,1,-0.097391605,1,-0.27164793,1,0.059137344,1
0.491984397,-4.83966589,1,-2.428321362,1,-8.256808281,1,0.012645841,1,-0.073333368,1,0.039651234,1,0.2493310421705246,1,-0.506126404,1,-0.372780561,1,-0.098310947,1,-0.317568302,1,0.032699585,1
0.495982081,-4.868468761,1,-2.484601259,1,-8.250271797,1,0.000861762,1,-0.070042245,1,0.047551878,1,0.2493049651384354,1,-0.506442428,1,-0.37267527,1,-0.124411106,1,-0.374434233,1,0.037838936,1
0.499981314,-4.875013828,1,-2.4888978,1,-8.266484261,1,-0.01215082,1,-0.061671887,1,0.046212841,1,0.2492086142301559,1,-0.506734788,1,-0.372533739,1,-0.128455639,1,-0.379871368,1,0.020485878,1
0.503994644,-5.012344837,1,-2.489712477,1,-8.238826752,1,-0.032534167,1,-0.052797951,1,0.050374046,1,0.2490516901016235,1,-0.507010221,1,-0.372382909,1,-0.263432026,1,-0.382309675,1,0.04720211,1
0.508004367,-5.213664532,1,-2.502697706,1,-8.21976757,1,-0.0440966,1,-0.035673819,1,0.052388016,1,0.2488183081150055,1,-0.507235944,1,-0.372208357,1,-0.46282196,1,-0.397492647,1,0.06571579,1
0.512009978,-5.452517509,1,-2.514701128,1,-8.178291321,1,-0.067029268,1,-0.016065512,1,0.053469606,1,0.2485029101371765,1,-0.507399797,1,-0.372004896,1,-0.700274467,1,-0.412300825,1,0.1071023941040039,1
0.516011536,-5.19980526,1,-2.38661027,1,-8.098816872,1,-0.070688628,1,0.010294385,1,0.048924871,1,0.2481161653995514,1,-0.50745976,1,-0.371783018,1,-0.447049618,1,-0.287483454,1,0.1871137619018555,1
0.52000922,-5.289392471,1,-2.246944189,1,-8.164901733,1,-0.093026191,1,0.026760081,1,0.045371659,1,0.2476706504821777,1,-0.507433772,1,-0.371551096,1,-0.536858559,1,-0.151479244,1,0.1220827102661133,1
0.524008453,-5.044989586,1,-2.082042217,1,-8.108283997,1,-0.101691507,1,0.039707214,1,0.041509375,1,0.2471633404493332,1,-0.507346272,1,-0.371307433,1,-0.293203831,1,0.009320259,1,0.1801671981811523,1
0.528010011,-5.030859947,1,-1.976662636,1,-8.186390877,1,-0.106197931,1,0.053701431,1,0.040664118,1,0.2466365396976471,1,-0.507210195,1,-0.371076763,1,-0.280237198,1,0.1104910373687744,1,0.1037874221801758,1
0.532007396,-4.814642429,1,-1.93576026,1,-8.142510414,1,-0.110724524,1,0.060719017,1,0.034421071,1,0.2460993975400925,1,-0.50702554,1,-0.370850742,1,-0.065598011,1,0.1471531391143799,1,0.1496353149414063,1
0.536006629,-4.716076851,1,-1.938621402,1,-8.171936035,1,-0.110537618,1,0.059697896,1,0.030909941,1,0.2455580830574036,1,-0.506810904,1,-0.370636582,1,0.031131744,1,0.140051007,1,0.1223258972167969,1
0.540008187,-4.595473289,1,-2.005203485,1,-8.273440361,1,-0.111929797,1,0.064581916,1,0.031628665,1,0.245024249,1,-0.506592095,1,-0.370430678,1,0.1498641967773438,1,0.069293261,1,0.022938728,1
0.544005871,-4.616905689,1,-1.956347108,1,-8.290175438,1,-0.113369972,1,0.065225288,1,0.034333371,1,0.2445179373025894,1,-0.506405115,1,-0.370346665,1,0.1268329620361328,1,0.1141635179519653,1,0.008113861,1
0.548005104,-4.630434513,1,-1.985600829,1,-8.314668655,1,-0.118801199,1,0.064523615,1,0.032224108,1,0.2439536303281784,1,-0.506189466,1,-0.370138019,1,0.1114597320556641,1,0.080474019,1,-0.014219284,1
0.552006662,-4.607302666,1,-2.019168615,1,-8.261405945,1,-0.117085978,1,0.06312862,1,0.029579833,1,0.2433861643075943,1,-0.505976796,1,-0.369933903,1,0.1327724456787109,1,0.042437553,1,0.041189194,1
0.556004107,-4.731415272,1,-1.975711823,1,-8.396907806,1,-0.121475555,1,0.05416315,1,0.025328174,1,0.2428231835365295,1,-0.505778372,1,-0.369747579,1,0.006962299,1,0.081445694,1,-0.092241287,1
0.560003579,-4.740701199,1,-1.961330771,1,-8.401989937,1,-0.114603542,1,0.057259686,1,0.026196282,1,0.2422651201486588,1,-0.50558269,1,-0.369562805,1,-0.00399828,1,0.091414571,1,-0.095274925,1
0.564005136,-4.829618931,1,-2.004812956,1,-8.43445015,1,-0.113049686,1,0.051149942,1,0.018881585,1,0.2417323738336563,1,-0.505392432,1,-0.369401157,1,-0.094543934,1,0.043722868,1,-0.125767708,1
0.568002582,-4.739659309,1,-2.1329844,1,-8.416189194,1,-0.114404261,1,0.058277875,1,0.024008274,1,0.2411958128213882,1,-0.505205274,1,-0.369229734,1,-0.006185532,1,-0.088695526,1,-0.105546951,1
0.572002053,-4.736868382,1,-2.176357031,1,-8.414777756,1,-0.111713901,1,0.047558893,1,0.017573163,1,0.2406766712665558,1,-0.505030274,1,-0.369077861,1,-0.004893303,1,-0.136184931,1,-0.102270126,1
0.576003611,-4.768430233,1,-2.170128107,1,-8.416791916,1,-0.122371621,1,0.048729699,1,0.02679335,1,0.2401339709758759,1,-0.504861951,1,-0.368924707,1,-0.037895203,1,-0.134278774,1,-0.102408409,1
0.580000997,-4.780786037,1,-2.191572905,1,-8.317479134,1,-0.126841992,1,0.054448955,1,0.03345146,1,0.2395298928022385,1,-0.504698992,1,-0.368724644,1,-0.051646233,1,-0.160563469,1,-0.001116753,1
0.584006667,-4.612463474,1,-2.042073488,1,-8.382932663,1,-0.119913138,1,0.050492305,1,0.023221441,1,0.2389480918645859,1,-0.504515588,1,-0.368540525,1,0.1151061058044434,1,-0.015697479,1,-0.064547539,1
0.588008165,-4.685931683,1,-2.007261753,1,-8.300868034,1,-0.117929548,1,0.035006363,1,0.026664436,1,0.2383872419595718,1,-0.504378557,1,-0.368378103,1,0.040464878,1,0.014601707,1,0.019282341,1
0.592006147,-4.809944153,1,-1.932577968,1,-8.294343948,1,-0.119315118,1,0.044717122,1,0.02378007,1,0.2378373146057129,1,-0.504251599,1,-0.368223608,1,-0.084635258,1,0.084851384,1,0.027501106,1
0.59600538,-4.830020428,1,-1.825522184,1,-8.259029388,1,-0.111279197,1,0.043075811,1,0.024795398,1,0.2373050600290298,1,-0.504109859,1,-0.368080139,1,-0.105925083,1,0.1876349449157715,1,0.064539909,1
0.60000664,-4.90242815,1,-1.832231402,1,-8.242570877,1,-0.112244256,1,0.046760809,1,0.018940579,1,0.236794576,1,-0.50395757,1,-0.367943525,1,-0.179636955,1,0.1768442392349243,1,0.082719803,1
0.604004323,-4.901691437,1,-1.819351077,1,-8.22095871,1,-0.104213782,1,0.04761456,1,0.015604679,1,0.2362963110208511,1,-0.50379777,1,-0.367809325,1,-0.180268764,1,0.1857532262802124,1,0.1060686111450195,1
0.608003557,-5.01736021,1,-1.946332812,1,-8.307971001,1,-0.103911906,1,0.057383861,1,0.023951322,1,0.2358173727989197,1,-0.503604829,1,-0.36767599,1,-0.297590256,1,0.054996133,1,0.020900726,1
0.612004876,-4.417401314,1,-1.808315516,1,-8.271492958,1,-0.094636895,1,0.071827933,1,0.010449001,1,0.2353169322013855,1,-0.503333151,1,-0.367509067,1,0.300041676,1,0.1891441345214844,1,0.059626579,1
0.61600256,-4.600426197,1,-1.909168363,1,-8.181030273,1,-0.087383866,1,0.054442361,1,0.014916715,1,0.2349021732807159,1,-0.503112495,1,-0.367383748,1,0.1151256561279297,1,0.085077524,1,0.1519279479980469,1
0.620001793,-4.467549801,1,-1.884897351,1,-8.156309128,1,-0.082898445,1,0.047542077,1,0.01621329,1,0.2345050722360611,1,-0.502926111,1,-0.36726743,1,0.2464056015014648,1,0.1062434911727905,1,0.1782960891723633,1
0.624003351,-4.330779552,1,-1.898173213,1,-8.231743813,1,-0.082203284,1,0.038690384,1,0.021963153,1,0.2341165840625763,1,-0.50277853,1,-0.367143095,1,0.3819108009338379,1,0.089891434,1,0.1043119430541992,1
0.628000796,-4.380484581,1,-1.931155324,1,-8.37165451,1,-0.083157763,1,0.02337743,1,0.02337737,1,0.2337203919887543,1,-0.502681792,1,-0.367005289,1,0.3313770294189453,1,0.053711057,1,-0.03437233,1
0.632000029,-4.48294878,1,-1.916095972,1,-8.333965302,1,-0.085202761,1,0.015402556,1,0.021692254,1,0.233322948,1,-0.502634168,1,-0.366886079,1,0.2285041809082031,1,0.065509558,1,0.00432682,1
0.636001527,-4.809658527,1,-1.858270526,1,-8.37583065,1,-0.090513065,1,0.015072052,1,0.025020014,1,0.2329139560461044,1,-0.502597392,1,-0.366761744,1,-0.098520279,1,0.1199636459350586,1,-0.036563873,1
0.639999211,-4.700026035,1,-1.85822773,1,-8.179326057,1,-0.089259952,1,0.02495232,1,0.025340974,1,0.2324928641319275,1,-0.50254941,1,-0.366634429,1,0.01070118,1,0.1165473461151123,1,0.1609964370727539,1
0.643998444,-4.63597393,1,-1.747689724,1,-8.172397614,1,-0.083681934,1,0.017766893,1,0.022114452,1,0.2320859730243683,1,-0.502479792,1,-0.366503119,1,0.074156284,1,0.2237671613693237,1,0.1690464019775391,1
0.648000002,-4.836281776,1,-1.54971981,1,-8.373113632,1,-0.074910745,1,0.01312783,1,0.024884425,1,0.231705055,1,-0.502441525,1,-0.366384029,1,-0.126479626,1,0.4186010360717773,1,-0.030742645,1
0.651997447,-4.735650539,1,-1.526180625,1,-8.251261711,1,-0.062199898,1,0.025639594,1,0.015329185,1,0.2313700616359711,1,-0.502400219,1,-0.366282046,1,-0.026202679,1,0.439389706,1,0.091956139,1
0.655996919,-4.630533218,1,-1.477284908,1,-8.365426064,1,-0.061871164,1,0.01220016,1,0.00913127,1,0.2310718,1,-0.502339005,1,-0.366197407,1,0.078389645,1,0.4858630895614624,1,-0.021341324,1
0.659998477,-4.674377918,1,-1.408159971,1,-8.410935402,1,-0.046352632,1,0.013388737,1,0.009373243,1,0.2308278828859329,1,-0.502298355,1,-0.366137415,1,0.034196377,1,0.552996039,1,-0.066186905,1
0.664001763,-4.728115559,1,-1.499636889,1,-8.375761986,1,-0.041488133,1,0.009924645,1,0.002732852,1,0.2306358516216278,1,-0.502265871,1,-0.36610651,1,-0.019819736,1,0.459951639,1,-0.030488014,1
0.668001294,-4.773558617,1,-1.427478909,1,-8.416243553,1,-0.025373233,1,0.004190823,1,-0.005835573,1,0.2305033057928085,1,-0.502243042,1,-0.366105258,1,-0.065457821,1,0.5310280323028564,1,-0.070605278,1
0.672002792,-4.793721199,1,-1.446442842,1,-8.430714607,1,-0.014884985,1,0.010543889,1,-0.008767575,1,0.2304346114397049,1,-0.502208054,1,-0.36611706,1,-0.085920334,1,0.5115286111831665,1,-0.084781647,1
0.676000237,-4.815399647,1,-1.432484388,1,-8.41906929,1,-0.003162628,1,0.009620664,1,-0.014721043,1,0.2304143905639648,1,-0.50216347,1,-0.366158664,1,-0.107981205,1,0.5253661870956421,1,-0.072891235,1
0.679999769,-4.846461296,1,-1.416879654,1,-8.425050735,1,0.006306684,1,0.006068722,1,-0.024228718,1,0.230463833,1,-0.502114892,1,-0.366239399,1,-0.139459133,1,0.5414355993270874,1,-0.078747749,1
0.684001267,-4.916297436,1,-1.409472823,1,-8.447312355,1,0.023289016,1,0.009385296,1,-0.028823294,1,0.23058413,1,-0.502058208,1,-0.366348654,1,-0.20978117,1,0.5499076843261719,1,-0.100984573,1
0.68799895,-4.740950108,1,-1.465451956,1,-8.366699219,1,0.039920248,1,0.011822151,1,-0.040280458,1,0.2307775914669037,1,-0.501986742,1,-0.366498023,1,-0.035046101,1,0.4956203699111938,1,-0.020422935,1
0.691998184,-4.644286156,1,-1.61837256,1,-8.410451889,1,0.050217539,1,0.005998353,1,-0.046452403,1,0.2310347706079483,1,-0.501913488,1,-0.366678834,1,0.060988903,1,0.3449252843856812,1,-0.064343452,1
0.695999503,-4.732607365,1,-1.687135935,1,-8.468598366,1,0.055592276,1,0.004300464,1,-0.048952006,1,0.2313515692949295,1,-0.501857698,1,-0.366871536,1,-0.027810097,1,0.2788652181625366,1,-0.122860909,1
0.699997187,-4.646148682,1,-1.850694895,1,-8.396850586,1,0.05577597,1,-0.000238438,1,-0.05224574,1,0.2316753417253494,1,-0.501804173,1,-0.367085725,1,0.058189392,1,0.1180665493011475,1,-0.051503181,1
0.703996658,-4.640254021,1,-1.857414961,1,-8.393789291,1,0.063833117,1,0.002600302,1,-0.044742391,1,0.2320163249969482,1,-0.501761794,1,-0.367297083,1,0.063720703,1,0.1142375469207764,1,-0.048919678,1
0.707997978,-4.71230793,1,-1.950798869,1,-8.386849403,1,0.063079447,1,-0.002233904,1,-0.050259229,1,0.2323689609766006,1,-0.501723647,1,-0.367508829,1,-0.008660316,1,0.023837447,1,-0.04250145,1
0.711995661,-4.805022717,1,-2.003338337,1,-8.359653473,1,0.063749306,1,-0.001899079,1,-0.051895756,1,0.2327341735363007,1,-0.501691878,1,-0.367738068,1,-0.101647377,1,-0.025619984,1,-0.015881538,1
0.715994895,-4.78943634,1,-2.054039717,1,-8.312425613,1,0.064849786,1,0.000459273,1,-0.051718999,1,0.2330978214740753,1,-0.501648128,1,-0.367960513,1,-0.086436272,1,-0.073239684,1,0.030827522,1
0.719996393,-4.780971527,1,-2.054774523,1,-8.284142494,1,0.062718309,1,0.003875991,1,-0.046267219,1,0.233454093,1,-0.501598597,1,-0.368179619,1,-0.078395844,1,-0.070947886,1,0.058631897,1
0.723994136,-4.778977394,1,-2.064225674,1,-8.266055107,1,0.060771376,1,0.005843377,1,-0.047125001,1,0.2337974160909653,1,-0.50154233,1,-0.368389428,1,-0.07688427,1,-0.077473521,1,0.076295853,1
0.727993369,-4.740137577,1,-2.092096806,1,-8.25661087,1,0.060126334,1,0.004768778,1,-0.048288453,1,0.2341365963220596,1,-0.50147891,1,-0.368596971,1,-0.038588524,1,-0.10244596,1,0.085356712,1
0.731994867,-4.864830017,1,-2.096349955,1,-8.237848282,1,0.04890237,1,0.012178611,1,-0.046411727,1,0.2344594299793243,1,-0.501403451,1,-0.368803382,1,-0.163928032,1,-0.103923678,1,0.103820801,1
0.735992312,-4.696314812,1,-2.110273123,1,-8.200162888,1,0.050181024,1,0.012332791,1,-0.045496084,1,0.2347504496574402,1,-0.501315594,1,-0.36898905,1,0.003833771,1,-0.115323424,1,0.1413278579711914,1
0.739997685,-4.790726662,1,-2.094612598,1,-8.21346283,1,0.056477524,1,0.011702843,1,-0.044724021,1,0.2350612878799438,1,-0.501212358,1,-0.369180858,1,-0.09146452,1,-0.096957922,1,0.1278762817382813,1
0.743999243,-4.914588451,1,-2.103810787,1,-8.24119854,1,0.044883259,1,0.02199249,1,-0.042139579,1,0.2353514134883881,1,-0.501108825,1,-0.369355977,1,-0.21621418,1,-0.10362196,1,0.1000356674194336,1
0.747996926,-4.92008543,1,-2.103826523,1,-8.153346062,1,0.039751925,1,0.029370189,1,-0.039796982,1,0.2356044799089432,1,-0.500979841,1,-0.369519055,1,-0.222816944,1,-0.10138607,1,0.1879682540893555,1
0.751996398,-4.633041859,1,-2.129472494,1,-8.14263916,1,0.042012662,1,0.035565458,1,-0.037392169,1,0.2358346730470657,1,-0.500802338,1,-0.369659692,1,0.062703609,1,-0.124917507,1,0.1990242004394531,1
0.755997956,-4.681158066,1,-2.126739025,1,-8.20205307,1,0.044741623,1,0.030986773,1,-0.035995953,1,0.2360733896493912,1,-0.50065583,1,-0.369800985,1,0.01333046,1,-0.120031357,1,0.1398019790649414,1
0.759995401,-4.840093136,1,-2.179971695,1,-8.224476814,1,0.039607398,1,0.034534201,1,-0.036964405,1,0.2363034635782242,1,-0.500500083,1,-0.369921565,1,-0.146941185,1,-0.171173811,1,0.1176271438598633,1
0.763994873,-4.766602516,1,-2.195771694,1,-8.205429077,1,0.032454237,1,0.041210067,1,-0.032194767,1,0.2365158796310425,1,-0.500314891,1,-0.370046765,1,-0.075039864,1,-0.184997797,1,0.1370935440063477,1
0.76799643,-4.7186656,1,-2.229256392,1,-8.227680206,1,0.028551072,1,0.04364739,1,-0.032923076,1,0.2366867661476135,1,-0.500116944,1,-0.370143026,1,-0.028801441,1,-0.216839552,1,0.1154012680053711,1
0.771993876,-4.980132103,1,-2.326841354,1,-8.288596153,1,0.016522221,1,0.048323542,1,-0.011636706,1,0.2368131428956985,1,-0.499915451,1,-0.370198429,1,-0.291996956,1,-0.313148499,1,0.055149078,1
0.775993347,-4.489408493,1,-1.844893694,1,-8.323199272,1,0.010057622,1,0.069389194,1,-0.026390243,1,0.2368045598268509,1,-0.499640465,1,-0.370188862,1,0.1963658332824707,1,0.1690299510955811,1,0.0218153,1
0.779994607,-4.370163918,1,-2.172592878,1,-8.216077805,1,0.017359154,1,0.047260094,1,-0.028411545,1,0.2369190603494644,1,-0.499392211,1,-0.370260179,1,0.3134794235229492,1,-0.157440662,1,0.1298370361328125,1
0.78399229,-4.591559887,1,-2.062516928,1,-8.275507927,1,0.02013124,1,0.03581154,1,-0.024049014,1,0.2370224297046661,1,-0.499218851,1,-0.370322764,1,0.090594769,1,-0.046311617,1,0.070988655,1
0.787991524,-4.686743736,1,-2.014834642,1,-8.355049133,1,0.025867842,1,0.035976332,1,-0.027931225,1,0.237149253,1,-0.499057204,1,-0.370402306,1,-0.005977154,1,0.002606392,1,-0.008075714,1
0.791992843,-4.661326885,1,-2.063724518,1,-8.37407589,1,0.023225801,1,0.040577237,1,-0.025199678,1,0.2371772974729538,1,-0.498920083,1,-0.370385289,1,0.018262386,1,-0.045898199,1,-0.026534081,1
0.795990288,-4.749652386,1,-2.022194386,1,-8.288558006,1,0.015829597,1,0.033604726,1,-0.027096862,1,0.2372801899909973,1,-0.498720735,1,-0.370530307,1,-0.071775436,1,-0.003289461,1,0.0596838,1
0.799989522,-4.799824715,1,-2.032076836,1,-8.304402351,1,0.015223354,1,0.038448419,1,-0.028194848,1,0.237386167,1,-0.498559147,1,-0.370610297,1,-0.123335838,1,-0.012109518,1,0.044360161,1
0.803990781,-5.770768642,1,-2.218383074,1,-8.530424118,1,-0.003120637,1,0.054743849,1,0.004000704,1,0.2374469041824341,1,-0.498378307,1,-0.370657027,1,-1.095833302,1,-0.197710037,1,-0.180963516,1
0.807988465,-4.163580894,1,-1.533344865,1,-8.393622398,1,0.030092705,1,0.068581112,1,-0.041473482,1,0.2374478280544281,1,-0.498032808,1,-0.370649219,1,0.5083866119384766,1,0.4877158403396606,1,-0.042593002,1
0.811987698,-4.538910389,1,-1.607260346,1,-8.410532951,1,0.045045346,1,0.038714413,1,-0.043834284,1,0.2376743853092194,1,-0.497802645,1,-0.370796472,1,0.1310791969299316,1,0.4159456491470337,1,-0.058916092,1
0.815989256,-4.92088747,1,-1.671215534,1,-8.309561729,1,0.053072996,1,0.041932691,1,-0.051989216,1,0.2379638403654099,1,-0.497614443,1,-0.370965004,1,-0.252514839,1,0.3546152114868164,1,0.042324066,1
0.819992602,-5.021697044,1,-1.751930594,1,-8.538773537,1,0.062350776,1,0.047076583,1,-0.057818104,1,0.2382946312427521,1,-0.497386664,1,-0.371153206,1,-0.355282307,1,0.2769135236740112,1,-0.186525345,1
0.823992074,-4.62845993,1,-1.989412785,1,-8.157515526,1,0.06213199,1,0.063761264,1,-0.058361802,1,0.2386346459388733,1,-0.497125179,1,-0.371350884,1,0.035706997,1,0.04255867,1,0.1952238082885742,1
0.827993572,-4.609366894,1,-1.94588542,1,-8.205904007,1,0.069791578,1,0.059277207,1,-0.063380249,1,0.2390058189630508,1,-0.496826202,1,-0.371547461,1,0.052229881,1,0.089516878,1,0.1474380493164063,1
0.831991017,-4.765518188,1,-2.029529095,1,-8.342340469,1,0.074736305,1,0.058643118,1,-0.066605695,1,0.2394049167633057,1,-0.496534258,1,-0.371770948,1,-0.106431961,1,0.009529352,1,0.011509895,1
0.83599025,-6.144446373,1,-2.452497959,1,-8.762267113,1,0.03682496,1,0.073238745,1,-0.022626044,1,0.2397567927837372,1,-0.496237576,1,-0.371951014,1,-1.487911701,1,-0.410171986,1,-0.407793045,1
0.839991808,-3.944145679,1,-1.709508896,1,-8.293533325,1,0.085949875,1,0.087842055,1,-0.077929825,1,0.2400206178426743,1,-0.495769113,1,-0.372077227,1,0.7083597183227539,1,0.3355393409729004,1,0.062519073,1
0.843989253,-4.391656399,1,-1.802139163,1,-8.301690102,1,0.086886793,1,0.059899379,1,-0.078552581,1,0.2405035793781281,1,-0.495424777,1,-0.372350931,1,0.2578868865966797,1,0.2473260164260864,1,0.054929733,1
0.847988725,-4.904990196,1,-1.875579834,1,-8.284694672,1,0.09672185,1,0.067468822,1,-0.08633624,1,0.2409990578889847,1,-0.495122075,1,-0.372632504,1,-0.258051872,1,0.1783618927001953,1,0.072276115,1
0.851990283,-5.145309448,1,-1.845036149,1,-8.513637543,1,0.089660302,1,0.067981943,1,-0.088753402,1,0.2415306866168976,1,-0.49477753,1,-0.372947156,1,-0.501336575,1,0.2137299776077271,1,-0.156208992,1
0.855987966,-4.662295818,1,-2.123892307,1,-8.049658775,1,0.094929665,1,0.098127112,1,-0.085119687,1,0.2420458644628525,1,-0.494361967,1,-0.373231292,1,-0.021900177,1,-0.060358286,1,0.3085813522338867,1
0.859987199,-4.562411308,1,-1.923545241,1,-7.674141884,1,0.050903007,1,0.1412281692028046,1,-0.07123138,1,0.2424336671829224,1,-0.493890941,1,-0.373407871,1,0.073928833,1,0.1437541246414185,1,0.6854181289672852,1
0.863988757,-4.573208809,1,-1.878742933,1,-8.695993423,1,0.1084974855184555,1,0.071194619,1,-0.091922782,1,0.2429166436195374,1,-0.493377239,1,-0.373677373,1,0.05870676,1,0.1931674480438232,1,-0.335119247,1
0.867986202,-4.375269413,1,-2.096119404,1,-8.067242622,1,0.099607088,1,0.087894335,1,-0.095315136,1,0.2434809654951096,1,-0.49299556,1,-0.374002039,1,0.2533583641052246,1,-0.019066095,1,0.2941732406616211,1
0.871985674,-4.485770226,1,-2.01733923,1,-8.330126762,1,0.1075484827160835,1,0.076560773,1,-0.092264161,1,0.2440394014120102,1,-0.492577791,1,-0.374319553,1,0.1392579078674316,1,0.064850092,1,0.032004356,1
0.875986934,-4.451959133,1,-2.068513632,1,-8.518875122,1,0.1157169491052628,1,0.066364072,1,-0.088583097,1,0.2446341514587402,1,-0.492207736,1,-0.374636054,1,0.1698799133300781,1,0.019063711,1,-0.156322479,1
0.879984617,-5.458580971,1,-2.571957588,1,-8.343909264,1,0.037543565,1,0.1052500382065773,1,-0.049738795,1,0.2450938820838928,1,-0.491868228,1,-0.374859691,1,-0.839668751,1,-0.480154753,1,0.019207001,1
0.88398385,-4.024429321,1,-2.108002663,1,-8.628623962,1,0.1059630289673805,1,0.068158515,1,-0.087828167,1,0.2454939186573029,1,-0.491370589,1,-0.375095159,1,0.5901923179626465,1,-0.012296677,1,-0.264120102,1
0.88798517,-4.516073704,1,-2.233270168,1,-8.451246262,1,0.095500804,1,0.049153782,1,-0.082238324,1,0.2460315078496933,1,-0.491069436,1,-0.375403106,1,0.09595108,1,-0.132729769,1,-0.086522102,1
0.891982853,-5.127315998,1,-2.086323977,1,-8.759776115,1,0.090908654,1,0.040201589,1,-0.081899583,1,0.2465456128120422,1,-0.490824014,1,-0.375720769,1,-0.517407894,1,0.018793106,1,-0.39503479,1
0.895982087,-4.395012856,1,-2.264567137,1,-8.339669228,1,0.091605209,1,0.059434153,1,-0.081223294,1,0.2470525354146957,1,-0.49053672,1,-0.376021624,1,0.2124166488647461,1,-0.154886007,1,0.025287628,1
0.899983346,-4.49928236,1,-2.305242538,1,-8.551609039,1,0.087939195,1,0.044571556,1,-0.071319371,1,0.2475354969501495,1,-0.490270913,1,-0.376304835,1,0.1058540344238281,1,-0.191221952,1,-0.186485291,1
0.90398103,-4.306611061,1,-2.078831434,1,-7.936817169,1,0.038874459,1,0.085465685,1,-0.059262484,1,0.2478480041027069,1,-0.490022928,1,-0.376460046,1,0.2963852882385254,1,0.038083315,1,0.4287528991699219,1
0.907980263,-4.325838089,1,-2.356875181,1,-8.659741402,1,0.08169008,1,0.031875178,1,-0.071879297,1,0.2482568621635437,1,-0.489743471,1,-0.376707673,1,0.2747464179992676,1,-0.236224174,1,-0.293789864,1
0.911981821,-4.53194952,1,-2.460755587,1,-8.480672836,1,0.063195236,1,0.014060621,1,-0.058744986,1,0.2486638575792313,1,-0.489591539,1,-0.376963258,1,0.067323685,1,-0.336528301,1,-0.114910126,1
0.915979505,-4.615057945,1,-2.376923561,1,-8.539122581,1,0.065400988,1,0.015672129,1,-0.056462932,1,0.2490442544221878,1,-0.489461452,1,-0.377209783,1,-0.016907215,1,-0.24936676,1,-0.173588753,1
0.919978738,-4.661652088,1,-2.335448742,1,-8.471740723,1,0.061698768,1,0.017168606,1,-0.055311553,1,0.249415323,1,-0.489351988,1,-0.377450168,1,-0.064446449,1,-0.204663754,1,-0.106510162,1
0.923980296,-4.610691071,1,-2.225491762,1,-8.493970871,1,0.052927963,1,0.008835374,1,-0.050103325,1,0.2497395426034927,1,-0.489242315,1,-0.377660125,1,-0.01443243,1,-0.091869831,1,-0.128941536,1
0.927977741,-5.632184505,1,-2.598698139,1,-8.543656349,1,-0.009279988,1,0.036672458,1,-0.009330876,1,0.2499340176582336,1,-0.489152431,1,-0.377775878,1,-1.036701202,1,-0.463347197,1,-0.178642273,1
0.931977212,-4.199466705,1,-1.935095429,1,-8.476195335,1,0.056550004,1,0.017728338,1,-0.055260185,1,0.2500918507575989,1,-0.48894763,1,-0.377910733,1,0.3942480087280273,1,0.2018090486526489,1,-0.110606194,1
0.93597877,-4.537660599,1,-2.06774044,1,-8.50034523,1,0.047696806,1,-0.003572046,1,-0.05098971,1,0.2504008710384369,1,-0.488855749,1,-0.37812078,1,0.055260658,1,0.071852446,1,-0.135010719,1
0.939976215,-4.760647297,1,-2.004239798,1,-8.523429871,1,0.055567689,1,2.208258956670761e-05,1,-0.055548698,1,0.2507167458534241,1,-0.488806248,1,-0.378360271,1,-0.168153286,1,0.1380527019500732,1,-0.158548355,1
0.943975687,-4.825023651,1,-2.028162956,1,-8.42868042,1,0.062107105,1,0.006109115,1,-0.061247919,1,0.2510747909545898,1,-0.488736957,1,-0.378611803,1,-0.233128071,1,0.1172037124633789,1,-0.064257622,1
0.947977245,-4.919539928,1,-2.215711117,1,-8.444096565,1,0.058212988,1,0.007287889,1,-0.0406904,1,0.2514293789863586,1,-0.488653988,1,-0.378845334,1,-0.328360558,1,-0.067284107,1,-0.080065727,1
0.95197463,-4.264639854,1,-1.779155374,1,-8.246064186,1,0.0393847,1,0.043705218,1,-0.065090917,1,0.2516128718852997,1,-0.488507569,1,-0.378985167,1,0.3252749443054199,1,0.3709737062454224,1,0.1182231903076172,1
0.955974162,-4.402356625,1,-2.2735672,1,-8.288710594,1,0.055402406,1,0.017844178,1,-0.056305848,1,0.2519523799419403,1,-0.488353252,1,-0.37924248,1,0.186225414,1,-0.120422363,1,0.075529099,1
0.959975421,-4.666279793,1,-2.312881708,1,-8.272882462,1,0.050142303,1,0.014503767,1,-0.05158006,1,0.2522489726543427,1,-0.488259077,1,-0.379459977,1,-0.078511238,1,-0.157148123,1,0.091137886,1
0.963973105,-4.647396564,1,-2.396687984,1,-8.336053848,1,0.043153979,1,0.02139548,1,-0.04505555,1,0.2525237500667572,1,-0.488132507,1,-0.379650593,1,-0.060720921,1,-0.238511086,1,0.027936935,1
0.967972636,-4.61425972,1,-2.503230333,1,-8.286473274,1,0.02428055,1,0.034808364,1,-0.039257709,1,0.2527339458465576,1,-0.487974077,1,-0.37980625,1,-0.028953075,1,-0.343114138,1,0.077766418,1
0.971974134,-4.86421442,1,-2.707678318,1,-8.296497345,1,0.011968511,1,0.037408318,1,-0.010224992,1,0.2528522312641144,1,-0.487807125,1,-0.379890978,1,-0.280349731,1,-0.546381235,1,0.068227768,1
0.97597748,-4.217777729,1,-2.073753834,1,-7.619642735,1,-0.050230853,1,0.1032567769289017,1,-0.005507767,1,0.2526394724845886,1,-0.487588733,1,-0.379771441,1,0.3642001152038574,1,0.086014509,1,0.7465128898620605,1
0.979976952,-4.248890877,1,-2.503834963,1,-8.3741436,1,-0.023945535,1,0.053681076,1,0.005226132,1,0.2525046765804291,1,-0.487298369,1,-0.379698277,1,0.3305778503417969,1,-0.3448627,1,-0.006410599,1
0.983978212,-4.570275307,1,-2.407690287,1,-8.204450607,1,-0.03659879,1,0.052851561,1,0.00699287,1,0.2523292005062103,1,-0.487098634,1,-0.379612625,1,0.007466793,1,-0.249958277,1,0.1645469665527344,1
0.987975955,-4.93237114,1,-2.311656475,1,-8.303744316,1,-0.039716169,1,0.064501353,1,0.012547044,1,0.2521252632141113,1,-0.486874849,1,-0.379504561,1,-0.356562614,1,-0.155375004,1,0.066685677,1
0.991975188,-4.298547268,1,-2.068634272,1,-7.024170876,1,-0.109754503,1,0.1415116190910339,1,0.036304623,1,0.2516731023788452,1,-0.486617118,1,-0.37922895,1,0.2750329971313477,1,0.08415556,1,1.34837532,1
0.995976686,-4.355536938,1,-2.128430367,1,-8.680233955,1,-0.044760998,1,0.066742226,1,0.022349704,1,0.2513128519058228,1,-0.486227393,1,-0.379022896,1,0.2146739959716797,1,0.021786451,1,-0.305186272,1
0.99997443,-4.606787682,1,-2.202939749,1,-8.379103661,1,-0.060818002,1,0.063848965,1,0.014927708,1,0.25100708,1,-0.485990912,1,-0.378854036,1,-0.038621902,1,-0.055016279,1,-0.002355576,1
1.003973603,-4.927633286,1,-2.095606327,1,-8.471528053,1,-0.076291107,1,0.074752226,1,0.024445837,1,0.2506713271141052,1,-0.485728204,1,-0.378687918,1,-0.361739159,1,0.049801826,1,-0.092897415,1
1.007975221,-4.725261688,1,-2.582319021,1,-7.799125195,1,-0.124363333,1,0.1259234547615051,1,0.059184652,1,0.2501574754714966,1,-0.485424757,1,-0.378375888,1,-0.16199255,1,-0.440872908,1,0.5819516181945801,1
1.011972904,-4.107712269,1,-2.181293249,1,-8.70362854,1,-0.061087359,1,0.071313821,1,0.023455571,1,0.2496861964464188,1,-0.485039979,1,-0.378106773,1,0.4522280693054199,1,-0.04336381,1,-0.319843292,1
1.015972137,-4.507601738,1,-2.384068966,1,-8.436256409,1,-0.076874033,1,0.057906054,1,0.038228255,1,0.2493121176958084,1,-0.484828949,1,-0.37788862,1,0.050512314,1,-0.249037981,1,-0.050738335,1
1.019973636,-4.844369411,1,-2.284729481,1,-8.76798439,1,-0.094202466,1,0.058666982,1,0.044448279,1,0.2488624006509781,1,-0.484638363,1,-0.377642155,1,-0.287904263,1,-0.153256416,1,-0.380667686,1
1.023971081,-3.858522654,1,-2.442051172,1,-7.292508602,1,-0.147959694,1,0.1197758242487907,1,0.06781581,1,0.2481888681650162,1,-0.484418154,1,-0.377239466,1,0.6960365772247314,1,-0.315981388,1,1.097214221954346,1
1.027970552,-4.210251808,1,-2.251644373,1,-8.900622368,1,-0.088999137,1,0.036202803,1,0.057921823,1,0.2476069927215576,1,-0.484183103,1,-0.376908153,1,0.3422732353210449,1,-0.130194426,1,-0.508625984,1
1.031972051,-4.611067772,1,-2.323967457,1,-8.632547379,1,-0.106559962,1,0.030032173,1,0.069170855,1,0.2470652461051941,1,-0.484123856,1,-0.376590133,1,-0.059055805,1,-0.20699811,1,-0.239141464,1
1.035969496,-4.864359379,1,-2.221169233,1,-8.825663567,1,-0.112735659,1,0.028264321,1,0.071774721,1,0.2464722990989685,1,-0.484069318,1,-0.376259863,1,-0.312819481,1,-0.109116316,1,-0.430761337,1
1.039968967,-5.442461491,1,-3.02108717,1,-8.863033295,1,-0.180110127,1,0.043105345,1,0.1214389801025391,1,0.2457148283720016,1,-0.484032184,1,-0.375814706,1,-0.891242981,1,-0.915352106,1,-0.466368675,1
1.043970585,-3.966445923,1,-1.936989069,1,-8.844801903,1,-0.107843846,1,0.014196612,1,0.075215548,1,0.2449289709329605,1,-0.483883023,1,-0.375438809,1,0.5834813117980957,1,0.1623108386993408,1,-0.445828438,1
1.04796803,-4.493111134,1,-2.048514843,1,-8.680312157,1,-0.116266318,1,-0.00564498,1,0.082470484,1,0.2443078756332397,1,-0.483946204,1,-0.375063181,1,0.057363033,1,0.045498371,1,-0.280315399,1
1.051967263,-4.691684723,1,-1.799782515,1,-8.750541687,1,-0.105936356,1,-0.006366958,1,0.075293675,1,0.2437018305063248,1,-0.484049469,1,-0.374728024,1,-0.140316486,1,0.2890264987945557,1,-0.349732399,1
1.05597496,-4.547563076,1,-1.722663522,1,-8.801032066,1,-0.097236745,1,-0.017432282,1,0.077040292,1,0.2431516051292419,1,-0.484160572,1,-0.374406666,1,0.004766941,1,0.3614012002944946,1,-0.39956665,1
1.059978724,-4.427275181,1,-1.742087603,1,-8.778534889,1,-0.076157369,1,-0.038958713,1,0.066555105,1,0.2426642328500748,1,-0.484335333,1,-0.374113739,1,0.1265673637390137,1,0.3376913070678711,1,-0.376825333,1
1.063978791,-4.366206646,1,-1.722293735,1,-8.845790863,1,-0.066323124,1,-0.055509638,1,0.063119136,1,0.2422621101140976,1,-0.484588981,1,-0.373885334,1,0.1898312568664551,1,0.3538285493850708,1,-0.444369316,1
1.067980051,-4.405660152,1,-1.684900999,1,-8.848351479,1,-0.058195338,1,-0.076985464,1,0.0626138,1,0.2419224679470062,1,-0.484903902,1,-0.373681009,1,0.1531023979187012,1,0.3880243301391602,1,-0.447616577,1
1.071977735,-5.483362675,1,-2.211507082,1,-9.502069473,1,-0.066583924,1,-0.105625957,1,0.090899736,1,0.241599903,1,-0.485310495,1,-0.373484313,1,-0.92108202,1,-0.141735077,1,-1.102467537,1
1.075976968,-3.769832134,1,-1.347058058,1,-8.885334015,1,-0.004129582,1,-0.097825207,1,0.040275574,1,0.2413004785776138,1,-0.485669017,1,-0.373301119,1,0.7955498695373535,1,0.7198073863983154,1,-0.486701965,1
1.079978228,-4.566409111,1,-1.605674505,1,-8.766453743,1,-0.013705293,1,-0.130458385,1,0.043438699,1,0.2412440776824951,1,-0.48617208,1,-0.373253822,1,0.003323555,1,0.4601686000823975,1,-0.369934082,1
1.083975911,-4.624593258,1,-1.740869284,1,-8.776450157,1,0.008001961,1,-0.135681823,1,0.028372861,1,0.2412216365337372,1,-0.486726522,1,-0.373245537,1,-0.050067425,1,0.324178934,1,-0.382350922,1
1.087975144,-4.53885746,1,-1.842135429,1,-8.74783802,1,0.013666105,1,-0.14822787,1,0.029144432,1,0.241269588,1,-0.487305433,1,-0.373267889,1,0.040672302,1,0.2226824760437012,1,-0.356409073,1
1.091976762,-4.373893261,1,-1.678102374,1,-8.733779907,1,0.030918924,1,-0.176292166,1,0.019595087,1,0.2413946539163589,1,-0.487954646,1,-0.373336285,1,0.2112460136413574,1,0.3870543241500854,1,-0.345497131,1
1.095974445,-4.354135036,1,-1.403727412,1,-8.806864738,1,0.058149286,1,-0.201235697,1,0.010305012,1,0.2416378259658813,1,-0.488691747,1,-0.373466253,1,0.2373700141906738,1,0.6626602411270142,1,-0.422366142,1
1.099973679,-4.380021095,1,-1.38186121,1,-8.80751133,1,0.076341771,1,-0.220598847,1,-0.003768584,1,0.2420055270195007,1,-0.489514351,1,-0.373688877,1,0.2185859680175781,1,0.6867020130157471,1,-0.427447319,1
1.103975177,-4.537516594,1,-1.592065334,1,-8.717283249,1,0.092688836,1,-0.238702849,1,-0.011339864,1,0.2424872517585754,1,-0.490404665,1,-0.373976529,1,0.068774223,1,0.4795515537261963,1,-0.342191696,1
1.10797286,-4.557332039,1,-1.737101912,1,-8.650135994,1,0.1092819720506668,1,-0.249074042,1,-0.024133317,1,0.2430515289306641,1,-0.491327941,1,-0.374322295,1,0.056921482,1,0.3382164239883423,1,-0.280344009,1
1.111972094,-4.40319109,1,-1.614595056,1,-8.652752876,1,0.1212723851203918,1,-0.26372382,1,-0.036886074,1,0.2436962276697159,1,-0.492291629,1,-0.37473321,1,0.2193708419799805,1,0.465044379,1,-0.288621902,1
1.115973592,-4.466691017,1,-1.45810008,1,-8.620390892,1,0.1415102928876877,1,-0.277363122,1,-0.048513804,1,0.2444486171007156,1,-0.493297815,1,-0.37521863,1,0.1645407676696777,1,0.6267046928405762,1,-0.262346268,1
1.119971037,-4.468029022,1,-1.310941577,1,-8.55582428,1,0.1543046534061432,1,-0.292099178,1,-0.070225917,1,0.2453116327524185,1,-0.494339794,1,-0.375788093,1,0.1721758842468262,1,0.7799032926559448,1,-0.204264641,1
1.123970509,-4.632977009,1,-1.453869939,1,-8.62932682,1,0.169029564,1,-0.304250628,1,-0.081907488,1,0.2462772876024246,1,-0.495417833,1,-0.376457989,1,0.016506195,1,0.6438173055648804,1,-0.284647942,1
1.127972126,-4.494790554,1,-1.685446262,1,-8.50954628,1,0.1877182871103287,1,-0.309836596,1,-0.091374233,1,0.2473440915346146,1,-0.496525526,1,-0.37718749,1,0.1642208099365234,1,0.4198799133300781,1,-0.172107697,1
1.131969571,-4.387838364,1,-1.807305694,1,-8.625017166,1,0.1919561773538589,1,-0.320797622,1,-0.096585929,1,0.2484767884016037,1,-0.497650683,1,-0.37796402,1,0.2808451652526855,1,0.3061727285385132,1,-0.295055389,1
1.135975122,-4.565862656,1,-1.895163536,1,-8.622743607,1,0.1918086856603622,1,-0.32912156,1,-0.108071566,1,0.249629945,1,-0.498810023,1,-0.378787696,1,0.1127815246582031,1,0.2265806198120117,1,-0.300474167,1
1.13997674,-4.702180386,1,-1.718894124,1,-8.519860268,1,0.198443666,1,-0.337437153,1,-0.11580573,1,0.2508336901664734,1,-0.499999315,1,-0.379664987,1,-0.013325214,1,0.4114829301834106,1,-0.20554924,1
1.143974185,-4.724839211,1,-1.6534127,1,-8.416794777,1,0.2052611410617828,1,-0.337343991,1,-0.126605272,1,0.2520776093006134,1,-0.501186311,1,-0.380585909,1,-0.025800228,1,0.4859160184860229,1,-0.110533714,1
1.147973657,-4.611415386,1,-1.686498284,1,-8.446781158,1,0.2164970934391022,1,-0.347981095,1,-0.13185592,1,0.2533836662769318,1,-0.502377033,1,-0.381545484,1,0.09783411,1,0.4622732400894165,1,-0.148742676,1
1.151975155,-4.746764183,1,-1.773337722,1,-8.447731972,1,0.2284268289804459,1,-0.36033088,1,-0.142462134,1,0.2547560632228851,1,-0.503605723,1,-0.382551551,1,-0.026987076,1,0.3853598833084106,1,-0.158257484,1
1.155972838,-4.822599411,1,-1.908301711,1,-8.410288811,1,0.2337209135293961,1,-0.358304292,1,-0.15059112,1,0.2561905086040497,1,-0.504846275,1,-0.383608758,1,-0.092198849,1,0.2607980966567993,1,-0.129592896,1
1.15997231,-4.919050694,1,-1.861292481,1,-8.347390175,1,0.2402756363153458,1,-0.356477976,1,-0.165748402,1,0.2576664090156555,1,-0.506069124,1,-0.384730339,1,-0.17818594,1,0.3185502290725708,1,-0.075505257,1
1.163973927,-4.892716408,1,-1.644752502,1,-8.393528938,1,0.2519147992134094,1,-0.359623045,1,-0.180037051,1,0.2592105865478516,1,-0.507273316,1,-0.385897756,1,-0.141553879,1,0.5463964939117432,1,-0.130543709,1
1.167971611,-4.790009022,1,-1.519673109,1,-8.452609062,1,0.2717870771884918,1,-0.361597657,1,-0.186697707,1,0.26086387,1,-0.508482397,1,-0.38713634,1,-0.028514385,1,0.6836519241333008,1,-0.198810577,1
1.171970844,-4.978925228,1,-1.50020802,1,-8.194562912,1,0.2946062386035919,1,-0.369271189,1,-0.201178849,1,0.262638658,1,-0.509689391,1,-0.388434112,1,-0.207122803,1,0.7162688970565796,1,0.049757004,1
1.175972104,-5.231743336,1,-1.744613409,1,-8.115708351,1,0.3086302280426025,1,-0.3596071,1,-0.21365653,1,0.2645164728164673,1,-0.510880649,1,-0.389784098,1,-0.449774742,1,0.4858517646789551,1,0.1189384460449219,1
1.179969788,-5.031308174,1,-2.053542852,1,-8.12143898,1,0.3293155431747437,1,-0.342024833,1,-0.213474169,1,0.2664653956890106,1,-0.512012362,1,-0.391145468,1,-0.239687443,1,0.1915411949157715,1,0.1036243438720703,1
1.183969021,-4.922262669,1,-2.446599483,1,-8.126081467,1,0.3216400742530823,1,-0.329225391,1,-0.207640797,1,0.2684145569801331,1,-0.513091326,1,-0.392478347,1,-0.121445656,1,-0.186859846,1,0.089599609,1
1.187970519,-4.83349371,1,-2.665944099,1,-8.051990509,1,0.311516672,1,-0.319371194,1,-0.197645381,1,0.2703253924846649,1,-0.514125705,1,-0.393780351,1,-0.023865223,1,-0.391836643,1,0.1545696258544922,1
1.191968203,-4.915437698,1,-2.709503174,1,-7.991799831,1,0.2997841835021973,1,-0.309657812,1,-0.180669144,1,0.2721523344516754,1,-0.515143991,1,-0.395005345,1,-0.097140312,1,-0.42172575,1,0.205864429,1
1.195967436,-5.022118092,1,-2.788957357,1,-7.876810074,1,0.2868947684764862,1,-0.300352991,1,-0.170244709,1,0.2739050984382629,1,-0.516131103,1,-0.396162629,1,-0.195421219,1,-0.488101244,1,0.3122520446777344,1
1.199969053,-5.004187107,1,-2.645111561,1,-7.893484592,1,0.2715228199958801,1,-0.287544489,1,-0.159092471,1,0.2755718231201172,1,-0.517087042,1,-0.397272259,1,-0.169361591,1,-0.331867456,1,0.287285328,1
1.203966737,-5.09877634,1,-2.487258434,1,-7.925130844,1,0.2638376653194427,1,-0.280000448,1,-0.15618071,1,0.2771615386009216,1,-0.518006921,1,-0.398327529,1,-0.256132603,1,-0.1622293,1,0.2476730346679688,1
1.20796597,-5.145020962,1,-2.416181803,1,-7.977903366,1,0.259576142,1,-0.268231571,1,-0.148390889,1,0.278720349,1,-0.518883228,1,-0.399348289,1,-0.294933319,1,-0.079585552,1,0.1871795654296875,1
1.211973667,-4.918251991,1,-2.659910202,1,-8.056354523,1,0.2475884854793549,1,-0.263128519,1,-0.131560177,1,0.280212939,1,-0.519744337,1,-0.40030843,1,-0.060852528,1,-0.312285423,1,0.1012153625488281,1
1.21597743,-4.734542847,1,-3.101235867,1,-8.003479958,1,0.2271074205636978,1,-0.271788239,1,-0.119675696,1,0.2816078066825867,1,-0.520633876,1,-0.401196897,1,0.1304059028625488,1,-0.743435383,1,0.1466550827026367,1
1.219977498,-4.776648521,1,-3.311671972,1,-7.944443703,1,0.1960129886865616,1,-0.296749204,1,-0.104932204,1,0.2828866243362427,1,-0.521596074,1,-0.402064383,1,0.096461296,1,-0.944757938,1,0.1981725692749023,1
1.223978996,-5.078942776,1,-3.369278908,1,-7.829446793,1,0.1630815714597702,1,-0.29254055,1,-0.085588723,1,0.2840029001235962,1,-0.522618592,1,-0.402876109,1,-0.197165012,1,-0.994674444,1,0.3057346343994141,1
1.227976441,-5.232928753,1,-3.228762388,1,-7.707081795,1,0.1327526122331619,1,-0.276712328,1,-0.073182255,1,0.2849516570568085,1,-0.523625672,1,-0.403599888,1,-0.342618465,1,-0.847824574,1,0.4211187362670898,1
1.231975675,-5.214912891,1,-2.909844875,1,-7.746542454,1,0.1204717829823494,1,-0.264481574,1,-0.05871845,1,0.2857744991779327,1,-0.524590611,1,-0.404244035,1,-0.316431999,1,-0.523551464,1,0.3751635551452637,1
1.235977173,-5.112866879,1,-2.846066952,1,-7.773550987,1,0.099417239,1,-0.244143784,1,-0.050238535,1,0.2865018248558044,1,-0.525503993,1,-0.4048177,1,-0.206656456,1,-0.455131292,1,0.3421268463134766,1
1.239974618,-5.105261803,1,-2.798348904,1,-7.771774769,1,0.087155096,1,-0.227545217,1,-0.040755335,1,0.2871337234973907,1,-0.526354134,1,-0.405332536,1,-0.191860676,1,-0.403467655,1,0.338386059,1
1.24397409,-5.049304008,1,-2.775777578,1,-7.858201504,1,0.077676669,1,-0.213127255,1,-0.028927414,1,0.2876966893672943,1,-0.527146518,1,-0.405785203,1,-0.129203796,1,-0.377437115,1,0.2468724250793457,1
1.247975707,-5.13642025,1,-2.685697794,1,-7.902790546,1,0.05982776,1,-0.193561599,1,-0.025409935,1,0.2881584167480469,1,-0.527902126,1,-0.406164885,1,-0.209934235,1,-0.284671783,1,0.1976094245910645,1
1.251973391,-5.036056519,1,-2.70239687,1,-7.875322819,1,0.051231429,1,-0.182506084,1,-0.017595664,1,0.2885498404502869,1,-0.52859658,1,-0.406499624,1,-0.103704453,1,-0.299174309,1,0.2208552360534668,1
1.255972862,-5.001266003,1,-2.654009342,1,-7.953452587,1,0.039914031,1,-0.17267561,1,-0.003922854,1,0.2888714075088501,1,-0.529266298,1,-0.406772375,1,-0.063259125,1,-0.249125719,1,0.1387810707092285,1
1.259974122,-5.104261398,1,-2.566749096,1,-7.995258808,1,0.033977471,1,-0.169060931,1,-0.000169054,1,0.2891413569450378,1,-0.529914856,1,-0.407011449,1,-0.160780907,1,-0.160594225,1,0.093256474,1
1.263971806,-5.014764786,1,-2.432795763,1,-8.030708313,1,0.03570506,1,-0.1592291,1,-0.001288423,1,0.2893860638141632,1,-0.530540049,1,-0.407228678,1,-0.066009045,1,-0.02554369,1,0.054255486,1
1.267971039,-5.026257038,1,-2.360617399,1,-8.098487854,1,0.02901802,1,-0.158396944,1,4.680408164858818e-05,1,0.2896130681037903,1,-0.531154871,1,-0.407428265,1,-0.072315693,1,0.047599554,1,-0.016990662,1
1.271972299,-5.002709389,1,-2.267859697,1,-8.139908791,1,0.035653595,1,-0.160366058,1,0.006466996,1,0.2898393273353577,1,-0.531755626,1,-0.407631963,1,-0.043703556,1,0.1413352489471436,1,-0.06180954,1
1.275969744,-5.044402599,1,-2.35515976,1,-8.108370781,1,0.038748402,1,-0.153259382,1,0.004467539,1,0.2900879979133606,1,-0.532358587,1,-0.407822311,1,-0.080314636,1,0.055187941,1,-0.033738136,1
1.279968977,-4.936089516,1,-2.527026892,1,-8.071777344,1,0.038153037,1,-0.153361633,1,0.012162253,1,0.2903308272361755,1,-0.532952309,1,-0.407988608,1,0.033000946,1,-0.115562439,1,-0.000553131,1
1.283970594,-4.863186836,1,-2.550716639,1,-8.082158089,1,0.0376838,1,-0.154931545,1,0.020333914,1,0.2905515432357788,1,-0.53356123,1,-0.40812099,1,0.1110324859619141,1,-0.138339043,1,-0.014370918,1
1.287968278,-4.918264389,1,-2.502851725,1,-8.0667696,1,0.033902515,1,-0.157121345,1,0.023676382,1,0.2907567024230957,1,-0.534172356,1,-0.408233732,1,0.061100006,1,-0.089690924,1,-0.002390862,1
1.291973591,-4.88760376,1,-2.449524403,1,-8.056191444,1,0.038697463,1,-0.15552485,1,0.026479408,1,0.2908201217651367,1,-0.534792781,1,-0.408198416,1,0.096982002,1,-0.036737204,1,0.005076408,1
1.295975447,-4.88793993,1,-2.354331255,1,-8.071172714,1,0.035513438,1,-0.150381655,1,0.025994699,1,0.2909993827342987,1,-0.535378695,1,-0.408341229,1,0.1015748977661133,1,0.059062004,1,-0.013136864,1
1.29997313,-4.964819908,1,-2.266751289,1,-8.037361145,1,0.039958745,1,-0.155161113,1,0.025909066,1,0.2912035584449768,1,-0.536007941,1,-0.408422619,1,0.029986858,1,0.1473863124847412,1,0.017174721,1
1.303972363,-5.065629959,1,-2.104636192,1,-8.077320099,1,0.04985258,1,-0.157440767,1,0.020959189,1,0.2914324104785919,1,-0.536640167,1,-0.408527106,1,-0.065508366,1,0.3104355335235596,1,-0.026367188,1
1.307973862,-4.877009392,1,-1.804988503,1,-8.240876198,1,0.062113121,1,-0.155551851,1,0.011612855,1,0.2917309999465942,1,-0.537262082,1,-0.408662587,1,0.1283392906188965,1,0.6115928888320923,1,-0.193622589,1
1.311971545,-4.598484039,1,-1.487903118,1,-8.520597458,1,0.089110591,1,-0.173069984,1,-0.027881183,1,0.2921608686447144,1,-0.537884533,1,-0.40893364,1,0.4120936393737793,1,0.9312398433685303,1,-0.477367401,1
1.315971017,-4.980145931,1,-2.297092438,1,-8.636757851,1,0.098585367,1,-0.152361214,1,0.025410518,1,0.292664647,1,-0.538552523,1,-0.409121245,1,0.036041737,1,0.1251344680786133,1,-0.597958565,1
1.319972634,-4.830809593,1,-2.972584009,1,-7.998678684,1,0.099375702,1,-0.163378298,1,-0.001508943,1,0.2931563258171082,1,-0.539138258,1,-0.409297556,1,0.1902947425842285,1,-0.54725337,1,0.036117077,1
1.323970079,-4.965101719,1,-2.5807724,1,-8.197634697,1,0.084304154,1,-0.169384122,1,0.036102466,1,0.2935955822467804,1,-0.539808989,1,-0.409457088,1,0.061630726,1,-0.152888298,1,-0.167132378,1
1.327969551,-5.071640491,1,-3.258188725,1,-7.899568081,1,0.070399441,1,-0.163430363,1,0.045235202,1,0.2939340174198151,1,-0.540493131,1,-0.409505665,1,-0.039169788,1,-0.828583241,1,0.1268210411071777,1
1.331971049,-5.132192135,1,-3.405765057,1,-7.911678791,1,0.050811056,1,-0.160897255,1,0.06370502,1,0.2941799759864807,1,-0.541182637,1,-0.409491897,1,-0.093940258,1,-0.975191593,1,0.1107916831970215,1
1.335968494,-5.081622601,1,-3.128717422,1,-7.885921478,1,0.027294572,1,-0.158406064,1,0.079254501,1,0.2942700088024139,1,-0.541867375,1,-0.409377724,1,-0.037631989,1,-0.698423624,1,0.1330242156982422,1
1.339967966,-5.128680706,1,-2.982678413,1,-7.915364265,1,0.015904415,1,-0.150049835,1,0.1012128442525864,1,0.2942557334899902,1,-0.542563498,1,-0.409177989,1,-0.078858376,1,-0.553517818,1,0.1002559661865234,1
1.343969584,-5.22415638,1,-2.884459734,1,-7.857606411,1,-0.001577571,1,-0.141566694,1,0.1064465865492821,1,0.2941415905952454,1,-0.543247044,1,-0.408909291,1,-0.168610096,1,-0.457216024,1,0.1549811363220215,1
1.347967267,-5.244383335,1,-2.714615583,1,-7.891773701,1,-0.017557772,1,-0.137380794,1,0.1139174848794937,1,0.2939318418502808,1,-0.543920219,1,-0.408596277,1,-0.183202267,1,-0.290038824,1,0.1180663108825684,1
1.351966739,-5.260117054,1,-2.648202181,1,-7.867889881,1,-0.015428958,1,-0.13087377,1,0.1196069717407227,1,0.2937055826187134,1,-0.544580042,1,-0.408250749,1,-0.193415165,1,-0.226405382,1,0.1392989158630371,1
1.355967999,-5.179628372,1,-2.655246735,1,-7.848694324,1,-0.032248143,1,-0.124855742,1,0.1226511597633362,1,0.2934163808822632,1,-0.545209706,1,-0.407876521,1,-0.10766077,1,-0.236689568,1,0.1561369895935059,1
1.359965682,-5.184522152,1,-2.57297349,1,-7.9149189,1,-0.034957539,1,-0.12037015,1,0.1259135156869888,1,0.2930887043476105,1,-0.545834064,1,-0.407497376,1,-0.107334137,1,-0.157953262,1,0.087675095,1
1.363964915,-5.194004536,1,-2.591951847,1,-7.894227028,1,-0.047475886,1,-0.117839687,1,0.128149003,1,0.2927141785621643,1,-0.546440005,1,-0.407084107,1,-0.111752033,1,-0.180818319,1,0.1063203811645508,1
1.367966175,-5.135102272,1,-2.556224108,1,-7.937880993,1,-0.050203767,1,-0.117291234,1,0.1274110972881317,1,0.2923003137111664,1,-0.547031879,1,-0.406669855,1,-0.047905445,1,-0.14926815,1,0.060784817,1
1.37197566,-5.119687557,1,-2.627185106,1,-7.887547493,1,-0.061750237,1,-0.124563575,1,0.1353899538516998,1,0.2918564975261688,1,-0.547638416,1,-0.406241685,1,-0.027425289,1,-0.224667311,1,0.1092305183410645,1
1.375981331,-4.940151691,1,-2.549131632,1,-7.797290802,1,-0.079575516,1,-0.101145945,1,0.1422415524721146,1,0.2913124561309814,1,-0.548240423,1,-0.405755043,1,0.1571364402770996,1,-0.151845455,1,0.1978549957275391,1
1.379982829,-4.959043026,1,-2.691195488,1,-7.91523838,1,-0.076932587,1,-0.133761019,1,0.1437854617834091,1,0.2907688617706299,1,-0.54887265,1,-0.405282557,1,0.143521786,1,-0.299180031,1,0.078120708,1
1.383980513,-5.026533604,1,-2.587213278,1,-7.964305401,1,-0.082480699,1,-0.138935849,1,0.1605640053749084,1,0.2901769578456879,1,-0.54956305,1,-0.404778302,1,0.081789494,1,-0.200939417,1,0.027087688,1
1.387979746,-5.104655743,1,-2.518398762,1,-7.959788322,1,-0.085186437,1,-0.133682698,1,0.1696209013462067,1,0.2895555794239044,1,-0.550263524,1,-0.404216647,1,0.009508133,1,-0.138113022,1,0.029655933,1
1.391981363,-5.097403049,1,-2.49824357,1,-7.985936165,1,-0.088819958,1,-0.131012633,1,0.171867773,1,0.2889064848423004,1,-0.550964713,1,-0.403626442,1,0.022605419,1,-0.124165773,1,0.001614094,1
1.395979047,-5.084123611,1,-2.387492895,1,-8.029213905,1,-0.087946512,1,-0.137808681,1,0.1728411763906479,1,0.2882388830184937,1,-0.551675498,1,-0.403030574,1,0.041806698,1,-0.019783497,1,-0.043572903,1
1.39997828,-5.094581604,1,-2.131422281,1,-8.087729454,1,-0.077745311,1,-0.139298871,1,0.1747748255729675,1,0.2875927686691284,1,-0.552410841,1,-0.402429819,1,0.037471771,1,0.2300565242767334,1,-0.104178429,1
1.403979778,-5.080596924,1,-2.142172337,1,-8.207116127,1,-0.06770955,1,-0.144944638,1,0.1713760495185852,1,0.2869961261749268,1,-0.553169012,1,-0.40183714,1,0.057766914,1,0.2134404182434082,1,-0.225892544,1
1.407977223,-5.062520504,1,-2.07890439,1,-8.229457855,1,-0.056104209,1,-0.15992786,1,0.1649419367313385,1,0.2864546179771423,1,-0.553952217,1,-0.401276529,1,0.082359314,1,0.2712492942810059,1,-0.250819206,1
1.411976695,-5.238759995,1,-2.015470028,1,-8.311853409,1,-0.048536256,1,-0.174169898,1,0.1657293885946274,1,0.2859631478786469,1,-0.554779351,1,-0.400750548,1,-0.087001801,1,0.3295595645904541,1,-0.336149693,1
1.415978193,-4.621292591,1,-1.824592233,1,-8.316280365,1,-0.026268695,1,-0.163970992,1,0.1481621861457825,1,0.2854950726032257,1,-0.555570424,1,-0.400227249,1,0.5370402336120605,1,0.5155566930770874,1,-0.343390465,1
1.419975638,-5.005063534,1,-1.894718647,1,-8.362268448,1,-0.00170026,1,-0.204581186,1,0.1451797038316727,1,0.2852288782596588,1,-0.556475341,1,-0.399811387,1,0.1607861518859863,1,0.4419937133789063,1,-0.393237114,1
1.42397511,-5.150081158,1,-1.944740534,1,-8.3858881,1,0.006580163,1,-0.219251901,1,0.1343209892511368,1,0.2850562930107117,1,-0.557447314,1,-0.399457932,1,0.023838043,1,0.3891825675964355,1,-0.421278,1
1.427976727,-5.172921181,1,-1.777274489,1,-8.400184631,1,0.027699426,1,-0.230131626,1,0.1256663650274277,1,0.2849757075309753,1,-0.558454394,1,-0.399173677,1,0.009354115,1,0.5545412302017212,1,-0.440389156,1
1.431974173,-5.106665611,1,-1.720152617,1,-8.409211159,1,0.056785975,1,-0.254275441,1,0.1155237630009651,1,0.2850149869918823,1,-0.559521675,1,-0.398949564,1,0.084458351,1,0.6104185581207275,1,-0.45482254,1
1.435973406,-5.043134212,1,-1.759095788,1,-8.418398857,1,0.080327585,1,-0.273902565,1,0.108499788,1,0.2851938605308533,1,-0.560656905,1,-0.398781776,1,0.1573963165283203,1,0.571238637,1,-0.470088005,1
1.439974904,-5.026454449,1,-1.816359401,1,-8.558320045,1,0.094108418,1,-0.294128388,1,0.100792684,1,0.2854974269866943,1,-0.56185323,1,-0.398683757,1,0.1839814186096191,1,0.5146332979202271,1,-0.61669302,1
1.443972588,-4.940921307,1,-1.715849996,1,-8.466442108,1,0.1403245031833649,1,-0.319491267,1,0.097401574,1,0.2859412133693695,1,-0.563145518,1,-0.398639292,1,0.2802062034606934,1,0.6167665719985962,1,-0.532315731,1
1.447971821,-4.923665524,1,-1.940795064,1,-8.410881996,1,0.1581875085830688,1,-0.338929236,1,0.094928086,1,0.2865383625030518,1,-0.564513206,1,-0.398643821,1,0.3087677955627441,1,0.3945385217666626,1,-0.485005379,1
1.451973319,-4.966468811,1,-1.87844193,1,-8.437903404,1,0.1768600791692734,1,-0.365205288,1,0.085308477,1,0.2872493863105774,1,-0.565967083,1,-0.398714423,1,0.2779717445373535,1,0.4603689908981323,1,-0.52099371,1
1.455971122,-4.964173794,1,-1.83240068,1,-8.483495712,1,0.211186022,1,-0.387273341,1,0.08500471,1,0.2880781888961792,1,-0.567511618,1,-0.398825735,1,0.2930111885070801,1,0.5106674432754517,1,-0.576301575,1
1.459970355,-4.946893692,1,-2.012540817,1,-8.490470886,1,0.2223824560642242,1,-0.415090978,1,0.084153444,1,0.2890327572822571,1,-0.569150329,1,-0.398987114,1,0.3237981796264648,1,0.3356151580810547,1,-0.593785286,1
1.463971615,-5.043363094,1,-1.861906528,1,-8.326805115,1,0.2389262467622757,1,-0.444453537,1,0.07346113,1,0.2900761365890503,1,-0.570883512,1,-0.399215877,1,0.2415995597839355,1,0.4918708801269531,1,-0.44133997,1
1.467969298,-5.129700661,1,-1.779636025,1,-8.456543922,1,0.2642889022827148,1,-0.464468598,1,0.07458093,1,0.2912260293960571,1,-0.572704911,1,-0.39948532,1,0.1702423095703125,1,0.5804399251937866,1,-0.583022594,1
1.471968532,-5.075971127,1,-2.047455311,1,-8.448591232,1,0.2780718505382538,1,-0.487555087,1,0.072731368,1,0.2924785017967224,1,-0.574612141,1,-0.399789482,1,0.2396388053894043,1,0.319561243,1,-0.58772707,1
1.47597003,-4.850962639,1,-2.317993641,1,-8.429623604,1,0.2810919582843781,1,-0.51628685,1,0.073684737,1,0.2938039898872375,1,-0.576622248,1,-0.400154114,1,0.4811387062072754,1,0.056340218,1,-0.582148552,1
1.479967475,-5.017305374,1,-2.346131086,1,-8.340747833,1,0.2923375964164734,1,-0.555180609,1,0.079916753,1,0.2951683104038239,1,-0.578773797,1,-0.400545865,1,0.3324236869812012,1,0.035565615,1,-0.507509708,1
1.483966708,-5.136601448,1,-2.438219547,1,-8.333855629,1,0.3099819123744965,1,-0.569716871,1,0.094536275,1,0.2965757846832275,1,-0.581034184,1,-0.400923818,1,0.2316203117370605,1,-0.049041271,1,-0.515565395,1
1.487968206,-5.121054173,1,-2.661429882,1,-8.319960594,1,0.3173767328262329,1,-0.596958041,1,0.1107999905943871,1,0.2980213165283203,1,-0.583385944,1,-0.40127036,1,0.2663788795471191,1,-0.264666319,1,-0.517223358,1
1.491966009,-4.968061447,1,-2.957994699,1,-8.320249557,1,0.315539539,1,-0.620375752,1,0.1292320191860199,1,0.2994690239429474,1,-0.585846126,1,-0.401586771,1,0.4394364356994629,1,-0.553855658,1,-0.533678532,1
1.495965242,-4.991009712,1,-3.06021595,1,-8.218100548,1,0.3039094209671021,1,-0.651925027,1,0.1489441096782684,1,0.3008565306663513,1,-0.588427961,1,-0.401857793,1,0.4375104904174805,1,-0.649419785,1,-0.44823122,1
1.499966741,-5.02052021,1,-2.883553267,1,-8.273892403,1,0.3127813041210175,1,-0.670858681,1,0.1765653043985367,1,0.3022039532661438,1,-0.591156304,1,-0.402072102,1,0.4301753044128418,1,-0.466707706,1,-0.521448612,1
1.503964186,-5.198417664,1,-2.971681118,1,-8.21326828,1,0.3235982060432434,1,-0.692434251,1,0.1987837702035904,1,0.3035495281219482,1,-0.593991935,1,-0.402197838,1,0.2752828598022461,1,-0.549034595,1,-0.478860855,1
1.507963657,-5.167815685,1,-3.133441448,1,-8.199636459,1,0.3238195478916168,1,-0.71705389,1,0.2283719927072525,1,0.3048592209815979,1,-0.596934617,1,-0.402232885,1,0.3297114372253418,1,-0.705512762,1,-0.483806133,1
1.511965156,-5.165826321,1,-3.30255723,1,-8.427096367,1,0.3170968294143677,1,-0.750448823,1,0.2501735389232635,1,0.3061199188232422,1,-0.600013912,1,-0.402208418,1,0.3565821647644043,1,-0.87001729,1,-0.730515003,1
1.515962601,-5.047050476,1,-3.683785677,1,-8.554476738,1,0.2605059444904327,1,-0.78375113,1,0.2615011930465698,1,0.3072622418403625,1,-0.60325098,1,-0.402147084,1,0.5014581680297852,1,-1.247874975,1,-0.877757549,1
1.519962072,-4.668102264,1,-3.047098398,1,-8.432052612,1,0.2420008033514023,1,-0.848080397,1,0.2849857807159424,1,0.3082104027271271,1,-0.606688976,1,-0.402087867,1,0.9080629348754883,1,-0.609710693,1,-0.775867939,1
1.52396369,-5.124187946,1,-2.912338495,1,-8.616751671,1,0.2590411305427551,1,-0.887344658,1,0.314240038,1,0.3091497421264648,1,-0.610359251,1,-0.401987106,1,0.4814291000366211,1,-0.474002838,1,-0.982405663,1
1.527966738,-5.219620705,1,-3.173838139,1,-8.587306023,1,0.2739759087562561,1,-0.919083238,1,0.3312294185161591,1,0.3101415634155273,1,-0.614182889,1,-0.401847482,1,0.4165992736816406,1,-0.734491348,1,-0.975850105,1
1.531966209,-4.93337965,1,-3.227959871,1,-8.654036522,1,0.2748349606990814,1,-0.97062552,1,0.3558974862098694,1,0.3111278712749481,1,-0.618197918,1,-0.401660085,1,0.7348856925964355,1,-0.788054943,1,-1.066596031,1
1.535967708,-5.029791355,1,-3.426055193,1,-8.662704468,1,0.2643105089664459,1,-1.024765134,1,0.3808594644069672,1,0.3120878934860229,1,-0.622441709,1,-0.401439726,1,0.6722469329833984,1,-0.986275911,1,-1.10057354,1
1.539965391,-5.011900902,1,-3.963311434,1,-9.046868324,1,0.2067296355962753,1,-1.093937635,1,0.4124830365180969,1,0.3128898739814758,1,-0.626968503,1,-0.401175737,1,0.72604847,1,-1.525437593,1,-1.511329651,1
1.543964982,-4.478981018,1,-3.472103834,1,-8.683235168,1,0.1826810538768768,1,-1.166672945,1,0.4308953285217285,1,0.3134888112545013,1,-0.631730199,1,-0.400980771,1,1.296616077423096,1,-1.038170099,1,-1.175232887,1
1.547966242,-5.058971882,1,-3.207480431,1,-8.777630806,1,0.1754648834466934,1,-1.235060334,1,0.4614885449409485,1,0.3140486776828766,1,-0.636855364,1,-0.400712878,1,0.7570009231567383,1,-0.77851963,1,-1.299244404,1
1.551963687,-5.075508595,1,-3.052448511,1,-8.995733261,1,0.2016053944826126,1,-1.294542909,1,0.4879651963710785,1,0.3146104216575623,1,-0.642260194,1,-0.400415599,1,0.7828769683837891,1,-0.629050255,1,-1.548713684,1
1.555963159,-4.923988342,1,-3.135818958,1,-8.96045208,1,0.2188415229320526,1,-1.363322735,1,0.4976373016834259,1,0.3152770102024078,1,-0.647917032,1,-0.400130183,1,0.9786033630371094,1,-0.717770338,1,-1.546670914,1
1.559964418,-4.854811192,1,-3.155888557,1,-9.126419067,1,0.2193706035614014,1,-1.440921783,1,0.5140154957771301,1,0.3160214722156525,1,-0.65388,1,-0.399905592,1,1.094175815582275,1,-0.743304253,1,-1.748028278,1
1.563961864,-5.042384148,1,-3.501056433,1,-9.313020706,1,0.1942543238401413,1,-1.541182756,1,0.5366329550743103,1,0.3167715072631836,1,-0.660199583,1,-0.399749994,1,0.9555416107177734,1,-1.094698429,1,-1.972314358,1
1.567961097,-4.553212643,1,-2.916286469,1,-9.193729401,1,0.1764881461858749,1,-1.629937887,1,0.5318596363067627,1,0.3174393773078918,1,-0.666894436,1,-0.399668604,1,1.496295928955078,1,-0.517613888,1,-1.892944813,1
1.571962595,-4.564673901,1,-2.526104212,1,-9.376496315,1,0.1894731372594833,1,-1.758211017,1,0.5455151796340942,1,0.3182291984558105,1,-0.674008846,1,-0.399762779,1,1.539353847503662,1,-0.135194063,1,-2.118673325,1
1.575960279,-4.751199245,1,-2.419453144,1,-9.503676414,1,0.2009711265563965,1,-1.868185639,1,0.5522907376289368,1,0.319151759,1,-0.681579173,1,-0.399992883,1,1.410501480102539,1,-0.036414862,1,-2.292144775,1
1.579959512,-4.85914135,1,-2.323130369,1,-9.802660942,1,0.2140207588672638,1,-1.996658325,1,0.5507282018661499,1,0.3202701508998871,1,-0.689606607,1,-0.40043512,1,1.363329410552979,1,0.05232358,1,-2.640976429,1
1.583961368,-4.800027847,1,-2.49039197,1,-10.01785755,1,0.2265205383300781,1,-2.136623383,1,0.5570866465568542,1,0.3215866684913635,1,-0.698142171,1,-0.401109397,1,1.486618995666504,1,-0.122385025,1,-2.909953594,1
1.58795929,-5.072466373,1,-2.783480167,1,-10.25157261,1,0.1875106394290924,1,-2.267957687,1,0.5671815276145935,1,0.322966605,1,-0.707218468,1,-0.40196076,1,1.281920433044434,1,-0.423875809,1,-3.201349258,1
1.591958523,-4.036326408,1,-2.20212841,1,-10.15869045,1,0.2154448181390762,1,-2.431135178,1,0.5499390959739685,1,0.3245058357715607,1,-0.716831803,1,-0.403121263,1,2.389236450195313,1,0.1487393379211426,1,-3.17032814,1
1.595960021,-3.981314898,1,-1.976566076,1,-10.07652092,1,0.2729482352733612,1,-2.613167048,1,0.5439737439155579,1,0.3265072107315063,1,-0.727080584,1,-0.404660523,1,2.519475698471069,1,0.3670370578765869,1,-3.155620575,1
1.599957466,-4.345165253,1,-2.691119194,1,-10.38586998,1,0.2921837568283081,1,-2.776864767,1,0.557878315,1,0.3288964033126831,1,-0.738004208,1,-0.406537771,1,2.235054016113281,1,-0.354063034,1,-3.538201809,1
1.603956938,-4.373590946,1,-3.181040049,1,-10.4076128,1,0.2961997389793396,1,-2.964010954,1,0.5860426425933838,1,0.331509918,1,-0.74960196,1,-0.408658683,1,2.290099620819092,1,-0.851093054,1,-3.638698578,1
1.607964635,-4.373128414,1,-3.517569304,1,-10.57646275,1,0.3149565458297729,1,-3.143589735,1,0.6050429940223694,1,0.3343754410743713,1,-0.761923194,1,-0.411052972,1,2.378257751464844,1,-1.1953578,1,-3.892320633,1
1.611968279,-4.770620346,1,-4.550220966,1,-10.96776676,1,0.2684171497821808,1,-3.331576109,1,0.6883784532546997,1,0.3373487889766693,1,-0.775007248,1,-0.41361022,1,2.072769165039063,1,-2.237582922,1,-4.374484539,1
1.615967989,-4.094379425,1,-4.166078091,1,-10.84386158,1,0.2268072813749313,1,-3.525093079,1,0.7271164059638977,1,0.3401646614074707,1,-0.788870096,1,-0.416240454,1,2.845210075378418,1,-1.866757393,1,-4.347176552,1
1.619963646,-5.280910492,1,-4.260545731,1,-11.72630405,1,0.2248189300298691,1,-3.76358819,1,0.8173229694366455,1,0.343108594,1,-0.803636372,1,-0.419076979,1,1.759681701660156,1,-1.976836205,1,-5.333625793,1
1.623960853,-5.561561108,1,-3.846384287,1,-11.90018559,1,0.2310979962348938,1,-3.918609142,1,0.8843339085578918,1,0.3460831642150879,1,-0.819258451,1,-0.421952099,1,1.584215641021729,1,-1.581256866,1,-5.618566036,1
1.627960324,-3.541445017,1,-3.523949862,1,-11.14122295,1,0.2987500131130219,1,-4.150334835,1,0.9546162486076355,1,0.3493442535400391,1,-0.835636973,1,-0.424954444,1,3.712736845016479,1,-1.278714418,1,-4.977828979,1
1.631955743,-4.3040452,1,-4.768733501,1,-11.26667595,1,0.2931620478630066,1,-4.447299004,1,1.073518276,1,0.3529476523399353,1,-0.853178501,1,-0.428161055,1,3.064079761505127,1,-2.545636892,1,-5.231760502,1
1.635953188,-5.10081768,1,-5.331920624,1,-11.35715103,1,0.2377413213253021,1,-4.660998344,1,1.192908644676208,1,0.3564049601554871,1,-0.871868253,1,-0.431332469,1,2.386213779449463,1,-3.136408091,1,-5.460054398,1
1.63995266,-4.246077061,1,-5.30568409,1,-11.12904644,1,0.244488314,1,-4.902895927,1,1.298852920532227,1,0.359858364,1,-0.891503513,1,-0.434558451,1,3.363059043884277,1,-3.142012596,1,-5.378289223,1
1.643948317,-4.803680897,1,-5.689639091,1,-11.62563133,1,0.2288571298122406,1,-5.183466434,1,1.451318144798279,1,0.3633717894554138,1,-0.912319243,1,-0.437804848,1,2.931695938110352,1,-3.562542677,1,-6.031795502,1
1.647945762,-7.541646481,1,-7.297766685,1,-12.60428047,1,0.127090722,1,-5.365064144,1,1.638066888,1,0.366447926,1,-0.934278667,1,-0.44074744,1,0.3232731819152832,1,-5.214844704,1,-7.176928043,1
1.651944995,-8.602474213,1,-7.789063454,1,-13.46895599,1,0.037004549,1,-5.429109573,1,1.720236182,1,0.3688192367553711,1,-0.956856489,1,-0.44326961,1,-0.608317375,1,-5.757824898,1,-8.213561058,1
1.655946493,-10.46682644,1,-8.097356796,1,-14.1349411,1,-0.086979806,1,-5.423872948,1,1.784191727638245,1,0.3706505000591278,1,-0.979628146,1,-0.445594192,1,-2.346451759,1,-6.122960091,1,-9.054300308,1
1.659944177,-8.87416172,1,-7.097016811,1,-12.66779327,1,-0.208142966,1,-5.387577057,1,1.919336080551147,1,0.3715045750141144,1,-1.00242281,1,-0.447338343,1,-0.631658554,1,-5.185983658,1,-7.762615204,1
1.66394341,-6.711624622,1,-6.364143848,1,-10.42555523,1,-0.304469168,1,-5.636555672,1,2.105153560638428,1,0.3712263107299805,1,-1.025833249,1,-0.448223114,1,1.651848316192627,1,-4.524992466,1,-5.700995445,1
1.667939067,-9.005887985,1,-7.388353348,1,-11.78663921,1,-0.408222109,1,-5.803266525,1,2.273534774780273,1,0.3700294494628906,1,-1.050426126,1,-0.448492229,1,-0.520273209,1,-5.629787445,1,-7.25304985,1
1.671942711,-12.79210377,1,-6.94202137,1,-13.16304874,1,-0.454970509,1,-5.73177433,1,2.342260837554932,1,0.367737353,1,-1.075315952,1,-0.447859496,1,-4.188097954,1,-5.270313263,1,-8.823905945,1
1.675942183,-15.88432407,1,-7.122403145,1,-13.88907623,1,-0.52280277,1,-5.513213634,1,2.395095586776733,1,0.3643730878829956,1,-1.099741459,1,-0.446233243,1,-7.169316292,1,-5.540683746,1,-9.741977692,1
1.67993784,-13.94861221,1,-7.414823055,1,-12.62290764,1,-0.728591323,1,-5.25073576,1,2.577916383743286,1,0.3584487438201904,1,-1.1233325,1,-0.442379832,1,-5.131331444,1,-5.930253029,1,-8.660173416,1
1.683935285,-10.0821228,1,-7.663332939,1,-11.25657082,1,-0.935650468,1,-5.250149727,1,2.727953433990479,1,0.3492864370346069,1,-1.146676898,1,-0.435964406,1,-1.168466568,1,-6.285964012,1,-7.474876404,1
1.687934756,-10.83298302,1,-8.903090477,1,-11.57491207,1,-1.119537234,1,-5.282185078,1,2.846342325210571,1,0.3374207317829132,1,-1.170295238,1,-0.427479774,1,-1.82676506,1,-7.640748501,1,-7.976830482,1
1.691936255,-13.99209213,1,-9.238870621,1,-12.96558094,1,-1.297548056,1,-5.178699493,1,2.878781795501709,1,0.3226473033428192,1,-1.193865657,1,-0.416771531,1,-4.898507118,1,-8.097460747,1,-9.551559448,1
1.6959337,-14.89499474,1,-9.06341362,1,-12.91862297,1,-1.415552258,1,-4.910922527,1,2.906341075897217,1,0.3048119843006134,1,-1.216600537,1,-0.403476864,1,-5.721926689,1,-8.04539299,1,-9.682873726,1
1.699933171,-12.20677567,1,-10.01271057,1,-9.168611526,1,-1.532559633,1,-4.831235409,1,2.937592506408691,1,0.2833616435527802,1,-1.238556743,1,-0.386968791,1,-2.961446762,1,-9.1208601,1,-6.105911255,1
1.70392859,-7.737367153,1,-7.919019699,1,-8.655357361,1,-1.640645027,1,-4.972276211,1,3.083523988723755,1,0.2577903866767883,1,-1.260651231,1,-0.36669594,1,1.576179027557373,1,-7.158040047,1,-5.769108772,1
1.707925797,-11.26142693,1,-7.431181908,1,-8.762219429,1,-1.579802632,1,-5.002699375,1,3.029816150665283,1,0.228404775,1,-1.28300643,1,-0.342764199,1,-1.883485794,1,-6.802642822,1,-6.058374882,1
1.711925268,-13.20887184,1,-7.499286652,1,-9.134186745,1,-1.531997085,1,-4.936407566,1,3.153447628,1,0.1944993436336517,1,-1.305086493,1,-0.313903332,1,-3.771928787,1,-7.002913475,1,-6.614394188,1
1.715920687,-12.11545181,1,-8.169272423,1,-7.197777271,1,-1.664213777,1,-4.799675465,1,3.228569984436035,1,0.1527590900659561,1,-1.326496124,1,-0.277395248,1,-2.625691414,1,-7.809309006,1,-4.859721184,1
1.719918132,-11.46094704,1,-7.757673264,1,-6.32574892,1,-1.789065599,1,-4.587503433,1,3.280336856842041,1,0.1015681251883507,1,-1.346724391,1,-0.231841937,1,-1.925279617,1,-7.537328243,1,-4.163784027,1
1.723917603,-10.88273239,1,-7.657851219,1,-6.316152573,1,-1.91441524,1,-4.364612103,1,3.246094226837158,1,0.040281285,1,-1.365585804,1,-0.17672205,1,-1.307774544,1,-7.577594757,1,-4.324827194,1
1.727912903,-10.75668907,1,-5.789970875,1,-7.21128273,1,-1.997604609,1,-3.910157204,1,3.142629861831665,1,-0.031509634,1,-1.382237434,1,-0.111515805,1,-1.149873734,1,-5.847725868,1,-5.378956795,1
1.731910348,-13.03143978,1,-3.249719381,1,-8.611200333,1,-1.933606744,1,-3.251763582,1,2.81255579,1,-0.109962262,1,-1.395741343,1,-0.039817564,1,-3.400745392,1,-3.436645269,1,-6.918147087,1
1.735909939,-13.39031601,1,-3.205845118,1,-11.01764774,1,-1.648140788,1,-2.404029131,1,2.390042543411255,1,-0.186773196,1,-1.40541327,1,0.030815864,1,-3.743597984,1,-3.504824877,1,-9.435541153,1
1.739905477,-11.65734959,1,-3.661209345,1,-12.17543983,1,-1.338668346,1,-1.62185204,1,2.038337230682373,1,-0.256122947,1,-1.411303997,1,0.095048927,1,-2.001314163,1,-4.054701328,1,-10.67284203,1
1.743902922,-8.906196594,1,-4.557343483,1,-13.10996246,1,-1.062952876,1,-0.968248606,1,1.714802503585815,1,-0.31519407,1,-1.41412735,1,0.1499908864498138,1,0.754185677,1,-5.030405045,1,-11.65913868,1
1.747902513,-7.649028301,1,-5.317315578,1,-12.76180553,1,-0.761068761,1,-0.431763619,1,1.412905216217041,1,-0.36184451,1,-1.41467309,1,0.1935166269540787,1,2.012185573577881,1,-5.855652809,1,-11.33955193,1
1.75189817,2.765188455581665,1,-5.503365993,1,-12.17090607,1,-0.563500524,1,-0.07479161,1,1.300583004951477,1,-0.399512231,1,-1.413739324,1,0.2290093004703522,1,12.42497730255127,1,-6.098391533,1,-10.76162148,1
1.755895495,-4.851559162,1,-7.067532063,1,-11.09702396,1,-0.29400003,1,0.072340019,1,1.116381049156189,1,-0.427962869,1,-1.411827207,1,0.2561303377151489,1,4.805287837982178,1,-7.71007061,1,-9.688435555,1
1.759894729,-0.788083971,1,-9.079404831,1,-9.802454948,1,-0.310028374,1,0.5835680365562439,1,0.9667797088623047,1,-0.448406428,1,-1.408697605,1,0.2756655812263489,1,8.863869667053223,1,-9.763702393,1,-8.380067825,1
1.763896346,2.838316679000854,1,-6.8545084,1,-7.838580608,1,-0.414593726,1,0.7274526953697205,1,0.906615138,1,-0.463087529,1,-1.404580832,1,0.2891082167625427,1,12.48369121551514,1,-7.577358246,1,-6.390853882,1
1.767893791,-1.159002542,1,-6.440516949,1,-7.990038395,1,-0.273961872,1,0.6818819046020508,1,0.7350924611091614,1,-0.474303365,1,-1.400648594,1,0.2989693284034729,1,8.479934692382813,1,-7.19686985,1,-6.51679039,1
1.771893263,-5.097964764,1,-7.892533779,1,-8.596787453,1,-0.135177135,1,0.882415235,1,0.7654651403427124,1,-0.482216924,1,-1.396571517,1,0.3062613010406494,1,4.534140110015869,1,-8.678739548,1,-7.094766617,1
1.77588892,-4.108527184,1,-9.171792984,1,-9.382480621,1,-0.21159786,1,1.294785737991333,1,0.7266511917114258,1,-0.486555696,1,-1.391332507,1,0.309997022,1,5.51456356,1,-9.988099098,1,-7.839287758,1
1.779886365,-1.064926982,1,-9.021994591,1,-8.91108799,1,-0.28947109,1,1.661601305007935,1,0.5561298131942749,1,-0.484942347,1,-1.384873867,1,0.3073159754276276,1,8.546688079833984,1,-9.864756584,1,-7.3116436,1
1.783885837,1.530257463,1,-7.71394968,1,-8.321289063,1,-0.297557384,1,1.886709570884705,1,0.3721111416816711,1,-0.477393717,1,-1.377685666,1,0.298432469,1,11.12862777709961,1,-8.576339722,1,-6.654198647,1
1.787887335,2.711128711700439,1,-6.942311287,1,-7.774386406,1,-0.298097193,1,1.945850133895874,1,0.2858557999134064,1,-0.466831803,1,-1.370240927,1,0.286445141,1,12.29526138305664,1,-7.81918335,1,-6.034514904,1
1.79188478,2.661883115768433,1,-6.564578533,1,-7.116633415,1,-0.302597076,1,1.974580526351929,1,0.2154889702796936,1,-0.455501437,1,-1.362763286,1,0.2736433744430542,1,12.23117828369141,1,-7.453184128,1,-5.302628517,1
1.795884252,2.202292442321777,1,-6.383824348,1,-6.686802864,1,-0.254265577,1,1.981631875038147,1,0.1517180204391479,1,-0.443723768,1,-1.355255365,1,0.2605409920215607,1,11.75615215301514,1,-7.281822681,1,-4.797622681,1
1.79987967,1.524461865,1,-6.343163013,1,-6.770268917,1,-0.207987696,1,2.016222238540649,1,0.058530889,1,-0.431218982,1,-1.347842813,1,0.2467795163393021,1,11.06255435943604,1,-7.247045994,1,-4.805720806,1
1.803877115,1.235067844390869,1,-6.291851521,1,-6.834400654,1,-0.165390491,1,2.089765787124634,1,-0.058540355,1,-0.417365491,1,-1.340365767,1,0.2317962348461151,1,10.75672531,1,-7.19731617,1,-4.79238224,1
1.807876587,1.235211253166199,1,-6.192241669,1,-6.773097038,1,-0.116173081,1,2.165787935256958,1,-0.187790409,1,-0.401823163,1,-1.332755089,1,0.2152449190616608,1,10.73959159851074,1,-7.094175339,1,-4.650619507,1
1.811872005,1.149231433868408,1,-6.274288654,1,-6.608721256,1,-0.092424817,1,2.230619430541992,1,-0.323781848,1,-0.384758145,1,-1.325023413,1,0.1972384452819824,1,10.63549805,1,-7.16742754,1,-4.403115273,1
1.815869451,0.6924490928649902,1,-6.110524654,1,-6.544166088,1,-0.073550597,1,2.302828788757324,1,-0.471892715,1,-0.366245955,1,-1.317172766,1,0.1777893304824829,1,10.15974235534668,1,-6.989323616,1,-4.252944946,1
1.819869161,0.2452937364578247,1,-5.990704536,1,-6.52500391,1,-0.048415422,1,2.386020183563232,1,-0.638045371,1,-0.346172333,1,-1.309159517,1,0.1567699313163757,1,9.692618370056152,1,-6.849049568,1,-4.145318031,1
1.823865056,-0.252929062,1,-5.923743248,1,-6.518472672,1,-0.005288339,1,2.468914031982422,1,-0.815048575,1,-0.324454308,1,-1.3009547,1,0.1341530978679657,1,9.173322677612305,1,-6.754894257,1,-4.047310829,1
1.827862501,-0.917190313,1,-6.1077075,1,-6.570580006,1,0.019563029,1,2.585753679275513,1,-0.994950473,1,-0.301145703,1,-1.292455435,1,0.1099806427955627,1,8.486561775,1,-6.904772758,1,-4.004302025,1
1.831861973,-1.246839762,1,-6.31058836,1,-6.61634922,1,0.021085775,1,2.720284223556519,1,-1.182104349,1,-0.276301324,1,-1.28351295,1,0.084202662,1,8.132506370544434,1,-7.066566944,1,-3.950265884,1
1.83585763,-1.43287468,1,-6.524958611,1,-6.555125237,1,0.00070432,1,2.853802680969238,1,-1.373162627,1,-0.250193059,1,-1.274078012,1,0.056988392,1,7.919908524,1,-7.232959747,1,-3.784598589,1
1.839855075,-1.561838508,1,-6.311406136,1,-6.504448414,1,-0.028266728,1,2.970664739608765,1,-1.557695866,1,-0.223132417,1,-1.264135957,1,0.028599277,1,7.762052059173584,1,-6.96473217,1,-3.625229359,1
1.843860745,-1.805275083,1,-6.180100441,1,-6.430856705,1,-0.05251231,1,3.070334911346436,1,-1.742007136,1,-0.195444763,1,-1.253684998,1,-0.000651745,1,7.487252235412598,1,-6.772358418,1,-3.439230919,1
1.847862482,-1.964010954,1,-6.258931637,1,-6.289426327,1,-0.088747047,1,3.167546033859253,1,-1.921098948,1,-0.16741012,1,-1.242724061,1,-0.030501593,1,7.294530868530273,1,-6.784039497,1,-3.182128906,1
1.851860523,-2.056756496,1,-6.326677322,1,-6.118461132,1,-0.136301324,1,3.242675304412842,1,-2.088948727,1,-0.139366731,1,-1.231272578,1,-0.060657728,1,7.165091037750244,1,-6.779150486,1,-2.892872095,1
1.855859995,-2.106633186,1,-6.343646049,1,-5.969955921,1,-0.189376175,1,3.305481433868408,1,-2.261723042,1,-0.111479394,1,-1.219353437,1,-0.090992428,1,7.075737953186035,1,-6.718203545,1,-2.624005795,1
1.859855652,-2.087260246,1,-6.380780697,1,-5.763023853,1,-0.23370792,1,3.353702545166016,1,-2.416628122,1,-0.083927669,1,-1.207010865,1,-0.121306971,1,7.052857398986816,1,-6.672500134,1,-2.295344353,1
1.863853097,-2.194767952,1,-6.347977638,1,-5.675602913,1,-0.28884545,1,3.375622987747192,1,-2.556236506,1,-0.056949914,1,-1.194280386,1,-0.151366144,1,6.900308609008789,1,-6.552658558,1,-2.085434198,1
1.867852807,-2.409325838,1,-6.238957405,1,-5.635333061,1,-0.341230452,1,3.381573438644409,1,-2.6942451,1,-0.030706869,1,-1.181243777,1,-0.181021109,1,6.638099670410156,1,-6.352993011,1,-1.922822237,1
1.871848464,-2.784919977,1,-6.127243519,1,-5.565496445,1,-0.389901996,1,3.386285543441772,1,-2.827990294,1,-0.005192149,1,-1.167899132,1,-0.210271239,1,6.212136268615723,1,-6.147153378,1,-1.730883598,1
1.875846148,-3.069936514,1,-6.018015385,1,-5.600662231,1,-0.434876591,1,3.395049810409546,1,-2.953109264,1,0.019550793,1,-1.154246926,1,-0.239047632,1,5.873930931091309,1,-5.940655231,1,-1.644290209,1
1.879845858,-3.389299154,1,-5.792162895,1,-5.677535057,1,-0.47635591,1,3.405415296554565,1,-3.077071905,1,0.043497484,1,-1.140278697,1,-0.26732105,1,5.498423576,1,-5.614676476,1,-1.599728584,1
1.883841515,-3.806485176,1,-5.512176514,1,-5.698920727,1,-0.506855845,1,3.413700580596924,1,-3.194288492,1,0.06670025,1,-1.125963449,1,-0.295120716,1,5.021899223327637,1,-5.231678486,1,-1.49980545,1
1.887839198,-4.149168968,1,-5.180770874,1,-5.784193993,1,-0.519491911,1,3.432316303253174,1,-3.310433149,1,0.089155406,1,-1.111298561,1,-0.322369814,1,4.616551399230957,1,-4.794572353,1,-1.463931561,1
1.89183867,-4.535477638,1,-4.724811077,1,-5.877631187,1,-0.517535508,1,3.441856622695923,1,-3.424463272,1,0.1109488531947136,1,-1.09628129,1,-0.34909898,1,4.164119720458984,1,-4.230038643,1,-1.436478138,1
1.895834327,-4.864383698,1,-4.321620464,1,-6.004369259,1,-0.499451935,1,3.454277753829956,1,-3.532577991,1,0.1321064680814743,1,-1.080897331,1,-0.37526983,1,3.765441895,1,-3.715443134,1,-1.442541122,1
1.899831772,-5.190759182,1,-3.982417583,1,-6.174086094,1,-0.453312814,1,3.471373796463013,1,-3.621593714,1,0.152662992,1,-1.065168142,1,-0.400837243,1,3.365617275238037,1,-3.262043476,1,-1.492081165,1
1.903831244,-5.415831089,1,-3.72841835,1,-6.332189083,1,-0.409132183,1,3.482010126113892,1,-3.708464622,1,0.1725805699825287,1,-1.049082994,1,-0.425692081,1,3.063244342803955,1,-2.891411781,1,-1.530488968,1
1.907827258,-5.63253212,1,-3.588778973,1,-6.464839935,1,-0.353163451,1,3.494840621948242,1,-3.770788193,1,0.1918625235557556,1,-1.032654405,1,-0.449797809,1,2.765328407287598,1,-2.632911205,1,-1.544077396,1
1.911824584,-5.793257713,1,-3.428979635,1,-6.618323803,1,-0.285666466,1,3.507867336273193,1,-3.81485796,1,0.2104325294494629,1,-1.015892863,1,-0.473025441,1,2.519405364990234,1,-2.352650166,1,-1.579202652,1
1.915824175,-6.072749138,1,-3.355298519,1,-6.813567162,1,-0.219966114,1,3.519928216934204,1,-3.848181486,1,0.228270635,1,-0.998833239,1,-0.49532181,1,2.15080452,1,-2.15733695,1,-1.65705061,1
1.919825673,-6.347075939,1,-3.373884201,1,-7.087499142,1,-0.158997506,1,3.528747320175171,1,-3.868679523,1,0.2453498393297195,1,-0.981501758,1,-0.516645789,1,1.783497333526611,1,-2.053606987,1,-1.814709187,1
1.923829198,-6.816142082,1,-3.373724937,1,-7.315366745,1,-0.095693417,1,3.539031267166138,1,-3.869462013,1,0.2616250813007355,1,-0.963927686,1,-0.536951184,1,1.217655181884766,1,-1.931072593,1,-1.927558899,1
1.927828789,-7.316356182,1,-3.47732687,1,-7.595959187,1,-0.04686093,1,3.565740585327148,1,-3.865341187,1,0.2770631313323975,1,-0.946111917,1,-0.556225061,1,0.6168017387390137,1,-1.912766814,1,-2.094252586,1
1.931824684,-7.897680283,1,-3.571387053,1,-7.932945728,1,-0.011944657,1,3.587804079055786,1,-3.838853121,1,0.2916245758533478,1,-0.928059101,1,-0.574442565,1,-0.069068432,1,-1.885977268,1,-2.31833601,1
1.935822129,-8.427061081,1,-3.865185022,1,-8.241128922,1,0.001479264,1,3.614645719528198,1,-3.811698914,1,0.3052361011505127,1,-0.909792602,1,-0.591600001,1,-0.706829548,1,-2.060831785,1,-2.514527798,1
1.939821839,-8.904345512,1,-4.1353302,1,-8.459330559,1,-0.006992259,1,3.647937059402466,1,-3.770378351,1,0.3178311586380005,1,-0.89131701,1,-0.607679069,1,-1.296355724,1,-2.214742184,1,-2.621395111,1
1.943817496,-9.373986244,1,-4.361222267,1,-8.748397827,1,-0.03148786,1,3.676356077194214,1,-3.717885256,1,0.3293517827987671,1,-0.872661352,1,-0.622703016,1,-1.881965637,1,-2.327951431,1,-2.799695015,1
1.947814941,-9.842913628,1,-4.51884985,1,-8.932858467,1,-0.082757577,1,3.710870742797852,1,-3.653664351,1,0.3397390842437744,1,-0.853848398,1,-0.636665821,1,-2.470481873,1,-2.377301693,1,-2.87375927,1
1.951814413,-10.22285366,1,-5.110164165,1,-9.157886505,1,-0.196663082,1,3.730460882,1,-3.591039419,1,0.3489055931568146,1,-0.834944487,1,-0.649631679,1,-2.973216534,1,-2.865916729,1,-2.988790512,1
1.95581007,-10.63591862,1,-5.105318069,1,-9.289987564,1,-0.306627542,1,3.750117778778076,1,-3.515987396,1,0.3567473292350769,1,-0.81598258,1,-0.661683381,1,-3.51205492,1,-2.765171528,1,-3.01098299,1
1.959807754,-11.05653858,1,-4.611114025,1,-9.527755737,1,-0.411732435,1,3.763590574264526,1,-3.424015522,1,0.3633269071578979,1,-0.797034025,1,-0.672811329,1,-4.060918808,1,-2.182162762,1,-3.139239788,1
1.963807464,-11.38033485,1,-3.83935833,1,-9.68625164,1,-0.459983766,1,3.791955471038818,1,-3.30655241,1,0.3687688112258911,1,-0.77810663,1,-0.682966709,1,-4.515323162,1,-1.328392029,1,-3.188689232,1
1.967803121,-12.0061655,1,-3.50498724,1,-9.945008278,1,-0.481321752,1,3.826197147369385,1,-3.196422338,1,0.3732613027095795,1,-0.759193897,1,-0.692143083,1,-5.274116993,1,-0.917967796,1,-3.339062691,1
1.971800804,-12.6969347,1,-3.537251472,1,-10.07314014,1,-0.495415509,1,3.863049983978271,1,-3.103835821,1,0.3769735097885132,1,-0.740265191,1,-0.700456619,1,-6.100372791,1,-0.879290342,1,-3.35955143,1
1.975800276,-13.27492714,1,-3.530627728,1,-10.17934608,1,-0.487095445,1,3.902227401733398,1,-3.001858234,1,0.3800383806228638,1,-0.721319258,1,-0.707987905,1,-6.816342354,1,-0.806225061,1,-3.359084606,1
1.979795933,-13.7389183,1,-3.578315258,1,-10.22994518,1,-0.49704206,1,3.939114332199097,1,-2.87726903,1,0.3824555277824402,1,-0.702385187,1,-0.714697123,1,-7.420539379,1,-0.792292118,1,-3.304067135,1
1.983793616,-14.11507416,1,-3.509692192,1,-10.30263424,1,-0.496209592,1,3.983781576156616,1,-2.759374142,1,0.3842208385467529,1,-0.683477521,1,-0.720577896,1,-7.938966751,1,-0.667169094,1,-3.272171021,1
1.987793207,-14.31230927,1,-3.614413023,1,-10.19266701,1,-0.512569249,1,4.011946678161621,1,-2.638464212,1,0.3853947222232819,1,-0.664592981,1,-0.725702167,1,-8.280502319,1,-0.720305681,1,-3.058728695,1
1.991788745,-14.57207203,1,-3.750967979,1,-10.17348099,1,-0.52075392,1,4.038906574249268,1,-2.510658979,1,0.3860082924365997,1,-0.645790994,1,-0.730097711,1,-8.68607235,1,-0.810299397,1,-2.937519073,1
1.99578619,-14.71045017,1,-3.873112679,1,-10.05859089,1,-0.534784973,1,4.062191009521484,1,-2.387469292,1,0.3861034512519836,1,-0.627086461,1,-0.733798325,1,-8.971567154,1,-0.890814066,1,-2.722193718,1
1.999791861,-14.88199806,1,-4.095453739,1,-10.05694199,1,-0.547213256,1,4.083305835723877,1,-2.257128477,1,0.3857022523880005,1,-0.608500421,1,-0.736829996,1,-9.291287422,1,-1.076487064,1,-2.621792316,1
2.003793716,-14.84308529,1,-4.248799801,1,-9.932488441,1,-0.558360279,1,4.098837852478027,1,-2.13006258,1,0.3848294615745544,1,-0.590031385,1,-0.739211798,1,-9.401527405,1,-1.198076725,1,-2.400275707,1
2.007791281,-14.78351688,1,-4.454872131,1,-9.657322884,1,-0.562704325,1,4.109555244445801,1,-2.000190258,1,0.3835740387439728,1,-0.571708083,1,-0.741005301,1,-9.491769791,1,-1.376806498,1,-2.0300951,1
2.011790752,-14.75481987,1,-4.576972961,1,-9.466213226,1,-0.550498068,1,4.115123748779297,1,-1.867035031,1,0.3819960355758667,1,-0.553554595,1,-0.742215812,1,-9.613246918,1,-1.475643873,1,-1.746260643,1
2.015786648,-14.65468597,1,-4.679843426,1,-9.231985092,1,-0.531143069,1,4.116377353668213,1,-1.746462226,1,0.3801872730255127,1,-0.535574734,1,-0.742901444,1,-9.663520813,1,-1.55867815,1,-1.421844959,1
2.019784212,-14.66088486,1,-4.814719677,1,-8.89816761,1,-0.49781698,1,4.112324714660645,1,-1.616473198,1,0.3782243132591248,1,-0.51779598,1,-0.743084371,1,-9.820034027,1,-1.676616192,1,-1.000689983,1
2.023783922,-14.93156242,1,-4.822620392,1,-8.571157455,1,-0.445029825,1,4.095022201538086,1,-1.498889923,1,0.3761951327323914,1,-0.500239491,1,-0.742795348,1,-10.24064636,1,-1.669808388,1,-0.589506626,1
2.027779579,-15.23114491,1,-4.833159447,1,-8.23372364,1,-0.377521694,1,4.068914890289307,1,-1.383402705,1,0.3742056787014008,1,-0.48293066,1,-0.742086709,1,-10.68946457,1,-1.667025089,1,-0.171442032,1
2.031776905,-15.42089558,1,-4.87655735,1,-7.809617996,1,-0.287004143,1,4.035037517547607,1,-1.272657037,1,0.3723793923854828,1,-0.465892047,1,-0.740993202,1,-11.02745056,1,-1.697455406,1,0.329340935,1
2.035776854,-15.60607719,1,-4.786759377,1,-7.484529972,1,-0.177769676,1,3.978577852249146,1,-1.17154932,1,0.3708174228668213,1,-0.449183822,1,-0.739583492,1,-11.35923195,1,-1.594218016,1,0.7266583442687988,1
2.039772511,-15.68873882,1,-4.727444649,1,-7.085540295,1,-0.055354122,1,3.916764021,1,-1.082101226,1,0.369621068,1,-0.432830602,1,-0.737900198,1,-11.58652687,1,-1.520064592,1,1.193122386932373,1
2.043770075,-15.88384342,1,-4.564887524,1,-6.668220043,1,0.084182426,1,3.830358505249023,1,-1.006388426,1,0.3689558804035187,1,-0.416863441,1,-0.735862732,1,-11.92390823,1,-1.339801788,1,1.672609806060791,1
2.047769547,-16.14975548,1,-4.38965559,1,-6.216018677,1,0.2374970465898514,1,3.739897251,1,-0.956766963,1,0.3688139915466309,1,-0.401317775,1,-0.733899117,1,-12.32931328,1,-1.143952847,1,2.181673049926758,1
2.051771164,-16.53611374,1,-4.204030991,1,-5.69601202,1,0.3980946242809296,1,3.647451639175415,1,-0.929978073,1,0.3693359792232513,1,-0.386188835,1,-0.731924713,1,-12.85231018,1,-0.933451891,1,2.752926349639893,1
2.055769205,-16.8488102,1,-3.982800245,1,-5.283858299,1,0.5641658902168274,1,3.548278093338013,1,-0.92411834,1,0.3705634474754333,1,-0.371427864,1,-0.730042934,1,-13.29913521,1,-0.682518482,1,3.210824012756348,1
2.059768915,-17.25258255,1,-3.639741182,1,-4.801281452,1,0.7260200977325439,1,3.445287227630615,1,-0.95365721,1,0.3725388050079346,1,-0.35704276,1,-0.728346229,1,-13.83436584,1,-0.304444313,1,3.733542919158936,1
2.063764572,-17.53312492,1,-3.355097055,1,-4.45089817,1,0.8917112350463867,1,3.330220937728882,1,-0.997357666,1,0.3752913475036621,1,-0.343007863,1,-0.726938844,1,-14.24384785,1,0.020931244,1,4.118505477905273,1
2.067768335,-18.02422142,1,-3.035448313,1,-4.087787628,1,1.065988421440125,1,3.216281175613403,1,-1.069678307,1,0.3788602948188782,1,-0.329327464,1,-0.725901186,1,-14.86124992,1,0.3874678611755371,1,4.510521889,1
2.071768045,-18.56256294,1,-2.629593849,1,-3.660850286,1,1.238268613815308,1,3.096561908721924,1,-1.169244528,1,0.3832829594612122,1,-0.315958381,1,-0.725333929,1,-15.52359676,1,0.8468208312988281,1,4.960686683654785,1
2.075763941,-19.18989754,1,-2.102184534,1,-3.105127096,1,1.404073715209961,1,3.000597,1,-1.278993726,1,0.3885613679885864,1,-0.302819312,1,-0.725283444,1,-16.27333069,1,1.434511661529541,1,5.534147262573242,1
2.079767466,-19.49129677,1,-1.478667378,1,-2.589040279,1,1.555858731269836,1,2.915388822555542,1,-1.405907273,1,0.3946186304092407,1,-0.289836287,1,-0.725743949,1,-16.69617081,1,2.124548912,1,6.062881946563721,1
2.083766937,-19.29164124,1,-0.755390644,1,-2.108477116,1,1.677052855491638,1,2.808873891830444,1,-1.536280751,1,0.4013837277889252,1,-0.276994228,1,-0.726772368,1,-16.61710167,1,2.919995307922363,1,6.551201343536377,1
2.087762833,-18.95370674,1,0.00986386,1,-1.595970154,1,1.788134098052979,1,2.695791482925415,1,-1.671466947,1,0.4087489545345306,1,-0.264348596,1,-0.728391409,1,-16.39834023,1,3.762073993682861,1,7.066748619,1
2.091760635,-18.32258034,1,0.6949461102485657,1,-1.054461122,1,1.884723782539368,1,2.555347442626953,1,-1.782993078,1,0.4166549742221832,1,-0.251955032,1,-0.730588615,1,-15.88440704,1,4.528048515319824,1,7.606618404388428,1
2.095760107,-17.59767151,1,1.257675051689148,1,-0.51672405,1,1.963292479515076,1,2.376790046691895,1,-1.859241843,1,0.4250163435935974,1,-0.239965275,1,-0.733294249,1,-15.27323055,1,5.174833775,1,8.138012886047363,1
2.099756002,-16.73824883,1,1.647062540054321,1,0.03158617,1,2.008450508117676,1,2.175402879714966,1,-1.886599064,1,0.4336834847927094,1,-0.228555486,1,-0.736407578,1,-14.5223484,1,5.649969100952148,1,8.675552368164063,1
2.103754044,-15.87024212,1,1.896922588348389,1,0.2679921388626099,1,1.984108209609985,1,1.927774667739868,1,-1.876947999,1,0.4424392580986023,1,-0.217917919,1,-0.739829361,1,-13.75579739,1,5.985222339630127,1,8.897396087646484,1
2.107753754,-14.97224617,1,1.816400766372681,1,0.2696031928062439,1,1.900589227676392,1,1.622604131698608,1,-1.836836815,1,0.4510076642036438,1,-0.208289176,1,-0.743553758,1,-12.9498415,1,5.987171173095703,1,8.881585121154785,1
2.111749411,-14.49788952,1,1.431071281433105,1,0.2391228675842285,1,1.749951601028442,1,1.291825532913208,1,-1.753522515,1,0.4591182768344879,1,-0.199900016,1,-0.747521639,1,-12.55582905,1,5.678920745849609,1,8.831901550292969,1
2.115746975,-14.71305561,1,1.050684332847595,1,0.2541908323764801,1,1.555764079093933,1,0.9578666687011719,1,-1.650114894,1,0.4665621519088745,1,-0.192841426,1,-0.751701176,1,-12.8387022,1,5.368438243865967,1,8.827141761779785,1
2.119746923,-15.46094513,1,0.8491803407669067,1,0.2569612264633179,1,1.304566144943237,1,0.6773625612258911,1,-1.523205757,1,0.4731053709983826,1,-0.187060595,1,-0.755969644,1,-13.64211273,1,5.227800369262695,1,8.810978889465332,1
2.12374258,-16.09197044,1,0.7803705334663391,1,0.3067502379417419,1,0.9943323731422424,1,0.4380168914794922,1,-1.381236553,1,0.4784974753856659,1,-0.182426602,1,-0.760190845,1,-14.31768799,1,5.208883762359619,1,8.844423294067383,1
2.127740145,-16.50962067,1,0.896459699,1,0.3653341829776764,1,0.6634116768836975,1,0.2489988058805466,1,-1.221893311,1,0.4825294017791748,1,-0.178815424,1,-0.764229059,1,-14.77008152,1,5.362304210662842,1,8.890703201293945,1
2.131739616,-16.88071823,1,1.121411442756653,1,0.2376302033662796,1,0.3370570540428162,1,0.092819996,1,-1.061826229,1,0.485192597,1,-0.176090449,1,-0.76801753,1,-15.16741085,1,5.612137317657471,1,8.755234718322754,1
2.135735273,-17.21657372,1,1.325749993,1,-0.124723598,1,0.058333036,1,-0.009340107,1,-0.896265984,1,0.4865763783454895,1,-0.174121201,1,-0.771458983,1,-15.52223206,1,5.829828262329102,1,8.389626502990723,1
2.139733076,-17.33914948,1,1.723545074462891,1,-0.506791532,1,-0.168521434,1,-0.075350799,1,-0.735886395,1,0.4868632555007935,1,-0.172745734,1,-0.774479032,1,-15.65805817,1,6.231150627,1,8.008316040039063,1
2.143732548,-17.13598061,1,1.934407711029053,1,-0.931614995,1,-0.331082225,1,-0.116993323,1,-0.561452806,1,0.4862730503082275,1,-0.171871826,1,-0.776992559,1,-15.46330929,1,6.437671661376953,1,7.587446212768555,1
2.147728205,-16.73047066,1,2.163035154342651,1,-1.296373963,1,-0.429319382,1,-0.149251103,1,-0.382192135,1,0.4850628972053528,1,-0.171462744,1,-0.778938234,1,-15.06174088,1,6.656305313110352,1,7.228736400604248,1
2.151725769,-16.22994614,1,2.417566061019897,1,-1.510161996,1,-0.474649072,1,-0.179772243,1,-0.216901109,1,0.4834803938865662,1,-0.171486974,1,-0.780332625,1,-14.56098366,1,6.897320747375488,1,7.022011280059814,1
2.155725241,-15.74944782,1,2.627438306808472,1,-1.759284616,1,-0.450534135,1,-0.198524207,1,-0.056175042,1,0.4817635118961334,1,-0.17190434,1,-0.781178832,1,-14.0764637,1,7.092214584350586,1,6.779950618743896,1
2.159727097,-15.0852499,1,2.584366798400879,1,-1.965370417,1,-0.399297923,1,-0.209768414,1,0.096675903,1,0.4801150858402252,1,-0.172666684,1,-0.781494319,1,-13.40491962,1,7.034470081329346,1,6.580078125,1
2.163725138,-14.3723793,1,2.230144739151001,1,-2.085333586,1,-0.317416757,1,-0.22827059,1,0.2334346920251846,1,0.4786401093006134,1,-0.173740357,1,-0.781310678,1,-12.68170547,1,6.666807174682617,1,6.465065956115723,1
2.167724609,-13.60955429,1,1.779569625854492,1,-2.354619026,1,-0.23700352,1,-0.261200964,1,0.3667379319667816,1,0.4774207472801208,1,-0.175151199,1,-0.780679107,1,-11.90529156,1,6.204701900482178,1,6.199056625366211,1
2.171720505,-13.06415653,1,1.216017961502075,1,-2.603617668,1,-0.144234359,1,-0.305155396,1,0.4851823449134827,1,0.4764815866947174,1,-0.176935688,1,-0.779660106,1,-11.34271145,1,5.631712913513184,1,5.951495170593262,1
2.175718069,-12.86088848,1,0.7371628284454346,1,-2.990733385,1,-0.047243603,1,-0.362153679,1,0.5818074941635132,1,0.4758637845516205,1,-0.179107457,1,-0.778355479,1,-11.11853886,1,5.145849227905273,1,5.563762664794922,1
2.179717779,-12.98193932,1,0.2128925919532776,1,-3.201522827,1,0.031022953,1,-0.40417847,1,0.6536749601364136,1,0.4755567014217377,1,-0.181606039,1,-0.776837111,1,-11.21554947,1,4.616943836212158,1,5.350426674,1
2.183719635,-13.0965271,1,-0.223223239,1,-3.393228292,1,0.085179687,1,-0.417424828,1,0.6988697648048401,1,0.4754887819290161,1,-0.184316412,1,-0.775154352,1,-11.30407143,1,4.178039073944092,1,5.154732704162598,1
2.187717438,-12.73914623,1,-0.685432315,1,-3.369637966,1,0.1160012111067772,1,-0.435145915,1,0.734076202,1,0.475563258,1,-0.187150672,1,-0.773358703,1,-10.9194479,1,3.714122772216797,1,5.173445224761963,1
2.191717148,-12.19668865,1,-1.075013161,1,-3.322542906,1,0.1164031699299812,1,-0.448135585,1,0.7538352608680725,1,0.4756868779659271,1,-0.190079391,1,-0.771487176,1,-10.34885502,1,3.323138714,1,5.215220451,1
2.195712805,-11.45312405,1,-1.472835422,1,-3.409917116,1,0.098176174,1,-0.475554585,1,0.7552536129951477,1,0.4757609367370605,1,-0.193102032,1,-0.769611955,1,-9.57626915,1,2.923370361328125,1,5.122517585754395,1
2.199710131,-7.859627247,1,-5.993083477,1,-6.974810123,1,-0.093758538,1,-0.590995252,1,0.7710055708885193,1,0.475581944,1,-0.196340069,1,-0.767817259,1,-5.951702595,1,-1.601208687,1,1.552966594696045,1
2.203709602,10.73635673522949,1,-23.49328995,1,-11.46258926,1,-1.956194758,1,-1.167616367,1,0.7959058880805969,1,0.471305639,1,-0.200805187,1,-0.766642332,1,12.68709278106689,1,-19.14183617,1,-2.923789978,1
2.207705259,-5.565723419,1,-9.110625267,1,-5.177818298,1,-2.244366169,1,-2.120804071,1,1.005661725997925,1,0.4624983966350555,1,-0.20824562,1,-0.766298473,1,-3.543735504,1,-4.841136456,1,3.385748863220215,1
2.211703062,-5.040601254,1,-8.419433594,1,-6.484555721,1,-2.565480471,1,-1.974116087,1,0.8832017183303833,1,0.4531569480895996,1,-0.217633724,1,-0.766645193,1,-2.928870201,1,-4.238620758,1,2.101075649261475,1
2.215702772,8.249848365783691,1,-5.319116116,1,-6.600910187,1,-3.180089235,1,-1.714334846,1,0.8178260326385498,1,0.4415926337242126,1,-0.225529239,1,-0.766738772,1,10.43691062927246,1,-1.245121956,1,2.017148971557617,1
2.219698429,12.17938804626465,1,-4.502168179,1,-9.226750374,1,-3.199961424,1,-1.98969388,1,0.8458698987960815,1,0.4286831319332123,1,-0.233659446,1,-0.766821444,1,14.44387817382813,1,-0.547286749,1,-0.57327652,1
2.223696232,8.971883773803711,1,-5.421382427,1,-14.46423435,1,-2.822539806,1,-2.103393078,1,0.8523551225662231,1,0.4167789220809937,1,-0.242572665,1,-0.767108798,1,11.32108688354492,1,-1.578114033,1,-5.783092499,1
2.227695704,4.276570320129395,1,-5.252753258,1,-18.69865799,1,-2.544378996,1,-1.952101469,1,0.7940386533737183,1,0.405961663,1,-0.251437604,1,-0.767404556,1,6.709842205047607,1,-1.511987209,1,-9.995930672,1
2.23169136,10.03518104553223,1,-4.237938881,1,-23.64718437,1,-2.457807302,1,-1.586459279,1,0.5209667086601257,1,0.3961588144302368,1,-0.258944899,1,-0.767641604,1,12.53949737548828,1,-0.589812994,1,-14.92530155,1
2.235695124,7.655464172363281,1,-5.993973732,1,-19.88678169,1,-2.193381786,1,-1.714012861,1,0.341034859,1,0.3871098160743713,1,-0.265556991,1,-0.768603444,1,10.22223663330078,1,-2.431249619,1,-11.14776897,1
2.239694834,5.384698390960693,1,-5.241461277,1,-13.91072273,1,-2.07229495,1,-1.955870748,1,0.2420652061700821,1,0.3789525032043457,1,-0.272899806,1,-0.770383418,1,8.020698547363281,1,-1.757208347,1,-5.160685539,1
2.243690729,7.639801502227783,1,-0.357967973,1,-10.41773605,1,-1.88532567,1,-2.270561457,1,0.3298296928405762,1,0.3717511892318726,1,-0.281027555,1,-0.772450507,1,10.35226249694824,1,3.055288314819336,1,-1.66308403,1
2.247688532,3.534367799758911,1,1.738913655281067,1,-7.885091782,1,-1.704357147,1,-2.86170125,1,0.7383221387863159,1,0.3650481104850769,1,-0.291376173,1,-0.774311185,1,6.343922615,1,5.083209037780762,1,0.8655500411987305,1
2.251688242,-2.219364405,1,3.120913505554199,1,-8.089483261,1,-1.535922527,1,-3.346282005,1,1.123129963874817,1,0.3588290810585022,1,-0.304425329,1,-0.775235534,1,0.712191105,1,6.397569656,1,0.6467142105102539,1
2.255684137,-6.512878418,1,5.642494678497314,1,-10.80381203,1,-1.316491723,1,-3.455813169,1,1.285218954086304,1,0.3531967997550964,1,-0.31892705,1,-0.775465012,1,-3.446328402,1,8.854849815368652,1,-2.09010601,1
2.259681702,-14.61538124,1,4.743640899658203,1,-11.42218113,1,-1.423928857,1,-3.412194252,1,1.467557191848755,1,0.3475672006607056,1,-0.333752811,1,-0.775000811,1,-11.41148663,1,7.891058921813965,1,-2.734230995,1
2.26368165,-16.77543259,1,3.285032272338867,1,-15.38736916,1,-1.259680271,1,-3.054791927,1,1.566554904,1,0.3418013453483582,1,-0.348002434,1,-0.773578048,1,-13.44019508,1,6.366687774658203,1,-6.725313187,1
2.267677546,-20.76344109,1,2.792233467102051,1,-13.96562576,1,-1.182038903,1,-2.695063114,1,1.658178806304932,1,0.3359066247940063,1,-0.361095607,1,-0.771148622,1,-17.30811501,1,5.808121204376221,1,-5.327527046,1
2.271674871,-20.97649193,1,2.118953466415405,1,-13.29174232,1,-1.033130527,1,-2.15530777,1,1.580209016799927,1,0.3302924633026123,1,-0.372336507,1,-0.767951131,1,-17.41853714,1,5.073513984680176,1,-4.674136162,1
2.275674582,-17.56676483,1,1.273069977760315,1,-13.44003963,1,-0.784580588,1,-1.725237012,1,1.445186257362366,1,0.3254345059394836,1,-0.38155961,1,-0.764467001,1,-13.92494106,1,4.175117492675781,1,-4.839637756,1
2.279670238,-14.53409767,1,0.1347364783287048,1,-12.10852432,1,-0.660712242,1,-1.52796793,1,1.403408765792847,1,0.3211668431758881,1,-0.389549434,1,-0.760848939,1,-10.81986809,1,2.990777254104614,1,-3.523701668,1
2.283668041,-9.049818039,1,-1.687176585,1,-10.71154022,1,-0.506645203,1,-1.415132165,1,1.057669043540955,1,0.3176231384277344,1,-0.396646231,1,-0.757716,1,-5.271474838,1,1.130120396614075,1,-2.141908646,1
2.287667751,-5.7110219,1,-1.618784428,1,-9.880595207,1,-0.332633078,1,-1.424426436,1,0.7851464152336121,1,0.3152234256267548,1,-0.403170377,1,-0.755881429,1,-1.873906374,1,1.170238256454468,1,-1.327845573,1
2.291663408,-5.528351784,1,-0.971539378,1,-9.717915535,1,-0.200511888,1,-1.502642632,1,0.6325889229774475,1,0.3138169050216675,1,-0.409613788,1,-0.754923224,1,-1.633351326,1,1.797760844230652,1,-1.18494606,1
2.295660973,-6.600782394,1,-0.832743049,1,-9.794054031,1,-0.125575423,1,-1.495195389,1,0.4968957304954529,1,0.3129928112030029,1,-0.416017771,1,-0.753951073,1,-2.648411512,1,1.921787619590759,1,-1.282711029,1
2.299660683,-7.379656792,1,-0.661753595,1,-10.18347645,1,-0.043096073,1,-1.447219968,1,0.4043597280979156,1,0.312694788,1,-0.422189534,1,-0.75405854,1,-3.372149467,1,2.082684516906738,1,-1.694684029,1
2.30365634,-7.669404507,1,-0.640401602,1,-10.2507658,1,0.041429773,1,-1.32190752,1,0.3112228512763977,1,0.3128679096698761,1,-0.427916557,1,-0.754431486,1,-3.610869884,1,2.098397493362427,1,-1.784422874,1
2.307654142,-7.174531937,1,-0.197284654,1,-10.42957592,1,0.1115407720208168,1,-1.225282431,1,0.2901376485824585,1,0.3133620619773865,1,-0.433094442,1,-0.754906058,1,-3.06997776,1,2.539183139801025,1,-1.984692574,1
2.311653614,-6.772257805,1,-0.274410278,1,-10.39641094,1,0.1551931947469711,1,-1.140644193,1,0.2995235323905945,1,0.3140574097633362,1,-0.437955558,1,-0.755275011,1,-2.62459898,1,2.461732149124146,1,-1.972511292,1
2.315661669,-4.890089989,1,-1.006107569,1,-9.629449844,1,0.1882639676332474,1,-1.103673339,1,0.334296852,1,0.3148369193077087,1,-0.442597181,1,-0.755460024,1,-0.701364517,1,1.730610132217407,1,-1.226078987,1
2.31966567,-3.692461014,1,-2.721452713,1,-8.917265892,1,0.1840658187866211,1,-1.105042219,1,0.3631514608860016,1,0.3156187236309052,1,-0.447226405,1,-0.755517125,1,0.5371313095092773,1,0.01578474,1,-0.534564018,1
2.323665619,-2.97626853,1,-4.692730904,1,-8.314990997,1,0.1178169995546341,1,-1.11805892,1,0.3980620503425598,1,0.3161921501159668,1,-0.451938599,1,-0.755427837,1,1.294830560684204,1,-1.956913948,1,0.04710865,1
2.327661753,-3.914365768,1,-5.361912251,1,-8.247618675,1,0.068448424,1,-1.137484312,1,0.3792415261268616,1,0.3165263533592224,1,-0.456711024,1,-0.755367756,1,0.3986735343933105,1,-2.62967658,1,0.094099045,1
2.331659555,-4.462814331,1,-5.168177128,1,-7.86905241,1,-0.009417936,1,-1.11370039,1,0.4070610105991364,1,0.3166019320487976,1,-0.461491048,1,-0.755268931,1,-0.107866764,1,-2.441761255,1,0.4527726173400879,1
2.335659027,-4.449968815,1,-4.550936222,1,-7.819053173,1,-0.056234736,1,-1.106571555,1,0.4104267060756683,1,0.3163918852806091,1,-0.466204613,1,-0.755079985,1,-0.053792477,1,-1.832685232,1,0.4837431907653809,1
2.339654922,-5.625324726,1,-4.489303589,1,-7.908368111,1,-0.120913632,1,-1.068547368,1,0.4390638172626495,1,0.3159185647964478,1,-0.470881104,1,-0.754790723,1,-1.188341141,1,-1.78139925,1,0.3760833740234375,1
2.343652725,-5.46842432,1,-3.684231043,1,-7.651412487,1,-0.158364668,1,-0.964229345,1,0.4137230217456818,1,0.3150806725025177,1,-0.475288093,1,-0.754347801,1,-0.993073463,1,-0.989355564,1,0.6166319847106934,1
2.347652435,-5.791212082,1,-2.633764982,1,-8.45853138,1,-0.157266483,1,-0.941504061,1,0.3779126703739166,1,0.3143049478530884,1,-0.479418188,1,-0.753988981,1,-1.279983997,1,0.048957825,1,-0.206049919,1
