Time,inertial-6253.76535:scaledAccelX,inertial-6253.76535:scaledAccelY,inertial-6253.76535:scaledAccelZ,inertial-6253.76535:scaledGyroX,inertial-6253.76535:scaledGyroY,inertial-6253.76535:scaledGyroZ,inertial-6253.76535:scaledMagX,inertial-6253.76535:scaledMagY,inertial-6253.76535:scaledMagZ,inertial-6253.76535:roll,inertial-6253.76535:pitch,inertial-6253.76535:yaw
0,0.4709100425243378,0.010656331,-0.887433887,-0.013264827,0.009170841,0.002159189,-0.52842468,-0.284139365,-0.111563161,0.003839089,0.4827161431312561,2.684975862503052
0.005000448,0.4701820611953735,0.012556173,-0.886371851,-0.010368862,0.007290706,0.003250969,-0.528324246,-0.284103811,-0.111444876,0.003766302,0.4827627539634705,2.684907913208008
0.010002176,0.4699022173881531,0.012025207,-0.886656046,-0.006804773,0.006942578,0.004072316,-0.528290927,-0.284092009,-0.111405656,0.003716066,0.482805461,2.684851169586182
0.014998784,0.4698295891284943,0.012765839,-0.885787845,-0.005023009,0.005186745,0.004208339,-0.528461874,-0.28433603,-0.111650296,0.00367753,0.4828432202339172,2.684784173965454
0.019996416,0.4689976274967194,0.012889326,-0.88575989,-0.00158331,0.005334069,0.005423397,-0.528567195,-0.284479558,-0.111799419,0.003654777,0.4828785955905914,2.684731006622314
0.02500096,0.4685820043087006,0.011395792,-0.884313345,-0.000198767,0.004492138,0.00491772,-0.528648198,-0.284590006,-0.111914158,0.003644153,0.482908696,2.684678316116333
0.03000064,0.466831237,0.011401045,-0.884438634,-0.001482275,0.005447727,0.006200975,-0.528675079,-0.284626633,-0.111952201,0.003624016,0.4829404354095459,2.684632539749146
0.035001088,0.4651211798191071,0.009464957,-0.886874795,0.001667896,0.003840941,0.006901754,-0.528695405,-0.284683496,-0.111954518,0.003631464,0.4829597175121307,2.684590816497803
0.040002815,0.4668391346931458,0.010262541,-0.886986256,0.0009249,0.006523642,0.008029846,-0.528701842,-0.284731239,-0.111928098,0.003631315,0.4829956591129303,2.684550285339355
0.044999681,0.4674238562583923,0.007031993,-0.887667596,0.003810991,0.007458111,0.009467899,-0.528706789,-0.284767985,-0.111907773,0.003657106,0.4830372035503387,2.684519290924072
0.049997568,0.468286932,0.003713103,-0.887127876,0.001888366,0.00686847,0.006746739,-0.528708458,-0.284780145,-0.11190103,0.003670725,0.4830747246742249,2.684473514556885
0.054995969,0.4683922827243805,0.004329165,-0.885950685,0.001977818,0.007211503,0.005243572,-0.52870971,-0.284789503,-0.111895844,0.003680473,0.4831098914146423,2.684423923492432
0.059995137,0.4690845310688019,0.005481179,-0.883947551,0.001256605,0.00579619,0.005522915,-0.528358817,-0.284749836,-0.112042181,0.003685858,0.4831482768058777,2.684373856
0.064996094,0.4686630666255951,0.008378258,-0.885347784,0.004259347,0.005440303,0.005727075,-0.528088808,-0.284719288,-0.112154782,0.003702393,0.4831783771514893,2.684326887130737
0.069997571,0.4702528119087219,0.011010903,-0.886106789,0.003545483,0.002136719,0.006022409,-0.527999282,-0.284709156,-0.112192109,0.003708653,0.4831981360912323,2.684276103973389
0.074994177,0.472254604,0.011724091,-0.883886933,0.00636794,0.000131124,0.007821129,-0.527930379,-0.284701347,-0.112220839,0.003736758,0.4832122027873993,2.684238195419312
0.079991549,0.4716992080211639,0.009150384,-0.884264052,0.007824652,-0.003116374,0.007079502,-0.528137207,-0.284606934,-0.112147018,0.003771361,0.4832086563110352,2.684199810028076
0.08498995,0.4713239073753357,0.007164733,-0.882739544,0.010240531,-0.003631706,0.009689658,-0.528528452,-0.284441441,-0.112005934,0.00383771,0.4831996262073517,2.684173345565796
0.089989379,0.4711757302284241,0.005178023,-0.88262254,0.011130431,-0.006672843,0.009280578,-0.528658211,-0.284386575,-0.111959152,0.003899753,0.4831755459308624,2.684139251708984
0.094990082,0.4725078642368317,0.006896983,-0.883376658,0.009993696,-0.008768165,0.011209792,-0.528758049,-0.284344375,-0.111923158,0.003961251,0.4831459820270538,2.684126853942871
0.099991553,0.4713961780071259,0.010327176,-0.882797956,0.012470925,-0.01132773,0.009551033,-0.52879113,-0.284330368,-0.111911222,0.004020609,0.4830974042415619,2.684089899
0.104988419,0.4709011316299438,0.009650815,-0.883230567,0.014216554,-0.012540313,0.010638926,-0.529145479,-0.284586996,-0.11226669,0.004094115,0.4830446541309357,2.684074163
0.109985791,0.4697505533695221,0.007251479,-0.883112073,0.01439444,-0.015129683,0.012485265,-0.52926302,-0.284672111,-0.112384558,0.00418124,0.4829736351966858,2.684062004089355
0.114984192,0.4694811105728149,0.004784469,-0.884410501,0.014839881,-0.018372782,0.011823653,-0.52935338,-0.284737587,-0.112475254,0.004270907,0.4828923940658569,2.684051036834717
0.119983874,0.4685769975185394,0.003712405,-0.885983586,0.01510993,-0.019112555,0.012715123,-0.529383361,-0.284759313,-0.112505324,0.004367123,0.482798845,2.684044838
0.124984317,0.4691149592399597,0.002626222,-0.885667503,0.012620606,-0.022356385,0.013487337,-0.529157579,-0.284579039,-0.112723202,0.004455333,0.4826948642730713,2.684041976928711
0.129986301,0.4691189527511597,0.00353281,-0.883864164,0.013180871,-0.021881284,0.01242279,-0.529021144,-0.284470558,-0.112843633,0.004535845,0.4825984835624695,2.684037685394287
0.134983674,0.4669652581214905,0.002060989,-0.883411407,0.011860519,-0.020965865,0.01116829,-0.52891618,-0.284387082,-0.112936296,0.004613369,0.4824976623058319,2.684021234512329
0.139981061,0.4674773812294006,0.003011628,-0.882643163,0.009937445,-0.020645604,0.010664404,-0.528881431,-0.284359396,-0.112967022,0.004677343,0.4824025630950928,2.684004068374634
0.144979715,0.4645389318466187,0.001888743,-0.883493066,0.008574759,-0.021499244,0.007930057,-0.528799713,-0.284249574,-0.112673014,0.004731422,0.482296348,2.683973073959351
0.149979398,0.4651596546173096,0.001334289,-0.885014832,0.005434292,-0.018593883,0.008067836,-0.52871722,-0.284123898,-0.112255208,0.004768144,0.4822088479995728,2.683941125869751
0.15497984,0.4648519456386566,0.00083141,-0.884359479,0.005007142,-0.019655913,0.006586566,-0.528653741,-0.284027189,-0.111933738,0.004800156,0.4821069836616516,2.683896064758301
0.15998745,0.4670973718166351,0.005858977,-0.887006164,0.002657594,-0.018913539,0.00772287,-0.528632641,-0.283995122,-0.111827143,0.004804371,0.4820224642753601,2.683858633041382
0.164990202,0.4665141701698303,0.006867254,-0.886879981,0.002073907,-0.01830993,0.00529246,-0.528616488,-0.283970445,-0.111745119,0.004805554,0.4819354116916656,2.683801174163818
0.169988096,0.4657247960567474,0.006703237,-0.887717009,0.003255656,-0.017402522,0.005966467,-0.528308332,-0.284069896,-0.111722581,0.004814462,0.4818567037582397,2.683757066726685
0.174986497,0.4646077156066895,0.009365117,-0.886132419,0.003521593,-0.016462753,0.006926828,-0.528071225,-0.284146398,-0.111705244,0.004825296,0.4817714691162109,2.683711528778076
0.179985926,0.4666042029857635,0.008435667,-0.887082279,0.004529508,-0.016329991,0.008241065,-0.527992606,-0.28417176,-0.111699499,0.004844679,0.4816945195198059,2.683677196502686
0.184986368,0.4667918384075165,0.006528716,-0.88534224,0.003833725,-0.016332967,0.006421619,-0.527932107,-0.284191281,-0.111695074,0.004867184,0.4816165864467621,2.683639049530029
0.189988092,0.4649836122989655,0.006960397,-0.885504067,0.003435667,-0.015167781,0.007053705,-0.528111517,-0.284222037,-0.111609526,0.004879388,0.481548935,2.683595418930054
0.194984958,0.465476394,0.005620158,-0.887053728,0.003995869,-0.013545883,0.005712377,-0.528451324,-0.284270316,-0.111458682,0.004897667,0.4814814627170563,2.683551073074341
0.199982598,0.4634579122066498,0.005459199,-0.886628211,0.003833747,-0.011878842,0.007215738,-0.528563976,-0.28428632,-0.111408666,0.004918531,0.481424481,2.683514356613159
0.204981253,0.4630355536937714,0.006128193,-0.887116134,0.004436598,-0.010257022,0.005545235,-0.528650701,-0.284298599,-0.111370184,0.004934686,0.4813772141933441,2.683466911315918
0.209980935,0.4631961286067963,0.006361786,-0.887499571,0.004885387,-0.00867771,0.004798858,-0.52867943,-0.284302682,-0.111357421,0.004953472,0.4813292324542999,2.683420658111572
0.214981377,0.4626462161540985,0.009483409,-0.887482762,0.005645677,-0.009111181,0.005915701,-0.528634369,-0.284308255,-0.11147356,0.004964057,0.4812825918197632,2.683371543884277
0.219983101,0.4647862613201141,0.008596638,-0.888304234,0.007135199,-0.007255079,0.007220897,-0.528619468,-0.284310102,-0.111512072,0.004996028,0.4812466204166412,2.683339357376099
0.224979967,0.4643427133560181,0.007814926,-0.887611091,0.006778184,-0.005703146,0.008189184,-0.528607965,-0.284311533,-0.111541696,0.005035244,0.4812167286872864,2.683306217193604
0.22997734,0.4637099206447601,0.007899669,-0.886855125,0.010735669,-0.004988053,0.010533572,-0.528604209,-0.28431201,-0.111551523,0.005089566,0.4811922907829285,2.683286428451538
0.23497574,0.463895708,0.004542178,-0.88744843,0.009958006,-0.005718036,0.009766429,-0.528548658,-0.284466863,-0.111652195,0.005146992,0.4811574518680573,2.683265924453735
0.239975169,0.464804083,0.002357519,-0.885969996,0.008935146,-0.004940429,0.009436445,-0.528517187,-0.284556448,-0.111708611,0.005208602,0.4811402559280396,2.683242797851563
0.244975612,0.4639153778553009,0.003601878,-0.88586241,0.010034969,-0.004728058,0.009792603,-0.528493047,-0.284625351,-0.111752026,0.005270143,0.4811193943023682,2.683219671
0.249977604,0.4642336666584015,0.002052338,-0.886710763,0.010930842,-0.004600933,0.010330133,-0.52848506,-0.28464818,-0.11176642,0.00533898,0.4810965359210968,2.683206081390381
0.254974723,0.4647457003593445,0.003537065,-0.887224555,0.009417895,-0.005507988,0.010886004,-0.528482378,-0.284433633,-0.111673489,0.005393504,0.4810760021209717,2.683185577392578
0.259972095,0.4638447761535645,0.003942274,-0.88651228,0.007976375,-0.00295923,0.010588584,-0.52848506,-0.284128398,-0.111537792,0.005443406,0.4810647368431091,2.683172464370728
0.264971018,0.4654229581356049,0.004586556,-0.88730365,0.010201103,-0.004218942,0.010719724,-0.528487146,-0.283893526,-0.111433379,0.005503384,0.4810414910316467,2.683157682418823
0.269970447,0.4643006324768066,0.005407244,-0.885906518,0.009136315,-0.003916368,0.009117296,-0.528487802,-0.283815652,-0.111398757,0.005553108,0.4810214936733246,2.683127880096436
0.274970889,0.4656968712806702,0.003401247,-0.886978209,0.009334075,-0.004155693,0.009374949,-0.528488338,-0.283755749,-0.111372113,0.005614685,0.4810105562210083,2.683114051818848
0.279972851,0.4641868472099304,0.004628232,-0.888700366,0.009300293,-0.002326909,0.009793337,-0.528637409,-0.283884346,-0.111217953,0.005669989,0.4809961318969727,2.683101654052734
0.284970254,0.4651517570018768,0.005813955,-0.887291133,0.009165209,-0.002911594,0.009968875,-0.528752148,-0.28398329,-0.11109934,0.005721861,0.4809772670269012,2.683083057403564
0.289967865,0.4657211005687714,0.002083463,-0.887794018,0.009142243,-0.001909653,0.010720118,-0.528790176,-0.284016103,-0.111060008,0.005782187,0.4809732437133789,2.683067321777344
0.294972658,0.4672256112098694,0.000811698,-0.888693869,0.007936095,-0.00354819,0.008845715,-0.528819442,-0.284041345,-0.111029744,0.005829642,0.4809598624706268,2.683037042617798
0.299972355,0.4653968513011932,0.002095974,-0.889215291,0.006522445,-0.000716432,0.009189267,-0.528773844,-0.283934951,-0.110995442,0.005868266,0.4809599220752716,2.683012486
0.304973066,0.4659669101238251,0.001527775,-0.886920333,0.005769572,-0.003990128,0.008530366,-0.528682768,-0.283737093,-0.110944502,0.005906555,0.4809450507164001,2.682985067367554
0.309975296,0.465953529,0.003761421,-0.887051463,0.004444262,-0.001093876,0.00763324,-0.528652549,-0.283671498,-0.110927619,0.005930762,0.4809468686580658,2.682949066162109
0.314972669,0.4661954641342163,0.005269028,-0.886654973,0.003514384,0.000196388,0.007988928,-0.528629303,-0.283621013,-0.110914625,0.005946768,0.4809499680995941,2.682923078536987
0.319970042,0.4674207270145416,0.00326458,-0.886350095,0.004098497,0.001440312,0.009963838,-0.528621614,-0.283604264,-0.110910319,0.005976099,0.4809620976448059,2.682897567749023
0.324968457,0.4651080667972565,0.005149763,-0.886089385,0.002980589,-0.000942389,0.008879743,-0.529147863,-0.283844709,-0.110145643,0.00598908,0.4809551239013672,2.682869911193848
0.329967886,0.4653160572052002,0.002312715,-0.886360765,0.0032814,-0.000170596,0.008398292,-0.529322326,-0.283924431,-0.109892093,0.00601702,0.4809628129005432,2.682842969894409
0.334968328,0.4664321839809418,0.003526254,-0.885581672,0.001701987,0.001682712,0.007617923,-0.529456556,-0.283985764,-0.109697007,0.006024891,0.4809750914573669,2.682810068130493
0.339970052,0.4656028151512146,0.004929528,-0.885938883,0.001627237,2.770411083474755e-05,0.008114639,-0.529501081,-0.284006119,-0.109632313,0.006034075,0.4809809327125549,2.682780504226685
0.344966918,0.4671800434589386,0.007288959,-0.885206878,0.00189125,0.000924806,0.007402143,-0.529633522,-0.284075826,-0.110143036,0.006045188,0.4809932708740234,2.682748556137085
0.349964291,0.4669299125671387,0.007557493,-0.884591818,0.00253365,-0.001201403,0.007623519,-0.529701769,-0.284112334,-0.11045108,0.006056844,0.4809967279434204,2.682710886001587
0.354962677,0.4665447771549225,0.003885913,-0.886354566,0.003165724,-0.001449134,0.009060035,-0.529754221,-0.284140408,-0.110688098,0.006087205,0.480994701,2.682692050933838
0.359962374,0.466427743,0.00220667,-0.884720266,0.003753794,-0.00091937,0.007759755,-0.529771626,-0.284149736,-0.110766686,0.006112738,0.4809991121292114,2.682660341262817
0.364962816,0.4654213786125183,0.004250515,-0.88539964,0.003439225,-0.000747212,0.006953975,-0.529387534,-0.284048319,-0.110756174,0.006127486,0.4809945225715637,2.682624340057373
0.36996454,0.4656541645526886,0.004712304,-0.885086417,0.00383153,-0.000458107,0.00706689,-0.528859377,-0.283905208,-0.110681117,0.00614329,0.4809952676296234,2.682591438293457
0.374961138,0.4656480848789215,0.006611555,-0.885795474,0.004434284,-0.001644246,0.007448046,-0.528453052,-0.283795089,-0.11062336,0.006161259,0.480985701,2.682556629180908
0.379958779,0.4635030031204224,0.005402385,-0.886300266,0.003291472,-0.001590367,0.008579745,-0.528318286,-0.283758551,-0.110604212,0.00618356,0.4809819161891937,2.682532787322998
0.384957194,0.4649519026279449,0.003924311,-0.886381984,0.004218569,-0.001749637,0.008972483,-0.528214633,-0.283730477,-0.110589482,0.006213646,0.4809755384922028,2.682512044906616
0.389956862,0.4645915031433105,0.004984013,-0.885983467,0.003011927,-0.000252403,0.008859491,-0.528483748,-0.28356269,-0.110580496,0.00623234,0.4809825122356415,2.682486057281494
0.394957811,0.4653736054897308,0.005496701,-0.886657894,0.004157906,-0.000677011,0.008490677,-0.528690815,-0.283433586,-0.110573582,0.006257822,0.4809848070144653,2.682469606399536
0.399959564,0.4633589386940002,0.003472642,-0.888052821,0.002915981,0.000163002,0.00929747,-0.52875948,-0.28339076,-0.110571288,0.00627461,0.4809844195842743,2.682447671890259
0.404956162,0.4650669991970062,0.003756283,-0.886898279,0.004746055,0.003764403,0.007768755,-0.528812289,-0.283357829,-0.110569522,0.006301363,0.4810053408145905,2.682418346405029
0.409953535,0.4638015627861023,0.001998738,-0.886315465,0.001588016,0.003414668,0.007734276,-0.52882725,-0.283493102,-0.110753842,0.006317569,0.481021911,2.682391881942749
0.414952695,0.4649167060852051,0.002263729,-0.885972321,0.001436083,0.004827526,0.007546716,-0.528836191,-0.283744991,-0.111082621,0.006333576,0.4810493290424347,2.682361125946045
0.419952124,0.4654642343521118,-0.001380048,-0.887876332,-0.000696761,0.005904457,0.005318515,-0.528839171,-0.283828497,-0.111191638,0.006337089,0.4810774624347687,2.682320117950439
0.424952567,0.464477926,0.001484763,-0.887666464,-0.000905872,0.005428629,0.003964319,-0.528841496,-0.283892781,-0.111275516,0.006334435,0.4811049699783325,2.682273864746094
0.429960191,0.4644854068756104,0.003289775,-0.88857317,-0.00307181,0.007524678,0.005357345,-0.528842211,-0.283914089,-0.111303329,0.006305221,0.4811455905437469,2.682229280471802
0.434962958,0.4642473161220551,0.004942067,-0.889178276,-0.00497277,0.010287697,0.0035158,-0.529179871,-0.28371945,-0.111133538,0.006268535,0.4811998009681702,2.682171345
0.439960837,0.4622121453285217,0.006024838,-0.886512101,-0.003653417,0.011837911,0.005163847,-0.529291809,-0.283654898,-0.111077242,0.006248357,0.4812613725662231,2.682138442993164
0.444959491,0.4648227393627167,0.005459123,-0.88701117,-0.003420683,0.013676419,0.004165493,-0.529377937,-0.283605248,-0.111033924,0.006217824,0.4813302457332611,2.68208909
0.44995892,0.4655445516109467,0.003589546,-0.886682391,-0.001857788,0.014158382,0.004002928,-0.529406488,-0.283588767,-0.111019559,0.006207474,0.481404722,2.682047605514526
0.454959363,0.4648019373416901,0.006693731,-0.887578011,-0.00350165,0.014918485,0.00344174,-0.529278517,-0.283528179,-0.111011967,0.006171971,0.4814809560775757,2.681994199752808
0.459961087,0.4657860100269318,0.007883191,-0.887560964,-0.003004907,0.013667566,0.005097089,-0.529198945,-0.283496201,-0.111010306,0.006140037,0.4815529584884644,2.681946516036987
0.464957952,0.4669531583786011,0.008329211,-0.885482073,-0.001681116,0.014339599,0.003979324,-0.529137731,-0.283471614,-0.111009024,0.006121867,0.4816299676895142,2.681900501251221
0.469955593,0.467592716,0.007392413,-0.88598001,0.001026955,0.013723634,0.005003219,-0.529117465,-0.283463478,-0.111008599,0.00612059,0.4817034006118774,2.681861400604248
0.474954247,0.4672199785709381,0.004349249,-0.885609031,0.001358703,0.014432993,0.007556031,-0.5291574,-0.283571422,-0.110979259,0.00613477,0.4817778766155243,2.681831836700439
0.479954183,0.4686611890792847,0.005952325,-0.882707417,0.002829339,0.01155024,0.008791616,-0.529226601,-0.283722401,-0.11094027,0.00615291,0.4818482398986816,2.681810379
0.484954625,0.4686439633369446,0.006344688,-0.883923531,0.002396465,0.009735996,0.007781195,-0.529279828,-0.28383857,-0.110910267,0.006167409,0.4819126725196838,2.68178916
0.489956349,0.4671023786067963,0.004247246,-0.884407759,0.005338627,0.010781754,0.008334574,-0.529297471,-0.283877075,-0.11090032,0.006197882,0.4819603562355042,2.681756734848022
0.494953215,0.4682432115077972,0.002545006,-0.88331902,0.003545588,0.008794398,0.008665133,-0.529311061,-0.283906698,-0.110892668,0.006219542,0.4820142984390259,2.681732892990112
0.499950856,0.4678062498569489,0.002433055,-0.884525299,0.004221625,0.009232637,0.00909429,-0.529314399,-0.283920407,-0.111312367,0.006248177,0.4820653200149536,2.681713581085205
0.504949272,0.4659773409366608,0.002933523,-0.88588053,0.001788255,0.008529101,0.007516822,-0.529316962,-0.283930928,-0.111635298,0.006269187,0.4821111857891083,2.681686878204346
0.509948671,0.4637575149536133,0.003144054,-0.886583626,0.001510828,0.008436357,0.005844262,-0.529317796,-0.283934444,-0.11174237,0.006278004,0.482153058,2.681649208068848
0.514949143,0.4631472527980804,0.004369999,-0.887773633,0.001700821,0.009232573,0.005902082,-0.529318511,-0.283937097,-0.111824758,0.00628202,0.4821986556053162,2.681615352630615
0.519951105,0.4623014330863953,0.005489772,-0.887747526,0.000261176,0.010955829,0.006993758,-0.529263735,-0.28382206,-0.111694597,0.00627647,0.4822495877742767,2.681586742401123
0.524947941,0.4636244177818298,0.004584939,-0.887613058,0.00139297,0.013824638,0.0084347,-0.529165983,-0.283616334,-0.111435212,0.00629191,0.482315719,2.681563616
0.52994585,0.464128166,0.007687168,-0.886785805,0.00212393,0.016320972,0.007694285,-0.529133558,-0.283548117,-0.11134921,0.006305454,0.4823926091194153,2.681540489196777
0.534944236,0.4665818512439728,0.006713258,-0.887816548,0.002500943,0.016139532,0.008019833,-0.529108584,-0.283495605,-0.111283034,0.006317209,0.4824711680412292,2.681515693664551
0.539943695,0.4668608009815216,0.007456385,-0.885820091,0.004639161,0.018988829,0.007750588,-0.529100299,-0.2834782,-0.111261092,0.006339439,0.4825735092163086,2.681486607
0.544944644,0.4673150777816772,0.004654885,-0.885222077,0.004510004,0.019787397,0.010936376,-0.528892934,-0.283471525,-0.111559764,0.006372546,0.4826756119728088,2.681484937667847
0.549946368,0.4671654999256134,0.005694006,-0.88591814,0.005172836,0.017912341,0.009971149,-0.528824151,-0.283469319,-0.111658797,0.006397272,0.4827718436717987,2.681466102600098
0.554943204,0.4672015607357025,0.004599018,-0.885667264,0.004814791,0.018650498,0.009982655,-0.528771222,-0.283467621,-0.111735001,0.006433192,0.4828703701496124,2.681448221206665
0.559940875,0.4679175615310669,0.003864795,-0.884872794,0.004881134,0.017680891,0.009114301,-0.528753698,-0.283467054,-0.111760266,0.006461378,0.4829676449298859,2.681427955627441
0.5649454,0.4683672785758972,0.002300798,-0.885310948,0.003012184,0.018434545,0.011491067,-0.528790295,-0.283466071,-0.11182566,0.006493078,0.4830681979656219,2.681427955627441
0.569945335,0.4682419896125793,0.005077942,-0.885035515,0.003346501,0.019283324,0.009860858,-0.528814852,-0.283465594,-0.111858711,0.006509638,0.4831708371639252,2.681415081
0.574946284,0.4679215550422668,0.004979213,-0.886719584,0.000539801,0.018000262,0.010163238,-0.528833687,-0.283465236,-0.111884147,0.006519855,0.4832635223865509,2.681401968002319
0.579948306,0.4648642838001251,0.004131947,-0.884986997,0.001131265,0.01775316,0.010759866,-0.528839946,-0.283465117,-0.111892581,0.006539362,0.4833558201789856,2.681394338607788
0.584945381,0.4672226905822754,0.003349785,-0.884098828,0.00021011,0.018460028,0.010713901,-0.52892971,-0.283492744,-0.11195039,0.006551153,0.4834551215171814,2.681382179260254
0.589942813,0.4677092134952545,0.004453075,-0.883348703,0.000561832,0.018849019,0.010705296,-0.529045224,-0.283529848,-0.112021305,0.006567241,0.4835549592971802,2.681368350982666
0.594941437,0.4685896039009094,0.003723857,-0.883598089,0.001800169,0.016561238,0.009697089,-0.529134095,-0.283558428,-0.112075873,0.006581364,0.483638197,2.681356668
0.599940836,0.4677945375442505,0.002706016,-0.884290457,0.002083957,0.015164573,0.009847001,-0.529163599,-0.283567876,-0.112093963,0.006600541,0.4837207198143005,2.681339502334595
0.604941547,0.4691017866134644,-0.000126647,-0.884649873,0.00177129,0.016601078,0.008398407,-0.529186308,-0.283575177,-0.112107888,0.006630865,0.4838151335716248,2.681317090988159
0.609943271,0.4684933125972748,0.001202992,-0.883804679,0.002182898,0.015734669,0.008177632,-0.529093444,-0.283530831,-0.112349577,0.006645137,0.4839029312133789,2.681293725967407
0.614940166,0.4699607491493225,0.004574075,-0.885826588,0.000270168,0.016242387,0.008411189,-0.529021919,-0.283496678,-0.112535536,0.006647263,0.4839934706687927,2.681269884109497
0.619937539,0.4701589643955231,0.004721607,-0.883841574,0.001247376,0.016136706,0.007291447,-0.528998196,-0.283485353,-0.112597197,0.006649747,0.4840829372406006,2.681237221
0.624936163,0.4701516330242157,0.002881534,-0.885552466,0.001134096,0.015825909,0.00814078,-0.528979957,-0.283476651,-0.112644643,0.006653415,0.4841687381267548,2.681216239929199
0.629935622,0.4708283841609955,0.002438112,-0.884104431,0.000213304,0.012407084,0.006381025,-0.5290308,-0.28350082,-0.112579033,0.006661562,0.4842438697814941,2.681176662445068
0.634936035,0.4696161448955536,0.003684829,-0.883899033,-0.001552543,0.013508567,0.007261799,-0.529127419,-0.283546805,-0.112446308,0.006663447,0.4843181073665619,2.681150197982788
0.639937818,0.4682117998600006,0.003256991,-0.884142816,-0.001471388,0.014330318,0.006280805,-0.529159427,-0.283562034,-0.112402298,0.006652382,0.4843989014625549,2.681119918823242
0.644934654,0.4668989479541779,0.003781171,-0.883061409,-0.0024762,0.014685458,0.006724429,-0.529184043,-0.283573747,-0.112368435,0.006635554,0.4844731986522675,2.681088209152222
0.649932027,0.4702696204185486,0.00425275,-0.88410908,-0.00158483,0.014525838,0.007567597,-0.529192209,-0.283577621,-0.112357207,0.006632283,0.4845519065856934,2.681063890457153
0.654930711,0.469790906,0.002024474,-0.884822905,0.000293213,0.014797227,0.008831353,-0.529133022,-0.283384174,-0.112913176,0.006636518,0.4846338033676147,2.681037902832031
0.659930646,0.4703176617622375,0.001154464,-0.884263694,-0.001717778,0.013359467,0.007380637,-0.529113412,-0.28332004,-0.113097526,0.006633296,0.4847062230110168,2.681010723114014
0.664931059,0.4706173837184906,0.004397864,-0.883164167,-0.001726584,0.014650172,0.006710928,-0.529098332,-0.283270687,-0.11323937,0.006626684,0.4847884178161621,2.680979729
0.669932783,0.4684723913669586,0.004255289,-0.885127008,-0.00172408,0.013908247,0.007693702,-0.529093325,-0.283254325,-0.113286406,0.006614299,0.4848543107509613,2.680954933166504
0.674929678,0.4698523283004761,0.008790849,-0.883960664,-0.001595064,0.013215622,0.008629045,-0.52904135,-0.283138812,-0.113090098,0.006601925,0.4849300980567932,2.680938005447388
0.679927289,0.4704894721508026,0.008334298,-0.883434594,0.000642075,0.012021529,0.007645209,-0.529012144,-0.283075035,-0.112967476,0.00660739,0.4850032329559326,2.680911779403687
0.684925973,0.4691187739372253,0.003892647,-0.882058978,0.00180462,0.012509471,0.009351507,-0.528989732,-0.28302595,-0.112873122,0.006621163,0.4850729703903198,2.680899381637573
0.689925611,0.4714231491088867,0.003447556,-0.884764075,0.002541992,0.01229311,0.008861421,-0.528982282,-0.283009678,-0.112841845,0.006643481,0.4851456880569458,2.680881261825562
0.694926083,0.4702421128749847,0.003534556,-0.883191168,0.00135991,0.011072349,0.009707006,-0.528945029,-0.283173025,-0.11302954,0.006656504,0.4852088093757629,2.680869340896606
0.699933946,0.4711496531963348,0.000704461,-0.884508848,0.000731266,0.010558682,0.011161434,-0.528900862,-0.283404559,-0.113305323,0.00667313,0.4852639734745026,2.680863380432129
0.704936683,0.4713585674762726,-0.000703347,-0.88445431,-0.000446842,0.010802733,0.007220128,-0.528866947,-0.283582717,-0.113517523,0.006677491,0.485323429,2.680834293365479
0.709934592,0.4708867371082306,-0.000421421,-0.883688152,-0.002227479,0.010612096,0.006795085,-0.528855681,-0.283641785,-0.113587886,0.006675545,0.48538208,2.680803537368774
0.714932978,0.4722521603107452,0.000114803,-0.884065509,-0.005341304,0.009103328,0.002953758,-0.528847039,-0.283687234,-0.113642022,0.006643221,0.4854398667812347,2.680749177932739
0.719932437,0.4722268879413605,-0.000699263,-0.883315861,-0.006228651,0.007649582,0.00202777,-0.528998494,-0.283493251,-0.113377832,0.0066126,0.4854891896247864,2.680699348449707
0.724932849,0.4693358540534973,0.002359763,-0.883564532,-0.005788649,0.007657346,0.0002748,-0.529115021,-0.28334403,-0.113174558,0.00656059,0.485534132,2.680641174316406
0.729934573,0.4697677493095398,0.004469112,-0.881691098,-0.006182783,0.007965705,0.000636685,-0.529153645,-0.283294529,-0.11310716,0.006507834,0.4855810403823853,2.680567979812622
0.734931469,0.4699783623218536,0.008268744,-0.882545292,-0.005822949,0.008722243,0.001941144,-0.529183328,-0.283256471,-0.113055296,0.006454946,0.4856308102607727,2.680508375167847
0.739929318,0.4717512130737305,0.008276067,-0.882734716,-0.005695147,0.008941935,0.004482541,-0.529163897,-0.283274502,-0.11317154,0.00640794,0.4856836497783661,2.680458545684814
0.744928241,0.4738575518131256,0.009733072,-0.883854449,-0.004904967,0.009033453,0.003510324,-0.529119313,-0.283319414,-0.113395914,0.006365855,0.4857412278652191,2.680405855178833
0.7499277,0.4739048480987549,0.008783367,-0.882135868,-0.004364554,0.005522837,0.003461851,-0.529104531,-0.283334315,-0.113470308,0.006329428,0.4857808947563171,2.680351972579956
0.754928112,0.4744828343391418,0.008486469,-0.882534623,-0.001653795,0.004942898,0.002350881,-0.529093146,-0.283345759,-0.113527551,0.00631369,0.4858176708221436,2.680301189422607
0.759930372,0.4737696647644043,0.008506286,-0.882050157,0.000372193,0.002723427,0.004083151,-0.529089391,-0.283349544,-0.113546535,0.006293209,0.4858388900756836,2.680251121520996
0.764927745,0.4746841192245483,0.007986956,-0.883268178,0.001033427,0.00180267,0.00577397,-0.529019952,-0.283288389,-0.113812543,0.006291634,0.4858591258525848,2.680215835571289
0.769925117,0.4732905626296997,0.005734932,-0.880851209,0.002487713,-0.000849016,0.006521259,-0.528996944,-0.283268124,-0.113900751,0.006299064,0.4858657121658325,2.680183172225952
0.774923801,0.4741336703300476,0.003929198,-0.882075608,0.001593689,-0.003357693,0.005541937,-0.528979242,-0.283252507,-0.113968618,0.006304285,0.4858638048171997,2.680152177810669
0.779923201,0.4725272059440613,0.005095816,-0.882714629,0.002992563,-0.004692324,0.007102006,-0.528973341,-0.283247352,-0.113991119,0.00632186,0.4858458340167999,2.680122375488281
0.784923673,0.472881556,0.005716604,-0.883064866,0.005127422,-0.00686894,0.006046817,-0.528967619,-0.283393025,-0.113678329,0.006343709,0.4858149588108063,2.680090188980103
0.789925396,0.4707217812538147,0.006769775,-0.884033382,0.002749799,-0.007162592,0.007574572,-0.528965414,-0.283478349,-0.113492928,0.006356033,0.4857893586158752,2.680065155029297
0.794922471,0.4723145067691803,0.005725704,-0.884258509,0.003800129,-0.007936173,0.008428046,-0.528963745,-0.283544004,-0.11335028,0.006384603,0.4857572019100189,2.680046081542969
0.799920142,0.470015675,0.0066386,-0.884921312,0.006843287,-0.010629494,0.007475406,-0.528963208,-0.283565789,-0.113302976,0.006416447,0.4857070446014404,2.680021524429321
0.804918766,0.4700271487236023,0.004114067,-0.884824932,0.006176373,-0.009038273,0.007825244,-0.529023051,-0.283350259,-0.11326804,0.006451059,0.4856657683849335,2.680003405
0.809918225,0.4711129367351532,0.00310334,-0.886174858,0.006635365,-0.009541185,0.008502421,-0.529103696,-0.283044577,-0.113257937,0.006490195,0.4856221377849579,2.679987192153931
0.814918935,0.4710665345191956,0.003046643,-0.884924531,0.006037862,-0.010688078,0.008228302,-0.529165745,-0.282809377,-0.113250159,0.006527025,0.4855749607086182,2.679961442947388
0.819920659,0.4709116220474243,0.003304785,-0.88426131,0.006865653,-0.011836573,0.009326568,-0.529186308,-0.282731384,-0.113247573,0.006565144,0.4855213761329651,2.679950952529907
0.824917495,0.4720171391963959,0.003260303,-0.884982646,0.004901344,-0.010949165,0.006648313,-0.529202163,-0.282671392,-0.113245584,0.006591934,0.485478014,2.679919719696045
0.829921007,0.4705757796764374,0.003646453,-0.885231197,0.005769834,-0.011179926,0.006952215,-0.529104471,-0.28285569,-0.113103867,0.006613628,0.4854215979576111,2.679888486862183
0.834919453,0.4704496264457703,0.005923473,-0.884501338,0.005131614,-0.010799381,0.007058146,-0.52902931,-0.282997519,-0.112994827,0.006631406,0.4853717088699341,2.679858922958374
0.839918852,0.4704706370830536,0.005960274,-0.882438183,0.004122111,-0.010764285,0.006922068,-0.529004335,-0.283044547,-0.11295867,0.006650641,0.4853294789791107,2.679825544
0.844919324,0.4690483212471008,0.003836965,-0.885609567,0.005228289,-0.011527307,0.005206237,-0.528985143,-0.283080727,-0.112930849,0.006672478,0.4852736592292786,2.679796934127808
0.849921048,0.4698581397533417,0.005640936,-0.886803031,0.005275751,-0.011829587,0.005780395,-0.529120445,-0.283148259,-0.112971529,0.006698882,0.4852185845375061,2.679763793945313
0.854917645,0.4696083068847656,0.005754384,-0.88382864,0.003962982,-0.011053671,0.005899499,-0.529367745,-0.283256322,-0.113053292,0.006713158,0.4851706326007843,2.679727077484131
0.859915257,0.4705900847911835,0.003696912,-0.883472383,0.006273182,-0.010486976,0.006174625,-0.529449761,-0.283292174,-0.113080405,0.00674433,0.4851262867450714,2.679700374603271
0.864913642,0.4713912904262543,0.00255923,-0.884533346,0.004516208,-0.010402479,0.007064287,-0.529512882,-0.283319741,-0.113101266,0.006769503,0.4850797355175018,2.679677486419678
0.869913578,0.4695507287979126,0.002279693,-0.881939113,0.006072309,-0.012362866,0.005065426,-0.529533803,-0.283328891,-0.11310818,0.006794256,0.4850260317325592,2.679634809494019
0.874914289,0.4690385460853577,0.002920895,-0.883205652,0.004842468,-0.013705669,0.006005233,-0.529485226,-0.283201396,-0.113053925,0.006818852,0.4849615097045898,2.679601907730103
0.879916012,0.4711447656154633,0.001853615,-0.882802784,0.005538683,-0.011853128,0.005036498,-0.529469132,-0.283159137,-0.11303594,0.006845428,0.4849178493022919,2.679572105407715
0.884912908,0.4708986282348633,0.002819208,-0.883360922,0.004336936,-0.013538457,0.005242837,-0.529456794,-0.283126622,-0.113022104,0.006865229,0.484856129,2.679533004760742
0.889910519,0.4719628393650055,0.005568417,-0.88356024,0.00484171,-0.014245327,0.006109899,-0.529452682,-0.283115834,-0.113017514,0.006880864,0.484788567,2.679496765136719
0.894908905,0.4697031378746033,0.004536478,-0.883494079,0.004716169,-0.01275689,0.004930397,-0.529094875,-0.283270001,-0.113347463,0.006901552,0.484729677,2.679458618164063
0.899908602,0.4694060683250427,0.001466437,-0.882052302,0.004882372,-0.014562647,0.004798497,-0.528888524,-0.283361316,-0.113539383,0.006927339,0.4846634864807129,2.679417610168457
0.904909074,0.4696910083293915,0.002737496,-0.884913862,0.003075151,-0.012298912,0.003341152,-0.528729796,-0.28343156,-0.113687046,0.006925722,0.4846064448356628,2.679366588592529
0.909910798,0.468407154,0.001958259,-0.884356737,0.003910822,-0.014673096,0.003819198,-0.528677106,-0.283454865,-0.113736011,0.006943455,0.4845362901687622,2.679327249526978
0.914907634,0.4670491516590118,0.002435164,-0.886014223,0.001990991,-0.013872942,0.003196341,-0.528808892,-0.283438146,-0.113504298,0.006945472,0.4844663441181183,2.679280757904053
0.919905007,0.4689275622367859,0.003940064,-0.884901464,0.002648691,-0.011501401,0.004174449,-0.52902627,-0.283397675,-0.113155812,0.006947449,0.4844173192977905,2.679237604141235
0.924903452,0.467936635,0.005306927,-0.886550665,0.003392128,-0.011401307,0.004303443,-0.529193521,-0.283366531,-0.112887681,0.006958073,0.4843535423278809,2.679199219
0.929902852,0.4671942889690399,0.006172554,-0.887064338,0.002016391,-0.009355416,0.003383752,-0.529249012,-0.28335619,-0.112798773,0.006949844,0.4843175113201141,2.679145336151123
0.934903324,0.4680565595626831,0.006147864,-0.884708405,0.003317372,-0.008280687,0.002740085,-0.529291689,-0.283348233,-0.112730362,0.006954278,0.4842813611030579,2.679097414016724
0.939904749,0.468218058,0.004974354,-0.885147989,0.003776877,-0.007169893,0.005119952,-0.52925688,-0.283148199,-0.113273889,0.006963185,0.4842508435249329,2.679054021835327
0.944901645,0.4701875746250153,0.004009926,-0.886246443,0.004501962,-0.00510503,0.00304634,-0.529230118,-0.28299427,-0.113692097,0.006971738,0.4842305481433868,2.679009437561035
0.949899018,0.4705555140972137,0.002806741,-0.88568747,0.00212235,-0.006541076,0.00302968,-0.529221237,-0.282943249,-0.113830768,0.006973323,0.4842015206813812,2.678961753845215
0.954897642,0.4711205363273621,0.004205984,-0.884556353,0.002353456,-0.005906103,0.002293069,-0.529214442,-0.282903969,-0.113937467,0.006969661,0.484183282,2.678914308547974
0.959897339,0.4684293568134308,0.002984749,-0.883239925,0.002838081,-0.005465489,0.003420567,-0.529182732,-0.283032328,-0.113572158,0.006978986,0.4841600656509399,2.678865432739258
0.964904428,0.4679198265075684,0.005184966,-0.884820342,0.002415403,-0.005266881,0.002606702,-0.529128551,-0.283274055,-0.112885915,0.006974335,0.4841373562812805,2.678813219070435
0.969906688,0.4666237831115723,0.006018407,-0.885287225,0.002210814,-0.00459609,0.00391574,-0.52911061,-0.283354193,-0.112658374,0.006973662,0.4841128587722778,2.678767681121826
0.97490406,0.4688226878643036,0.005777554,-0.88425988,0.004374076,-0.004315986,0.002561218,-0.529096782,-0.283415884,-0.112483293,0.006980588,0.4841022193431854,2.678712844848633
0.979901671,0.4672552347183228,0.003238641,-0.883604467,0.003577369,-0.002803687,0.003340006,-0.529092193,-0.283436328,-0.112425238,0.006996012,0.4840936064720154,2.678670406341553
0.984900355,0.4676446318626404,0.002576967,-0.883275807,0.004429897,-0.004033873,0.004051504,-0.529225349,-0.283116519,-0.11294283,0.007009613,0.4840784966945648,2.678635120391846
0.989899755,0.4693149924278259,0.004043907,-0.882332981,0.003942251,-0.004184669,0.005307334,-0.529269516,-0.283010483,-0.113114454,0.007022599,0.4840661883354187,2.678601503372192
0.994900465,0.4673697352409363,0.005526391,-0.88448298,0.002890156,-0.004878347,0.004978951,-0.529303432,-0.282928914,-0.113246508,0.007020844,0.4840399026870728,2.678561210632324
0.999902189,0.4685092568397522,0.00449698,-0.883885026,0.005126215,-0.004484179,0.005135108,-0.529314697,-0.282901853,-0.113290295,0.007046402,0.4840231239795685,2.678531169891357
1.004899025,0.4681520462036133,0.002228732,-0.885452211,0.003488915,-0.004505416,0.002639761,-0.529119074,-0.283187211,-0.112996049,0.007059644,0.4840050637722015,2.678487539291382
1.009896398,0.4680466055870056,0.003327863,-0.885752976,0.005769411,-0.006578614,0.004511315,-0.52900368,-0.28335759,-0.11281734,0.007081829,0.4839722812175751,2.678451061248779
1.014894843,0.468485415,0.003885925,-0.88465637,0.003821501,-0.006688436,0.003744571,-0.528914869,-0.283488691,-0.112679832,0.007086952,0.4839491248130798,2.678401708602905
1.019894838,0.4706592857837677,0.004959866,-0.887277901,0.004065519,-0.006322636,0.004482083,-0.528885484,-0.283532143,-0.112634242,0.007097394,0.4839260280132294,2.678364515304565
1.024895191,0.4688332974910736,0.006198552,-0.885707259,0.005334689,-0.006749777,0.003911313,-0.529091299,-0.28353253,-0.11262174,0.007109525,0.4838963150978088,2.678318023681641
1.029896975,0.4693704843521118,0.008299761,-0.885102272,0.006216776,-0.004554368,0.004859847,-0.529389977,-0.28349933,-0.112640359,0.00711939,0.4838826358318329,2.678280353546143
1.034893513,0.468127966,0.006915415,-0.886802554,0.004967494,-0.006186618,0.006124671,-0.529619813,-0.28347379,-0.112654686,0.007138873,0.4838554859161377,2.678252696990967
1.039891243,0.4655887484550476,0.007200886,-0.887990594,0.005920868,-0.004210005,0.005469507,-0.529695988,-0.283465296,-0.112659439,0.007165296,0.4838377237319946,2.678224325180054
1.044889808,0.4678646624088287,0.005295506,-0.88866365,0.006311409,-0.002327986,0.007045272,-0.529754639,-0.283458799,-0.11266309,0.00718973,0.4838325679302216,2.678201675415039
1.049889565,0.4670676290988922,0.008072074,-0.887548745,0.008858935,-0.001210395,0.006520455,-0.529323637,-0.283363163,-0.112627193,0.007224545,0.4838294982910156,2.678174018859863
1.054890037,0.4665945768356323,0.005224602,-0.887302041,0.008028816,0.000848095,0.006771056,-0.528991997,-0.283289582,-0.112599581,0.007266703,0.4838422536849976,2.678153991699219
1.059891701,0.4676415920257568,0.005662831,-0.88727659,0.008902553,0.001675898,0.008947311,-0.528882027,-0.283265173,-0.112590425,0.007311211,0.4838520288467407,2.678143024
1.064888358,0.4665116667747498,0.006091556,-0.885117352,0.009289648,0.003176062,0.009115547,-0.528797448,-0.283246398,-0.112583376,0.007356411,0.4838736951351166,2.678125143051147
1.069885969,0.4693487584590912,0.004186095,-0.885078192,0.008664327,0.004268399,0.009665698,-0.528941929,-0.283122003,-0.112658963,0.007409261,0.4838980734348297,2.678118467330933
1.074884653,0.4706965684890747,0.003236444,-0.885791659,0.009034472,0.004122549,0.008673087,-0.529227436,-0.28290683,-0.112795912,0.00746175,0.4839323461055756,2.678104162216187
1.079884291,0.4713931381702423,0.002971057,-0.885928512,0.010263477,0.004695805,0.009109912,-0.529322147,-0.282835484,-0.112841323,0.007521133,0.4839641451835632,2.678094387054443
1.084885001,0.4693008065223694,0.001880924,-0.884630501,0.009960519,0.003184898,0.006710494,-0.529394984,-0.282780588,-0.112876259,0.00757297,0.4839773178100586,2.678071260452271
1.089886427,0.4694418609142303,0.003349301,-0.882473469,0.009196686,0.002961573,0.007811309,-0.529419124,-0.282762378,-0.112887844,0.007621246,0.4840011894702911,2.678062915802002
1.094883323,0.4694864749908447,0.00103244,-0.882418454,0.008406662,0.001969489,0.009225107,-0.530232072,-0.283141404,-0.113188602,0.007677034,0.4840183258056641,2.678054809570313
1.099886894,0.4699028730392456,0.000148137,-0.883640766,0.006827637,-0.000362917,0.007780095,-0.530501604,-0.283267111,-0.113288328,0.007722954,0.4840238094329834,2.678039551
1.104885459,0.4690429270267487,0.000914371,-0.884122729,0.007313004,9.637814946472645e-05,0.00810707,-0.530709028,-0.283363819,-0.113365054,0.00775645,0.4840371906757355,2.678026437759399
1.109885216,0.4677469432353973,0.00132168,-0.882722199,0.004603472,-0.000795377,0.005705379,-0.530777812,-0.283395886,-0.11339049,0.007786105,0.4840331375598907,2.677998781204224
1.114886165,0.4675920605659485,0.001350599,-0.882412732,0.003568835,-0.001556567,0.006156625,-0.530283391,-0.283171684,-0.112860501,0.007802748,0.4840340316295624,2.677978277206421
1.119887829,0.4694593846797943,4.07849729526788e-05,-0.8845855,0.003025691,-0.003282159,0.008430788,-0.529983997,-0.283035755,-0.112548776,0.007829978,0.4840258061885834,2.677971839904785
1.124884725,0.4691909849643707,0.001465544,-0.883551359,0.002989275,-0.001504202,0.005329228,-0.529753625,-0.282931179,-0.112308919,0.007843176,0.4840253293514252,2.677934169769287
1.129882336,0.4686233103275299,0.001348919,-0.886816919,0.001641706,-0.001943598,0.006263975,-0.529677212,-0.282896489,-0.112229392,0.00785525,0.4840166866779327,2.677916526794434
1.13488102,0.4682463407516479,0.00203733,-0.885767102,0.000221264,-7.16E-05,0.005599577,-0.529589117,-0.282928169,-0.112168111,0.007850711,0.4840188324451447,2.677880287
1.139880657,0.4675217568874359,0.003225202,-0.884414136,0.000366829,-0.000161146,0.004775103,-0.529530346,-0.282997489,-0.112147696,0.007836269,0.4840215146541595,2.677846431732178
1.144881368,0.4679513573646545,0.003989131,-0.884729981,0.000639066,-0.000100976,0.006151359,-0.529485106,-0.283050835,-0.11213199,0.007835758,0.4840256869792938,2.677824735641479
1.149883151,0.4677557349205017,0.005077443,-0.885470152,5.7196244597435e-05,0.001173874,0.006064315,-0.529470086,-0.283068508,-0.112126783,0.007820642,0.4840411245822906,2.677794933319092
1.154880047,0.4692941009998322,0.005587465,-0.885898113,-0.00014189,0.003175112,0.004891409,-0.529458582,-0.283082098,-0.112122774,0.007808784,0.4840604364871979,2.677755355834961
1.159877658,0.469774067,0.005898889,-0.884403884,-0.000315933,0.001779043,0.00553546,-0.529001951,-0.283097923,-0.112411626,0.007799229,0.4840737879276276,2.677718162536621
1.164876342,0.4666531085968018,0.003454279,-0.88411659,0.000406652,0.000338561,0.004490205,-0.528650582,-0.283110112,-0.112633877,0.00779858,0.4840781688690186,2.677684307098389
1.169875979,0.4680473506450653,0.002746348,-0.884917021,-0.000161896,0.001422846,0.005700588,-0.528534055,-0.283114165,-0.11270757,0.007792913,0.4840934574604034,2.677651405334473
1.174876451,0.4679315686225891,0.003387786,-0.884979725,-0.000232663,0.001316221,0.00568508,-0.528444409,-0.283117265,-0.112764269,0.007790142,0.4840988218784332,2.677620410919189
1.179878354,0.4673434793949127,0.004190676,-0.885156691,0.000498819,0.002656506,0.005191603,-0.528586924,-0.283083916,-0.11254032,0.007786129,0.4841117262840271,2.677585601806641
1.18487525,0.4685136377811432,0.003710362,-0.884475648,0.000537777,0.000858734,0.002624232,-0.528870642,-0.283023447,-0.112122558,0.00777114,0.4841205775737762,2.677538871765137
1.189873099,0.4687238037586212,0.005318041,-0.885293782,0.000893012,0.00059948,0.004397584,-0.528964698,-0.28300342,-0.111984037,0.007760461,0.484127551,2.677508354187012
1.194871545,0.4692517817020416,0.003843967,-0.883966804,0.001386681,0.002350808,0.004683879,-0.529037118,-0.282988012,-0.111877449,0.007760299,0.4841461181640625,2.677477121353149
1.199870944,0.4684473872184753,0.004997541,-0.884198427,0.001677276,0.00167356,0.003908564,-0.529061139,-0.282982886,-0.111842103,0.007753994,0.4841583669185638,2.677431822
1.204871655,0.4696072936058044,0.004451416,-0.885292411,0.001524107,0.000927295,0.003390117,-0.529011309,-0.282985359,-0.112377271,0.007752434,0.4841739535331726,2.677391052246094
1.209873676,0.4701862335205078,0.004625354,-0.88401407,-0.000281038,0.001022953,0.004437189,-0.528994739,-0.282986194,-0.112554722,0.007743447,0.4841848611831665,2.677353858947754
1.214870811,0.4701049327850342,0.004023571,-0.882259429,0.002333942,0.001148626,0.004307762,-0.528982043,-0.28298682,-0.112691261,0.007748273,0.4842000007629395,2.677316188812256
1.219868422,0.4698961675167084,0.004460109,-0.886898458,0.001649024,0.002507872,0.005873783,-0.528977811,-0.282987028,-0.112736538,0.007749641,0.4842103719711304,2.677287578582764
1.224867105,0.4686866402626038,0.006000718,-0.883573174,0.003101976,0.000835786,0.005857334,-0.529325247,-0.282983363,-0.113093033,0.007754421,0.4842219352722168,2.677250862121582
1.229866743,0.469370037,0.006760918,-0.885601461,0.005851773,0.002102371,0.005337012,-0.529527187,-0.282981217,-0.113290831,0.007766065,0.4842443764209747,2.677224159240723
1.234873891,0.4675771594047546,0.005165952,-0.882465541,0.003976754,0.000699857,0.006212759,-0.529682577,-0.282979578,-0.113443032,0.007778745,0.4842525720596313,2.677201509475708
1.23987639,0.4693581759929657,0.004933116,-0.884928346,0.005138209,0.000141629,0.006469381,-0.529734135,-0.282979041,-0.113493495,0.007796166,0.4842556715011597,2.677173852920532
1.244873762,0.469274104,0.003885881,-0.882783175,0.005687628,-0.000287074,0.00625275,-0.529687464,-0.283065498,-0.11337316,0.00782511,0.484262228,2.677152156829834
1.249871612,0.468514085,0.00461473,-0.884738326,0.0056145,-0.000821964,0.00547234,-0.529584944,-0.283181787,-0.113172755,0.007844333,0.4842635989189148,2.677127122879028
1.254870296,0.4684927463531494,0.005660975,-0.883972585,0.005011804,-0.001314434,0.007233414,-0.529506028,-0.283271253,-0.113018557,0.007860902,0.4842650890350342,2.677110195159912
1.259869695,0.4690379798412323,0.005174045,-0.884358943,0.004214315,-0.001703869,0.008058084,-0.529479861,-0.283300906,-0.112967424,0.00788101,0.4842610359191895,2.677092075
1.264870405,0.4673523008823395,0.004529101,-0.884494483,0.004312544,-0.000276321,0.007495093,-0.529459774,-0.283323765,-0.112928085,0.007899422,0.4842645823955536,2.677071571350098
1.269872069,0.4689740538597107,0.002961444,-0.884964466,0.003899308,0.001561126,0.006817921,-0.529101372,-0.283387303,-0.112733565,0.007916056,0.4842767119407654,2.677047014
1.274868965,0.4677678048610687,0.002648202,-0.885852635,0.004227169,0.0016729,0.00745677,-0.528825581,-0.283436179,-0.112583891,0.00794069,0.484290212,2.677028179168701
1.279866576,0.468644381,0.004125877,-0.886449754,0.00369767,0.003335635,0.006281687,-0.528734148,-0.283452392,-0.112534262,0.007952935,0.4843064844608307,2.677004337310791
1.28486526,0.4669923484325409,0.002132313,-0.885341406,0.001986914,0.003787709,0.006405468,-0.528663814,-0.283464879,-0.112496078,0.007960515,0.4843288958072662,2.676976203918457
1.289865017,0.4680718183517456,-0.000798317,-0.885700762,0.001068407,0.005598926,0.005979607,-0.528784156,-0.283380061,-0.112534918,0.007974517,0.484358162,2.676955938339233
1.294865966,0.4672306478023529,0.000994453,-0.883955181,0.000307578,0.004006437,0.004992893,-0.529022038,-0.283224821,-0.112616882,0.007975313,0.4843872487545013,2.676924705505371
1.29986763,0.4703674018383026,0.000527291,-0.884629428,0.000896125,0.005745531,0.00517663,-0.529100895,-0.283173352,-0.112644061,0.007982505,0.4844244122505188,2.676892518997192
1.304864526,0.4687267243862152,0.003445911,-0.883892417,4.177878145128489e-05,0.006744267,0.003480267,-0.529161572,-0.283133745,-0.112664975,0.007977357,0.4844659566879272,2.676853656768799
1.309862137,0.4678281545639038,0.002848546,-0.884661376,0.000836991,0.006108224,0.005120849,-0.529181719,-0.283120602,-0.112671912,0.007973592,0.4844938218593597,2.676828145980835
1.314860821,0.4678260385990143,0.004564505,-0.882891178,0.000278113,0.006076922,0.004264495,-0.529262304,-0.283179104,-0.112924591,0.007967234,0.4845374524593353,2.676788330078125
1.319860458,0.467981756,0.004172854,-0.885038912,0.001282848,0.004657046,0.00504559,-0.529289067,-0.283198506,-0.113008372,0.007963232,0.4845589995384216,2.676757097244263
1.324861407,0.4681800603866577,0.004037337,-0.882828534,0.000533502,0.004591441,0.006196629,-0.529309571,-0.283213437,-0.113072842,0.007962124,0.4845854043960571,2.676729202270508
1.329863191,0.4688892066478729,0.00470925,-0.883961141,0.000668995,0.003690117,0.005718953,-0.529316366,-0.283218384,-0.113094218,0.007954134,0.4846079647541046,2.676700115203857
1.334860086,0.4689390361309052,0.004666719,-0.882177055,0.003747283,0.004049423,0.005993392,-0.529523194,-0.283167422,-0.113107368,0.007971619,0.484633207,2.676680088043213
1.339857459,0.4704440832138062,0.006096118,-0.883263409,0.004463149,0.004397692,0.00692642,-0.529641688,-0.283136964,-0.113110915,0.007986938,0.4846680760383606,2.676662445068359
1.344856858,0.4702233076095581,0.004767652,-0.883653998,0.00359851,0.001579748,0.007987267,-0.529732823,-0.283113539,-0.113113642,0.008006328,0.484683484,2.676646947860718
1.349856496,0.4715049564838409,0.005183605,-0.885315776,0.005050071,0.001994475,0.009817238,-0.529763043,-0.283105761,-0.113114543,0.00803545,0.4847025275230408,2.676646709442139
1.354856968,0.471630871,0.004186427,-0.884867847,0.004908777,0.001631111,0.009376629,-0.529588342,-0.28301549,-0.112960175,0.008059584,0.4847129583358765,2.676633596420288
1.359858632,0.4692673087120056,0.002161725,-0.883440971,0.00376034,0.002293294,0.00873196,-0.52933073,-0.282900572,-0.112752631,0.00808176,0.4847287535667419,2.676621913909912
1.364855289,0.4703263342380524,0.004002464,-0.885540307,0.004796035,0.00228993,0.009717963,-0.529132545,-0.282812148,-0.112592936,0.008112938,0.4847480058670044,2.676619291305542
1.369859576,0.4694627225399017,0.002807104,-0.88401103,0.003867726,0.002263899,0.008049324,-0.529066801,-0.282782823,-0.112539984,0.008135625,0.4847608208656311,2.676605939865112
1.374858737,0.4684083461761475,0.004094724,-0.884822488,0.002629347,0.003453797,0.009190916,-0.529016197,-0.282760292,-0.112499245,0.008150413,0.4847824573516846,2.676598549
1.379858375,0.4687464237213135,0.002360843,-0.885839462,0.002224386,0.003596351,0.009211907,-0.529300094,-0.282797873,-0.112479381,0.008167678,0.4848089218139648,2.676590442657471
1.384859085,0.4693431854248047,0.001172474,-0.884299457,0.001438254,0.005876204,0.008074013,-0.529518545,-0.282826781,-0.112464093,0.008187443,0.4848411977291107,2.676584482192993
1.389861107,0.4688066244125366,-0.000296533,-0.884841681,0.000169423,0.007047084,0.006647591,-0.529590964,-0.282836378,-0.112459026,0.008185745,0.4848872125148773,2.676561356
1.394858003,0.4704118967056274,-0.001183568,-0.885001838,-0.001969925,0.00650541,0.005306163,-0.529646635,-0.282843739,-0.11245513,0.008181099,0.48492685,2.676540613174438
1.399856329,0.4690342843532562,0.002065184,-0.884577274,-0.004621256,0.007485698,0.005869478,-0.529550791,-0.282849133,-0.112535961,0.008148956,0.4849627912044525,2.676507949829102
1.404855013,0.4685567915439606,0.003999859,-0.885571182,-0.002096878,0.008476384,0.00403559,-0.529361486,-0.282856226,-0.11268118,0.008125157,0.4850078523159027,2.676470041275024
1.409855008,0.4685864746570587,0.004952921,-0.885500669,-0.002957495,0.009629736,0.003708322,-0.529298723,-0.28285858,-0.112729333,0.008096701,0.4850566387176514,2.676434278488159
1.41485548,0.4686324894428253,0.003570377,-0.88479507,-0.001165246,0.00937331,0.004833011,-0.529250443,-0.282860398,-0.112766385,0.008086274,0.4851084649562836,2.676400423049927
1.419857383,0.4677492678165436,0.003749993,-0.885672033,-0.003128442,0.009401377,0.004050618,-0.529234409,-0.282860994,-0.112778671,0.008057697,0.4851516485214233,2.676367998123169
1.424854279,0.4694034457206726,0.00295855,-0.883264482,-0.002449572,0.010448352,0.005424301,-0.529220879,-0.282865465,-0.113224521,0.008044022,0.485213965,2.676340103149414
1.429852366,0.4687681198120117,0.004959591,-0.884086132,-0.002507994,0.009703317,0.003555551,-0.529216409,-0.282866955,-0.113372356,0.008019619,0.485266387,2.676304817199707
1.43485105,0.4713005125522614,0.005411286,-0.883754373,-0.003339145,0.009318374,0.004127174,-0.529212952,-0.282868087,-0.113486111,0.007986835,0.4853239357471466,2.676265239715576
1.439850807,0.4695112407207489,0.00512532,-0.884889722,5.322520155459642e-05,0.006780785,0.002638552,-0.529211819,-0.282868445,-0.113523826,0.00797376,0.4853633344173431,2.676225185394287
1.44485116,0.4712280929088593,0.006324435,-0.883295357,-4.10E-05,0.008132318,0.004151396,-0.528910398,-0.282872021,-0.113277145,0.007956802,0.485412985,2.676188945770264
1.449852943,0.470851719,0.005283254,-0.882144272,0.001541439,0.00897772,0.006822149,-0.528736055,-0.282874018,-0.113127127,0.007957803,0.4854685962200165,2.676171541213989
1.454850078,0.4684740602970123,0.006079931,-0.883182943,0.000938835,0.007561397,0.006033221,-0.528601885,-0.282875538,-0.113011695,0.007957043,0.4855104386806488,2.676151514053345
1.459847689,0.4685773253440857,0.007184557,-0.883765459,0.001674581,0.006730441,0.007710438,-0.52855742,-0.282876045,-0.112973422,0.007960212,0.4855471849441528,2.676138401031494
1.464846373,0.4704045355319977,0.003949026,-0.886664867,7.157123036449775e-05,0.008457403,0.008084232,-0.52855128,-0.282877326,-0.113103278,0.007962682,0.4855939447879791,2.676123857498169
1.46984601,0.4711019396781921,0.003133686,-0.885890663,0.001049098,0.008597725,0.007019624,-0.528577626,-0.282878667,-0.113306977,0.007969757,0.4856427013874054,2.676108121871948
1.474846721,0.471290112,0.004840527,-0.882764161,0.001428973,0.008116449,0.007306668,-0.528597832,-0.28287971,-0.113463707,0.007976647,0.4856939911842346,2.676090240478516
1.479848981,0.4721658825874329,0.004708004,-0.88388598,0.002293145,0.007728608,0.008073785,-0.528604567,-0.282880038,-0.113515675,0.007992724,0.4857365489006042,2.676084280014038
1.484846354,0.4717019498348236,0.001353706,-0.882544935,0.001811103,0.006065247,0.009518808,-0.528609693,-0.282880306,-0.113555662,0.008015146,0.4857764542102814,2.676079034805298
1.489843965,0.4734424352645874,0.004995253,-0.883698046,0.003046213,0.007783138,0.007404041,-0.528911352,-0.282927603,-0.113797151,0.008027745,0.4858323335647583,2.676064729690552
1.494842649,0.4719049036502838,0.005531154,-0.881538451,0.002924169,0.005445368,0.008333603,-0.529143512,-0.282963991,-0.113982953,0.008042091,0.485868365,2.676055908203125
1.499842286,0.4721413254737854,0.002175817,-0.882961869,0.002429727,0.006819142,0.009313339,-0.529220462,-0.282976061,-0.114044562,0.008069342,0.4859137535095215,2.676056146621704
1.504849195,0.4710074663162231,0.003303281,-0.88449055,0.003357997,0.005500849,0.00906285,-0.529279709,-0.28298533,-0.114091963,0.008083475,0.4859391152858734,2.676042556762695
1.509851098,0.4732740521430969,0.001593623,-0.883508027,0.004720845,0.004574733,0.007558911,-0.529272199,-0.282929212,-0.113895729,0.00811852,0.4859745502471924,2.676029443740845
1.514847994,0.4717475771903992,0.001511337,-0.883156896,0.00445315,0.005069319,0.007690272,-0.529238999,-0.282826155,-0.113530427,0.008143084,0.4860088229179382,2.676017045974731
1.519845605,0.4727747738361359,0.000753748,-0.882733643,0.003970223,0.004422788,0.00824153,-0.529227972,-0.282792002,-0.113409303,0.008171028,0.4860444366931915,2.676008462905884
1.52484405,0.4709895551204681,0.001964114,-0.881513536,0.001620927,0.004398072,0.007706794,-0.529219568,-0.282765716,-0.113316096,0.008176707,0.4860693514347076,2.675995349884033
1.529843688,0.4720578193664551,0.00100295,-0.883185923,0.002467716,0.002491311,0.004609383,-0.529216766,-0.282757014,-0.113285199,0.008187522,0.4860908389091492,2.675966262817383
1.534844637,0.4721611738204956,0.000975719,-0.88256526,0.003039829,0.001243303,0.00492566,-0.529415488,-0.282744139,-0.113008209,0.008203834,0.4861063659191132,2.675940752029419
1.539846659,0.4710926413536072,0.00077607,-0.882833481,-1.19E-05,0.000318184,0.00528035,-0.529481351,-0.282739878,-0.112916365,0.00820367,0.4861134886741638,2.675924062728882
1.544843793,0.4709384441375732,0.001109417,-0.881180823,-0.001428208,0.000381913,0.005700257,-0.529532015,-0.282736599,-0.112845697,0.008197969,0.4861229360103607,2.675894498825073
1.549841404,0.4720224440097809,0.001099843,-0.882482588,-0.001691665,0.000208746,0.002810546,-0.529548824,-0.282735497,-0.112822264,0.0081864,0.4861320853233337,2.675858020782471
1.554839849,0.4722421169281006,0.000492382,-0.883056164,-0.000387809,-0.001865357,0.004895049,-0.529060245,-0.282596439,-0.113331646,0.008188525,0.4861283898353577,2.675835371017456
1.559839487,0.4724892973899841,0.003718391,-0.882940292,0.001143078,-0.001650888,0.005087307,-0.528774142,-0.282516152,-0.113631055,0.00819016,0.4861347079277039,2.675811529159546
1.564840198,0.4717371463775635,0.00500415,-0.883199155,0.001000223,-0.002918204,0.004358229,-0.528554022,-0.282454371,-0.113861434,0.008180577,0.486118346,2.675772905349731
1.569842219,0.4709659218788147,0.004836019,-0.883389831,0.002950109,-0.004969688,0.006161813,-0.528481007,-0.282433867,-0.113937818,0.008187479,0.4860982000827789,2.675751686096191
1.574838996,0.4709157347679138,0.005176064,-0.881986022,0.001957536,-0.004747576,0.004068447,-0.528566539,-0.282501072,-0.113886327,0.008182934,0.4860833883285522,2.675721406936646
1.579836726,0.4717725515365601,0.007192791,-0.883537531,0.004317278,-0.005883831,0.006087749,-0.528737724,-0.282606989,-0.113758065,0.008188435,0.4860615134239197,2.675693988800049
1.584835291,0.4697002470493317,0.00535928,-0.883696139,0.005591137,-0.004713969,0.005262045,-0.52886951,-0.282688498,-0.113659367,0.008211365,0.4860374331474304,2.675673484802246
1.589835525,0.4687932431697845,0.005611795,-0.88423872,0.004668129,-0.003516923,0.006965723,-0.5289132,-0.282715529,-0.113626644,0.008229654,0.4860207736492157,2.675656080245972
1.594836712,0.4683826565742493,0.005672739,-0.884434164,0.00469842,-0.005139967,0.006613704,-0.528946817,-0.282736331,-0.113601469,0.008246204,0.4859969019889832,2.675635099411011
1.599838495,0.4699619710445404,0.003644993,-0.886140883,0.006978741,-0.00513199,0.005904001,-0.529108524,-0.282740742,-0.113637142,0.008280452,0.4859760701656342,2.675612688064575
1.604835629,0.4685571789741516,0.003071224,-0.884211302,0.003977272,-0.00356837,0.006305619,-0.529232979,-0.282744139,-0.113664582,0.008296608,0.4859625995159149,2.675590991973877
1.609833241,0.468681276,0.002326374,-0.88424015,0.006168008,-0.00433466,0.004932071,-0.529274225,-0.282745242,-0.113673687,0.008317096,0.4859444499015808,2.675565958023071
1.614831924,0.4694823026657104,0.004032989,-0.884913445,0.005731191,-0.001290829,0.005520364,-0.529305995,-0.282746106,-0.113680683,0.008340478,0.4859444499015808,2.675543785095215
1.6198318,0.4704706370830536,0.00616751,-0.884409726,0.004030965,0.000335215,0.005594451,-0.529374003,-0.282716155,-0.11365559,0.00835118,0.485951841,2.675519227981567
1.624832749,0.4706742763519287,0.004337864,-0.885120034,0.004448453,-0.001056018,0.007459756,-0.52948451,-0.282662541,-0.113608554,0.008372898,0.4859532415866852,2.675505399703979
1.629834533,0.4708647131919861,0.003955255,-0.885344744,0.005515358,0.000642057,0.006255429,-0.529521167,-0.282644749,-0.113592952,0.008395742,0.4859654605388641,2.675488471984863
1.634831309,0.4690192043781281,0.003752671,-0.884305775,0.006111936,0.002381516,0.005205048,-0.52954936,-0.282631069,-0.11358095,0.008413977,0.4859748482704163,2.675458669662476
1.639835119,0.4691685438156128,0.003650008,-0.883747399,0.005640234,0.003016908,0.007782546,-0.529558718,-0.28262651,-0.113576971,0.008438102,0.4859904646873474,2.675450086593628
1.644834042,0.4683930277824402,0.002653726,-0.883863986,0.005481598,0.002723078,0.006509225,-0.529094994,-0.282837749,-0.113892354,0.008466269,0.4860077798366547,2.675427913665771
1.649833679,0.47031939,0.001583054,-0.884366632,0.004946787,0.003307343,0.006795667,-0.528941274,-0.282907814,-0.113996923,0.008490128,0.4860288202762604,2.675408601760864
1.654834747,0.4703264236450195,0.002631858,-0.883775592,0.002895815,0.003248572,0.006551493,-0.528823018,-0.282961726,-0.114077382,0.008504092,0.4860535562038422,2.675388813018799
1.659836411,0.4699206650257111,0.002779615,-0.884283781,0.004319386,0.002829893,0.006696878,-0.528783798,-0.282979578,-0.114104062,0.008523393,0.4860734641551971,2.675366163253784
1.664833307,0.4710138142108917,0.003464515,-0.883468747,0.003395078,0.003408627,0.007130397,-0.528909802,-0.282680809,-0.113655925,0.00853703,0.4860959351062775,2.675348759
1.669830918,0.4712735414505005,0.001800806,-0.883355558,0.004254552,0.005110173,0.004624179,-0.528990269,-0.282504439,-0.113391355,0.008553951,0.4861264228820801,2.675323009490967
1.674830079,0.4730204045772552,0.002017018,-0.88265729,0.002954443,0.002549691,0.005440134,-0.529052198,-0.28236872,-0.113187782,0.008562451,0.4861470460891724,2.675295829772949
1.679830074,0.471866101,0.001996593,-0.881048262,0.000820176,0.00374854,0.004765546,-0.529072762,-0.282323718,-0.11312028,0.008564835,0.4861783683300018,2.675275087356567
1.684830666,0.4703975319862366,0.003082751,-0.880465269,0.00125777,0.003106027,0.004268404,-0.529202282,-0.282287836,-0.113172725,0.008563846,0.4861993789672852,2.675245523452759
1.689832449,0.472422868,0.001682821,-0.88340807,-0.000702902,0.0037844,0.003101272,-0.529359937,-0.282274723,-0.113295369,0.008551328,0.4862261414527893,2.675213337
1.694829345,0.4703784883022308,0.001249521,-0.883583307,-0.000867198,0.002195163,0.0023321,-0.529481292,-0.28226462,-0.113389738,0.008539177,0.4862457513809204,2.675167322158813
1.699827433,0.4711153507232666,0.001285112,-0.882567525,-0.000893642,0.003592897,0.003099453,-0.529521525,-0.282261252,-0.11342103,0.008529996,0.4862712025642395,2.675135612487793
1.704826117,0.4697946310043335,0.002976113,-0.883011878,0.000652851,0.005046163,0.002732621,-0.529552519,-0.282258689,-0.113445111,0.008520204,0.4863004386425018,2.675099134
1.709825993,0.4705244302749634,0.003673596,-0.88322562,-0.000109098,0.005831324,0.003738589,-0.529457808,-0.282565951,-0.113545477,0.0085074,0.4863330125808716,2.675061941146851
1.714826703,0.4711323380470276,0.004398627,-0.882977128,-4.17E-05,0.005695547,0.004790575,-0.529384971,-0.282802343,-0.113622695,0.008501433,0.4863677024841309,2.675037860870361
1.719828486,0.4708693027496338,0.004006235,-0.882725,0.001223613,0.003741212,0.003796228,-0.529360831,-0.282880723,-0.113648303,0.008494709,0.4863901734352112,2.675005435943604
1.724825382,0.4702319204807281,0.003934472,-0.884171188,-0.000851766,0.005459815,0.005628359,-0.529342234,-0.282941043,-0.113668002,0.008484736,0.4864189028739929,2.674978494644165
1.72982347,0.4710469841957092,0.003432051,-0.885761082,-0.001151321,0.004774688,0.006131588,-0.529366672,-0.282815754,-0.113648944,0.008478031,0.4864469766616821,2.674953460693359
1.734822392,0.4707550704479218,0.00488958,-0.883191109,-1.32E-05,0.004501543,0.005643872,-0.529416442,-0.282572478,-0.113608405,0.008468711,0.4864799976348877,2.674937248
1.739822388,0.4720989465713501,0.004572672,-0.883244753,3.104581264778972e-05,0.007438376,0.006502053,-0.529432952,-0.282491803,-0.113594957,0.0084682,0.4865255653858185,2.674921274185181
1.744823098,0.473021388,0.003825227,-0.882768273,0.00095432,0.006284842,0.005888497,-0.529445648,-0.282429755,-0.113584615,0.008466217,0.4865701496601105,2.674896240234375
1.749825239,0.4723206460475922,0.0027273,-0.883216977,0.001009967,0.00807799,0.00666368,-0.529449821,-0.282409161,-0.113581188,0.008470587,0.4866113066673279,2.674881697
1.754822373,0.4691801071166992,0.002851537,-0.884212554,0.001233401,0.008651456,0.008211842,-0.529316604,-0.28259933,-0.11364121,0.008469357,0.4866583347320557,2.674870968
1.759820342,0.4688846468925476,0.001427831,-0.884069264,-0.000666114,0.007862926,0.005724091,-0.529272437,-0.282662362,-0.11366111,0.008465081,0.486697257,2.674853086471558
1.764819503,0.4716103374958038,0.003225767,-0.883312583,0.001525527,0.009706939,0.007071327,-0.529238403,-0.28271088,-0.113676421,0.008475073,0.4867497980594635,2.674837589263916
1.76981914,0.4721255302429199,0.003952497,-0.885143042,0.001685316,0.009732703,0.007525417,-0.529227138,-0.282726943,-0.113681503,0.008482219,0.4868099689483643,2.674826145172119
1.774826527,0.4721024036407471,0.003040344,-0.88392663,0.000504488,0.008462305,0.00777883,-0.529270172,-0.282636613,-0.113685571,0.008485692,0.4868585169315338,2.674814462661743
1.779828787,0.472828746,9.418919216841459e-05,-0.881923497,0.000220535,0.010529836,0.005899242,-0.529297173,-0.28258124,-0.113686964,0.008490484,0.4869224429130554,2.674792528152466
1.784826398,0.4726809561252594,0.001363197,-0.882238209,0.000425995,0.009898541,0.005005956,-0.529317975,-0.282538623,-0.113688029,0.00848747,0.486980677,2.674769878387451
1.789824009,0.4709353744983673,0.002579438,-0.881159127,-0.000502426,0.008417688,0.003585516,-0.529324889,-0.282524496,-0.113688387,0.008473074,0.4870286583900452,2.674737930297852
1.794822693,0.4705454707145691,0.002427642,-0.883446336,0.000352333,0.009882365,0.005576775,-0.529273331,-0.282513976,-0.113609828,0.008469485,0.4870797395706177,2.674715995788574
1.79982233,0.4722405672073364,0.001905466,-0.882740498,0.000323743,0.007663219,0.003293998,-0.529198945,-0.282510877,-0.113504291,0.008466262,0.4871239960193634,2.674679040908813
1.804823279,0.4720592498779297,-0.000731887,-0.882557094,-0.000529527,0.008103074,0.003742469,-0.529141724,-0.282508492,-0.113423079,0.008459982,0.4871712327003479,2.674650192260742
1.80982554,0.4742039144039154,0.001143972,-0.881909788,-0.00164372,0.006831104,0.00484565,-0.52912271,-0.282507718,-0.113396153,0.008446311,0.4872172474861145,2.674621582
1.814822912,0.4739410877227783,0.00258105,-0.881801307,-0.001819158,0.007152274,0.001405837,-0.529108107,-0.282507092,-0.11337544,0.008421453,0.4872607290744781,2.674576521
1.819820762,0.472996324,0.002476979,-0.880971491,-0.003098806,0.006290308,0.003469861,-0.529405355,-0.282401443,-0.113598481,0.008398171,0.4873067140579224,2.674543619155884
1.824819684,0.4722338914871216,0.002757245,-0.882370651,-0.002718858,0.007346276,0.00270184,-0.529634118,-0.282320142,-0.11377009,0.008374337,0.4873468279838562,2.674501419067383
1.829819441,0.4709754884243011,0.003530794,-0.882890761,-0.001976502,0.006244916,0.003254812,-0.529709995,-0.282293171,-0.11382699,0.008350058,0.4873844385147095,2.674468040466309
1.834820628,0.4733295738697052,0.004534681,-0.881706119,-0.003052478,0.008117725,0.003447897,-0.529768288,-0.282272458,-0.113870777,0.008319597,0.4874332547187805,2.674432277679443
1.839822292,0.4724229574203491,0.002945244,-0.883464098,-0.00318013,0.005891249,0.003052045,-0.529615104,-0.282356292,-0.113967553,0.008296212,0.4874657690525055,2.674396276473999
1.844819427,0.4723259210586548,0.003178823,-0.883559644,-0.001537848,0.006338215,0.002812547,-0.529322743,-0.282512546,-0.114125192,0.008277003,0.4875012040138245,2.674357175827026
1.849817395,0.4723838865756989,0.004327661,-0.882194936,-0.001853189,0.007071842,0.003001675,-0.529225826,-0.282564342,-0.114177458,0.008256671,0.4875408709049225,2.674327850341797
1.85481596,0.4717864096164703,0.006887297,-0.883555055,-0.000423023,0.007055557,0.0049627,-0.529151201,-0.282604218,-0.114217676,0.008234954,0.4875770807266235,2.674293279647827
1.859815717,0.4732840359210968,0.005048079,-0.883050025,-0.001791566,0.006205432,0.005195548,-0.529126525,-0.28261745,-0.114231013,0.008214951,0.4876126646995544,2.674265862
1.864816427,0.4729240238666534,0.00548704,-0.882104874,0.00038766,0.004929204,0.005064965,-0.529042602,-0.282493681,-0.114244051,0.008204575,0.487638533,2.674243450164795
1.86981833,0.4703072011470795,0.003795459,-0.883163214,0.001330752,0.004756387,0.005746115,-0.529014766,-0.282452643,-0.11424838,0.008210635,0.487661213,2.674221277236938
1.874815226,0.472828597,0.003854812,-0.88343209,0.000281978,0.005988602,0.006129799,-0.528993368,-0.282421082,-0.114251703,0.008211645,0.4876987040042877,2.674206495285034
1.879812837,0.4721342921257019,0.003655995,-0.883873224,0.002106165,0.005516316,0.006733689,-0.528986275,-0.282410592,-0.114252806,0.008222784,0.4877237379550934,2.674200773239136
1.884811521,0.4719052314758301,0.00234059,-0.882831931,0.000717371,0.004338123,0.006153547,-0.52917856,-0.282554746,-0.114623427,0.008231802,0.4877523481845856,2.674180746078491
1.889811397,0.4724223613739014,0.003094129,-0.883298278,-0.000159834,0.005484852,0.006332319,-0.529291213,-0.282640189,-0.114837818,0.008223781,0.4877828359603882,2.674162149429321
1.894812703,0.4730853140354156,0.001937427,-0.882107139,-0.000438175,0.005439573,0.004253207,-0.529377937,-0.282705933,-0.115002781,0.008214174,0.4878203868865967,2.674132108688354
1.899814367,0.4726757109165192,0.000235928,-0.884238064,-0.002372541,0.006135435,0.003384014,-0.529406667,-0.282727718,-0.115057476,0.008198729,0.4878567159175873,2.674101114273071
1.904811263,0.473100334,0.000832718,-0.882544994,-0.001754252,0.006371993,0.004720832,-0.529373288,-0.282685369,-0.114834875,0.008186896,0.4878950417041779,2.674074172973633
1.909815311,0.4726645946502686,0.003354179,-0.882050097,-0.002791398,0.006250918,0.003065453,-0.529306233,-0.282611698,-0.11449416,0.008151084,0.4879325330257416,2.67403245
1.914814234,0.4737707078456879,0.002538458,-0.882030845,-0.003633406,0.00645123,0.003325761,-0.529254675,-0.282555044,-0.114232004,0.008127962,0.4879711270332336,2.673999547958374
1.919814348,0.4739692807197571,0.003422931,-0.882358015,-0.003823258,0.005914622,0.004656753,-0.529237568,-0.282536238,-0.114145078,0.008100992,0.4880132675170898,2.673972368240356
1.924815059,0.4737118184566498,0.005415282,-0.881910503,-0.002416321,0.003818956,0.00381686,-0.529224396,-0.282521784,-0.114078194,0.008070044,0.4880343079566956,2.673937320709229
1.92981708,0.4728159308433533,0.00457952,-0.8832708,-0.002803243,0.005122253,0.003583176,-0.529470086,-0.282564312,-0.114191368,0.008045009,0.4880663454532623,2.673907518386841
1.934813976,0.4711890518665314,0.006547878,-0.882546246,-0.002570074,0.004309037,0.003980441,-0.529659152,-0.282597035,-0.114278451,0.008015867,0.4880914688110352,2.673872232437134
1.939811587,0.4735285043716431,0.005972989,-0.881232381,-0.002158329,0.003213266,0.003722824,-0.529721797,-0.282607883,-0.114307329,0.007991075,0.4881136417388916,2.673844814300537
1.944810748,0.4747270941734314,0.002793438,-0.881600916,-0.000509853,0.001719941,0.005723739,-0.529770017,-0.282616228,-0.114329547,0.007986915,0.488135964,2.673826694488525
1.949810982,0.473771334,0.003334509,-0.882091761,-0.001726835,0.002289249,0.002417424,-0.529670656,-0.282653034,-0.11465849,0.00796483,0.4881550967693329,2.673784971237183
1.954811931,0.4738441109657288,0.00405532,-0.883215308,-0.001525702,0.000624464,0.002936651,-0.529477477,-0.282715738,-0.115236767,0.007949078,0.4881615042686462,2.673750400543213
1.959813595,0.4722821414470673,0.001728401,-0.882383823,-0.002167277,0.001763359,0.004851203,-0.529413462,-0.28273651,-0.115428515,0.007932008,0.4881746768951416,2.673727512359619
1.964810729,0.4733313918113708,0.005488103,-0.881925046,-0.00193087,5.247065564617515e-05,0.004682125,-0.529364169,-0.282752514,-0.115576044,0.007908391,0.4881798028945923,2.673703432
1.969808698,0.4750542938709259,0.004987526,-0.879880428,-0.001666673,0.000336035,0.004892282,-0.529347837,-0.282757819,-0.115624964,0.007891648,0.4881978929042816,2.673676013946533
1.974807501,0.4747500717639923,0.002856096,-0.880239785,-0.000301775,0.000360671,0.004945524,-0.529006064,-0.282624573,-0.11473538,0.007891455,0.4882104396820068,2.673656463623047
1.979807258,0.4751357138156891,0.004348827,-0.881112158,0.003081524,-0.000276454,0.004044874,-0.528892756,-0.282580405,-0.114440411,0.007890979,0.4882187843322754,2.673626899719238
1.984808207,0.4743800759315491,0.00616242,-0.882369161,0.001522977,-0.002393094,0.005721524,-0.528805554,-0.282546431,-0.114213452,0.007888012,0.4882099032402039,2.673603534698486
1.989809871,0.4741363227367401,0.005002342,-0.8833974,0.001816679,-0.004230153,0.003565617,-0.528776646,-0.282535136,-0.114138193,0.007886759,0.4882034957408905,2.673568964004517
1.994806767,0.4736135303974152,0.003625491,-0.884038687,0.002388603,-0.002017436,0.003194862,-0.528754234,-0.282478601,-0.114409253,0.007892285,0.4881957471370697,2.673541546
1.999804974,0.474336714,0.005893294,-0.883898795,0.002456219,-0.003174813,0.004525383,-0.528746724,-0.282447994,-0.114580534,0.007886591,0.4881828427314758,2.673511505126953
2.004803896,0.4722991287708282,0.004816182,-0.884266078,0.00407892,-0.004697298,0.005128941,-0.528740942,-0.28242445,-0.11471232,0.007902128,0.488160104,2.673488855361938
2.009803534,0.4733462631702423,0.004673537,-0.883408546,0.003954814,-0.00232605,0.004428086,-0.528739035,-0.282416642,-0.114756025,0.007913074,0.4881521165370941,2.673465967178345
2.014804363,0.4730045199394226,0.005134092,-0.882556975,0.003164421,-0.004120039,0.004760657,-0.528880417,-0.282379448,-0.114840522,0.007920489,0.4881369471549988,2.673441171646118
2.019806385,0.4746648073196411,0.00603133,-0.881233931,0.004920593,-0.00454076,0.00580438,-0.529071391,-0.282335699,-0.114919826,0.007933774,0.4881190359592438,2.673425197601318
2.0248034,0.4750853180885315,0.006276021,-0.88313812,0.004730843,-0.007435673,0.006361612,-0.529218376,-0.282302052,-0.114980847,0.007950014,0.4880945682525635,2.673412561416626
2.02980113,0.4736776053905487,0.003823492,-0.882823527,0.006553033,-0.004278913,0.006315685,-0.529267073,-0.282290876,-0.115001082,0.007980246,0.4880781769752502,2.673398494720459
2.034800291,0.4717562794685364,0.004311255,-0.881999612,0.007527892,-0.005913311,0.007097091,-0.529304564,-0.282282293,-0.115016647,0.008011305,0.488053024,2.673387527
2.039800406,0.4711307883262634,0.003593687,-0.883707404,0.006557721,-0.005774168,0.008243076,-0.529063463,-0.282437801,-0.115118779,0.008045546,0.4880242645740509,2.673386096954346
2.044807196,0.4717167019844055,0.002310997,-0.883795083,0.008350819,-0.005190638,0.005025091,-0.528877974,-0.282557458,-0.115197361,0.008088323,0.4880040884017944,2.673361778259277
2.049809217,0.4722586274147034,0.001513064,-0.881560326,0.006783386,-0.006171316,0.007979139,-0.528816462,-0.282597125,-0.115223415,0.008129098,0.4879756569862366,2.673363447189331
2.054806232,0.4719522595405579,0.000369175,-0.882194757,0.004295345,-0.004206361,0.005720244,-0.528769135,-0.282627642,-0.115243465,0.008152378,0.4879603683948517,2.673347949981689
2.059804201,0.4708004593849182,0.000114829,-0.882608652,0.003380817,-0.005168297,0.005199573,-0.528810441,-0.282691777,-0.114955314,0.008168574,0.4879387617111206,2.673325538635254
2.064803362,0.4715770483016968,0.001991314,-0.883038938,0.002261138,-0.005847781,0.006340154,-0.528899848,-0.282795757,-0.114435516,0.00817987,0.4879150688648224,2.673302888870239
2.069803238,0.4727266132831573,0.003981854,-0.882021964,-0.000161413,-0.005897864,0.005090042,-0.528929532,-0.282830238,-0.114263162,0.008162579,0.4878968000411987,2.673268795013428
2.074804544,0.4726990163326263,0.000456412,-0.881569266,0.002913819,-0.002798421,0.002970229,-0.52895242,-0.282856733,-0.114130542,0.008173985,0.4878843724727631,2.67323637
2.079806566,0.4720875024795532,0.001900418,-0.883000612,0.002337803,-0.004434475,0.004918138,-0.52895999,-0.282865554,-0.114086568,0.00818049,0.487856925,2.673208713531494
2.084803343,0.4726479947566986,0.002924082,-0.881021798,-0.000886333,-0.004981959,0.004418929,-0.529098928,-0.282741904,-0.114862114,0.008169319,0.4878438711166382,2.673181295394897
2.089801311,0.4746088087558746,0.005096616,-0.882142603,-0.000366604,-0.005919368,0.003753457,-0.529145002,-0.282700896,-0.115119271,0.008155555,0.4878212213516235,2.673150539398193
2.094799757,0.4736591279506683,0.00668274,-0.881567061,0.001442678,-0.006945362,0.005190737,-0.529180467,-0.282669365,-0.115317136,0.008146431,0.4877964854240417,2.673123836517334
2.099799633,0.4728123545646667,0.003966956,-0.882117569,0.002168656,-0.008080088,0.00512909,-0.529192209,-0.282658905,-0.115382746,0.008150399,0.4877651333808899,2.673104047775269
2.10480094,0.4717234671115875,0.006574262,-0.88248086,0.003862832,-0.008605051,0.004870868,-0.529304385,-0.282494575,-0.115245312,0.008154264,0.4877282679080963,2.673075914382935
2.109802723,0.4737037718296051,0.00815938,-0.882891834,0.005466719,-0.006419173,0.004686785,-0.529367089,-0.282401383,-0.115153246,0.008167912,0.4876958727836609,2.673054218292236
2.1147995,0.474367231,0.00506239,-0.88174063,0.00582685,-0.00987942,0.004423034,-0.529415309,-0.282329708,-0.115082406,0.008184272,0.4876658618450165,2.673028945922852
2.11979723,0.4727238714694977,0.003935704,-0.882151306,0.004509725,-0.00708734,0.005897423,-0.529431343,-0.282305926,-0.115058921,0.008204012,0.4876384735107422,2.673012018203735
2.124796152,0.4703051745891571,0.003163198,-0.882835686,0.005601728,-0.009452888,0.003994916,-0.529471099,-0.282373279,-0.114986055,0.008219082,0.4875898063182831,2.672978639602661
2.129796505,0.470098466,0.00425677,-0.88107425,0.006352114,-0.008996896,0.003863366,-0.529511929,-0.282481968,-0.114906646,0.008244783,0.48754552,2.672956705093384
2.134797573,0.4718962907791138,0.003726895,-0.882883251,0.006045802,-0.008885229,0.003308418,-0.5295434,-0.282565594,-0.114845544,0.00826492,0.4875111281871796,2.672921895980835
2.139799356,0.4729054272174835,0.003301912,-0.885507226,0.005332895,-0.009535892,0.004039696,-0.529553831,-0.28259334,-0.114825286,0.008282794,0.487475574,2.672903776168823
2.144796371,0.4720848500728607,0.002696775,-0.88508606,0.003117086,-0.008330757,0.004490397,-0.529561818,-0.282614678,-0.114809699,0.008285585,0.4874402582645416,2.672877550125122
2.149794102,0.4713685214519501,0.002527634,-0.884755015,0.000763477,-0.006397835,0.005107889,-0.529561996,-0.28282401,-0.114661537,0.008286247,0.4874104857444763,2.672850847244263
2.154793024,0.4698926210403442,0.003193727,-0.883112848,0.000717268,-0.004815501,0.002964016,-0.529562116,-0.282985061,-0.114547536,0.008272865,0.4873879253864288,2.672815084457397
2.1597929,0.4675487279891968,0.003016924,-0.883823037,-0.00024805,-0.002719498,0.002399193,-0.529562116,-0.283038467,-0.114509732,0.008263711,0.4873631298542023,2.672787666320801
2.164794445,0.469952792,0.003565147,-0.883868694,0.001307122,-0.001640013,0.003280165,-0.529562116,-0.283079535,-0.114480644,0.008265039,0.4873629510402679,2.672760248184204
2.169796467,0.4701620638370514,0.00349821,-0.883527398,0.000646193,-0.000199993,0.002302333,-0.529420733,-0.283036917,-0.11434117,0.008255462,0.4873679280281067,2.672723770141602
2.174793482,0.4715001881122589,0.001686074,-0.884238064,0.001137094,0.001129958,0.001921501,-0.529168963,-0.282947272,-0.114102565,0.008251242,0.4873773157596588,2.672682523727417
2.179797411,0.4715548157691956,0.002864526,-0.882629871,-0.000457655,0.000736999,0.003780605,-0.529085517,-0.282917529,-0.114023447,0.00823868,0.4873935282230377,2.672661066055298
2.184796333,0.4714782536029816,0.003958429,-0.881617725,5.397936911322176e-05,0.000256212,0.00264283,-0.529021263,-0.282894641,-0.113962568,0.00822433,0.4873955547809601,2.672625303268433
2.189796448,0.4719277024269104,0.002528132,-0.883025467,-7.41E-05,0.000406998,0.003329544,-0.528999984,-0.282887071,-0.113942385,0.00821869,0.4874040186405182,2.672598838806152
2.194797039,0.470791757,0.004053896,-0.882076979,0.000477826,0.00032751,0.003128109,-0.529120862,-0.282608181,-0.113927282,0.008205867,0.4874137043952942,2.672562599182129
2.199798822,0.4720833301544189,0.00502872,-0.883674622,0.000460193,0.000598938,0.004070721,-0.529160917,-0.282515705,-0.113922276,0.008197127,0.4874263405799866,2.672540664672852
2.204795599,0.4724812805652618,0.003958312,-0.882178664,0.000423512,9.513780969427899e-05,0.00469645,-0.529191732,-0.282444566,-0.113918424,0.008190969,0.4874310195446014,2.672511577606201
2.209793329,0.4720695316791534,0.005024397,-0.881680667,0.000890029,0.000166644,0.005459478,-0.529201984,-0.282420963,-0.11391715,0.008188921,0.4874384105205536,2.672494411468506
2.21479249,0.4713668823242188,0.007225099,-0.882261217,-9.42E-05,0.000759983,0.003605455,-0.529308498,-0.282455206,-0.114289001,0.008174865,0.4874468445777893,2.672466278076172
2.219792366,0.4726357758045197,0.00619485,-0.882053196,0.002186812,-0.00066491,0.007134874,-0.529368281,-0.282479495,-0.114504553,0.008180097,0.4874537885189056,2.672454357147217
2.224793434,0.4740563035011292,0.004032502,-0.881550729,0.004290213,2.066517481580377e-06,0.005486094,-0.529414296,-0.282498181,-0.114670411,0.008187954,0.487466574,2.672435760498047
2.229795218,0.4742638766765594,0.002717368,-0.883031309,0.004508269,-0.002624133,0.006971489,-0.529429555,-0.28250438,-0.114725411,0.008215453,0.4874637722969055,2.672423601150513
2.234792233,0.4735310077667236,0.000465775,-0.882653058,0.001841498,-0.001847742,0.005315571,-0.529357672,-0.282394022,-0.114637434,0.008224918,0.4874630570411682,2.672403097
2.239789963,0.472301185,-0.00052673,-0.882605195,0.004017314,-0.004062312,0.005133955,-0.529249549,-0.282241315,-0.114476882,0.008249513,0.487449586,2.672386169433594
2.244788885,0.471913218,0.000385195,-0.883285761,0.000738027,-0.002454856,0.003323171,-0.5291664,-0.282123804,-0.114353344,0.00824756,0.4874445796012878,2.672361373901367
2.249789,0.4719865322113037,0.000978366,-0.883560479,0.000813051,-0.002018488,0.003406929,-0.529138803,-0.282084852,-0.114312381,0.008244783,0.4874403774738312,2.672337055206299
2.254789829,0.4714531004428864,0.003106694,-0.881751895,-0.003410383,-0.001867393,0.002262679,-0.529117584,-0.282054871,-0.114280865,0.008211802,0.487432599,2.672301054000854
2.259791851,0.472134143,0.003705382,-0.884154737,-0.002088643,-0.002712593,0.00373299,-0.529206276,-0.282301247,-0.114687912,0.008190209,0.4874244332313538,2.672277688980103
2.264788628,0.4732423722743988,0.003583618,-0.88192004,-0.002564361,-0.003600665,0.002262106,-0.529274583,-0.282490849,-0.115001105,0.008165671,0.4874216914176941,2.672238588
2.269786596,0.4732882082462311,0.004150284,-0.88250941,-0.002713913,-0.00376144,0.002459127,-0.529297233,-0.282553703,-0.115104951,0.008134083,0.4874103665351868,2.672201871871948
2.274785519,0.472212017,0.002048749,-0.881230474,-0.003326525,-0.003740152,0.001738147,-0.529314637,-0.282602072,-0.115184858,0.008111318,0.4874009490013123,2.672171115875244
2.279785156,0.4723140597343445,0.002567598,-0.881633341,-0.003808398,-0.005376229,0.001872018,-0.529406488,-0.282614768,-0.115023218,0.008076629,0.487384558,2.672127008
2.284786224,0.4726027250289917,0.002003916,-0.883163452,-0.003889042,-0.004604325,0.002072243,-0.529564202,-0.282621115,-0.114708602,0.008047071,0.4873674213886261,2.672094345092773
2.289788008,0.4725649952888489,0.004296826,-0.881907582,-0.003329186,-0.003113239,0.002599509,-0.529616475,-0.282623202,-0.114604287,0.008014158,0.487356037,2.672054290771484
2.294784784,0.4714096784591675,0.006037972,-0.88236165,-0.003758812,-0.004453851,0.001719692,-0.529656649,-0.282624811,-0.114524022,0.007975369,0.4873349964618683,2.672017335891724
2.299782753,0.4708543419837952,0.00867485,-0.88276279,-0.002504074,-0.003992101,0.002406135,-0.52967,-0.282625347,-0.114497401,0.007941458,0.4873264729976654,2.671981573104858
2.304782152,0.4704870879650116,0.007320277,-0.882974029,-0.003067421,-0.00204491,0.002456791,-0.529618919,-0.282415658,-0.113545313,0.007908567,0.4873206317424774,2.671947002410889
2.30978179,0.4696190357208252,0.002726525,-0.883549273,-0.001641139,-0.000546534,0.003848942,-0.529601991,-0.282346129,-0.113229617,0.007899432,0.4873155355453491,2.671927213668823
2.314788818,0.4712722,0.004422143,-0.884521842,-0.00257519,0.000187827,0.004862818,-0.529588997,-0.282292634,-0.112986714,0.007874488,0.4873169958591461,2.671902894973755
2.319791079,0.4720854163169861,0.005330028,-0.883068204,-0.003021959,-0.000591318,0.002859864,-0.529584706,-0.282274902,-0.112906173,0.007841672,0.4873152077198029,2.671868562698364
2.32478857,0.4732828438282013,0.005189212,-0.885335743,-0.001209808,0.001922368,0.004755164,-0.529523015,-0.282725751,-0.113449998,0.007828182,0.4873338043689728,2.671852350234985
2.329786062,0.4708353281021118,0.003612655,-0.883302033,-0.00067595,0.000157464,0.003641178,-0.529488146,-0.282990187,-0.11378023,0.007814499,0.4873358905315399,2.671821833
2.334784985,0.4696708619594574,0.002279383,-0.882896721,2.688297536224127e-05,0.001150074,0.003800408,-0.529461384,-0.283193678,-0.114034317,0.00781753,0.4873558282852173,2.671800136566162
2.339784622,0.4726050496101379,0.000380138,-0.882060409,-0.002086134,0.002906242,0.003261117,-0.529452443,-0.28326115,-0.114118576,0.007791617,0.487376869,2.671764850616455
2.344785929,0.4712799787521362,0.000175619,-0.880849779,-0.003053032,0.003290446,0.001921659,-0.529421389,-0.282996237,-0.114240743,0.007766575,0.4874007701873779,2.671729803085327
2.349787951,0.4698722064495087,0.004406107,-0.881215751,-0.003052516,0.003228906,0.000493945,-0.52938664,-0.282588929,-0.114339091,0.007731556,0.48742184,2.671684980392456
2.354784727,0.4699588418006897,0.004480899,-0.883403599,-0.004353109,0.004221593,-0.000211763,-0.529359937,-0.282275528,-0.114414759,0.007689805,0.4874414503574371,2.671636819839478
2.359782696,0.4710651636123657,0.0064982,-0.883165002,-0.001595318,0.004014562,0.001108083,-0.529351115,-0.282171607,-0.114439845,0.007659691,0.4874604642391205,2.671600580215454
2.36478138,0.4719056189060211,0.00371913,-0.88171947,-0.002450546,0.004785817,0.004027497,-0.52934432,-0.282091647,-0.11445915,0.007643357,0.4874865114688873,2.671577692
2.369781017,0.4710118174552917,0.005486436,-0.883845329,-0.001171423,0.004361673,0.005010928,-0.528937519,-0.282276005,-0.114424095,0.007623713,0.487513006,2.671553134918213
2.374781847,0.4697610139846802,0.008252663,-0.88329488,-0.001895476,0.003824676,0.003221052,-0.528624535,-0.282417864,-0.114397123,0.007593351,0.4875304996967316,2.671521663665771
2.379783869,0.4708838760852814,0.00864968,-0.884677351,0.000461861,0.004971611,0.004424525,-0.528520763,-0.282464892,-0.114388175,0.007584215,0.4875615239143372,2.671506166
2.384781122,0.4706374704837799,0.005297141,-0.883491576,0.001795863,0.005626803,0.006447791,-0.528440893,-0.282501101,-0.114381291,0.007591465,0.4875932335853577,2.671492099761963
2.389778852,0.469997227,0.005388477,-0.883638918,0.002508399,0.006273386,0.006705678,-0.528613746,-0.282482803,-0.11464192,0.007598976,0.4876245558261871,2.671483516693115
2.394777536,0.4726129770278931,0.003298111,-0.883307278,0.002553521,0.005674465,0.005301603,-0.528948247,-0.28243804,-0.115108304,0.007604586,0.4876603186130524,2.671463728
2.399777174,0.4721857607364655,0.001850193,-0.884119391,0.001251736,0.004398981,0.006848445,-0.529059172,-0.282423198,-0.115262948,0.00761003,0.4876871407032013,2.671456336975098
2.404778242,0.4727263450622559,0.001691837,-0.881515324,-7.07E-06,0.006212727,0.006564859,-0.529144526,-0.282411754,-0.115381941,0.007610905,0.4877258241176605,2.671447515487671
2.409780264,0.4722519516944885,0.00086974,-0.882486761,-0.000721222,0.006198611,0.004907881,-0.529172838,-0.282407969,-0.115421392,0.007611637,0.4877634048461914,2.671426057815552
2.414777279,0.4711500704288483,-0.000141262,-0.881787658,-7.49E-05,0.007308768,0.00323422,-0.529457808,-0.282734573,-0.115068823,0.007605393,0.4878065288066864,2.671398162841797
2.419775248,0.4730356335639954,0.003124482,-0.881562412,-0.001511061,0.005581003,0.003561757,-0.529552341,-0.282842845,-0.114951923,0.007586293,0.4878412187099457,2.671363830566406
2.42477417,0.4725996255874634,0.002719494,-0.880869448,-0.002058499,0.006266707,0.000783689,-0.529625058,-0.282926172,-0.114861973,0.007557404,0.487886906,2.671321630477905
2.429774761,0.4725635945796967,0.001219004,-0.880753458,-0.002665524,0.004732036,0.001286062,-0.529649198,-0.282953799,-0.114832148,0.007537271,0.4879138469696045,2.671286821365356
2.434776306,0.4749224781990051,0.002709581,-0.879773915,-0.001737116,0.003794069,0.000706293,-0.529468596,-0.282827586,-0.114955492,0.007509261,0.4879546463489532,2.671241760253906
2.43977809,0.4751100540161133,0.002124395,-0.877531826,-0.003488039,0.003229864,-0.000335211,-0.52935946,-0.282749236,-0.115032591,0.007478409,0.4879769384860992,2.671195745
2.444774866,0.4770855009555817,0.001951104,-0.877976179,-0.003379528,0.000377862,0.001481367,-0.529275477,-0.282688916,-0.115091912,0.007452992,0.4880022704601288,2.671157121658325
2.449778795,0.4775922000408173,0.002369893,-0.878160357,-0.00457564,-0.001501824,-0.000903056,-0.529247642,-0.282668918,-0.115111582,0.007404879,0.4880053997039795,2.671097040176392
2.454777718,0.4759492576122284,0.001514623,-0.878842175,-0.002920379,-0.003840443,0.000290982,-0.529111803,-0.282656729,-0.115235478,0.007378705,0.4879963099956512,2.671055793762207
2.459777594,0.4760852158069611,0.002338115,-0.879020751,-0.005028817,-0.006026023,-4.48E-05,-0.528951466,-0.282655895,-0.11538624,0.007336614,0.4879746437072754,2.671007633209229
2.464778423,0.4751979112625122,0.003443402,-0.876117051,-0.004902958,-0.009362812,-8.69E-05,-0.528828084,-0.282655269,-0.115502231,0.007289806,0.4879424870014191,2.670958995819092
2.469780445,0.4771160781383514,0.002240256,-0.877363265,-0.005376596,-0.013548255,-0.000567669,-0.528787196,-0.28265506,-0.115540698,0.007241976,0.4878914654254913,2.67090106
2.474777699,0.476366401,0.003310088,-0.879761696,-0.005769264,-0.015452431,0.000330861,-0.528755665,-0.282654911,-0.115570292,0.007190204,0.4878258407115936,2.670855999
2.47977519,0.4759270548820496,0.005051114,-0.880767047,-0.008042623,-0.018271318,-0.000875617,-0.528896928,-0.282551467,-0.115719087,0.007123971,0.487745613,2.670804262161255
2.484774113,0.475861132,0.005538835,-0.879697084,-0.007799541,-0.022478545,-0.001795923,-0.529005587,-0.282471865,-0.115833573,0.007058818,0.48764807,2.670744419
2.48977375,0.4751183390617371,0.00366714,-0.880968094,-0.005845958,-0.024203289,-0.001694384,-0.529041588,-0.282445461,-0.115871534,0.007000431,0.4875350892543793,2.670686960220337
2.494774818,0.4767432808876038,0.002385963,-0.881182253,-0.007970107,-0.024805369,-0.001509607,-0.529069304,-0.282425135,-0.11590074,0.006942317,0.4874238967895508,2.670634508132935
2.499776602,0.475518137,0.002826698,-0.881635487,-0.00915382,-0.027408805,-0.00326821,-0.52907896,-0.282444626,-0.115617037,0.006863714,0.4873007237911224,2.670561075210571
2.504773617,0.47406444,0.003476826,-0.878533006,-0.008285256,-0.03025578,-0.002614188,-0.529086769,-0.282486141,-0.115102082,0.006804747,0.4871556460857391,2.670501947402954
2.509771347,0.471881628,0.002602118,-0.881586909,-0.009488135,-0.031984366,-0.003478081,-0.529089391,-0.282499909,-0.114931338,0.006730625,0.487002432,2.670439481735229
2.514770508,0.4734485745429993,0.001391492,-0.884055495,-0.008919757,-0.036712255,-0.003275248,-0.529091358,-0.282510489,-0.114799961,0.006667912,0.486828476,2.670373439788818
2.519770622,0.473664254,-0.001242065,-0.88078016,-0.012110589,-0.037298054,-0.004234862,-0.529092014,-0.282514006,-0.114756398,0.006593365,0.4866539239883423,2.670309543609619
2.52477169,0.4738477766513824,0.00064559,-0.882241607,-0.01291512,-0.038121853,-0.002310745,-0.529159784,-0.282513708,-0.114534564,0.006502922,0.4864625632762909,2.670242786407471
2.529773474,0.4769809544086456,0.001692301,-0.885073841,-0.016964154,-0.038740527,-0.005936147,-0.529182255,-0.282513618,-0.114461012,0.006386587,0.4862914681434631,2.670165061950684
2.534770489,0.4716476500034332,0.002644531,-0.884370267,-0.017151752,-0.036418349,-0.00682711,-0.529199541,-0.282513529,-0.114404418,0.006266204,0.4861112236976624,2.670075893
2.539768219,0.4704352915287018,0.005302568,-0.886592686,-0.019116815,-0.036524881,-0.004646686,-0.529205322,-0.282513529,-0.11438565,0.006130574,0.485930324,2.670002460479736
2.544767141,0.4725924730300903,0.007862702,-0.88453114,-0.01850304,-0.035234924,-0.005428051,-0.529607952,-0.282760143,-0.114360675,0.005999073,0.4857670068740845,2.669918060302734
2.549767256,0.4729492664337158,0.008823084,-0.881898582,-0.016642693,-0.038150769,-0.004972499,-0.529839993,-0.282902956,-0.11434979,0.005872044,0.4855901300907135,2.669840097427368
2.554767847,0.4735343456268311,0.005459708,-0.879544675,-0.015340292,-0.039375685,-0.003031684,-0.530018508,-0.283012837,-0.114341408,0.00577289,0.485409141,2.669780731201172
2.559769869,0.4747148454189301,0.001859903,-0.880429626,-0.01581534,-0.038750406,-0.002555288,-0.530077696,-0.283049256,-0.114338629,0.005678538,0.4852229654788971,2.669719934463501
2.564766645,0.4739450514316559,-0.002121428,-0.87925005,-0.016426316,-0.043046974,-0.002115702,-0.529696882,-0.282970697,-0.114425927,0.005586417,0.4850284159183502,2.669658422470093
2.569764614,0.4744189381599426,-0.008690078,-0.877614856,-0.020463986,-0.044315167,-0.005707373,-0.529140592,-0.282837182,-0.114545047,0.005479165,0.484829307,2.669580698013306
2.574763298,0.4753687083721161,-0.009778818,-0.879758835,-0.027587291,-0.048549935,-0.010508263,-0.528712571,-0.282734454,-0.114636697,0.005303887,0.4846004247665405,2.669475317001343
2.579763174,0.4725043773651123,-0.00847189,-0.88184303,-0.035150427,-0.050237037,-0.013835469,-0.528570652,-0.28270039,-0.114667088,0.005093428,0.4843622446060181,2.669353008270264
2.584769964,0.4712200164794922,-0.005819881,-0.881183863,-0.041063506,-0.050981864,-0.016057491,-0.528461456,-0.282674164,-0.114690475,0.004837404,0.4841196537017822,2.669219017028809
2.589771986,0.469488651,-0.004086985,-0.883171439,-0.045711037,-0.050753918,-0.019674394,-0.529025733,-0.282855213,-0.114449814,0.004554172,0.4838708937168121,2.669067144393921
2.594769239,0.4691571593284607,0.000956608,-0.886766315,-0.047961473,-0.048961274,-0.020014575,-0.529459894,-0.282994539,-0.114264645,0.004246529,0.4836244285106659,2.668905497
2.599767208,0.4695257842540741,0.007760205,-0.885983944,-0.049390618,-0.047002461,-0.022455126,-0.529603839,-0.283040732,-0.114203244,0.003913604,0.4833906292915344,2.668731212615967
2.60476613,0.4689148664474487,0.011049831,-0.887344837,-0.049554534,-0.046102021,-0.02175916,-0.529714584,-0.283076286,-0.114156008,0.003583272,0.483163595,2.668567657470703
2.609766006,0.4681350588798523,0.011593896,-0.88686192,-0.048566379,-0.046192054,-0.01903229,-0.529669344,-0.28294012,-0.113584101,0.003262762,0.4829410016536713,2.668413400650024
2.614766836,0.4684970676898956,0.010787766,-0.886507332,-0.048637036,-0.04515402,-0.019130599,-0.529551625,-0.282685786,-0.112581603,0.002943441,0.4827173948287964,2.668255090713501
2.61976862,0.4691396951675415,0.011055576,-0.885791242,-0.046291526,-0.044626258,-0.020358546,-0.529512584,-0.282601446,-0.112249196,0.002634528,0.4825004637241364,2.668095827102661
2.624765635,0.4709646701812744,0.011984153,-0.884885788,-0.048114706,-0.045768999,-0.018745916,-0.529482543,-0.282536536,-0.111993432,0.002316169,0.4822860360145569,2.667943000793457
2.629763365,0.4686580896377563,0.016410781,-0.885533273,-0.045005981,-0.044683397,-0.020250117,-0.529472589,-0.282515019,-0.111908622,0.002003626,0.4820727705955505,2.667780399
2.634762287,0.4651771783828735,0.01646133,-0.885873795,-0.045197718,-0.045492686,-0.016736176,-0.529586494,-0.283051044,-0.113393366,0.001706162,0.4818434119224548,2.667644739151001
2.639761925,0.4624525010585785,0.015275175,-0.886014462,-0.04162268,-0.044762466,-0.015252983,-0.529624283,-0.283228785,-0.113885686,0.001429747,0.4816204905509949,2.667513608932495
2.644762993,0.4608195424079895,0.015379096,-0.887969553,-0.040867079,-0.043025248,-0.013122655,-0.529653311,-0.283365548,-0.114264488,0.001168623,0.4814015328884125,2.667400121688843
2.649765015,0.4617124497890472,0.017673807,-0.888951898,-0.037738875,-0.042529095,-0.010863646,-0.529662967,-0.283410877,-0.114390098,0.000921848,0.4811872839927673,2.667292833328247
2.654762745,0.4622960984706879,0.019588791,-0.889580011,-0.033335797,-0.040395729,-0.00869163,-0.529223382,-0.28314662,-0.114217304,0.000694554,0.4809835851192474,2.667201519012451
2.659760952,0.4633103907108307,0.0179697,-0.887531161,-0.0333606,-0.040575735,-0.006165593,-0.528967083,-0.282984972,-0.114093341,0.000487103,0.4807851314544678,2.667125701904297
2.664759874,0.4629349112510681,0.017003508,-0.887419522,-0.028884999,-0.035893343,-0.00303117,-0.528769851,-0.282860607,-0.113997959,0.000313548,0.4806032180786133,2.667065143585205
2.66975975,0.4617862701416016,0.019573141,-0.888368964,-0.024868401,-0.036914866,-0.001889986,-0.528704464,-0.28281936,-0.113966338,0.000146381,0.4804114997386932,2.667004585266113
2.674761534,0.4625262022018433,0.019628901,-0.890145123,-0.020465428,-0.035367787,0.001330845,-0.528879642,-0.282957345,-0.114015631,9.403161129739601e-06,0.4802365899085999,2.666969299316406
2.679763317,0.4624921977519989,0.021046419,-0.892492831,-0.017668162,-0.032326758,0.003202937,-0.529165149,-0.283174247,-0.114106223,-0.000101949,0.480066717,2.666936874389648
2.684760094,0.4606586098670959,0.024428513,-0.891798377,-0.014477451,-0.026478009,0.005534401,-0.529384792,-0.28334111,-0.114175923,-0.000212103,0.4799320697784424,2.666923999786377
2.689758062,0.4619101881980896,0.026416153,-0.891631961,-0.007600413,-0.023193069,0.007961577,-0.529457629,-0.283396423,-0.114199035,-0.00027218,0.4798177480697632,2.666923046112061
2.694756508,0.4590401947498322,0.028020458,-0.89223206,-0.003470626,-0.019588815,0.012427595,-0.529513717,-0.28343901,-0.114216819,-0.000305558,0.4797050654888153,2.666945457458496
2.699756384,0.4565178751945496,0.02440447,-0.894585133,0.001977806,-0.016344985,0.012846995,-0.529586732,-0.283195585,-0.113989986,-0.00029581,0.4796144962310791,2.666973114013672
2.704757214,0.4581535756587982,0.024713634,-0.896172106,0.006614115,-0.012456899,0.01772316,-0.52964288,-0.283008277,-0.113815449,-0.000261267,0.4795446991920471,2.667026996612549
2.709759235,0.4610285758972168,0.022854488,-0.892655373,0.010985208,-0.007460461,0.015936624,-0.529661536,-0.282946169,-0.113757581,-0.000201767,0.4794995188713074,2.667067050933838
2.714756012,0.4623679220676422,0.022760672,-0.892790139,0.01702873,-0.005939468,0.018886583,-0.529675901,-0.282898396,-0.113713048,-0.000103975,0.4794703125953674,2.667131185531616
2.719759941,0.4604639410972595,0.021328855,-0.892031074,0.023103083,-0.003193428,0.019454265,-0.529909849,-0.282791942,-0.113748148,2.891714393626899e-05,0.4794543385505676,2.667199611663818
2.724758625,0.4597244560718536,0.023678275,-0.890996933,0.028394843,0.001124638,0.023170164,-0.530321658,-0.282618374,-0.113825567,0.000188145,0.4794565141201019,2.667289495
2.729758501,0.4597102999687195,0.02316053,-0.890761971,0.031169394,0.003693901,0.026627619,-0.530458212,-0.282560855,-0.113851242,0.000377324,0.4794698655605316,2.667396068572998
2.734759331,0.4614120125770569,0.017914856,-0.889839828,0.034250077,0.005343246,0.03063285,-0.530563235,-0.282516569,-0.113870993,0.000604113,0.4794991016387939,2.667529582977295
2.739761829,0.4648845195770264,0.013268016,-0.888499379,0.03897183,0.005160646,0.031210359,-0.530598104,-0.282501876,-0.113877542,0.000855395,0.4795332252979279,2.667659759521484
2.74475956,0.4666587114334106,0.008002974,-0.88905412,0.036792908,0.007647594,0.033641286,-0.529753864,-0.282841474,-0.113459118,0.001114404,0.479586124,2.667807340621948
2.749757528,0.4644604623317719,0.008943298,-0.890758634,0.038559917,0.009940652,0.031401012,-0.529473901,-0.282954097,-0.113320373,0.001365461,0.4796355068683624,2.667939663
2.754756212,0.4628966450691223,0.013404657,-0.891634047,0.036479823,0.014229732,0.030201638,-0.52925849,-0.283040702,-0.113213621,0.001594129,0.4797049760818481,2.668059587478638
2.759756327,0.4610753357410431,0.011067837,-0.893246174,0.038009811,0.018781461,0.029864486,-0.529187024,-0.283069432,-0.113178223,0.001837677,0.4797984063625336,2.668179512023926
2.764757156,0.4603755176067352,0.008933569,-0.894891381,0.038611878,0.024150895,0.029016899,-0.529690623,-0.282575428,-0.113521338,0.002083183,0.4799156486988068,2.668305397033691
2.76975894,0.460828424,0.008998671,-0.892772973,0.036175091,0.029032599,0.029268347,-0.529995799,-0.282283932,-0.113726743,0.002312999,0.4800609946250916,2.668427228927612
2.774755955,0.4661270678043365,0.007090242,-0.891507506,0.037432488,0.032635201,0.024894116,-0.530230641,-0.282059669,-0.113884792,0.0025503,0.4802288115024567,2.668521404266357
2.779753447,0.4651983380317688,-0.000654346,-0.892311156,0.036033534,0.037741609,0.022834746,-0.530308485,-0.281985283,-0.113937199,0.002787819,0.4804181158542633,2.668612957000732
2.784752607,0.4630200564861298,0.000667792,-0.892256618,0.031846903,0.04070871,0.018842628,-0.530367255,-0.282014489,-0.113949917,0.002985591,0.4806121289730072,2.668680429458618
2.789752722,0.4634310007095337,0.004833842,-0.891163111,0.028081454,0.043076422,0.016676225,-0.530385613,-0.282111347,-0.113926299,0.0031492,0.4808337688446045,2.668730497360229
2.79475379,0.4664662182331085,0.007397704,-0.890241563,0.027724471,0.047888692,0.014868895,-0.53039974,-0.282185882,-0.113908127,0.003304896,0.4810774028301239,2.668765306472778
2.799755573,0.4657673835754395,0.008649595,-0.889227271,0.028741268,0.050048608,0.014740738,-0.530404389,-0.282210588,-0.113902099,0.003463127,0.4813366532325745,2.668807268
2.80475235,0.4658308923244476,0.013172212,-0.889408112,0.030998701,0.050687373,0.015587116,-0.530408025,-0.282229602,-0.113897465,0.003634983,0.4815901815891266,2.668853759765625
2.80975008,0.4679145514965057,0.013959669,-0.890544772,0.032786157,0.05239198,0.014260819,-0.530508876,-0.282333583,-0.113658294,0.003797134,0.4818608164787292,2.6688869
2.814749241,0.4683371484279633,0.014523803,-0.890745282,0.036947362,0.054977309,0.018466759,-0.530586421,-0.282413572,-0.113474272,0.004001334,0.4821428656578064,2.668947696685791
2.819748878,0.4682376086711884,0.016428227,-0.892003536,0.038053941,0.057328448,0.020187378,-0.530612171,-0.282440126,-0.113413252,0.004204538,0.4824267625808716,2.669018745422363
2.824749708,0.4696523249149323,0.017258331,-0.893583536,0.042280015,0.058832586,0.022122463,-0.530631959,-0.282460541,-0.113366306,0.004435926,0.482726663,2.669100999832153
2.829751492,0.4691391289234161,0.022049356,-0.893284976,0.046147645,0.064414077,0.02364362,-0.530524015,-0.282470971,-0.113512784,0.004685253,0.4830536246299744,2.669185161590576
2.834748745,0.4699214994907379,0.029611498,-0.892869949,0.055060159,0.067635596,0.028819397,-0.530325174,-0.282482713,-0.113789342,0.004977026,0.4833868443965912,2.669298172
2.839746475,0.4696228802204132,0.026067356,-0.891209424,0.063518763,0.071571857,0.032382809,-0.530259252,-0.282486588,-0.113881052,0.005324973,0.4837551414966583,2.669426441192627
2.844745874,0.469350129,0.014842553,-0.889645159,0.071866781,0.074471682,0.037647448,-0.530208468,-0.282489598,-0.113951609,0.005758242,0.4841218888759613,2.669595718383789
2.84974575,0.4716099798679352,0.004936637,-0.890600622,0.071880095,0.076783553,0.035213836,-0.53019166,-0.282490581,-0.113975003,0.006197097,0.4845108687877655,2.669756650924683
2.854752302,0.471271276,-0.013237309,-0.890077055,0.067486592,0.081980966,0.03170919,-0.530380666,-0.282352805,-0.114052989,0.006645917,0.4849285781383514,2.669909477233887
2.859754324,0.4718369543552399,-0.020001931,-0.889614642,0.06145658,0.084227711,0.028742408,-0.530443311,-0.282307148,-0.11407885,0.007060365,0.4853530526161194,2.670045137405396
2.864751101,0.4767409861087799,-0.019758776,-0.887979865,0.052612871,0.08672718,0.023009999,-0.530491531,-0.282271981,-0.114098743,0.007404747,0.4858002662658691,2.670140504837036
2.869749546,0.4772093296051025,-0.02356519,-0.888773918,0.040690742,0.086573951,0.014276465,-0.530507565,-0.282260329,-0.114105336,0.007676182,0.4862454533576965,2.670188426971436
2.874748707,0.4748271107673645,-0.027534625,-0.89087826,0.031136988,0.088038176,0.005148177,-0.530317664,-0.282259524,-0.114583433,0.007884706,0.4866876304149628,2.670190572738647
2.879748344,0.4722432792186737,-0.026365014,-0.892195404,0.020387108,0.089417778,-0.00521317,-0.530204654,-0.282261282,-0.114859015,0.007998694,0.4871358871459961,2.670128583908081
2.884749174,0.4730709195137024,-0.019584047,-0.892666876,0.011784239,0.092540115,-0.014043942,-0.530117691,-0.282262623,-0.115071051,0.008029728,0.4876037836074829,2.670015811920166
2.889750957,0.4750725924968719,-0.010095517,-0.891414881,0.004059575,0.095251732,-0.022071412,-0.530088842,-0.28226307,-0.115141362,0.007989204,0.4880891740322113,2.669849157333374
2.894747972,0.4768396019935608,0.004362973,-0.890336812,0.00243715,0.099496484,-0.02707587,-0.529893994,-0.282326967,-0.115464531,0.007890113,0.4886033833026886,2.669639587402344
2.899745703,0.4753738343715668,0.014828599,-0.891633928,0.002841112,0.105693944,-0.028993173,-0.529655278,-0.282412231,-0.115843013,0.007778842,0.4891354441642761,2.669425964355469
2.904744625,0.4648673534393311,0.01056698,-0.892923355,0.001519828,0.1147188991308212,-0.029962836,-0.529471576,-0.282477856,-0.116134234,0.007683448,0.4896869659423828,2.669219255447388
2.90974474,0.4637122750282288,0.0161856,-0.89308089,0.003594724,0.1256956607103348,-0.025200589,-0.52941066,-0.282499582,-0.116230793,0.007585857,0.4903094172477722,2.669034242630005
2.914745331,0.4638390839099884,0.020546023,-0.894519925,0.00601127,0.1353157013654709,-0.023628801,-0.529363811,-0.28251633,-0.116305098,0.007508097,0.490971565,2.668865442276001
2.919747591,0.460015744,0.023705296,-0.892984569,0.005694827,0.1470724791288376,-0.021480566,-0.528946877,-0.282528371,-0.116196699,0.007426894,0.4916858673095703,2.668702602386475
2.924744606,0.4620945751667023,0.032220196,-0.895458698,0.013827863,0.1607195734977722,-0.021704121,-0.528626084,-0.282537639,-0.11611329,0.007361211,0.4924775063991547,2.668533325195313
2.929742813,0.4525196850299835,0.03612642,-0.90069586,0.017489875,0.1774238646030426,-0.020021249,-0.52851969,-0.282540679,-0.116085634,0.007318374,0.4933174848556519,2.668373584747314
2.934741497,0.4347299039363861,0.025674403,-0.912594199,0.022220762,0.2032909542322159,-0.014953607,-0.528437793,-0.282543063,-0.116064347,0.007346191,0.4942562878131866,2.668257952
2.939741135,0.408543587,0.001892455,-0.93051368,0.00449429,0.2486111223697662,-0.002956734,-0.528322041,-0.282693386,-0.116430327,0.007367051,0.495362401,2.668232202529907
2.944742203,0.3888746201992035,0.015854059,-0.926782727,-0.007260621,0.3141312003135681,0.00760597,-0.528143346,-0.282960266,-0.11708913,0.007286201,0.4967893958091736,2.668272495269775
2.949744225,0.3655068278312683,0.004618781,-0.940378666,-0.01475706,0.408031702,0.003584043,-0.528084099,-0.283048749,-0.117307581,0.007212299,0.4986519515514374,2.668288469314575
2.95474124,0.3275570869445801,-0.019326599,-0.971870005,-0.048632495,0.5441411733627319,0.006736014,-0.528038502,-0.283116817,-0.117475659,0.007029871,0.5011148452758789,2.668329954147339
2.959739208,0.2381318211555481,0.021319829,-0.982936144,-0.116674595,0.7385305762290955,0.074416772,-0.528023422,-0.283139408,-0.117531389,0.00655448,0.5044302940368652,2.668776273727417
2.964738131,0.1601961851119995,0.054616421,-0.959716141,-0.164923713,0.9856704473495483,0.2131305336952209,-0.527536511,-0.283321589,-0.119826071,0.00619041,0.5089107155799866,2.670065879821777
2.969737768,0.276775986,0.065303996,-0.983870983,-0.226323664,1.188829422,0.354009211,-0.527375042,-0.283381999,-0.120586947,0.005998881,0.5146933794021606,2.672271013259888
2.974738836,0.4655710756778717,0.126757801,-1.047679782,-0.293845832,1.300426006317139,0.3563703596591949,-0.527250767,-0.28342846,-0.121172391,0.005284285,0.5211666822433472,2.674362182617188
2.979740858,0.5893811583518982,0.1688707768917084,-1.058804274,-0.268682182,1.297419190406799,0.2929675579071045,-0.52720958,-0.283443868,-0.121366516,0.004410787,0.5277358889579773,2.675919532775879
2.98473835,0.5437292456626892,0.1515246033668518,-1.024080873,-0.207525685,1.288558364,0.2255969643592834,-0.52622509,-0.282547265,-0.125908062,0.003756982,0.5340321660041809,2.677036524
2.989742041,0.5196226239204407,0.1805828213691711,-1.022130251,-0.125983804,1.330808758735657,0.1965403407812119,-0.525662839,-0.282025188,-0.128500819,0.003378599,0.5405689477920532,2.678038358688354
2.994740963,0.5707775950431824,0.1989315748214722,-1.048209429,-0.028609835,1.361155629,0.1766143143177032,-0.525230229,-0.281623453,-0.130495757,0.003414739,0.547303319,2.678871393203735
2.999740601,0.5554617643356323,0.2072276622056961,-1.071144223,0.07002867,1.412628412246704,0.1824494898319244,-0.52508682,-0.281490266,-0.131157234,0.003972406,0.5542213320732117,2.679774284362793
3.004741669,0.6593884825706482,0.2619753777980804,-1.031539679,0.2452538162469864,1.509470224380493,0.2539962828159332,-0.524092615,-0.280825078,-0.134647191,0.005531488,0.5618383884429932,2.681080102920532
3.009743929,0.6686510443687439,0.1884059011936188,-0.983944893,0.400047779,1.665004968643188,0.348853201,-0.522871614,-0.280037135,-0.138810426,0.008541254,0.5703070759773254,2.683082342147827
3.014741421,0.6989428997039795,0.075862199,-0.994647264,0.4679595232009888,1.851605176925659,0.5214926600456238,-0.521932244,-0.279430836,-0.142013744,0.012620704,0.5797598958015442,2.686269760131836
3.019739389,0.7975131273269653,0.1082627177238464,-1.077442169,0.5412549376487732,1.989098906517029,0.6819273233413696,-0.52162075,-0.27922979,-0.143075913,0.017605696,0.5899159908294678,2.690566301345825
3.024738073,0.9258424639701843,0.1598297953605652,-1.227768064,0.6083676218986511,2.026767253875732,0.7954695224761963,-0.521381021,-0.279075116,-0.143893167,0.023194309,0.6002101898193359,2.695499897003174
3.029737949,0.9154680967330933,0.3116165995597839,-1.246724367,0.7368341088294983,2.032814979553223,0.879356325,-0.519037902,-0.278302729,-0.149611875,0.029420434,0.6103131771087646,2.700913667678833
3.034739017,0.9452974796295166,0.4321706295013428,-1.283609509,0.9662091732025146,2.044454336166382,0.9227796792984009,-0.517234981,-0.277708441,-0.154012024,0.03686795,0.620461106,2.706582307815552
3.039741039,1.039559602737427,0.4547131359577179,-1.429406166,1.249760031700134,1.989345431,0.9309564232826233,-0.516637146,-0.277511388,-0.155471027,0.045902833,0.6302793025970459,2.712357521057129
3.044737816,1.091830015182495,0.3370185494422913,-1.584584236,1.460709095001221,1.851473689079285,0.9067060351371765,-0.516177177,-0.277359754,-0.156593636,0.056312311,0.639146626,2.718155860900879
3.049735785,1.059028506278992,0.166429728,-1.717806578,1.472232460975647,1.657902479171753,0.8624593019485474,-0.514810443,-0.27599749,-0.159455553,0.066942103,0.6467282772064209,2.723886013031006
3.05473423,0.9029419422149658,0.095871694,-1.80757916,1.350993871688843,1.447828054428101,0.8383882641792297,-0.512531102,-0.273622721,-0.164175063,0.076779522,0.6528515815734863,2.729551792144775
3.059734583,0.6372976303100586,0.1150723621249199,-1.744563937,1.231228709220886,1.270283818244934,0.84848845,-0.511775315,-0.272835314,-0.165739968,0.085925043,0.6576909422874451,2.735298871994019
3.064735413,0.3719573020935059,0.1768756210803986,-1.606181979,1.155636907,1.196778297424316,0.8934605121612549,-0.511193812,-0.272229433,-0.166944042,0.094799623,0.6619705557823181,2.741346597671509
3.069737434,0.1578449308872223,0.2257832884788513,-1.503994107,1.115933299064636,1.198131680488586,0.9625286459922791,-0.511000991,-0.272028536,-0.167343304,0.1037753000855446,0.6660990715026855,2.747925281524658
3.074734449,0.034211207,0.2677315473556519,-1.455702066,1.108848810195923,1.232396006584167,1.040704488754272,-0.507677317,-0.269843876,-0.168171614,0.1130495965480804,0.6702539920806885,2.755099058151245
3.07973218,-0.015248405,0.2876634299755096,-1.459515691,1.116560935974121,1.252632141113281,1.114345908164978,-0.506575227,-0.269119501,-0.168446273,0.1227079778909683,0.6743648052215576,2.762813329696655
3.084730864,-0.038756568,0.3149301409721375,-1.482915998,1.133464932441711,1.250958681106567,1.172709822654724,-0.505727291,-0.268562108,-0.168657601,0.1326735019683838,0.6783220171928406,2.770941734313965
3.089730978,-0.074233204,0.3379385471343994,-1.495593548,1.147930979728699,1.216965913772583,1.206222414970398,-0.505446136,-0.268377274,-0.168727666,0.142829955,0.6819466948509216,2.779282331466675
3.094732285,-0.115862206,0.3474534153938293,-1.505948782,1.154902458190918,1.139937520027161,1.215556621551514,-0.504119456,-0.265440375,-0.166817367,0.1530200093984604,0.6850208044052124,2.787653923034668
3.099734306,-0.180190533,0.3497658967971802,-1.4960078,1.150134563446045,1.046948194503784,1.201643586158752,-0.503404737,-0.263775021,-0.165697888,0.1630823612213135,0.6874786615371704,2.795861244
3.104731083,-0.262947589,0.3471195697784424,-1.464077592,1.127776026725769,0.9617428779602051,1.17111063,-0.502854824,-0.26249364,-0.164836526,0.1728838682174683,0.68939209,2.80382514
3.109728813,-0.343501091,0.3332812488079071,-1.422289848,1.077796578407288,0.8870901465415955,1.126184463500977,-0.502672493,-0.262068748,-0.16455093,0.1822375804185867,0.6908784508705139,2.811456680297852
3.114727736,-0.407659888,0.3297577500343323,-1.383879304,1.003417134284973,0.8233522176742554,1.072726964950562,-0.501939356,-0.259682894,-0.16223453,0.1909647285938263,0.6920219659805298,2.818706512451172
3.119727373,-0.45653075,0.3394564688205719,-1.348697305,0.9208862781524658,0.7645257115364075,1.007639765739441,-0.501098454,-0.256815553,-0.159352213,0.1989311277866364,0.6928740739822388,2.825474262237549
3.124734163,-0.488382965,0.3563689291477203,-1.32128191,0.8473609685897827,0.7121425867080688,0.9318135380744934,-0.500451446,-0.254609346,-0.157134488,0.206152618,0.6935111880302429,2.831689834594727
3.129736185,-0.508125663,0.3797985315322876,-1.304091334,0.7803101539611816,0.6537936329841614,0.8510047197341919,-0.500236928,-0.253877819,-0.156399131,0.2126037031412125,0.6939195394515991,2.837290287017822
3.1347332,-0.520688236,0.3948158025741577,-1.292568564,0.7276167273521423,0.5879778861999512,0.7608720064163208,-0.500071824,-0.253314912,-0.155833319,0.2183569073677063,0.6940675377845764,2.842209815979004
3.13973093,-0.52720201,0.3933885395526886,-1.301491499,0.6739896535873413,0.509653628,0.6709609627723694,-0.499631763,-0.249422789,-0.150158897,0.2234028279781342,0.6938909292221069,2.846444368362427
3.144729853,-0.510740042,0.3736391365528107,-1.329742908,0.6007571816444397,0.4199635684490204,0.5731146931648254,-0.499293178,-0.246428058,-0.145792797,0.2276291400194168,0.6933637857437134,2.849941968917847
3.149729729,-0.473650783,0.3367145359516144,-1.369423509,0.5015208125114441,0.3067322373390198,0.4654137790203094,-0.499180913,-0.245435059,-0.144345075,0.230844647,0.6923750638961792,2.852596044540405
3.154731035,-0.415662408,0.294746459,-1.423442006,0.3748222291469574,0.1559752523899078,0.3445311188697815,-0.499094516,-0.244671017,-0.143231168,0.2328399270772934,0.6907889842987061,2.854291915893555
3.159733057,-0.354396135,0.264166385,-1.483214617,0.2269702851772308,-0.037456565,0.2083112597465515,-0.498400778,-0.241847977,-0.138454378,0.2333369851112366,0.6884106397628784,2.854816198348999
3.164730072,-0.3015396,0.2482128739356995,-1.53375411,0.067306764,-0.2714459,0.058371134,-0.497194529,-0.237077489,-0.130322337,0.2321836054325104,0.6850460171699524,2.854024887084961
3.169727802,-0.27110666,0.2412894517183304,-1.557013988,-0.086573884,-0.534174562,-0.099521592,-0.496794522,-0.235495687,-0.127625912,0.2293878644704819,0.6805779933929443,2.851845979690552
3.174726725,-0.272697747,0.2340248823165894,-1.545812011,-0.222569898,-0.795427501,-0.260244519,-0.496486783,-0.234278604,-0.125551209,0.2250972092151642,0.6750053763389587,2.848312616348267
3.179726601,-0.296766579,0.2229123413562775,-1.506225467,-0.33536011,-1.033703566,-0.414972782,-0.49638474,-0.233875036,-0.124863274,0.2195479571819305,0.6684428453445435,2.843555688858032
3.184728146,-0.325175345,0.2131809741258621,-1.453292727,-0.413951963,-1.245143533,-0.557433605,-0.49382332,-0.227479726,-0.111607991,0.2130376100540161,0.661020041,2.837739944458008
3.189729929,-0.359996587,0.2001749724149704,-1.392791152,-0.460179806,-1.417921185,-0.682341516,-0.492973983,-0.225359157,-0.107212789,0.2058791369199753,0.6528974175453186,2.831077337265015
3.194726944,-0.384257585,0.1770129054784775,-1.343201518,-0.483017921,-1.5640347,-0.788377464,-0.492320478,-0.223727524,-0.103830978,0.1983504444360733,0.6441715955734253,2.823758840560913
3.199724913,-0.392984778,0.1411096602678299,-1.308946252,-0.500364542,-1.68594718,-0.875933647,-0.492103785,-0.223186508,-0.102709636,0.1905806213617325,0.6349279284477234,2.815949678421021
3.204723597,-0.386561543,0.1003496795892715,-1.290111899,-0.520803392,-1.786486864,-0.942978621,-0.489824116,-0.218368232,-0.088847682,0.1826585084199905,0.6252447366714478,2.807822704315186
3.209723711,-0.359084159,0.057657182,-1.284658551,-0.550564408,-1.885616302,-0.997743249,-0.488545358,-0.2156813,-0.081034645,0.1746019572019577,0.6151329278945923,2.799469709396362
3.214724302,-0.322151601,0.031039048,-1.286302209,-0.581552625,-1.98866415,-1.036525965,-0.487561435,-0.213613883,-0.07502304,0.1664080023765564,0.6045469641685486,2.790963411331177
3.219726324,-0.279429227,0.012957115,-1.284471393,-0.611937702,-2.094838381,-1.063898683,-0.487235218,-0.212928355,-0.073029712,0.1581303626298904,0.5934799909591675,2.782390356063843
3.224723101,-0.250389546,0.002116586,-1.277370811,-0.636988878,-2.210264206,-1.079426885,-0.485675871,-0.209664106,-0.063239597,0.1498361974954605,0.5818350315093994,2.773808240890503
3.229721546,-0.233586043,-0.010462542,-1.26551342,-0.653812468,-2.323987246,-1.08588624,-0.483839542,-0.205821961,-0.051667683,0.1416231989860535,0.5696123838424683,2.765294551849365
3.234720707,-0.221981078,-0.027599724,-1.253302097,-0.671425283,-2.430811644,-1.081751585,-0.482426584,-0.20286569,-0.042763881,0.1335478723049164,0.556843638,2.756946086883545
3.239720821,-0.205078036,-0.052400559,-1.243114829,-0.699480951,-2.527950048,-1.070789814,-0.481958091,-0.201885447,-0.039811548,0.1255806386470795,0.5435870289802551,2.748798370361328
3.244721651,-0.184193045,-0.083631538,-1.236335039,-0.744143546,-2.619807005,-1.05333662,-0.481597602,-0.20113121,-0.037539929,0.1176765710115433,0.5298730731010437,2.740917682647705
3.249723673,-0.15711157,-0.11724212,-1.229982257,-0.803987145,-2.71009469,-1.040378809,-0.479376733,-0.196101069,-0.02139879,0.1097330302000046,0.5157123208045959,2.733254194259644
3.254720688,-0.128793463,-0.145001933,-1.226998329,-0.876632631,-2.79772377,-1.025377035,-0.477667928,-0.192230716,-0.00897928,0.1016920283436775,0.5011187791824341,2.725841760635376
3.259724855,-0.111040145,-0.170657292,-1.223351002,-0.957115054,-2.884418964,-1.01681304,-0.477101326,-0.190947369,-0.004861206,0.093484759,0.4860889315605164,2.718641281
3.264724016,-0.09067665,-0.185827032,-1.22196877,-1.039334655,-2.957597256,-1.004229426,-0.476665348,-0.189959928,-0.001692628,0.085107669,0.470700204,2.711681604385376
3.269723654,-0.06377352,-0.188067868,-1.220273972,-1.110569835,-3.021425247,-0.990778327,-0.475697994,-0.187022045,0.008584426,0.076581873,0.4550114870071411,2.704963923
3.274724722,-0.021498375,-0.177371174,-1.220936894,-1.163872957,-3.08216548,-0.974889398,-0.47412166,-0.182121962,0.025821269,0.068007849,0.4390581846237183,2.698500633239746
3.279726267,0.02405706,-0.161527753,-1.221629977,-1.192338586,-3.142418146,-0.954475582,-0.473598957,-0.180497199,0.03153668,0.059507638,0.4228558838367462,2.692320823669434
3.28472352,0.063996516,-0.151582599,-1.221968174,-1.201207519,-3.204107761,-0.93777597,-0.473196805,-0.179247051,0.035934296,0.051182199,0.4063837826251984,2.686412096
3.289721489,0.1012324243783951,-0.150623664,-1.223629475,-1.193139911,-3.261445284,-0.923888445,-0.473063469,-0.178832516,0.037392464,0.043120258,0.3896546363830566,2.680748462677002
3.294720411,0.1342477202415466,-0.156864524,-1.223316789,-1.180265307,-3.318940639,-0.915060759,-0.470950723,-0.173884854,0.061116677,0.035335436,0.3726778626441956,2.675302505493164
3.299720526,0.1708869487047195,-0.168446019,-1.221174955,-1.167519927,-3.372282028,-0.908905983,-0.47025016,-0.172244295,0.068983175,0.027810261,0.355499804,2.670056819915771
3.304721355,0.2057057768106461,-0.183859646,-1.216959119,-1.163485289,-3.421885014,-0.907433689,-0.469711125,-0.170982003,0.075035907,0.020484606,0.3381208777427673,2.664983273
3.309717417,0.2354198694229126,-0.20177795,-1.211448431,-1.162580609,-3.46432209,-0.908141255,-0.4695324,-0.170563444,0.077042885,0.013346952,0.3205826282501221,2.660066843032837
3.314714909,0.2670106291770935,-0.213968486,-1.211315632,-1.167195797,-3.500353336,-0.907248318,-0.467175275,-0.167172313,0.096291102,0.006344087,0.3029192686080933,2.655310153961182
3.319713354,0.2943357229232788,-0.221866876,-1.208991766,-1.164779902,-3.529869795,-0.904387057,-0.465844452,-0.165288419,0.1070543527603149,-0.000492713,0.2851546108722687,2.65071702
3.324712515,0.3203567266464233,-0.234101325,-1.209596872,-1.155356407,-3.55399704,-0.89733845,-0.464820474,-0.163838908,0.1153359413146973,-0.007111638,0.2673263847827911,2.646317958831787
