Time,inertial-6253.76535:estCompensatedAccelX,inertial-6253.76535:estCompensatedAccelX:valid,inertial-6253.76535:estCompensatedAccelY,inertial-6253.76535:estCompensatedAccelY:valid,inertial-6253.76535:estCompensatedAccelZ,inertial-6253.76535:estCompensatedAccelZ:valid,inertial-6253.76535:estAngularRateX,inertial-6253.76535:estAngularRateX:valid,inertial-6253.76535:estAngularRateY,inertial-6253.76535:estAngularRateY:valid,inertial-6253.76535:estAngularRateZ,inertial-6253.76535:estAngularRateZ:valid,inertial-6253.76535:estRoll,inertial-6253.76535:estRoll:valid,inertial-6253.76535:estPitch,inertial-6253.76535:estPitch:valid,inertial-6253.76535:estYaw,inertial-6253.76535:estYaw:valid,inertial-6253.76535:estLinearAccelX,inertial-6253.76535:estLinearAccelX:valid,inertial-6253.76535:estLinearAccelY,inertial-6253.76535:estLinearAccelY:valid,inertial-6253.76535:estLinearAccelZ,inertial-6253.76535:estLinearAccelZ:valid
0,-4.432579994,1,-2.805711508,1,-8.30790329,1,-0.044417638,1,0.039386939,1,0.010248823,1,0.3311823010444641,1,-0.456125379,1,-0.100906827,1,-0.124682426,1,0.049302101,1,-0.004738808,1
0.004001536,-4.36755991,1,-2.807378769,1,-8.284071922,1,-0.04574186,1,0.033912465,1,0.013132665,1,0.3309582471847534,1,-0.456017494,1,-0.100802109,1,-0.060609341,1,0.045925856,1,0.020174026,1
0.007999232,-4.36342001,1,-2.745677471,1,-8.289916039,1,-0.047945205,1,0.035500564,1,0.015398836,1,0.3307247161865234,1,-0.455908775,1,-0.100694977,1,-0.057424068,1,0.1058402061462402,1,0.015439034,1
0.01199872,-4.338169098,1,-2.724671841,1,-8.306951523,1,-0.048240021,1,0.031479392,1,0.013260704,1,0.3304823637008667,1,-0.455798805,1,-0.100585289,1,-0.033138752,1,0.1249849796295166,1,-0.000462532,1
0.016006401,-4.354948521,1,-2.719724655,1,-8.331702232,1,-0.048104122,1,0.030831339,1,0.01414407,1,0.3302401304244995,1,-0.455697,1,-0.100478448,1,-0.050812721,1,0.1280632019042969,1,-0.024105072,1
0.02001024,-4.439944744,1,-2.718605995,1,-8.30712986,1,-0.045653958,1,0.031977396,1,0.013362637,1,0.3299985527992249,1,-0.455595016,1,-0.100369327,1,-0.136704445,1,0.1273174285888672,1,0.001570702,1
0.024009984,-4.439792633,1,-2.76429224,1,-8.297719002,1,-0.048004601,1,0.032870986,1,0.015779201,1,0.3297621011734009,1,-0.455489784,1,-0.100254171,1,-0.137476444,1,0.079813004,1,0.012083054,1
0.028011519,-4.420901299,1,-2.81416297,1,-8.305975914,1,-0.047050435,1,0.033388171,1,0.014477637,1,0.3295297622680664,1,-0.455378294,1,-0.100138426,1,-0.119564056,1,0.028166771,1,0.004940987,1
0.032009214,-4.370880604,1,-2.797533751,1,-8.303780556,1,-0.048012916,1,0.033471003,1,0.015982723,1,0.3292904198169708,1,-0.455275536,1,-0.100025915,1,-0.070446014,1,0.042949677,1,0.008234024,1
0.036008447,-4.408941746,1,-2.744259119,1,-8.275250435,1,-0.048173487,1,0.033980221,1,0.015830416,1,0.3290401101112366,1,-0.455165058,1,-0.099904746,1,-0.109477997,1,0.094296694,1,0.037923813,1
0.040009983,-4.412921906,1,-2.724972486,1,-8.312017441,1,-0.054447353,1,0.030939642,1,0.018847072,1,0.3287797868251801,1,-0.455069035,1,-0.099781774,1,-0.114301682,1,0.1115527153015137,1,0.002286911,1
0.044007424,-4.39499712,1,-2.728655815,1,-8.312994957,1,-0.051213473,1,0.033100724,1,0.018431114,1,0.328519881,1,-0.454963595,1,-0.099654682,1,-0.097302914,1,0.1058547496795654,1,0.002475739,1
0.048007168,-4.394475937,1,-2.695576668,1,-8.321258545,1,-0.051387768,1,0.031860195,1,0.020617807,1,0.3282686471939087,1,-0.454857349,1,-0.099535003,1,-0.097715378,1,0.1369919776916504,1,-0.004644394,1
0.052008446,-4.369161129,1,-2.685416937,1,-8.347406387,1,-0.044070151,1,0.031659711,1,0.016228098,1,0.3280268907546997,1,-0.4547548,1,-0.099418372,1,-0.073301792,1,0.1452820301055908,1,-0.02969265,1
0.056005888,-4.385426521,1,-2.711116791,1,-8.313570976,1,-0.047516234,1,0.034278497,1,0.016567642,1,0.3277860283851624,1,-0.454654098,1,-0.099300198,1,-0.090452194,1,0.1177186965942383,1,0.005235672,1
0.060005374,-4.372639656,1,-2.665204525,1,-8.337889671,1,-0.045213394,1,0.029145064,1,0.016027652,1,0.3275562822818756,1,-0.454555333,1,-0.09918806,1,-0.078532696,1,0.1618561744689941,1,-0.01803112,1
0.06400691,-4.365958214,1,-2.669890404,1,-8.362163544,1,-0.040368095,1,0.03061251,1,0.014370155,1,0.3273329138755798,1,-0.454463065,1,-0.099073157,1,-0.072662354,1,0.1554396152496338,1,-0.041297913,1
0.068004355,-4.35669136,1,-2.670995474,1,-8.336490631,1,-0.042221952,1,0.028396418,1,0.017674593,1,0.3271209299564362,1,-0.454367459,1,-0.098971091,1,-0.06423521,1,0.1527009010314941,1,-0.014640808,1
0.072003841,-4.376702785,1,-2.699309826,1,-8.35221386,1,-0.040814657,1,0.024112629,1,0.016983166,1,0.3269155919551849,1,-0.45428285,1,-0.098859601,1,-0.084990501,1,0.1227953433990479,1,-0.029438019,1
0.076005124,-4.404071808,1,-2.727489233,1,-8.311506271,1,-0.038449459,1,0.031137858,1,0.018928811,1,0.326704204,1,-0.454198837,1,-0.098754078,1,-0.113097668,1,0.09297204,1,0.012207031,1
0.080002815,-4.405831814,1,-2.706971407,1,-8.287276268,1,-0.034120794,1,0.028174475,1,0.012067661,1,0.3265110850334167,1,-0.45411104,1,-0.09865234,1,-0.115629196,1,0.1120035648345947,1,0.037340164,1
0.084002048,-4.387713432,1,-2.707350016,1,-8.340744019,1,-0.040652465,1,0.02500256,1,0.013795437,1,0.3263173997402191,1,-0.454029739,1,-0.098556697,1,-0.098225594,1,0.1101248264312744,1,-0.01525116,1
0.08800333,-4.398611069,1,-2.724814177,1,-8.355072975,1,-0.038473457,1,0.03043738,1,0.016794225,1,0.3261297941207886,1,-0.453941435,1,-0.098461322,1,-0.109899521,1,0.091219664,1,-0.028694153,1
0.092000768,-4.379023075,1,-2.714367151,1,-8.35816288,1,-0.033932369,1,0.025711268,1,0.015377671,1,0.3259263038635254,1,-0.453865409,1,-0.098352574,1,-0.090979576,1,0.1000761985778809,1,-0.030902863,1
0.096006401,-4.399798393,1,-2.718152761,1,-8.309585571,1,-0.034794066,1,0.027498344,1,0.014966495,1,0.3257462382316589,1,-0.453783095,1,-0.098259464,1,-0.112478256,1,0.094904184,1,0.018514633,1
0.10000819,-4.403567791,1,-2.720400095,1,-8.316690445,1,-0.03296762,1,0.027434355,1,0.01339758,1,0.3255603313446045,1,-0.45370084,1,-0.098168857,1,-0.116971016,1,0.091221333,1,0.012267113,1
0.104006141,-4.37882328,1,-2.730559349,1,-8.325655937,1,-0.03712596,1,0.026205027,1,0.014682319,1,0.3253740668296814,1,-0.453617215,1,-0.098072313,1,-0.092961788,1,0.07962513,1,0.004164696,1
0.108005375,-4.339829922,1,-2.706914663,1,-8.344902039,1,-0.035266887,1,0.024778152,1,0.014212662,1,0.3251912891864777,1,-0.453538269,1,-0.097979777,1,-0.054662704,1,0.1018555164337158,1,-0.014246941,1
0.112006657,-4.314632893,1,-2.661663771,1,-8.360600471,1,-0.032749295,1,0.024011783,1,0.013461629,1,0.3250097632408142,1,-0.453463405,1,-0.097880021,1,-0.030123234,1,0.1456966400146484,1,-0.029130936,1
0.116004094,-4.364717484,1,-2.621390104,1,-8.360072136,1,-0.037344806,1,0.018004885,1,0.015863549,1,0.3248341083526611,1,-0.453394949,1,-0.097786561,1,-0.080809593,1,0.1846001148223877,1,-0.027832031,1
0.120003328,-4.379250526,1,-2.647541285,1,-8.353175163,1,-0.02692488,1,0.022102766,1,0.014355807,1,0.3246659636497498,1,-0.453336269,1,-0.097695947,1,-0.095858574,1,0.1571280956268311,1,-0.020225525,1
0.124004863,-4.414886951,1,-2.672188997,1,-8.366880417,1,-0.03024153,1,0.017919902,1,0.01005432,1,0.3245055675506592,1,-0.453272849,1,-0.097612523,1,-0.132052898,1,0.131230354,1,-0.033224106,1
0.128002301,-4.380687714,1,-2.697117805,1,-8.369155884,1,-0.029110488,1,0.016434578,1,0.013064509,1,0.3243550062179565,1,-0.453219891,1,-0.097535916,1,-0.098319054,1,0.1051182746887207,1,-0.034864426,1
0.132001534,-4.406364918,1,-2.710955143,1,-8.332772255,1,-0.024428718,1,0.019896237,1,0.008558784,1,0.324215293,1,-0.453161091,1,-0.097462744,1,-0.124513626,1,0.090196371,1,0.002148628,1
0.136003077,-4.391689777,1,-2.668940544,1,-8.342399597,1,-0.026208736,1,0.017080447,1,0.011926422,1,0.3240830302238464,1,-0.453101397,1,-0.097394727,1,-0.110363007,1,0.1311905384063721,1,-0.006864548,1
0.140000507,-4.398626804,1,-2.66027689,1,-8.311869621,1,-0.025440663,1,0.017245961,1,0.0130172,1,0.3239428699016571,1,-0.453055441,1,-0.097317159,1,-0.117704391,1,0.1387484073638916,1,0.024244308,1
0.143999994,-4.382646084,1,-2.710209131,1,-8.345916748,1,-0.024587328,1,0.016106918,1,0.008930441,1,0.3236596286296844,1,-0.453087687,1,-0.097435191,1,-0.10144043,1,0.086411238,1,-0.009140968,1
0.148001537,-4.345860481,1,-2.689381123,1,-8.373661041,1,-0.025716094,1,0.017954811,1,0.008585286,1,0.323533684,1,-0.453036904,1,-0.097366728,1,-0.065101147,1,0.1062579154968262,1,-0.036328316,1
0.151998982,-4.379713535,1,-2.659571648,1,-8.353046417,1,-0.024808766,1,0.013917312,1,0.00966806,1,0.3234159350395203,1,-0.452987731,1,-0.097303927,1,-0.099386692,1,0.1351535320281982,1,-0.015182495,1
0.155998468,-4.386932373,1,-2.651697397,1,-8.397565842,1,-0.02176697,1,0.020068083,1,0.011300107,1,0.3233029246330261,1,-0.452935785,1,-0.097244181,1,-0.10706234,1,0.1421563625335693,1,-0.059174538,1
0.159999743,-4.355494976,1,-2.672705412,1,-8.380340576,1,-0.01811675,1,0.012842063,1,0.008065136,1,0.3231979608535767,1,-0.452886045,1,-0.097184755,1,-0.076062202,1,0.1203405857086182,1,-0.041454315,1
0.163997188,-4.376308918,1,-2.664939642,1,-8.350814819,1,-0.021717982,1,0.017935224,1,0.007046417,1,0.3231058716773987,1,-0.452833384,1,-0.097128905,1,-0.097339153,1,0.1274104118347168,1,-0.011457443,1
0.167996675,-4.396569729,1,-2.65757513,1,-8.319671631,1,-0.014316876,1,0.013764486,1,0.00830772,1,0.323009729,1,-0.452782929,1,-0.097070642,1,-0.1180439,1,0.1340410709381104,1,0.020157814,1
0.172004089,-4.403321743,1,-2.653167725,1,-8.357967377,1,-0.014975606,1,0.017564232,1,0.006934728,1,0.3229362964630127,1,-0.452731133,1,-0.097024336,1,-0.12525177,1,0.1379058361053467,1,-0.017724037,1
0.176007941,-4.369036674,1,-2.674321651,1,-8.350967407,1,-0.01954636,1,0.016427217,1,0.006311307,1,0.3228533267974854,1,-0.452679664,1,-0.096975096,1,-0.091418743,1,0.1161296367645264,1,-0.010284424,1
0.180007681,-4.354290009,1,-2.708392143,1,-8.345714569,1,-0.015272926,1,0.013517588,1,0.005307027,1,0.3227710425853729,1,-0.452625364,1,-0.096917622,1,-0.077149868,1,0.081446886,1,-0.004581451,1
0.184008956,-4.384479046,1,-2.711756468,1,-8.339916229,1,-0.014794894,1,0.012865515,1,0.0044387,1,0.3226935863494873,1,-0.452571332,1,-0.096874282,1,-0.107814312,1,0.077510118,1,0.001654625,1
0.188006654,-4.353503227,1,-2.709851503,1,-8.320363998,1,-0.015809713,1,0.018974001,1,0.006387756,1,0.3226127326488495,1,-0.452516705,1,-0.096826151,1,-0.077318668,1,0.078814983,1,0.021653175,1
0.192005888,-4.382039547,1,-2.653406858,1,-8.363101959,1,-0.012939481,1,0.015555926,1,0.003688838,1,0.3225300312042236,1,-0.45246014,1,-0.096779823,1,-0.106352329,1,0.1346457004547119,1,-0.020626068,1
0.196007162,-4.402720928,1,-2.653099537,1,-8.373246193,1,-0.008238003,1,0.011626055,1,0.003676994,1,0.3224654793739319,1,-0.452401042,1,-0.096739538,1,-0.127553463,1,0.1344943046569824,1,-0.030350685,1
0.200004861,-4.406394958,1,-2.660079479,1,-8.388828278,1,-0.010804944,1,0.016463779,1,0.004523785,1,0.3224112391471863,1,-0.452344507,1,-0.096705787,1,-0.131725311,1,0.127138615,1,-0.0455513,1
0.204004347,-4.399189949,1,-2.658492327,1,-8.366186142,1,-0.006759628,1,0.016403571,1,0.002519381,1,0.3223533034324646,1,-0.45228833,1,-0.096675485,1,-0.125014305,1,0.1283187866210938,1,-0.022520065,1
0.20800589,-4.392036438,1,-2.665813923,1,-8.357275009,1,-0.005685096,1,0.015784733,1,0.001830779,1,0.3223122954368591,1,-0.452229857,1,-0.096649088,1,-0.118375301,1,0.1207339763641357,1,-0.01325798,1
0.212003589,-4.398723125,1,-2.670977592,1,-8.390993118,1,-0.001593696,1,0.012887903,1,0.00173592,1,0.322293609,1,-0.452176362,1,-0.096632786,1,-0.125532627,1,0.1154868602752686,1,-0.046707153,1
0.216003075,-4.410854816,1,-2.611472845,1,-8.406126976,1,0.002918552,1,0.013719842,1,-0.006494437,1,0.3222875595092773,1,-0.452118605,1,-0.096621461,1,-0.13817215,1,0.1750192642211914,1,-0.061589241,1
0.220004603,-4.396181107,1,-2.646713018,1,-8.395856857,1,0.003190303,1,0.015894949,1,-0.008318769,1,0.3222920000553131,1,-0.452060282,1,-0.096626922,1,-0.124011993,1,0.139894962,1,-0.051096916,1
0.224002302,-4.407351494,1,-2.632503748,1,-8.363544464,1,0.005327556,1,0.012029942,1,-0.005699416,1,0.3223065435886383,1,-0.452011108,1,-0.096635565,1,-0.135614872,1,0.1542923450469971,1,-0.018624306,1
0.228001535,-4.404336929,1,-2.632726908,1,-8.399312973,1,0.004897826,1,0.012463233,1,-0.009069948,1,0.3223210573196411,1,-0.451948494,1,-0.09664388,1,-0.133151054,1,0.1542749404907227,1,-0.054181099,1
0.232003078,-4.38312912,1,-2.607257843,1,-8.387613297,1,0.005683607,1,0.009065512,1,-0.007494641,1,0.3223571181297302,1,-0.45189631,1,-0.096659616,1,-0.112401962,1,0.1801152229309082,1,-0.042370796,1
0.236000761,-4.401582718,1,-2.61956811,1,-8.397391319,1,0.010308038,1,0.007108877,1,-0.014036905,1,0.3224040567874908,1,-0.451838672,1,-0.096691921,1,-0.131362915,1,0.1682751178741455,1,-0.052043915,1
0.240000263,-4.370654106,1,-2.64531064,1,-8.42747879,1,0.014377748,1,0.005294546,1,-0.016653139,1,0.3224851489067078,1,-0.451792687,1,-0.096737944,1,-0.100839138,1,0.1432719230651855,1,-0.08217144,1
0.244001538,-4.386869431,1,-2.626075506,1,-8.40426445,1,0.018437481,1,0.003648575,1,-0.013766643,1,0.322572649,1,-0.451749325,1,-0.096794277,1,-0.117435455,1,0.1632959842681885,1,-0.059024811,1
0.247998983,-4.367619038,1,-2.64552927,1,-8.423818588,1,0.025403816,1,0.005786703,1,-0.019826248,1,0.3226878643035889,1,-0.451709777,1,-0.096857637,1,-0.09853363,1,0.1448562145233154,1,-0.078742981,1
0.252010494,-4.406394958,1,-2.634475708,1,-8.431341171,1,0.023057364,1,0.000874381,1,-0.017607832,1,0.3228178322315216,1,-0.45168066,1,-0.096926384,1,-0.137565613,1,0.1570336818695068,1,-0.086510658,1
0.256017923,-4.39471674,1,-2.606082678,1,-8.426395416,1,0.036040392,1,-0.003809973,1,-0.022942308,1,0.3229767084121704,1,-0.451656133,1,-0.097024843,1,-0.126103401,1,0.1867866516113281,1,-0.081906319,1
0.26002124,-4.389088631,1,-2.536718845,1,-8.438612938,1,0.043004431,1,-0.005548422,1,-0.02816515,1,0.3231767117977142,1,-0.451634407,1,-0.097142197,1,-0.120666504,1,0.2578489780426025,1,-0.094594002,1
0.264020979,-4.393007755,1,-2.497989178,1,-8.471043587,1,0.048538718,1,-0.009740161,1,-0.033853188,1,0.3234246373176575,1,-0.451633185,1,-0.097290725,1,-0.124596596,1,0.2986485958099365,1,-0.127713203,1
0.268022269,-4.355015755,1,-2.553208351,1,-8.455717087,1,0.059356686,1,-0.017079065,1,-0.034354117,1,0.3237161934375763,1,-0.451644421,1,-0.097465321,1,-0.086505413,1,0.2458455562591553,1,-0.11325264,1
0.272019982,-4.378375053,1,-2.595636129,1,-8.472970009,1,0.071010984,1,-0.029627278,1,-0.042767193,1,0.3240681886672974,1,-0.451674104,1,-0.097662494,1,-0.109603405,1,0.2063140869140625,1,-0.131609917,1
0.276019186,-4.438726425,1,-2.581458092,1,-8.480374336,1,0.078357354,1,-0.03227878,1,-0.038922492,1,0.3244546055793762,1,-0.451738298,1,-0.09787187,1,-0.169390202,1,0.2236282825469971,1,-0.140356064,1
0.280020475,-4.376513481,1,-2.65328455,1,-8.480100632,1,0.085755095,1,-0.033095568,1,-0.040387828,1,0.3248776197433472,1,-0.451812536,1,-0.098088704,1,-0.106523991,1,0.1552276611328125,1,-0.141571999,1
0.284018189,-4.42301321,1,-2.723400354,1,-8.52317524,1,0.094822057,1,-0.046959557,1,-0.030851021,1,0.3253262639045715,1,-0.451920092,1,-0.098299444,1,-0.152077198,1,0.088706493,1,-0.186340332,1
0.288017422,-4.440963745,1,-2.736242056,1,-8.500760078,1,0.1042216271162033,1,-0.055590328,1,-0.024712771,1,0.3257986605167389,1,-0.452075779,1,-0.098486051,1,-0.16865778,1,0.079589605,1,-0.165885925,1
0.292018682,-4.451441288,1,-2.795756817,1,-8.509077072,1,0.1166411116719246,1,-0.063725352,1,-0.012637146,1,0.3263076543807983,1,-0.452277541,1,-0.098649658,1,-0.177361012,1,0.024041176,1,-0.176451683,1
0.296016127,-4.428359032,1,-2.837842226,1,-8.469754219,1,0.1171759143471718,1,-0.07540153,1,-0.007929292,1,0.3268375396728516,1,-0.452525765,1,-0.098792858,1,-0.152094841,1,-0.013970613,1,-0.139631271,1
0.30001536,-4.464820385,1,-2.853800058,1,-8.502738953,1,0.1293243616819382,1,-0.080391355,1,-0.005747296,1,0.327394962,1,-0.452808291,1,-0.098939545,1,-0.186071396,1,-0.025674582,1,-0.175336838,1
0.304016888,-4.508992672,1,-2.883390188,1,-8.514982224,1,0.1402749866247177,1,-0.09437222,1,6.816629320383072e-05,1,0.3279973268508911,1,-0.453135967,1,-0.099080145,1,-0.227362156,1,-0.050699949,1,-0.190608978,1
0.308014333,-4.552783489,1,-2.78154397,1,-8.495325089,1,0.156622902,1,-0.10383226,1,-0.002293471,1,0.3286478519439697,1,-0.453514576,1,-0.099219687,1,-0.267824173,1,0.056037664,1,-0.174331665,1
0.312013566,-4.501698971,1,-2.838641405,1,-8.533144951,1,0.1667611747980118,1,-0.116561458,1,0.003417481,1,0.3293501436710358,1,-0.453931421,1,-0.099371508,1,-0.213075161,1,0.004205465,1,-0.215837479,1
0.316015095,-4.516592026,1,-2.877485514,1,-8.547245026,1,0.187742144,1,-0.126760349,1,0.010673483,1,0.330116868,1,-0.454404175,1,-0.099511005,1,-0.223813057,1,-0.028920412,1,-0.23404026,1
0.32001254,-4.544833183,1,-2.856834412,1,-8.491598129,1,0.2015813142061234,1,-0.147476807,1,0.021730453,1,0.330959678,1,-0.454945862,1,-0.099641852,1,-0.247294903,1,-0.002020836,1,-0.182999611,1
0.324011773,-4.541959763,1,-2.902783871,1,-8.348767281,1,0.2181552648544312,1,-0.15172562,1,0.019430239,1,0.3318614959716797,1,-0.455542624,1,-0.09977226,1,-0.239179611,1,-0.04131341,1,-0.045168877,1
0.328013062,-4.453217983,1,-2.944740772,1,-8.261856079,1,0.2252913415431976,1,-0.151103139,1,0.022056051,1,0.3328121602535248,1,-0.456156224,1,-0.099913426,1,-0.145049572,1,-0.076241255,1,0.036520004,1
0.332016379,-4.437865734,1,-2.870229959,1,-8.277535439,1,0.2237239480018616,1,-0.152280539,1,0.027587846,1,0.3337685763835907,1,-0.456773251,1,-0.100023679,1,-0.124280453,1,0.005333185,1,0.015579224,1
0.336016119,-4.598927021,1,-2.776194334,1,-8.340625763,1,0.2110432684421539,1,-0.142595917,1,0.027413346,1,0.334682822,1,-0.457369596,1,-0.100116223,1,-0.280108452,1,0.1061046123504639,1,-0.05257225,1
0.340017408,-4.337681293,1,-2.862401962,1,-8.187170029,1,0.2128689140081406,1,-0.143898636,1,0.020666141,1,0.3355690240859985,1,-0.45793426,1,-0.100236207,1,-0.013908386,1,0.026437998,1,0.09602356,1
0.344014853,-4.404698849,1,-2.938761711,1,-8.145874023,1,0.2003543227910995,1,-0.139131606,1,0.021121241,1,0.3364632725715637,1,-0.45851174,1,-0.100361429,1,-0.0758605,1,-0.043341398,1,0.1323709487915039,1
0.348014325,-4.466112614,1,-2.910825491,1,-8.194656372,1,0.18881318,1,-0.128310829,1,0.020848501,1,0.3372876644134521,1,-0.459041059,1,-0.100470953,1,-0.132632732,1,-0.009339809,1,0.079037666,1
0.352015615,-4.444472313,1,-2.822011232,1,-8.131104469,1,0.1822632104158401,1,-0.116229579,1,0.016853984,1,0.3380661010742188,1,-0.459530056,1,-0.100567833,1,-0.106705666,1,0.085211039,1,0.1383285522460938,1
0.356012791,-4.365524292,1,-2.861504316,1,-8.113923073,1,0.1674957275390625,1,-0.110533267,1,0.013958379,1,0.3388088643550873,1,-0.459979802,1,-0.100670576,1,-0.023815632,1,0.05120945,1,0.1515045166015625,1
0.360012293,-4.429812431,1,-2.828090429,1,-8.147831917,1,0.1577178686857224,1,-0.104505941,1,0.017760597,1,0.3394973278045654,1,-0.460401118,1,-0.100759424,1,-0.084411621,1,0.089704514,1,0.1138648986816406,1
0.364013582,-4.496142387,1,-2.926720142,1,-8.164983749,1,0.1578294485807419,1,-0.088577427,1,0.015083116,1,0.3401588201522827,1,-0.460788339,1,-0.100838646,1,-0.147349834,1,-0.004022837,1,0.093192101,1
0.368011266,-4.546697617,1,-2.919764996,1,-8.14613533,1,0.1588646024465561,1,-0.081445746,1,0.01684742,1,0.3408181667327881,1,-0.461128145,1,-0.100894503,1,-0.194928169,1,0.007882118,1,0.1087188720703125,1
0.372010738,-4.49093008,1,-2.908694267,1,-8.143691063,1,0.1584823578596115,1,-0.068937771,1,0.018845849,1,0.3414712250232697,1,-0.461436629,1,-0.100931868,1,-0.136459351,1,0.023894072,1,0.1079854965209961,1
0.376012295,-4.420383453,1,-2.937582493,1,-8.181493759,1,0.1460262387990952,1,-0.065979205,1,0.016670637,1,0.3421086370944977,1,-0.461716294,1,-0.100971937,1,-0.063463211,1,-0.000143528,1,0.067164421,1
0.380009979,-4.393416882,1,-2.852236986,1,-8.155101776,1,0.1372672468423843,1,-0.060694735,1,0.014126635,1,0.3426987528800964,1,-0.461972088,1,-0.101010062,1,-0.034257412,1,0.089694023,1,0.090768814,1
0.38400948,-4.376353741,1,-2.83231926,1,-8.179501534,1,0.1314333081245422,1,-0.053074867,1,0.014605104,1,0.3432538509368896,1,-0.462210029,1,-0.101034641,1,-0.01511097,1,0.1138391494750977,1,0.06375885,1
0.38801074,-4.361295223,1,-2.795579672,1,-8.164606094,1,0.1228209584951401,1,-0.052142177,1,0.011031241,1,0.3437708914279938,1,-0.462421924,1,-0.101065606,1,0.001802444,1,0.154529333,1,0.076260567,1
0.392008454,-4.322926044,1,-2.772271872,1,-8.153883934,1,0.1194574385881424,1,-0.052406929,1,0.006050112,1,0.3440830111503601,1,-0.46278137,1,-0.100729853,1,0.043317795,1,0.1798791885375977,1,0.084582329,1
0.396014094,-4.323631287,1,-2.788506269,1,-8.152373314,1,0.108021192,1,-0.053324852,1,0.008285401,1,0.3445835709571838,1,-0.462936431,1,-0.101227216,1,0.043969154,1,0.1675403118133545,1,0.083979607,1
0.400016129,-4.267813206,1,-2.831986427,1,-8.123867989,1,0.094553679,1,-0.049073428,1,0.005849885,1,0.3450177311897278,1,-0.463132054,1,-0.10128165,1,0.101499081,1,0.1273467540740967,1,0.1103973388671875,1
0.404014081,-4.304192066,1,-2.847793579,1,-8.149004936,1,0.091624863,1,-0.048056014,1,0.004227509,1,0.3454103767871857,1,-0.463315964,1,-0.101327926,1,0.066729069,1,0.1145009994506836,1,0.083341599,1
0.408019453,-4.315070152,1,-2.852803469,1,-8.132082939,1,0.08209046,1,-0.046708528,1,0.006265702,1,0.345773458,1,-0.46350053,1,-0.101377837,1,0.05746603,1,0.112205982,1,0.098427773,1
0.41202125,-4.335903168,1,-2.839455128,1,-8.152821541,1,0.071413741,1,-0.040013481,1,0.006853381,1,0.3460978865623474,1,-0.463660955,1,-0.10141699,1,0.038036346,1,0.1279869079589844,1,0.076068878,1
0.416018933,-4.387252331,1,-2.855949402,1,-8.142562866,1,0.058109067,1,-0.036786515,1,0.005187314,1,0.3463732600212097,1,-0.463817447,1,-0.101462521,1,-0.011944294,1,0.1135246753692627,1,0.084861755,1
0.420018435,-4.36658144,1,-2.863498688,1,-8.135273933,1,0.045236684,1,-0.032639477,1,0.007633292,1,0.3466004431247711,1,-0.463956058,1,-0.101494513,1,0.009939194,1,0.1076395511627197,1,0.090907097,1
0.424019963,-4.303831577,1,-2.906564713,1,-8.119344711,1,0.034953829,1,-0.027540509,1,0.008565076,1,0.3467672169208527,1,-0.464081287,1,-0.101495735,1,0.073784351,1,0.06575942,1,0.1058263778686523,1
0.428017676,-4.38071394,1,-2.909274817,1,-8.13813591,1,0.02172772,1,-0.02707148,1,0.010805979,1,0.3468815386295319,1,-0.464199901,1,-0.101485811,1,-0.00206089,1,0.063812733,1,0.086206436,1
0.432017416,-4.427101612,1,-2.893275738,1,-8.137083054,1,0.01725783,1,-0.022925979,1,0.016588809,1,0.3469521403312683,1,-0.464307576,1,-0.101469398,1,-0.047506809,1,0.080231667,1,0.086606026,1
0.436018944,-4.438939095,1,-2.908445835,1,-8.111579895,1,0.005154526,1,-0.013632761,1,0.013063246,1,0.346978635,1,-0.46439147,1,-0.101433426,1,-0.058610439,1,0.065154314,1,0.1116828918457031,1
0.440016627,-4.457962513,1,-2.938213587,1,-8.102552414,1,-0.012604544,1,-0.00649564,1,0.027050091,1,0.346940279,1,-0.464458764,1,-0.10136842,1,-0.077045441,1,0.03497076,1,0.1205472946166992,1
0.444016129,-4.3920784,1,-3.015896797,1,-8.118954659,1,-0.022981973,1,-0.003454426,1,0.029541733,1,0.346824437,1,-0.464514732,1,-0.10125728,1,-0.010672092,1,-0.04374814,1,0.1042585372924805,1
0.448017418,-4.370241165,1,-3.057566643,1,-8.086888313,1,-0.03366562,1,0.004089132,1,0.033507299,1,0.346643329,1,-0.464553058,1,-0.101123966,1,0.011499882,1,-0.086964607,1,0.1367053985595703,1
0.452014834,-4.450754642,1,-2.999331236,1,-8.067375183,1,-0.044595644,1,0.006264921,1,0.0336168,1,0.3464226126670837,1,-0.464579344,1,-0.100975715,1,-0.068783283,1,-0.030583143,1,0.1567659378051758,1
0.456014335,-4.449527264,1,-2.996004105,1,-8.12487793,1,-0.058611196,1,0.013231896,1,0.044332214,1,0.3461543917655945,1,-0.464596093,1,-0.100805916,1,-0.067409515,1,-0.029486895,1,0.099990845,1
0.460015625,-4.385059357,1,-2.967609882,1,-8.11658287,1,-0.080002576,1,0.025632776,1,0.058521915,1,0.3457667827606201,1,-0.464584947,1,-0.100557335,1,-0.00303936,1,-0.004264832,1,0.1094799041748047,1
0.464013308,-4.321048737,1,-3.075577259,1,-8.109438896,1,-0.09454871,1,0.035585608,1,0.070500053,1,0.3452669978141785,1,-0.464567721,1,-0.100237332,1,0.06082058,1,-0.116317511,1,0.1181764602661133,1
0.46801281,-4.426545143,1,-3.141802073,1,-8.124547958,1,-0.112842605,1,0.037256725,1,0.088903777,1,0.3446910977363586,1,-0.464541376,1,-0.099853843,1,-0.044905663,1,-0.187241793,1,0.1048803329467773,1
0.47201407,-4.420817852,1,-3.188533306,1,-8.060143471,1,-0.138804823,1,0.055545047,1,0.1074683144688606,1,0.3439807295799255,1,-0.464502692,1,-0.099377885,1,-0.039516926,1,-0.239762783,1,0.1715412139892578,1
0.476011783,-4.364621639,1,-3.219694138,1,-8.053090096,1,-0.160744831,1,0.061315969,1,0.1270642131567001,1,0.3431276977062225,1,-0.464432746,1,-0.098801211,1,0.016067505,1,-0.277844191,1,0.1813926696777344,1
0.480011016,-4.444369793,1,-3.265400887,1,-8.065714836,1,-0.175857782,1,0.066741891,1,0.1310870498418808,1,0.3421725034713745,1,-0.464359641,1,-0.098161489,1,-0.064320087,1,-0.331309557,1,0.1718769073486328,1
0.484012276,-4.495283604,1,-3.197448254,1,-8.0620327,1,-0.187928304,1,0.078024238,1,0.1414199471473694,1,0.3411394357681274,1,-0.464270085,1,-0.097474277,1,-0.116016865,1,-0.271738291,1,0.1789541244506836,1
0.488015622,-4.324901581,1,-3.021942854,1,-8.140181541,1,-0.198706567,1,0.081953585,1,0.1503500491380692,1,0.3400309681892395,1,-0.464158952,1,-0.096740775,1,0.053393364,1,-0.10520649,1,0.1045036315917969,1
0.492015094,-4.229697704,1,-2.921904325,1,-8.24010849,1,-0.200025976,1,0.070854574,1,0.1525267362594604,1,0.3388990759849548,1,-0.464071393,1,-0.095998988,1,0.1478314399719238,1,-0.01437521,1,0.008232117,1
0.496016651,-4.300915241,1,-2.813691139,1,-8.255397797,1,-0.193022311,1,0.060237888,1,0.1473714709281921,1,0.3377794027328491,1,-0.464016944,1,-0.095270753,1,0.076137543,1,0.084680557,1,-0.003580093,1
0.500014365,-4.379108429,1,-2.702671051,1,-8.253267288,1,-0.194118336,1,0.056917399,1,0.1443042457103729,1,0.3366847932338715,1,-0.463984519,1,-0.094566181,1,-0.002338409,1,0.1867122650146484,1,0.001850128,1
0.504013538,-4.383499622,1,-2.626342058,1,-8.276453018,1,-0.181938231,1,0.04980164,1,0.137263149,1,0.3356443047523499,1,-0.463961393,1,-0.093900591,1,-0.006932735,1,0.2544844150543213,1,-0.018235207,1
0.508014858,-4.369234562,1,-2.549203157,1,-8.282272339,1,-0.178283557,1,0.047896799,1,0.1297417432069778,1,0.3346443176269531,1,-0.463944852,1,-0.093270048,1,0.00718832,1,0.3233888149261475,1,-0.021107674,1
0.512012303,-4.376019955,1,-2.541378975,1,-8.276090622,1,-0.174071074,1,0.041122373,1,0.1159528344869614,1,0.3336864411830902,1,-0.463942647,1,-0.092689924,1,0.0003829,1,0.3233003616333008,1,-0.012172699,1
0.516011536,-4.38843298,1,-2.543143034,1,-8.298803329,1,-0.163804874,1,0.03513005,1,0.1079152151942253,1,0.3327726125717163,1,-0.463947475,1,-0.092154659,1,-0.011987686,1,0.3139772415161133,1,-0.032288551,1
0.520013034,-4.359406471,1,-2.513220549,1,-8.34632206,1,-0.165677845,1,0.030983638,1,0.094922289,1,0.331896037,1,-0.463961005,1,-0.091665246,1,0.017157078,1,0.3366324901580811,1,-0.077363968,1
0.524010479,-4.394867897,1,-2.453568697,1,-8.335021973,1,-0.155697927,1,0.026743008,1,0.090734109,1,0.3310635685920715,1,-0.46397081,1,-0.091228403,1,-0.018218517,1,0.3893857002258301,1,-0.063734055,1
0.528010011,-4.357451439,1,-2.389399529,1,-8.360909462,1,-0.156034052,1,0.027097624,1,0.074496642,1,0.3302685618400574,1,-0.463971764,1,-0.090839855,1,0.019206524,1,0.4469773769378662,1,-0.087367058,1
0.532011271,-4.420814514,1,-2.330781937,1,-8.354028702,1,-0.142819121,1,0.021956991,1,0.064456813,1,0.3295213282108307,1,-0.46397227,1,-0.090506747,1,-0.044151783,1,0.4994115829467773,1,-0.078370094,1
0.536008716,-4.397280693,1,-2.329526663,1,-8.353695869,1,-0.133180916,1,0.023559162,1,0.049218241,1,0.3288439214229584,1,-0.463963926,1,-0.090237558,1,-0.020691395,1,0.4950706958770752,1,-0.076090813,1
0.540007949,-4.358901501,1,-2.342989206,1,-8.360274315,1,-0.128841713,1,0.022704752,1,0.035761986,1,0.3282211720943451,1,-0.463925719,1,-0.090019234,1,0.017353535,1,0.4765067100524902,1,-0.080753326,1
0.544009209,-4.29795599,1,-2.427235365,1,-8.357871056,1,-0.126036376,1,0.02081782,1,0.03349527,1,0.3276332020759583,1,-0.463884771,1,-0.089837573,1,0.077940941,1,0.3874504566192627,1,-0.076522827,1
0.548006654,-4.222034454,1,-2.438753605,1,-8.399727821,1,-0.1201263,1,0.014540229,1,0.028345527,1,0.327061653,1,-0.463852853,1,-0.089668989,1,0.1535835266113281,1,0.3712434768676758,1,-0.116639137,1
0.552006125,-4.358318806,1,-2.523917675,1,-8.387201309,1,-0.10977497,1,0.006203541,1,0.02193314,1,0.3265427947044373,1,-0.463839889,1,-0.089553609,1,0.017185688,1,0.2817997932434082,1,-0.102601051,1
0.556007445,-4.458163261,1,-2.520139456,1,-8.388571739,1,-0.108715169,1,0.002597829,1,0.014478737,1,0.3260642886161804,1,-0.463837713,1,-0.089466535,1,-0.082677841,1,0.2816164493560791,1,-0.102621078,1
0.560005128,-4.453942776,1,-2.568378925,1,-8.367853165,1,-0.103324711,1,0.000981454,1,0.017037446,1,0.3256103098392487,1,-0.463851333,1,-0.089394763,1,-0.078338146,1,0.2295956611633301,1,-0.080688477,1
0.564004362,-4.421256542,1,-2.654789209,1,-8.332056999,1,-0.09726426,1,-0.00218784,1,0.00592073,1,0.3251988291740417,1,-0.463872761,1,-0.089349993,1,-0.045464993,1,0.1397457122802734,1,-0.043828964,1
0.568011761,-4.413989544,1,-2.768804312,1,-8.338007927,1,-0.092273235,1,-0.010842819,1,0.011910263,1,0.3248059153556824,1,-0.46391359,1,-0.089320593,1,-0.037840366,1,0.02241683,1,-0.048852921,1
0.572015345,-4.440844059,1,-2.7701931,1,-8.308213234,1,-0.093012266,1,-0.016676329,1,0.009867966,1,0.3244216442108154,1,-0.463980585,1,-0.089289948,1,-0.064109325,1,0.017747641,1,-0.018268585,1
0.576014876,-4.474623203,1,-2.889847279,1,-8.304907799,1,-0.090702266,1,-0.020654961,1,0.013529677,1,0.3240357637405396,1,-0.464069068,1,-0.089261234,1,-0.097114086,1,-0.105228901,1,-0.014253616,1
0.580016136,-4.572520733,1,-2.78588295,1,-8.290215492,1,-0.090881117,1,-0.016178438,1,0.012208888,1,0.3236585557460785,1,-0.464150786,1,-0.089234091,1,-0.194297314,1,-0.004505396,1,0.001150131,1
0.584013581,-4.605566502,1,-2.780648708,1,-8.323439598,1,-0.088364296,1,-0.023634503,1,0.010033084,1,0.3232953250408173,1,-0.46424219,1,-0.08921136,1,-0.226543427,1,-0.002411127,1,-0.031445503,1
0.588012815,-4.53937149,1,-2.749469757,1,-8.299814224,1,-0.084380291,1,-0.021708541,1,0.006822641,1,0.3229524493217468,1,-0.464335024,1,-0.089198068,1,-0.159536362,1,0.025795937,1,-0.007253647,1
0.592014313,-4.503288269,1,-2.735349894,1,-8.322170258,1,-0.078395128,1,-0.022076424,1,0.007240968,1,0.3226308226585388,1,-0.464425981,1,-0.089200445,1,-0.122658253,1,0.037122726,1,-0.029093742,1
0.596011758,-4.502143383,1,-2.700356722,1,-8.332427979,1,-0.077162936,1,-0.025212372,1,0.007643807,1,0.3223223686218262,1,-0.464531392,1,-0.08920192,1,-0.12059164,1,0.069411039,1,-0.038934708,1
0.600010991,-4.567107201,1,-2.673260689,1,-8.322118759,1,-0.076938443,1,-0.02671333,1,0.006369007,1,0.3220087289810181,1,-0.464635253,1,-0.089203566,1,-0.184647083,1,0.093761921,1,-0.028188705,1
0.604012311,-4.549503803,1,-2.692675591,1,-8.388569832,1,-0.071235105,1,-0.028770024,1,0.005420882,1,0.3217209577560425,1,-0.464747459,1,-0.089213625,1,-0.166062832,1,0.071805,1,-0.094309807,1
0.608009756,-4.58935833,1,-2.663808107,1,-8.4072752,1,-0.066805162,1,-0.033026207,1,0.003076107,1,0.3214508891105652,1,-0.464868903,1,-0.089236267,1,-0.204855442,1,0.098263741,1,-0.112774849,1
0.612008989,-4.609121323,1,-2.707734585,1,-8.393502235,1,-0.058048837,1,-0.03759193,1,0.004449691,1,0.3212118744850159,1,-0.464992106,1,-0.089265332,1,-0.22354126,1,0.052184343,1,-0.098855019,1
0.616010487,-4.638037682,1,-2.731521606,1,-8.350381851,1,-0.053474125,1,-0.033679344,1,0.002365071,1,0.3210073709487915,1,-0.465124547,1,-0.089310333,1,-0.251299858,1,0.026517868,1,-0.055720329,1
0.620008171,-4.652841568,1,-2.754009724,1,-8.350105286,1,-0.049623329,1,-0.036394559,1,-0.002965131,1,0.320824921,1,-0.465250313,1,-0.08936511,1,-0.265004635,1,0.002342701,1,-0.055463791,1
0.624007702,-4.65957737,1,-2.73810339,1,-8.316718102,1,-0.044050522,1,-0.031493425,1,0.000685239,1,0.3206625580787659,1,-0.465379834,1,-0.089417346,1,-0.270607948,1,0.016722202,1,-0.022170067,1
0.6280092,-4.655619144,1,-2.783761263,1,-8.357551575,1,-0.045981366,1,-0.027819477,1,-0.002777676,1,0.3205009698867798,1,-0.46549958,1,-0.089463465,1,-0.265603065,1,-0.030440569,1,-0.063055992,1
0.632006645,-4.618360043,1,-2.885450125,1,-8.243917465,1,-0.043644685,1,-0.030149575,1,0.000562948,1,0.3203402161598206,1,-0.46561107,1,-0.089510582,1,-0.227370739,1,-0.133617401,1,0.050557137,1
0.636006117,-4.761331081,1,-2.68723774,1,-8.298748016,1,-0.045689028,1,-0.02697685,1,0.002576152,1,0.3201786279678345,1,-0.465720147,1,-0.089555845,1,-0.369388103,1,0.063104153,1,-0.004283905,1
0.640007436,-4.465986729,1,-2.551849365,1,-8.462285042,1,-0.037836201,1,-0.024010211,1,-0.001189312,1,0.3200312852859497,1,-0.465812624,1,-0.089581788,1,-0.073235512,1,0.1971416473388672,1,-0.167803764,1
0.644004881,-4.547602177,1,-2.563985109,1,-8.423855782,1,-0.027504286,1,-0.032861717,1,-0.007317096,1,0.3197942674160004,1,-0.465972394,1,-0.08982338,1,-0.153454781,1,0.1828203201293945,1,-0.129386902,1
0.648010731,-4.693980694,1,-2.727658033,1,-8.279722214,1,-0.024123324,1,-0.032779984,1,-0.001713804,1,0.3197211623191833,1,-0.466092288,1,-0.089890219,1,-0.298786163,1,0.018375158,1,0.014446259,1
0.652012825,-4.712805748,1,-2.824197531,1,-8.206273079,1,-0.030146493,1,-0.024657594,1,-0.00409392,1,0.3196429908275604,1,-0.466202587,1,-0.089941703,1,-0.31664753,1,-0.078965425,1,0.087649345,1
0.656011283,-4.621690273,1,-2.829741478,1,-8.269412041,1,-0.02843206,1,-0.02078508,1,-0.001907525,1,0.3195550441741943,1,-0.466292441,1,-0.089988358,1,-0.224747181,1,-0.085362434,1,0.024377823,1
0.660010755,-4.619023323,1,-2.703215361,1,-8.291822433,1,-0.026270926,1,-0.021922389,1,0.002418299,1,0.3194537162780762,1,-0.466373593,1,-0.090014316,1,-0.221371174,1,0.040210962,1,0.001906395,1
0.664012015,-4.613931656,1,-2.62894249,1,-8.29134655,1,-0.024150189,1,-0.018371291,1,0.00010015,1,0.3193570077419281,1,-0.466446012,1,-0.090041786,1,-0.215646744,1,0.113581657,1,0.002344131,1
0.668009698,-4.633385658,1,-2.712152243,1,-8.289456367,1,-0.028880747,1,-0.017918115,1,0.000885045,1,0.3192614912986755,1,-0.466518134,1,-0.090065271,1,-0.234470844,1,0.029480457,1,0.004197121,1
0.67200923,-4.561628342,1,-2.732714415,1,-8.273077011,1,-0.02496526,1,-0.01665194,1,0.007497369,1,0.3191606402397156,1,-0.466590971,1,-0.090071365,1,-0.16207695,1,0.007981062,1,0.020546913,1
0.676010489,-4.592634201,1,-2.759976864,1,-8.261183739,1,-0.02275278,1,-0.016699003,1,0.008237449,1,0.3190655410289764,1,-0.466662377,1,-0.090057522,1,-0.192459583,1,-0.02016902,1,0.032402039,1
0.680008173,-4.599308968,1,-2.760566235,1,-8.253232002,1,-0.024279362,1,-0.01109917,1,0.011689685,1,0.3189520835876465,1,-0.466721714,1,-0.090027168,1,-0.198616028,1,-0.021780729,1,0.040416718,1
0.684007704,-4.609607697,1,-2.705036879,1,-8.236375809,1,-0.022452751,1,-0.006569698,1,0.01226205,1,0.3188298344612122,1,-0.466772914,1,-0.089981847,1,-0.208467484,1,0.032663584,1,0.057393074,1
0.688009202,-4.592060566,1,-2.656939268,1,-8.282543182,1,-0.028484471,1,-0.006273182,1,0.016301973,1,0.3187001347541809,1,-0.466811597,1,-0.089930095,1,-0.190582752,1,0.079632521,1,0.01142025,1
0.692006886,-4.547726154,1,-2.701052427,1,-8.273718834,1,-0.034073263,1,-0.001033952,1,0.017629035,1,0.3185537159442902,1,-0.466847748,1,-0.089873098,1,-0.145932198,1,0.034255028,1,0.020493507,1
0.696006119,-4.566371918,1,-2.684072018,1,-8.256985664,1,-0.030847955,1,-0.00160728,1,0.016705208,1,0.3183960318565369,1,-0.466868252,1,-0.089796297,1,-0.164399147,1,0.049898624,1,0.03757,1
0.700007677,-4.544134617,1,-2.676124096,1,-8.257637978,1,-0.032868791,1,0.006633585,1,0.019642314,1,0.3182282447814941,1,-0.466882676,1,-0.089719087,1,-0.142035961,1,0.05643487,1,0.037316322,1
0.704005361,-4.597267628,1,-2.686332226,1,-8.322610855,1,-0.035034936,1,0.004746914,1,0.018755347,1,0.3180570602416992,1,-0.466883063,1,-0.089632958,1,-0.195165157,1,0.044806719,1,-0.027189255,1
0.708004892,-4.613013744,1,-2.677941084,1,-8.269471169,1,-0.036749471,1,0.011235384,1,0.018086493,1,0.317865402,1,-0.466873437,1,-0.08953736,1,-0.210995197,1,0.051620722,1,0.026514053,1
0.71200639,-4.602381706,1,-2.640166044,1,-8.267910957,1,-0.040638562,1,0.012876828,1,0.016576482,1,0.3176709413528442,1,-0.466851294,1,-0.089444123,1,-0.200556755,1,0.087813139,1,0.028697014,1
0.716004074,-4.615309238,1,-2.574441195,1,-8.30555439,1,-0.036264502,1,0.016177205,1,0.011890868,1,0.3174735903739929,1,-0.466816843,1,-0.089359082,1,-0.213785172,1,0.1519484519958496,1,-0.008261681,1
0.720003605,-4.579885006,1,-2.538555622,1,-8.326190948,1,-0.033871785,1,0.019313706,1,0.00919392,1,0.3172995150089264,1,-0.466765106,1,-0.089284793,1,-0.178812981,1,0.1864602565765381,1,-0.028208733,1
0.724011004,-4.555370808,1,-2.550061703,1,-8.332954407,1,-0.035570581,1,0.01617685,1,0.010584561,1,0.3171277046203613,1,-0.466709167,1,-0.089216247,1,-0.15478754,1,0.1736054420471191,1,-0.034270287,1
0.728014588,-4.579428673,1,-2.57105875,1,-8.359154701,1,-0.028349862,1,0.016123021,1,0.00743759,1,0.3169763684272766,1,-0.466654629,1,-0.089155406,1,-0.179321289,1,0.1514277458190918,1,-0.059828758,1
0.732014358,-4.57858181,1,-2.620337486,1,-8.399646759,1,-0.024042759,1,0.012977746,1,0.008849658,1,0.3168410360813141,1,-0.466614366,1,-0.089091219,1,-0.178826332,1,0.101081371,1,-0.099783897,1
0.736015618,-4.54421854,1,-2.578697205,1,-8.384253502,1,-0.009152693,1,0.005582215,1,0.017324379,1,0.3167436122894287,1,-0.466591835,1,-0.089015648,1,-0.144659996,1,0.1419432163238525,1,-0.084033012,1
0.740013063,-4.553134918,1,-2.580146313,1,-8.39484787,1,-0.004790347,1,0.00695353,1,0.019058431,1,0.316669375,1,-0.466590792,1,-0.088919133,1,-0.153585434,1,0.1398789882659912,1,-0.094421387,1
0.744012535,-4.546487331,1,-2.554661751,1,-8.376311302,1,0.008382445,1,0.005885705,1,0.023934769,1,0.3166433572769165,1,-0.466603458,1,-0.088821851,1,-0.146826744,1,0.1651303768157959,1,-0.075866699,1
0.748013794,-4.593666553,1,-2.574239969,1,-8.403227806,1,0.015283451,1,-0.003490444,1,0.030657027,1,0.3166443109512329,1,-0.466638505,1,-0.088706762,1,-0.193700314,1,0.1455123424530029,1,-0.102931976,1
0.752011538,-4.622512817,1,-2.589493036,1,-8.38842392,1,0.026441948,1,-0.005136786,1,0.032238062,1,0.3166754841804504,1,-0.466701895,1,-0.088578068,1,-0.22199297,1,0.1304314136505127,1,-0.088477135,1
0.756011009,-4.624197483,1,-2.627206087,1,-8.368531227,1,0.029806811,1,-0.012347501,1,0.04051663,1,0.3167239427566528,1,-0.466774195,1,-0.088434927,1,-0.223045826,1,0.093021631,1,-0.06901741,1
0.760012269,-4.608616352,1,-2.663224697,1,-8.395269394,1,0.05274649,1,-0.01031403,1,0.05578912,1,0.3168157041072845,1,-0.466871589,1,-0.088244952,1,-0.206614494,1,0.057630062,1,-0.096416473,1
0.764009714,-4.582487106,1,-2.660930872,1,-8.454844475,1,0.075609505,1,-0.014373312,1,0.070040546,1,0.3169708847999573,1,-0.466997385,1,-0.087997966,1,-0.179386139,1,0.061038971,1,-0.156939507,1
0.768008947,-4.572566986,1,-2.660558701,1,-8.420300484,1,0.098968171,1,-0.022625828,1,0.083974347,1,0.3171796798706055,1,-0.467164159,1,-0.087693021,1,-0.168009758,1,0.062915087,1,-0.123660088,1
0.772010267,-4.642674446,1,-2.616586924,1,-8.501109123,1,0.1199031993746758,1,-0.032173835,1,0.094007567,1,0.3174678087234497,1,-0.467378139,1,-0.087352,1,-0.236249447,1,0.1089825630187988,1,-0.206151009,1
0.776007652,-4.65472126,1,-2.563723326,1,-8.444256783,1,0.1348956376314163,1,-0.047365613,1,0.092840604,1,0.3178247809410095,1,-0.467648178,1,-0.087012075,1,-0.245937824,1,0.1644349098205566,1,-0.151403427,1
0.780006886,-4.666220188,1,-2.442261696,1,-8.395271301,1,0.1424967646598816,1,-0.053847544,1,0.082904227,1,0.318230152,1,-0.467948824,1,-0.086696133,1,-0.254812717,1,0.2888436317443848,1,-0.104782104,1
0.784008443,-4.590787888,1,-2.565238714,1,-8.452224731,1,0.1656192094087601,1,-0.066797517,1,0.077413194,1,0.318719208,1,-0.468278646,1,-0.086440675,1,-0.176501751,1,0.1694648265838623,1,-0.164452553,1
0.788005888,-4.605497837,1,-2.506884098,1,-8.503614426,1,0.201600045,1,-0.086122096,1,0.085077621,1,0.3193491697311401,1,-0.468665451,1,-0.086194724,1,-0.187836647,1,0.2325038909912109,1,-0.219190598,1
0.792011261,-4.568649769,1,-2.448050261,1,-8.492116928,1,0.2389451116323471,1,-0.102204606,1,0.087357253,1,0.3201258182525635,1,-0.469122738,1,-0.085958086,1,-0.146997929,1,0.2971348762512207,1,-0.211741447,1
0.796012819,-4.585270882,1,-2.409766197,1,-8.499184608,1,0.2636509537696838,1,-0.116573878,1,0.075228535,1,0.3210388422012329,1,-0.469648361,1,-0.085761607,1,-0.159034729,1,0.3422439098358154,1,-0.223526001,1
0.800010264,-4.662775993,1,-2.414073944,1,-8.380987167,1,0.2833234667778015,1,-0.136345401,1,0.067189626,1,0.3220850229263306,1,-0.470226943,1,-0.085637115,1,-0.231494904,1,0.3457808494567871,1,-0.110643387,1
0.804015636,-4.575025558,1,-2.458388567,1,-8.32025528,1,0.2983184456825256,1,-0.141548023,1,0.039852586,1,0.3232347369194031,1,-0.470821381,1,-0.085609503,1,-0.138562679,1,0.3101367950439453,1,-0.055586815,1
0.808017135,-4.632000446,1,-2.521945238,1,-8.288201332,1,0.3015592396259308,1,-0.140047804,1,0.019420937,1,0.3244721591472626,1,-0.471396148,1,-0.085683614,1,-0.190528393,1,0.2559912204742432,1,-0.029383659,1
0.812014878,-4.517211437,1,-2.453505039,1,-8.342559814,1,0.3044220507144928,1,-0.147162899,1,-0.001896631,1,0.325767994,1,-0.471946806,1,-0.085849345,1,-0.070941925,1,0.3343474864959717,1,-0.089669228,1
0.816014349,-4.539720535,1,-2.610461712,1,-8.375311852,1,0.3343220055103302,1,-0.145764098,1,-0.001688871,1,0.3271342515945435,1,-0.472505271,1,-0.086065985,1,-0.088586807,1,0.1878650188446045,1,-0.128590584,1
0.820015848,-4.57349062,1,-2.680046082,1,-8.377968788,1,0.3646897375583649,1,-0.15795809,1,-0.000426379,1,0.3286367356777191,1,-0.473072112,1,-0.086291112,1,-0.11742115,1,0.1298534870147705,1,-0.137851715,1
0.824013293,-4.555503845,1,-2.670371056,1,-8.336626053,1,0.3976024687290192,1,-0.161857158,1,-0.00450651,1,0.3302790522575378,1,-0.473671496,1,-0.086539797,1,-0.0942173,1,0.1521914005279541,1,-0.103660583,1
0.828012824,-4.551811218,1,-2.64667654,1,-8.341676712,1,0.4196241796016693,1,-0.163582012,1,-0.015642785,1,0.3320448994636536,1,-0.474271417,1,-0.086816616,1,-0.085303783,1,0.1895461082458496,1,-0.116241455,1
0.832014084,-4.571577549,1,-2.64492774,1,-8.253220558,1,0.4392106533050537,1,-0.165515244,1,-0.02266263,1,0.3339157104492188,1,-0.47486493,1,-0.087137423,1,-0.099906921,1,0.2058095932006836,1,-0.035609245,1
0.836011529,-4.624843597,1,-2.693550587,1,-8.231295586,1,0.4508812129497528,1,-0.161760166,1,-0.03734605,1,0.3358738422393799,1,-0.475436389,1,-0.087505259,1,-0.148203373,1,0.1724298000335693,1,-0.021697044,1
0.840011001,-4.654780865,1,-2.593541145,1,-8.196964264,1,0.4633363485336304,1,-0.155750394,1,-0.050456792,1,0.337884396,1,-0.475976676,1,-0.087913051,1,-0.173443317,1,0.2881364822387695,1,0.004570961,1
0.844012558,-4.69635582,1,-2.630090475,1,-8.191708565,1,0.4587337374687195,1,-0.156981558,1,-0.069250233,1,0.3399603068828583,1,-0.476475716,1,-0.088402711,1,-0.210680485,1,0.2678608894348145,1,0.001717567,1
0.84801048,-4.602599144,1,-2.614068747,1,-8.133181572,1,0.4543096721172333,1,-0.146315023,1,-0.093901388,1,0.3420453667640686,1,-0.476938069,1,-0.08897803,1,-0.112905979,1,0.3002641201019287,1,0.052230835,1
0.852010012,-4.59300375,1,-2.68532753,1,-8.175080299,1,0.4519619345664978,1,-0.144153729,1,-0.098930158,1,0.3441439270973206,1,-0.477363467,1,-0.089611545,1,-0.09961462,1,0.2455317974090576,1,0.002399445,1
0.856011271,-4.569754124,1,-2.79921174,1,-8.219837189,1,0.4518157243728638,1,-0.145653397,1,-0.109302089,1,0.3462607264518738,1,-0.47777161,1,-0.090286881,1,-0.072820187,1,0.1483287811279297,1,-0.050305367,1
0.860008955,-4.588513374,1,-2.853609562,1,-8.172913551,1,0.4511044323444366,1,-0.149540812,1,-0.120624974,1,0.3483971953392029,1,-0.478170604,1,-0.091002442,1,-0.088114262,1,0.1107659339904785,1,-0.011383057,1
0.864008427,-4.612861633,1,-2.800819397,1,-8.172764778,1,0.4627256393432617,1,-0.147394568,1,-0.126801193,1,0.3505724966526031,1,-0.478561461,1,-0.091755629,1,-0.109069347,1,0.1806972026824951,1,-0.019358635,1
0.868009746,-4.611209869,1,-2.67163682,1,-8.190546036,1,0.4677883386611938,1,-0.151910558,1,-0.146982059,1,0.3528087735176086,1,-0.478935719,1,-0.092565551,1,-0.104168415,1,0.3275227546691895,1,-0.045409203,1
0.87200743,-4.685248852,1,-2.573617935,1,-8.187829018,1,0.4653467833995819,1,-0.150904164,1,-0.156500116,1,0.3550853133201599,1,-0.479304045,1,-0.093451425,1,-0.175010681,1,0.4435000419616699,1,-0.051095963,1
0.876006901,-4.56469202,1,-2.604116678,1,-8.204016685,1,0.4648659527301788,1,-0.153625742,1,-0.176000595,1,0.3573883771896362,1,-0.479634792,1,-0.094393305,1,-0.051584244,1,0.4312093257904053,1,-0.075655937,1
0.880008459,-4.620980263,1,-2.733074427,1,-8.195446014,1,0.4676212072372437,1,-0.151756063,1,-0.185383037,1,0.3597161173820496,1,-0.479945511,1,-0.095398366,1,-0.105176449,1,0.3206706047058105,1,-0.075484276,1
0.884012043,-4.639270782,1,-2.804731846,1,-8.296478271,1,0.4856892824172974,1,-0.149206907,1,-0.187982857,1,0.3620932102203369,1,-0.480241358,1,-0.096428551,1,-0.120901108,1,0.2678344249725342,1,-0.185045242,1
0.888011754,-4.731688023,1,-2.851262808,1,-8.246313095,1,0.5056253671646118,1,-0.153706416,1,-0.188653484,1,0.3645552396774292,1,-0.480541497,1,-0.097465359,1,-0.210714817,1,0.2407798767089844,1,-0.1437397,1
0.892013311,-4.774104118,1,-2.778761387,1,-8.201244354,1,0.5215204358100891,1,-0.144780025,1,-0.197799146,1,0.3667919635772705,1,-0.481023669,1,-0.097867176,1,-0.248950005,1,0.3306150436401367,1,-0.107642174,1
0.896010756,-4.746144295,1,-2.795560598,1,-8.181433678,1,0.5235225558280945,1,-0.144209713,1,-0.204377294,1,0.3694070279598236,1,-0.481235623,1,-0.099386513,1,-0.219152451,1,0.334625244,1,-0.09688282,1
0.90000999,-4.698376656,1,-2.797384024,1,-8.272919655,1,0.533490777,1,-0.139321536,1,-0.202109456,1,0.3720285296440125,1,-0.481470019,1,-0.100470491,1,-0.169352531,1,0.3535988330841064,1,-0.197590828,1
0.90401125,-4.669887543,1,-2.729907036,1,-8.226081848,1,0.5446686744689941,1,-0.14310649,1,-0.211458892,1,0.3746956586837769,1,-0.481690854,1,-0.101574667,1,-0.138949871,1,0.4422357082366943,1,-0.160118103,1
0.908008695,-4.664037228,1,-2.707607746,1,-8.220448494,1,0.5513856410980225,1,-0.141765445,1,-0.222827345,1,0.3774094581604004,1,-0.481908292,1,-0.102725506,1,-0.131214619,1,0.4860494136810303,1,-0.164039612,1
0.912008166,-4.68184185,1,-2.696832895,1,-8.143988609,1,0.5485846400260925,1,-0.138630584,1,-0.236169577,1,0.3801588416099548,1,-0.482096642,1,-0.103918195,1,-0.147387028,1,0.5186443328857422,1,-0.097187042,1
0.916009486,-4.677211285,1,-2.796007872,1,-8.174642563,1,0.5462048649787903,1,-0.141143844,1,-0.237172693,1,0.3829205632209778,1,-0.482263505,1,-0.105143771,1,-0.141310692,1,0.4413986206054688,1,-0.137450218,1
0.920006931,-4.592066288,1,-2.876113415,1,-8.217549324,1,0.5429673790931702,1,-0.134319365,1,-0.243590027,1,0.3856781721115112,1,-0.482409656,1,-0.106376685,1,-0.054899693,1,0.3831944465637207,1,-0.189929008,1
0.924006402,-4.642082214,1,-2.842622042,1,-8.156903267,1,0.5472209453582764,1,-0.126620069,1,-0.240012437,1,0.3884246945381165,1,-0.48254025,1,-0.107609913,1,-0.103784084,1,0.4384970664978027,1,-0.138813972,1
0.92800796,-4.724612236,1,-2.927217484,1,-8.181646347,1,0.5498670935630798,1,-0.128940508,1,-0.244723648,1,0.3911846876144409,1,-0.48263666,1,-0.108843982,1,-0.185478687,1,0.3758516311645508,1,-0.173049927,1
0.932005405,-4.727683067,1,-2.904460669,1,-8.226429939,1,0.5495495796203613,1,-0.120394327,1,-0.249897689,1,0.3939642310142517,1,-0.482711136,1,-0.110095054,1,-0.187904358,1,0.4207262992858887,1,-0.227357388,1
0.936004877,-4.715824604,1,-2.975491524,1,-8.156644821,1,0.5537777543067932,1,-0.113958307,1,-0.254914701,1,0.3967643678188324,1,-0.482757002,1,-0.111359358,1,-0.175648212,1,0.3720009326934814,1,-0.167105198,1
0.940006137,-4.617819309,1,-3.152032375,1,-8.089846611,1,0.5580193400382996,1,-0.114465944,1,-0.259495825,1,0.3995864987373352,1,-0.482783258,1,-0.112637162,1,-0.077415943,1,0.2179467678070068,1,-0.10989809,1
0.94400382,-4.508624554,1,-3.172638178,1,-8.048805237,1,0.5576378703117371,1,-0.118802488,1,-0.261281699,1,0.4024184942245483,1,-0.482800633,1,-0.113931447,1,0.031929493,1,0.219897985,1,-0.078500271,1
0.948003352,-4.582982063,1,-3.197210789,1,-8.132456779,1,0.5633682608604431,1,-0.116306096,1,-0.256850064,1,0.405251682,1,-0.48282823,1,-0.115217179,1,-0.042188644,1,0.2178421020507813,1,-0.171913624,1
0.95200485,-4.65629673,1,-3.185480356,1,-8.137841225,1,0.5677123665809631,1,-0.111713469,1,-0.246817023,1,0.4080902338027954,1,-0.482852429,1,-0.116462111,1,-0.11529398,1,0.2521116733551025,1,-0.187124729,1
0.956002533,-4.746146679,1,-3.171714306,1,-8.159736633,1,0.57381618,1,-0.111463703,1,-0.241092086,1,0.4109238684177399,1,-0.482875645,1,-0.117661074,1,-0.20494318,1,0.2883517742156982,1,-0.218887806,1
0.960007966,-4.77227211,1,-3.276033401,1,-8.010590553,1,0.5827426314353943,1,-0.093646906,1,-0.238776773,1,0.4137789309024811,1,-0.482869178,1,-0.118844397,1,-0.231123924,1,0.2067010402679443,1,-0.079628944,1
0.964009464,-4.738465309,1,-3.452984571,1,-7.972252369,1,0.5814420580863953,1,-0.086800478,1,-0.230789036,1,0.4166350960731506,1,-0.48282066,1,-0.119982742,1,-0.197737694,1,0.05247736,1,-0.051067352,1
0.968007445,-4.714921474,1,-3.480565786,1,-7.931839466,1,0.5696835517883301,1,-0.077420257,1,-0.232692987,1,0.4194474816322327,1,-0.482738286,1,-0.121086627,1,-0.174907684,1,0.047312021,1,-0.020203114,1
0.972006917,-4.702912331,1,-3.528107166,1,-7.902557373,1,0.5559205412864685,1,-0.065729477,1,-0.225846022,1,0.4221974313259125,1,-0.482621253,1,-0.122157767,1,-0.163912296,1,0.021731615,1,-0.000167847,1
0.976008475,-4.664737701,1,-3.572897911,1,-7.868066788,1,0.5527773499488831,1,-0.059938442,1,-0.219026327,1,0.4248990118503571,1,-0.482485294,1,-0.123192221,1,-0.126914978,1,-0.001469374,1,0.025265217,1
0.980006158,-4.75600481,1,-3.654247046,1,-7.927122116,1,0.5418353080749512,1,-0.049734805,1,-0.218170166,1,0.4275540113449097,1,-0.482329965,1,-0.124203913,1,-0.219528198,1,-0.061582088,1,-0.042659283,1
0.98400563,-4.804716587,1,-3.607679367,1,-8.046642303,1,0.537365735,1,-0.039305627,1,-0.209990293,1,0.4301621913909912,1,-0.482140541,1,-0.125155568,1,-0.269881725,1,0.005897522,1,-0.170791626,1
0.988007188,-4.917739868,1,-3.39832139,1,-8.100185394,1,0.5429365634918213,1,-0.041252121,1,-0.211248308,1,0.4327581822872162,1,-0.48195076,1,-0.126086384,1,-0.384549141,1,0.236048698,1,-0.232963085,1
0.992004871,-4.982974052,1,-3.588309288,1,-8.059682846,1,0.5483415126800537,1,-0.027244693,1,-0.20912981,1,0.435384214,1,-0.481715649,1,-0.127018213,1,-0.451821327,1,0.067156792,1,-0.201066971,1
0.996004343,-4.77691412,1,-3.625932693,1,-7.922430992,1,0.5385260581970215,1,-0.027334163,1,-0.213403463,1,0.4379866421222687,1,-0.481458604,1,-0.127931759,1,-0.247989178,1,0.050467014,1,-0.07229805,1
1.000005841,-4.577142715,1,-3.730654478,1,-7.847185612,1,0.5318053960800171,1,-0.02538733,1,-0.212548345,1,0.4405591785907745,1,-0.481186688,1,-0.128853396,1,-0.050575256,1,-0.03354764,1,-0.005423546,1
1.004003525,-4.525596619,1,-3.771085024,1,-7.815304756,1,0.5090262889862061,1,-0.029737154,1,-0.211664349,1,0.4430742263793945,1,-0.480928749,1,-0.129784316,1,-0.001265526,1,-0.053765774,1,0.018190384,1
1.008003116,-4.567284107,1,-3.849734068,1,-7.834217072,1,0.4941816329956055,1,-0.028920917,1,-0.206033289,1,0.4455035328865051,1,-0.480681509,1,-0.130687222,1,-0.045097351,1,-0.112913609,1,-0.008766174,1
1.012004614,-4.620571136,1,-3.882927179,1,-7.844596863,1,0.4838641583919525,1,-0.027734723,1,-0.198319256,1,0.4478720426559448,1,-0.480434626,1,-0.131571695,1,-0.100524426,1,-0.127100706,1,-0.027014732,1
1.016002059,-4.652793407,1,-3.834548473,1,-7.713611126,1,0.4626113474369049,1,-0.024376664,1,-0.193557292,1,0.4501623213291168,1,-0.48019141,1,-0.132430032,1,-0.134856701,1,-0.060350657,1,0.096335411,1
1.020001531,-4.569416046,1,-3.911289692,1,-7.698987007,1,0.446737677,1,-0.022397565,1,-0.188786238,1,0.4523701667785645,1,-0.479943007,1,-0.133253187,1,-0.053634167,1,-0.119365454,1,0.1036210060119629,1
1.02400279,-4.333042145,1,-3.998677492,1,-7.640441895,1,0.4316829741001129,1,-0.021305861,1,-0.177784503,1,0.454491526,1,-0.479698122,1,-0.13404128,1,0.1806149482727051,1,-0.189724922,1,0.1550965309143066,1
1.028000236,-4.305722713,1,-4.087407589,1,-7.635109901,1,0.4066196084022522,1,-0.027647432,1,-0.160263568,1,0.4565090239048004,1,-0.479493707,1,-0.134776101,1,0.2061610221862793,1,-0.262328625,1,0.1535558700561523,1
1.031999707,-4.432920456,1,-4.087984562,1,-7.626823902,1,0.3950729370117188,1,-0.027534842,1,-0.148280174,1,0.4584233164787292,1,-0.479320794,1,-0.135450497,1,0.077462673,1,-0.247657061,1,0.1552062034606934,1
1.036000967,-4.536273003,1,-3.995772839,1,-7.667397022,1,0.3752993047237396,1,-0.027440397,1,-0.139499784,1,0.4602558612823486,1,-0.479165792,1,-0.136081412,1,-0.027235031,1,-0.140881777,1,0.1082057952880859,1
1.040004611,-4.555271149,1,-3.894671679,1,-7.628885746,1,0.3695165812969208,1,-0.025331607,1,-0.136332184,1,0.4620243012905121,1,-0.479012877,1,-0.136688381,1,-0.047560692,1,-0.02572751,1,0.1405072212219238,1
1.044004321,-4.440098286,1,-3.874578476,1,-7.637032986,1,0.3536370992660522,1,-0.029215155,1,-0.133667558,1,0.4637457132339478,1,-0.478868902,1,-0.137278512,1,0.066363335,1,0.008024931,1,0.1262702941894531,1
1.048005939,-4.267392159,1,-3.964306593,1,-7.564094543,1,0.3330059051513672,1,-0.0377605,1,-0.119407624,1,0.4653828740119934,1,-0.478753179,1,-0.137850896,1,0.2380647659301758,1,-0.068763971,1,0.1933083534240723,1
1.05200386,-4.078610897,1,-4.00439024,1,-7.540759563,1,0.3134999871253967,1,-0.041535191,1,-0.10251198,1,0.4669134020805359,1,-0.478693873,1,-0.138377994,1,0.4263315200805664,1,-0.096859217,1,0.2109103202819824,1
1.056003332,-4.136759281,1,-4.031927586,1,-7.532263756,1,0.2984373867511749,1,-0.05703,1,-0.09010233,1,0.4683592915534973,1,-0.47870031,1,-0.138856322,1,0.3682384490966797,1,-0.113205194,1,0.2137227058410645,1
1.06000483,-4.402409077,1,-4.064881802,1,-7.606155396,1,0.2804141640663147,1,-0.06156496,1,-0.071121775,1,0.4697086811065674,1,-0.478775978,1,-0.139299095,1,0.103245735,1,-0.135865927,1,0.1342310905456543,1
1.064002514,-4.616495132,1,-4.035469055,1,-7.617425919,1,0.2709235846996307,1,-0.058304165,1,-0.061215915,1,0.4709804654121399,1,-0.4788661,1,-0.139688104,1,-0.110057831,1,-0.096796751,1,0.1175947189331055,1
1.068002105,-4.617903709,1,-3.911667347,1,-7.706501007,1,0.2652605473995209,1,-0.047241841,1,-0.058980495,1,0.472220778,1,-0.478947282,1,-0.140036806,1,-0.110762119,1,0.036428213,1,0.023300648,1
1.072003603,-4.44810009,1,-3.872301102,1,-7.669521332,1,0.2511281073093414,1,-0.045913655,1,-0.050991084,1,0.4734030961990356,1,-0.479025245,1,-0.140362725,1,0.059718609,1,0.08477211,1,0.055297375,1
1.076001287,-4.287734985,1,-3.942990541,1,-7.655600548,1,0.2460772544145584,1,-0.055976123,1,-0.041499987,1,0.4745361506938934,1,-0.479124129,1,-0.140656888,1,0.2209420204162598,1,0.022627115,1,0.064329624,1
1.080000758,-4.332603455,1,-3.910559416,1,-7.537349701,1,0.2298625409603119,1,-0.064216122,1,-0.037048914,1,0.4756089746952057,1,-0.479271978,1,-0.140932292,1,0.1773562431335449,1,0.063034058,1,0.1777315139770508,1
1.084002256,-4.517566204,1,-4.131465435,1,-7.660428047,1,0.2182273715734482,1,-0.061649524,1,-0.022563988,1,0.4766245186328888,1,-0.479433447,1,-0.141184986,1,-0.006205559,1,-0.150374413,1,0.049963951,1
1.087999701,-4.66390276,1,-3.990706444,1,-7.680612087,1,0.2205928266048431,1,-0.0609525,1,-0.023015687,1,0.4775995016098022,1,-0.479605973,1,-0.141401798,1,-0.151044846,1,-0.002456903,1,0.025204659,1
1.091998935,-4.700889587,1,-3.808687687,1,-7.777709484,1,0.2150138467550278,1,-0.062999137,1,-0.031570025,1,0.4785741567611694,1,-0.479766637,1,-0.141634583,1,-0.186637402,1,0.1867382526397705,1,-0.076424599,1
1.096000552,-4.499032021,1,-3.688797474,1,-7.748295307,1,0.2172619253396988,1,-0.05602641,1,-0.032486543,1,0.4795469045639038,1,-0.47992149,1,-0.141881183,1,0.016563416,1,0.3137946128845215,1,-0.051522732,1
1.099998236,-4.344497681,1,-3.71939826,1,-7.726793289,1,0.2169816195964813,1,-0.064472049,1,-0.027624881,1,0.4805233776569366,1,-0.480082661,1,-0.142118782,1,0.1724953651428223,1,0.2903716564178467,1,-0.034576416,1
1.103997946,-4.331707478,1,-3.865979433,1,-7.755980015,1,0.2201477289199829,1,-0.070963673,1,-0.024910441,1,0.4815090298652649,1,-0.480271339,1,-0.142343357,1,0.18692255,1,0.1509745121002197,1,-0.068477154,1
1.107999444,-4.478156567,1,-3.88172245,1,-7.716458797,1,0.2174106538295746,1,-0.078287549,1,-0.019050354,1,0.4824817776679993,1,-0.480491102,1,-0.142574236,1,0.042379856,1,0.1422472,1,-0.033746243,1
1.111996889,-4.71422863,1,-3.892260075,1,-7.744953632,1,0.220884234,1,-0.075674497,1,-0.019640366,1,0.4834657609462738,1,-0.480725467,1,-0.142816499,1,-0.191660404,1,0.1387748718261719,1,-0.067141533,1
1.115996361,-4.789633274,1,-3.786427736,1,-7.737985134,1,0.227309987,1,-0.073240317,1,-0.028827537,1,0.4844789206981659,1,-0.480940312,1,-0.143076003,1,-0.265201569,1,0.2519328594207764,1,-0.06511879,1
1.120003819,-4.530124664,1,-3.615840912,1,-7.767038345,1,0.246315062,1,-0.077692196,1,-0.033450127,1,0.4855581820011139,1,-0.481131524,1,-0.143354908,1,-0.004034996,1,0.4303927421569824,1,-0.099303246,1
1.124007463,-4.27273798,1,-3.596320152,1,-7.795336246,1,0.2541345357894897,1,-0.091041096,1,-0.04403574,1,0.4867137670516968,1,-0.481353521,1,-0.143681034,1,0.2552762031555176,1,0.4583015441894531,1,-0.133169651,1
1.128007412,-4.338397503,1,-3.700641155,1,-7.780924797,1,0.2623880207538605,1,-0.10666918,1,-0.043854333,1,0.4879188537597656,1,-0.481629312,1,-0.144061372,1,0.1920070648193359,1,0.3626246452331543,1,-0.124755383,1
1.13200891,-4.572136879,1,-3.736848116,1,-7.795241356,1,0.2773483991622925,1,-0.117071442,1,-0.053681985,1,0.489190936,1,-0.481947362,1,-0.144495532,1,-0.038975716,1,0.3354785442352295,1,-0.145515442,1
1.136006713,-4.669523716,1,-3.702658653,1,-7.766436577,1,0.281008393,1,-0.121246941,1,-0.057227127,1,0.4905250072479248,1,-0.482266814,1,-0.144968331,1,-0.133594036,1,0.3791861534118652,1,-0.123429298,1
1.140006185,-4.576622009,1,-3.765624285,1,-7.723839283,1,0.287632018,1,-0.123722792,1,-0.059394877,1,0.4918862581253052,1,-0.482592911,1,-0.145455554,1,-0.037867546,1,0.3259222507476807,1,-0.087700367,1
1.144007683,-4.375074863,1,-3.857570648,1,-7.645687103,1,0.2901432812213898,1,-0.130618736,1,-0.058370247,1,0.4930683970451355,1,-0.482972234,1,-0.145964384,1,0.1669654846191406,1,0.2421836853027344,1,-0.015909672,1
1.148005366,-4.238297462,1,-4.029974461,1,-7.550970554,1,0.2823285758495331,1,-0.13931559,1,-0.044996224,1,0.4944449961185455,1,-0.483346432,1,-0.146458685,1,0.306983471,1,0.079472065,1,0.071660042,1
1.152004838,-4.390983105,1,-4.169723988,1,-7.45387125,1,0.2731606364250183,1,-0.151394084,1,-0.040104382,1,0.4957851767539978,1,-0.483775377,1,-0.146936938,1,0.1580123901367188,1,-0.050991058,1,0.1615333557128906,1
1.156006098,-4.427560329,1,-4.234194279,1,-7.405843258,1,0.2617347836494446,1,-0.158134282,1,-0.03919692,1,0.4970878958702087,1,-0.484239221,1,-0.147418335,1,0.125450611,1,-0.106551647,1,0.2023320198059082,1
1.160003781,-4.370044708,1,-4.255522728,1,-7.378399849,1,0.2506687343120575,1,-0.163894787,1,-0.033333663,1,0.4983448386192322,1,-0.484739423,1,-0.147912785,1,0.1872954368591309,1,-0.119409084,1,0.2225794792175293,1
1.164003372,-4.454807758,1,-4.291488647,1,-7.427253723,1,0.2306293845176697,1,-0.169503316,1,-0.028322915,1,0.49952817,1,-0.485271096,1,-0.148393214,1,0.1071319580078125,1,-0.147545338,1,0.1666970252990723,1
1.16800487,-4.587305069,1,-4.201731682,1,-7.453559399,1,0.2286240309476852,1,-0.172419891,1,-0.019943886,1,0.5006678700447083,1,-0.485820115,1,-0.148857102,1,-0.020616055,1,-0.050339699,1,0.1334657669067383,1
1.172002554,-4.673408508,1,-4.128041744,1,-7.467836857,1,0.2162823379039764,1,-0.171821669,1,-0.01765459,1,0.5017670392990112,1,-0.486388445,1,-0.149308994,1,-0.10180521,1,0.030437946,1,0.1123418807983398,1
1.176001787,-4.712674141,1,-4.240203857,1,-7.468792915,1,0.2061854153871536,1,-0.167881638,1,-0.015710175,1,0.5028135776519775,1,-0.486948192,1,-0.149747685,1,-0.136232376,1,-0.075026035,1,0.1047892570495605,1
1.180003285,-4.730988979,1,-4.312942982,1,-7.460995197,1,0.1909734606742859,1,-0.167108014,1,-0.011788433,1,0.5038080215454102,1,-0.487509549,1,-0.150173008,1,-0.149695396,1,-0.141476154,1,0.1061911582946777,1
1.184000731,-4.765405178,1,-4.336041927,1,-7.478500843,1,0.1797899752855301,1,-0.166707158,1,-0.002064784,1,0.5047487020492554,1,-0.488068283,1,-0.15056935,1,-0.179285049,1,-0.158698082,1,0.082514286,1
1.188006163,-4.807496548,1,-4.2918396,1,-7.468382359,1,0.1729237139225006,1,-0.159031555,1,-0.003364294,1,0.5056237578392029,1,-0.488633841,1,-0.150932446,1,-0.216491699,1,-0.109138012,1,0.086704731,1
1.192007661,-4.794706345,1,-4.212704182,1,-7.451275826,1,0.163781077,1,-0.16115129,1,-0.000595636,1,0.5064654350280762,1,-0.489185929,1,-0.151298806,1,-0.198934078,1,-0.024874687,1,0.098071575,1
1.196011066,-4.664515018,1,-4.261914253,1,-7.394005299,1,0.1570227295160294,1,-0.161315322,1,-0.000377544,1,0.5072893500328064,1,-0.48974818,1,-0.151663914,1,-0.063889503,1,-0.069123745,1,0.1496257781982422,1
1.200010777,-4.716445446,1,-4.390408039,1,-7.406691551,1,0.1462878435850143,1,-0.160967261,1,0.008460903,1,0.5080533623695374,1,-0.490320653,1,-0.152003184,1,-0.110880375,1,-0.193135738,1,0.131434441,1
1.204012275,-4.717185974,1,-4.493122578,1,-7.413898945,1,0.1379920840263367,1,-0.160654917,1,0.013180712,1,0.5087597370147705,1,-0.49090299,1,-0.152307808,1,-0.106597424,1,-0.291833401,1,0.1189174652099609,1
1.20800972,-4.947803497,1,-4.503787041,1,-7.500459194,1,0.1351631432771683,1,-0.152308434,1,0.021795075,1,0.5094330310821533,1,-0.491485476,1,-0.15258278,1,-0.33219099,1,-0.298738956,1,0.027179241,1
1.212009192,-5.063874245,1,-4.280924797,1,-7.577714443,1,0.1498603820800781,1,-0.141634986,1,0.021992877,1,0.5101121664047241,1,-0.492046297,1,-0.152821913,1,-0.443427086,1,-0.072029114,1,-0.055191994,1
1.216010451,-5.042542458,1,-4.062290668,1,-7.664546013,1,0.1640146374702454,1,-0.135014519,1,0.020850496,1,0.5108437538146973,1,-0.492570668,1,-0.153043434,1,-0.417575836,1,0.1509218215942383,1,-0.147222042,1
1.220007896,-4.890140533,1,-3.965259314,1,-7.652643204,1,0.1806422024965286,1,-0.12483786,1,0.01768044,1,0.5116331577301025,1,-0.493064284,1,-0.153260663,1,-0.260920525,1,0.252767801,1,-0.140637398,1
1.224007368,-4.755552292,1,-4.077074051,1,-7.607316017,1,0.1865614801645279,1,-0.131535679,1,0.015833637,1,0.5124653577804565,1,-0.49354434,1,-0.153474689,1,-0.122197151,1,0.1461119651794434,1,-0.100762844,1
1.228008747,-4.775001049,1,-4.215044022,1,-7.535714149,1,0.1925493031740189,1,-0.124558583,1,0.019854944,1,0.5133325457572937,1,-0.494023949,1,-0.153695956,1,-0.137515068,1,0.013559818,1,-0.034759998,1
1.232006431,-4.812439919,1,-4.350184917,1,-7.485667229,1,0.1902971565723419,1,-0.122122012,1,0.025188889,1,0.5141856074333191,1,-0.494505644,1,-0.153882489,1,-0.170806885,1,-0.11628437,1,0.009728909,1
1.236005902,-4.880392551,1,-4.295156956,1,-7.442656994,1,0.1859461814165115,1,-0.12393336,1,0.026402034,1,0.5150241851806641,1,-0.4949826,1,-0.154061228,1,-0.234654427,1,-0.056061745,1,0.047260761,1
1.240007162,-4.915198326,1,-4.199586868,1,-7.474411011,1,0.1926806569099426,1,-0.116091609,1,0.025973903,1,0.5158696174621582,1,-0.495445967,1,-0.154220983,1,-0.265472889,1,0.044775486,1,0.010044098,1
1.244004846,-4.888499737,1,-4.156580448,1,-7.501767635,1,0.1991184204816818,1,-0.109438226,1,0.033633437,1,0.5167080163955688,1,-0.495904177,1,-0.154352114,1,-0.234832287,1,0.09300375,1,-0.022724152,1
1.248004079,-4.848713875,1,-4.232094765,1,-7.432015896,1,0.1941983997821808,1,-0.099970803,1,0.037212722,1,0.5175474882125854,1,-0.49633202,1,-0.154457644,1,-0.191366196,1,0.022779465,1,0.041725636,1
1.252005339,-4.823251247,1,-4.366986752,1,-7.397993088,1,0.1931052356958389,1,-0.099057801,1,0.04451419,1,0.5183522701263428,1,-0.496761769,1,-0.154525235,1,-0.162208557,1,-0.107091427,1,0.070581436,1
1.256002784,-4.892545223,1,-4.443072796,1,-7.413657665,1,0.1873951852321625,1,-0.091921262,1,0.055815682,1,0.5191266536712646,1,-0.4971852,1,-0.15454638,1,-0.227862358,1,-0.178373337,1,0.04990387,1
1.260002017,-4.861947536,1,-4.446119785,1,-7.356514931,1,0.1785335689783096,1,-0.078392752,1,0.070081502,1,0.5198282,1,-0.49761042,1,-0.154493809,1,-0.193609715,1,-0.177172184,1,0.1023283004760742,1
1.264003634,-4.791924,1,-4.556438923,1,-7.258968353,1,0.1608381420373917,1,-0.065990604,1,0.093403175,1,0.520436168,1,-0.498021543,1,-0.154345632,1,-0.120053291,1,-0.283911705,1,0.1956138610839844,1
1.26800108,-4.715816498,1,-4.781350136,1,-7.125345707,1,0.144278884,1,-0.047928702,1,0.1193882077932358,1,0.520919144,1,-0.498429626,1,-0.154063836,1,-0.040440083,1,-0.506171227,1,0.3255190849304199,1
1.272000313,-4.731885433,1,-4.980798721,1,-6.980191708,1,0.1179796308279037,1,-0.026370365,1,0.1597830951213837,1,0.5212207436561584,1,-0.49884069,1,-0.153599262,1,-0.052978039,1,-0.704331875,1,0.4677128791809082,1
1.276007891,-4.701051712,1,-5.078549862,1,-6.846910954,1,0.087014504,1,0.002487488,1,0.202522412,1,0.5212967991828918,1,-0.499236941,1,-0.152911112,1,-0.018741608,1,-0.802438736,1,0.5990619659423828,1
1.280011535,-4.696762562,1,-5.1474123,1,-6.745832443,1,0.042597078,1,0.028133951,1,0.2443236410617828,1,0.5211178660392761,1,-0.499631643,1,-0.151981071,1,-0.011063576,1,-0.87355566,1,0.6993002891540527,1
1.284011245,-4.635462284,1,-5.324868202,1,-6.661247253,1,-0.003545618,1,0.05509977,1,0.2865276634693146,1,0.5206506252288818,1,-0.500029862,1,-0.150842801,1,0.053654671,1,-1.055416584,1,0.784266472,1
1.288012743,-4.656827927,1,-5.448597431,1,-6.65175581,1,-0.057008345,1,0.087169729,1,0.3430960476398468,1,0.5198518633842468,1,-0.500416934,1,-0.149435848,1,0.035610676,1,-1.185997486,1,0.795588493,1
1.292010546,-4.539570808,1,-5.400380135,1,-6.590915203,1,-0.109945871,1,0.1198747232556343,1,0.3995378017425537,1,0.5187010765075684,1,-0.500794947,1,-0.147739232,1,0.1561112403869629,1,-1.14723444,1,0.8597860336303711,1
1.296010256,-4.491260052,1,-5.391806126,1,-6.58053875,1,-0.167686641,1,0.1432541906833649,1,0.4429600536823273,1,0.517201841,1,-0.501177967,1,-0.145763665,1,0.2077078819274902,1,-1.150723934,1,0.8749690055847168,1
1.300011754,-4.552956104,1,-5.306659222,1,-6.570676327,1,-0.243063793,1,0.1613577008247375,1,0.4850159883499146,1,0.5153419375419617,1,-0.501562417,1,-0.143574655,1,0.1493091583251953,1,-1.08034277,1,0.8911314010620117,1
1.304009438,-4.586905003,1,-5.255151749,1,-6.65496397,1,-0.301431775,1,0.176749513,1,0.5148224830627441,1,0.5131204128265381,1,-0.50195837,1,-0.141214624,1,0.1187548637390137,1,-1.04633522,1,0.8145933151245117,1
1.308008909,-4.620685101,1,-5.232567787,1,-6.76394558,1,-0.368234783,1,0.205303892,1,0.5467802286148071,1,0.510566235,1,-0.502330482,1,-0.138684079,1,0.088165283,1,-1.043701172,1,0.7148070335388184,1
1.312010527,-4.544677258,1,-5.043557167,1,-6.80350399,1,-0.433311254,1,0.205331489,1,0.5887624621391296,1,0.5076503157615662,1,-0.502727032,1,-0.135958329,1,0.167572021,1,-0.87742281,1,0.6858000755310059,1
1.31600821,-4.615069389,1,-4.924467087,1,-6.858156681,1,-0.493073255,1,0.2214386463165283,1,0.6206542253494263,1,0.5044028759002686,1,-0.503154337,1,-0.133072674,1,0.1008415222167969,1,-0.783649445,1,0.6428737640380859,1
1.320007682,-4.717523098,1,-4.880375862,1,-6.982871532,1,-0.553531826,1,0.2289420813322067,1,0.6409003734588623,1,0.500855029,1,-0.503586888,1,-0.130042642,1,0.002093315,1,-0.767176628,1,0.5310125350952148,1
1.324008942,-4.772660255,1,-4.699197292,1,-6.970379353,1,-0.611835837,1,0.2294718027114868,1,0.6592393517494202,1,0.4970265924930573,1,-0.504040003,1,-0.126942977,1,-0.049162865,1,-0.615815639,1,0.557314396,1
1.328006625,-4.76484108,1,-4.423858643,1,-7.206975937,1,-0.640395284,1,0.2448187172412872,1,0.6768853664398193,1,0.4929793775081635,1,-0.504469395,1,-0.123751156,1,-0.037666798,1,-0.371936321,1,0.3353958129882813,1
1.332006097,-4.813650131,1,-4.154088497,1,-7.314424038,1,-0.675485134,1,0.2469777017831802,1,0.6816098690032959,1,0.4887689352035522,1,-0.50489074,1,-0.120485969,1,-0.082868576,1,-0.134892464,1,0.2431850433349609,1
1.336007476,-4.752735138,1,-3.926612616,1,-7.441294193,1,-0.700854242,1,0.2483180463314056,1,0.685721219,1,0.4844210147857666,1,-0.505295873,1,-0.117187776,1,-0.0184865,1,0.058791161,1,0.1320185661315918,1
1.340005159,-4.817417145,1,-3.765575409,1,-7.566044807,1,-0.725660086,1,0.2399075776338577,1,0.6812655925750732,1,0.4799699783325195,1,-0.505697608,1,-0.113905244,1,-0.079730511,1,0.1852021217346191,1,0.023246288,1
1.344004393,-4.870974541,1,-3.701663256,1,-7.635849953,1,-0.734462202,1,0.2438450753688812,1,0.6693272590637207,1,0.4754655063152313,1,-0.506068826,1,-0.110661067,1,-0.130112171,1,0.2140827178955078,1,-0.030404568,1
1.348005652,-5.022966862,1,-3.211238384,1,-7.806713581,1,-0.738472581,1,0.2292693853378296,1,0.6284306645393372,1,0.4710027873516083,1,-0.50640738,1,-0.107511237,1,-0.27920866,1,0.6697988510131836,1,-0.18530035,1
1.352003098,-5.009109974,1,-2.845508575,1,-8.182139397,1,-0.705179214,1,0.1865943074226379,1,0.567252517,1,0.4667156338691711,1,-0.506735206,1,-0.104634449,1,-0.262548447,1,1.002119302749634,1,-0.545546055,1
1.35600841,-5.026978016,1,-2.614947081,1,-8.340269089,1,-0.657055557,1,0.1531968116760254,1,0.517221212,1,0.4627405107021332,1,-0.507092118,1,-0.102082126,1,-0.277364731,1,1.201538801193237,1,-0.689956188,1
1.360010028,-5.162265778,1,-2.45754981,1,-8.532019615,1,-0.606736004,1,0.1479050070047379,1,0.4820683002471924,1,0.4590820074081421,1,-0.507443309,1,-0.09972693,1,-0.409650326,1,1.330181121826172,1,-0.869294167,1
1.364007711,-4.867073536,1,-2.682540894,1,-8.332370758,1,-0.561258316,1,0.126463309,1,0.448022187,1,0.4556800127029419,1,-0.507768512,1,-0.097539023,1,-0.1116786,1,1.078418970108032,1,-0.658192635,1
1.368006945,-4.805286407,1,-2.904689312,1,-8.207385063,1,-0.512096047,1,0.1049905195832253,1,0.4208659827709198,1,0.4525616765022278,1,-0.508114874,1,-0.095527321,1,-0.046931267,1,0.8316023349761963,1,-0.522995949,1
1.372008204,-4.735544682,1,-3.029714346,1,-8.110126495,1,-0.468490213,1,0.092030644,1,0.4023160636425018,1,0.4496831297874451,1,-0.508477926,1,-0.093634039,1,0.025911808,1,0.6836915016174316,1,-0.416568756,1
1.37600565,-4.828921318,1,-3.065054655,1,-8.122683525,1,-0.446949065,1,0.073277421,1,0.3827784061431885,1,0.4469831585884094,1,-0.508865476,1,-0.091851443,1,-0.064154148,1,0.6267681121826172,1,-0.420791149,1
1.380004883,-4.882509232,1,-3.057502508,1,-8.107294083,1,-0.414946795,1,0.064090155,1,0.3703813254833221,1,0.444430947,1,-0.509267271,1,-0.090153702,1,-0.114311218,1,0.6138267517089844,1,-0.397736073,1
1.384006143,-4.81515789,1,-3.045444012,1,-8.078728676,1,-0.38768214,1,0.050215296,1,0.3552037179470062,1,0.4420428872108459,1,-0.509680212,1,-0.088539742,1,-0.043434143,1,0.606621265,1,-0.362205029,1
1.388003588,-4.762941837,1,-3.170975208,1,-8.023358345,1,-0.358493268,1,0.043783095,1,0.348761648,1,0.4397945702075958,1,-0.510106027,1,-0.086987913,1,0.012417316,1,0.4628665447235107,1,-0.300481796,1
1.392003059,-4.89383173,1,-3.195497036,1,-8.037385941,1,-0.341344178,1,0.035943147,1,0.3423551619052887,1,0.4376442730426788,1,-0.51054877,1,-0.085468099,1,-0.114694595,1,0.4208338260650635,1,-0.308629036,1
1.396004319,-4.876020908,1,-3.271252632,1,-7.940983772,1,-0.325014621,1,0.036637362,1,0.3382676243782043,1,0.4358402490615845,1,-0.511092722,1,-0.084808022,1,-0.092242718,1,0.3300297260284424,1,-0.208076477,1
1.400001764,-4.839315891,1,-3.277960777,1,-7.840725422,1,-0.302273184,1,0.032165185,1,0.3352112174034119,1,0.4338587820529938,1,-0.511541188,1,-0.083335914,1,-0.05171299,1,0.307091236,1,-0.102641582,1
1.404000998,-4.843506813,1,-3.424611807,1,-7.720671177,1,-0.311847061,1,0.03567655,1,0.3437656462192535,1,0.4319107532501221,1,-0.511989832,1,-0.081855714,1,-0.05207777,1,0.1444587707519531,1,0.022427559,1
1.408002257,-4.752141476,1,-3.574664354,1,-7.676757336,1,-0.312763453,1,0.034770384,1,0.3470836579799652,1,0.4299231469631195,1,-0.512435615,1,-0.080353759,1,0.043087482,1,-0.02188158,1,0.07147789,1
1.411999702,-4.861655235,1,-3.563875675,1,-7.659718037,1,-0.312422216,1,0.046089858,1,0.357061893,1,0.4279095232486725,1,-0.512875855,1,-0.078806765,1,-0.062673569,1,-0.027579069,1,0.093732357,1
1.415998936,-4.91502285,1,-3.585665703,1,-7.659170151,1,-0.32347855,1,0.049933333,1,0.364415318,1,0.4258503019809723,1,-0.513300598,1,-0.077200271,1,-0.112422943,1,-0.06618309,1,0.099693298,1
1.420000315,-4.938950062,1,-3.495700121,1,-7.685573578,1,-0.336563259,1,0.060278058,1,0.3717206716537476,1,0.423714817,1,-0.513708472,1,-0.075546302,1,-0.132875443,1,0.006400585,1,0.07900238,1
1.423997998,-4.82404995,1,-3.484779835,1,-7.692160606,1,-0.344812512,1,0.064558595,1,0.3714341819286346,1,0.4215260446071625,1,-0.51409179,1,-0.073877357,1,-0.014710426,1,-0.000437021,1,0.078380108,1
1.42799747,-4.911901951,1,-3.456065893,1,-7.725419521,1,-0.355124205,1,0.072914109,1,0.3785123527050018,1,0.4192891120910645,1,-0.514456034,1,-0.072164245,1,-0.099460125,1,0.010170698,1,0.051290989,1
1.432004809,-4.877106667,1,-3.490968704,1,-7.719891071,1,-0.365677476,1,0.080884822,1,0.3860757648944855,1,0.4169755578041077,1,-0.514807463,1,-0.07040789,1,-0.061673641,1,-0.043417931,1,0.063272953,1
1.436008453,-4.956859112,1,-3.355492592,1,-7.759898663,1,-0.376836926,1,0.082193017,1,0.3814529478549957,1,0.4146076440811157,1,-0.515138328,1,-0.068630062,1,-0.138609409,1,0.072977304,1,0.029949188,1
1.440008163,-4.948487759,1,-3.15041995,1,-7.917397976,1,-0.373692125,1,0.069784395,1,0.3646238148212433,1,0.4122712016105652,1,-0.515457451,1,-0.066915169,1,-0.127522469,1,0.2592227458953857,1,-0.120972633,1
1.444009423,-5.012655735,1,-2.982606173,1,-8.061627388,1,-0.372312546,1,0.056107931,1,0.3491093516349792,1,0.4099848866462708,1,-0.515797734,1,-0.065296873,1,-0.188795567,1,0.4085493087768555,1,-0.258930206,1
1.448007226,-4.906515121,1,-3.059483528,1,-8.03400898,1,-0.362859309,1,0.051569548,1,0.3406582772731781,1,0.4077435731887817,1,-0.516148388,1,-0.063742854,1,-0.07967186,1,0.3135042190551758,1,-0.225283623,1
1.452006698,-4.87523365,1,-3.159697533,1,-8.027679443,1,-0.355492562,1,0.034234669,1,0.336453378,1,0.4055561721324921,1,-0.516525328,1,-0.062224891,1,-0.045184135,1,0.1954827308654785,1,-0.213268757,1
1.456008196,-4.726428032,1,-3.171769619,1,-8.041967392,1,-0.358449817,1,0.028241182,1,0.3310961723327637,1,0.4033947885036469,1,-0.516934752,1,-0.060757268,1,0.1071028709411621,1,0.1657364368438721,1,-0.222142696,1
1.460005641,-4.787057877,1,-3.034503937,1,-8.110468864,1,-0.342206627,1,0.010721883,1,0.3252144157886505,1,0.4012764692306519,1,-0.517381608,1,-0.0593228,1,0.050271988,1,0.28558588,1,-0.285581112,1
1.464004874,-4.927560329,1,-2.978424788,1,-8.077115059,1,-0.334425151,1,-0.000708337,1,0.3174382150173187,1,0.3992408514022827,1,-0.517869413,1,-0.057942074,1,-0.086084843,1,0.3248116970062256,1,-0.24766016,1
1.468006372,-4.790638447,1,-2.974803686,1,-8.089873314,1,-0.323608994,1,-0.014780429,1,0.3116505146026611,1,0.397280365,1,-0.518382072,1,-0.056632452,1,0.055192947,1,0.3121154308319092,1,-0.256249428,1
1.472003818,-4.840695381,1,-2.995388985,1,-8.144802094,1,-0.319987386,1,-0.034195606,1,0.2959029376506805,1,0.3953748941421509,1,-0.51894927,1,-0.055380162,1,0.009953499,1,0.2755386829376221,1,-0.307465553,1
1.476003051,-4.809482098,1,-2.966471672,1,-8.143807411,1,-0.311260462,1,-0.045793042,1,0.2897040247917175,1,0.3935215175151825,1,-0.519550383,1,-0.054202281,1,0.046270847,1,0.2888076305389404,1,-0.303113461,1
1.480004549,-4.758635044,1,-2.864886522,1,-8.296851158,1,-0.303744465,1,-0.06315171,1,0.2786449491977692,1,0.3917384147644043,1,-0.520182371,1,-0.053103119,1,0.1024823188781738,1,0.375234842,1,-0.453202248,1
1.484002352,-4.79496336,1,-2.785443306,1,-8.310003281,1,-0.299668491,1,-0.075944021,1,0.2584881782531738,1,0.3900164067745209,1,-0.520852864,1,-0.052086845,1,0.071843147,1,0.4399254322052002,1,-0.463805199,1
1.488001823,-4.779716015,1,-2.820560217,1,-8.245601654,1,-0.295439303,1,-0.096370026,1,0.2352818995714188,1,0.3883627653121948,1,-0.521554112,1,-0.051168844,1,0.093038559,1,0.3905372619628906,1,-0.397239208,1
1.492003322,-4.810929298,1,-2.904553175,1,-8.230804443,1,-0.297962636,1,-0.115425289,1,0.2238846719264984,1,0.386772096,1,-0.522301435,1,-0.050357502,1,0.068161011,1,0.2926814556121826,1,-0.380718231,1
1.496000767,-4.794643402,1,-2.973694324,1,-8.200372696,1,-0.31023097,1,-0.137993202,1,0.219037652,1,0.3851891756057739,1,-0.523111403,1,-0.049616084,1,0.091310501,1,0.2096247673034668,1,-0.348898888,1
1.500000238,-4.842977524,1,-3.034562111,1,-8.137608528,1,-0.33315739,1,-0.143328965,1,0.2206015586853027,1,0.383560449,1,-0.523969769,1,-0.048924271,1,0.050246239,1,0.1343932151794434,1,-0.284855843,1
1.504001737,-4.933621883,1,-2.973536015,1,-8.055846214,1,-0.348902941,1,-0.156506494,1,0.2110859751701355,1,0.381854236,1,-0.524846375,1,-0.048249092,1,-0.032976151,1,0.1804172992706299,1,-0.201679707,1
1.507999182,-4.953484535,1,-2.936816931,1,-8.012468338,1,-0.360762537,1,-0.164186612,1,0.196100727,1,0.3801308870315552,1,-0.525737643,1,-0.047643211,1,-0.045297623,1,0.2019741535186768,1,-0.156938076,1
1.512004852,-4.912662983,1,-2.790155172,1,-8.199211121,1,-0.376446426,1,-0.17954874,1,0.1800024509429932,1,0.378404438,1,-0.526664317,1,-0.047135532,1,0.003360748,1,0.3333864212036133,1,-0.342505932,1
1.516006708,-4.901493073,1,-2.675595522,1,-8.322758675,1,-0.373620152,1,-0.204607442,1,0.160061702,1,0.3767012357711792,1,-0.527638078,1,-0.046730436,1,0.022761345,1,0.4327986240386963,1,-0.465197086,1
1.52000463,-5.0566535,1,-2.715848446,1,-8.345658302,1,-0.357945651,1,-0.231472984,1,0.1409092396497726,1,0.3750850856304169,1,-0.528675079,1,-0.04644049,1,-0.12363863,1,0.3779697418212891,1,-0.487839699,1
1.524004102,-5.025948048,1,-2.764393568,1,-8.357162476,1,-0.354165822,1,-0.255744815,1,0.123129666,1,0.3735920190811157,1,-0.52976799,1,-0.04627718,1,-0.083706856,1,0.3157193660736084,1,-0.499759197,1
1.528005362,-5.102743626,1,-2.879776001,1,-8.499686241,1,-0.340066195,1,-0.28692916,1,0.1176945865154266,1,0.3721826076507568,1,-0.530939698,1,-0.046212263,1,-0.150616646,1,0.1871509552001953,1,-0.643350124,1
1.532003045,-4.988055229,1,-2.876425266,1,-8.481370926,1,-0.346135169,1,-0.325678319,1,0.1128396242856979,1,0.3708228170871735,1,-0.532244086,1,-0.046233278,1,-0.024931908,1,0.1774735450744629,1,-0.626896381,1
1.536002517,-4.974417686,1,-2.853554487,1,-8.440421104,1,-0.338584483,1,-0.37102291,1,0.1121348738670349,1,0.3695118427276611,1,-0.53371042,1,-0.04633449,1,0.001057148,1,0.1874129772186279,1,-0.588744164,1
1.540003896,-4.949729919,1,-2.855543137,1,-8.279546738,1,-0.317682624,1,-0.392312288,1,0.1055317968130112,1,0.368286133,1,-0.535294473,1,-0.046502773,1,0.039076805,1,0.1729574203491211,1,-0.431509972,1
1.544001579,-4.998415947,1,-2.992893696,1,-8.64389801,1,-0.306477755,1,-0.411703318,1,0.1050972566008568,1,0.3671387434005737,1,-0.536934495,1,-0.046700671,1,0.004179478,1,0.02365756,1,-0.800042629,1
1.548001051,-4.869651794,1,-2.878839254,1,-8.901212692,1,-0.328794539,1,-0.483530611,1,0.1205944120883942,1,0.3660045862197876,1,-0.538765192,1,-0.046958897,1,0.1483206748962402,1,0.125532866,1,-1.062501907,1
1.552002549,-4.909242153,1,-2.721061945,1,-8.435577393,1,-0.311716765,1,-0.530567706,1,0.1158960834145546,1,0.3648843467235565,1,-0.54085362,1,-0.047297321,1,0.126251221,1,0.2707815170288086,1,-0.603311539,1
1.556000233,-4.984194756,1,-2.823016882,1,-8.066596985,1,-0.272825956,1,-0.526104093,1,0.1147827282547951,1,0.3639024496078491,1,-0.543002367,1,-0.047670614,1,0.069303036,1,0.1572751998901367,1,-0.241530418,1
1.559999704,-4.976671696,1,-2.934981346,1,-8.021633148,1,-0.233585969,1,-0.50463438,1,0.1177226305007935,1,0.3630751967430115,1,-0.545088232,1,-0.048025005,1,0.094279766,1,0.035087585,1,-0.203971386,1
1.564001322,-4.94074297,1,-2.940736055,1,-8.162998199,1,-0.177925035,1,-0.470568091,1,0.1177309155464172,1,0.3624230623245239,1,-0.547065914,1,-0.048319947,1,0.1467385292053223,1,0.020671606,1,-0.352796555,1
1.567998767,-4.903558254,1,-3.483622074,1,-9.212774277,1,-0.223186716,1,-0.553067744,1,0.1377695500850677,1,0.3617750406265259,1,-0.549131155,1,-0.048602071,1,0.2011628150939941,1,-0.531000376,1,-1.410496235,1
1.571998,-4.923368454,1,-3.698194027,1,-8.732397079,1,-0.278489321,1,-0.659612954,1,0.1701519638299942,1,0.3609543442726135,1,-0.55163157,1,-0.048941247,1,0.2021956443786621,1,-0.756494522,1,-0.939666748,1
1.57599926,-4.970056534,1,-3.812798977,1,-8.537716866,1,-0.304985046,1,-0.70571214,1,0.2043259888887405,1,0.3599326014518738,1,-0.554454029,1,-0.049255013,1,0.1789965629577637,1,-0.884170771,1,-0.75555706,1
1.579996705,-4.928644657,1,-3.785311699,1,-8.562747002,1,-0.333960593,1,-0.753708959,1,0.2381874173879623,1,0.3587795495986938,1,-0.557499111,1,-0.049478751,1,0.2457046508789063,1,-0.871176958,1,-0.791929722,1
1.584002018,-5.001985073,1,-3.601182699,1,-8.638207436,1,-0.347884804,1,-0.805103123,1,0.2749192416667938,1,0.3574798703193665,1,-0.560788393,1,-0.049624838,1,0.1996345520019531,1,-0.703119993,1,-0.879592896,1
1.588003635,-5.129752636,1,-3.448514462,1,-8.765699387,1,-0.354434818,1,-0.864813805,1,0.3025654256343842,1,0.356118232,1,-0.564324498,1,-0.04971822,1,0.1011214256286621,1,-0.567451477,1,-1.020439148,1
1.592006922,-5.14358902,1,-3.458233356,1,-8.678232193,1,-0.355723083,1,-0.912177086,1,0.3416112959384918,1,0.3547275066375732,1,-0.568111777,1,-0.049757261,1,0.1185445785522461,1,-0.594846725,1,-0.947606087,1
1.596006393,-5.224696159,1,-3.60691309,1,-8.803894043,1,-0.372639924,1,-0.974942923,1,0.3831075727939606,1,0.3532321453094482,1,-0.572147667,1,-0.049706884,1,0.070665359,1,-0.762458086,1,-1.088980675,1
1.600007653,-5.170187473,1,-3.66822648,1,-8.759399414,1,-0.365892947,1,-1.035188079,1,0.4199153184890747,1,0.3516836166381836,1,-0.57646513,1,-0.049567182,1,0.1606254577636719,1,-0.843623877,1,-1.061626434,1
1.604005098,-5.012814522,1,-3.721214771,1,-8.68950367,1,-0.390091717,1,-1.084944129,1,0.4634537398815155,1,0.3500498831272125,1,-0.581056714,1,-0.049332902,1,0.3555912971496582,1,-0.917615175,1,-1.010197163,1
1.60800457,-5.057907104,1,-3.594131231,1,-8.837714195,1,-0.39969781,1,-1.148819566,1,0.4998433291912079,1,0.3482753038406372,1,-0.585916221,1,-0.04899282,1,0.3501625061035156,1,-0.813099623,1,-1.178057194,1
1.61200583,-5.220208168,1,-3.694136143,1,-9.020974159,1,-0.41768384,1,-1.212085128,1,0.5391340255737305,1,0.3464119136333466,1,-0.591065764,1,-0.048576672,1,0.2297520637512207,1,-0.936875343,1,-1.382446766,1
1.616003633,-5.044183254,1,-3.815368891,1,-9.356163979,1,-0.432322174,1,-1.30174613,1,0.5836350321769714,1,0.3444375395774841,1,-0.596542776,1,-0.048084389,1,0.4501738548278809,1,-1.083313942,1,-1.74041605,1
1.620003104,-5.094309807,1,-3.800508022,1,-9.432019234,1,-0.464414299,1,-1.38897121,1,0.6289547681808472,1,0.34233743,1,-0.602423072,1,-0.047516555,1,0.4475293159484863,1,-1.095346212,1,-1.841117859,1
1.624004364,-5.130141258,1,-3.692130089,1,-9.588453293,1,-0.501007736,1,-1.487601161,1,0.675506055,1,0.3400398790836334,1,-0.608714104,1,-0.046866853,1,0.4622840881347656,1,-1.016098261,1,-2.024377823,1
1.628002048,-5.157397747,1,-3.836382627,1,-9.55500412,1,-0.527592301,1,-1.587288737,1,0.7178496718406677,1,0.3375658988952637,1,-0.615426719,1,-0.046143252,1,0.4887595176696777,1,-1.19156456,1,-2.019921303,1
1.632001519,-5.215563774,1,-4.15274334,1,-9.334039688,1,-0.564417779,1,-1.682086468,1,0.777936578,1,0.3349187076091766,1,-0.622600019,1,-0.045314547,1,0.487731934,1,-1.541261435,1,-1.830426693,1
1.636002779,-5.326422691,1,-4.255324841,1,-9.087668419,1,-0.600625157,1,-1.765341997,1,0.8453916907310486,1,0.3319897055625916,1,-0.630175173,1,-0.044326399,1,0.4368939399719238,1,-1.679986477,1,-1.617496967,1
1.640000463,-5.539752007,1,-3.334061861,1,-9.669490814,1,-0.56464237,1,-1.872499228,1,0.9073447585105896,1,0.3289003074169159,1,-0.638186991,1,-0.043135736,1,0.2866859436035156,1,-0.796811104,1,-2.235339165,1
1.643999696,-5.101530552,1,-3.693819523,1,-9.16392231,1,-0.543134212,1,-1.973478079,1,0.9640426635742188,1,0.3259668350219727,1,-0.646638215,1,-0.042240489,1,0.7910842895507813,1,-1.194243908,1,-1.769268513,1
1.648001313,-5.120942593,1,-3.881403208,1,-9.922734261,1,-0.605983675,1,-2.063872576,1,1.019967794418335,1,0.3227271735668182,1,-0.655551791,1,-0.040737566,1,0.8410139083862305,1,-1.422553301,1,-2.570127487,1
1.651998758,-4.846794605,1,-3.334245205,1,-9.906453133,1,-0.588727474,1,-2.177841902,1,1.080245137214661,1,0.3193267285823822,1,-0.664930224,1,-0.039075367,1,1.187608242034912,1,-0.918071508,1,-2.598939419,1
1.655997992,-5.000245571,1,-3.298783064,1,-10.1099987,1,-0.614250898,1,-2.306340456,1,1.117653846740723,1,0.3158237040042877,1,-0.674827754,1,-0.037313204,1,1.110037803649902,1,-0.92689085,1,-2.851196289,1
1.65999949,-4.853896618,1,-3.257818699,1,-10.02523041,1,-0.646773875,1,-2.427865505,1,1.174500107765198,1,0.3121551275253296,1,-0.685256183,1,-0.03548418,1,1.335690021514893,1,-0.932268143,1,-2.81881094,1
1.663996935,-5.119416237,1,-3.057988405,1,-10.26164246,1,-0.651594937,1,-2.577417135,1,1.225209832191467,1,0.3082879483699799,1,-0.696263313,1,-0.033497546,1,1.153143405914307,1,-0.781135321,1,-3.111638546,1
1.667996168,-4.992757797,1,-3.001123905,1,-10.13723087,1,-0.642094076,1,-2.698027372,1,1.267351388931274,1,0.3043684363365173,1,-0.707836032,1,-0.031441689,1,1.366219043731689,1,-0.774216175,1,-3.04808569,1
1.671997666,-4.795032978,1,-3.238446712,1,-10.24801731,1,-0.65547967,1,-2.829660177,1,1.324414014816284,1,0.3003513813018799,1,-0.71990937,1,-0.029252011,1,1.653190612792969,1,-1.062908888,1,-3.223837852,1
1.67599535,-5.030230999,1,-3.49894762,1,-10.28692436,1,-0.664116442,1,-2.997581244,1,1.374950766563416,1,0.2961591482162476,1,-0.732642293,1,-0.026922565,1,1.511097431182861,1,-1.377011299,1,-3.332784176,1
1.679994822,-4.830301762,1,-3.756531715,1,-10.15497494,1,-0.68521142,1,-3.123566866,1,1.455120444297791,1,0.2917678952217102,1,-0.745991111,1,-0.02440046,1,1.807496547698975,1,-1.690455198,1,-3.275829792,1
1.683996439,-4.933348656,1,-4.116872311,1,-10.37522316,1,-0.692617714,1,-3.262850761,1,1.525506138801575,1,0.2870751023292542,1,-0.759937048,1,-0.021575652,1,1.803969860076904,1,-2.109510422,1,-3.575911522,1
1.687993884,-5.017265797,1,-4.336450577,1,-9.801641464,1,-0.721317768,1,-3.380131721,1,1.619689345359802,1,0.2820147275924683,1,-0.774486423,1,-0.01837026,1,1.822483062744141,1,-2.391008377,1,-3.087128639,1
1.691993356,-5.015980721,1,-4.673498154,1,-10.09334183,1,-0.743171394,1,-3.505178928,1,1.719254970550537,1,0.2764843106269836,1,-0.789552569,1,-0.01468356,1,1.928310871124268,1,-2.793563843,1,-3.468062878,1
1.695994854,-4.946037769,1,-4.843627453,1,-10.06954193,1,-0.744882584,1,-3.632736206,1,1.828791975975037,1,0.2704675793647766,1,-0.805219352,1,-0.010424309,1,2.10529089,1,-3.032882214,1,-3.538723469,1
1.699992776,-5.022718906,1,-5.057749748,1,-10.00881672,1,-0.76801765,1,-3.752788782,1,1.944826602935791,1,0.2638745605945587,1,-0.821476102,1,-0.005510343,1,2.137848854064941,1,-3.320231915,1,-3.577723503,1
1.703992367,-5.08199358,1,-5.044440746,1,-10.07838917,1,-0.801375508,1,-3.850221157,1,2.037631988525391,1,0.2565835416316986,1,-0.838218451,1,0.000115649,1,2.189096927642822,1,-3.38451767,1,-3.75165844,1
1.707993865,-4.672979832,1,-4.727570534,1,-9.925848007,1,-0.720188797,1,-4.007638931,1,2.153004646,1,0.2488044649362564,1,-0.855504096,1,0.006425449,1,2.710082054138184,1,-3.148101807,1,-3.709151745,1
1.711991549,-5.519259453,1,-6.677378654,1,-9.606391907,1,-0.795237601,1,-4.162439823,1,2.301718235015869,1,0.2403524070978165,1,-0.873562992,1,0.013648257,1,1.978425979614258,1,-5.182495594,1,-3.50707674,1
1.71599102,-5.541770458,1,-6.957039833,1,-8.957878113,1,-0.910823405,1,-4.250130177,1,2.442822217941284,1,0.2304690182209015,1,-0.892131329,1,0.021998789,1,2.071221828460693,1,-5.5545578,1,-2.98066473,1
1.71999228,-5.28221941,1,-6.474042416,1,-9.758993149,1,-0.938065767,1,-4.379814148,1,2.585889339447021,1,0.2192219942808151,1,-0.911177933,1,0.031613164,1,2.446321964263916,1,-5.170648575,1,-3.90899992,1
1.723989964,-5.344498634,1,-6.566817284,1,-10.28243446,1,-0.972374022,1,-4.575889587,1,2.747467041015625,1,0.2066614776849747,1,-0.930936992,1,0.042597037,1,2.500951290130615,1,-5.368575573,1,-4.56712389,1
1.727989554,-5.676696777,1,-6.662569046,1,-9.837993622,1,-1.023299813,1,-4.749852657,1,2.896409749984741,1,0.1926036775112152,1,-0.951438665,1,0.055084277,1,2.286817073822021,1,-5.575808525,1,-4.265468121,1
1.731991291,-6.331001759,1,-6.60875988,1,-9.606210709,1,-1.1460495,1,-4.9173913,1,3.050849676132202,1,0.1765497922897339,1,-0.972664654,1,0.06933783,1,1.751219272613525,1,-5.641506195,1,-4.184608459,1
1.735988975,-6.638077736,1,-6.186773777,1,-9.218323708,1,-1.186700106,1,-4.99326992,1,3.149843931,1,0.1584499776363373,1,-0.99427402,1,0.085483581,1,1.561254501342773,1,-5.345561981,1,-3.953822136,1
1.739988208,-7.530349255,1,-5.773215294,1,-9.703104973,1,-1.225221038,1,-5.062645435,1,3.240554094314575,1,0.1383832395076752,1,-1.016070366,1,0.1035227850079536,1,0.7832283973693848,1,-5.062633038,1,-4.601036549,1
1.743989706,-8.12161541,1,-5.158903599,1,-10.23647022,1,-1.245887637,1,-5.147669315,1,3.311668872833252,1,0.1162213012576103,1,-1.037973642,1,0.1236441135406494,1,0.3027896881103516,1,-4.58281517,1,-5.301985741,1
1.747993112,-9.563753128,1,-4.667039871,1,-11.04207611,1,-1.23706615,1,-5.213789463,1,3.390393257141113,1,0.091802672,1,-1.059981585,1,0.1460694223642349,1,-1.032060623,1,-4.228710175,1,-6.280800343,1
1.751992345,-11.09892464,1,-5.265825272,1,-10.40348911,1,-1.245441794,1,-5.258792877,1,3.495094060897827,1,0.064699881,1,-1.081969023,1,0.1712961196899414,1,-2.464172363,1,-4.968886852,1,-5.820418835,1
1.755993843,-11.5382576,1,-5.182792664,1,-9.928387642,1,-1.30583179,1,-5.249536037,1,3.607058287,1,0.034223065,1,-1.103667736,1,0.1998893171548843,1,-2.805891037,1,-5.032094955,1,-5.526713848,1
1.759991288,-13.6214819,1,-4.319455624,1,-10.65867043,1,-1.330820084,1,-5.176059723,1,3.690351486206055,1,-7.22E-05,1,-1.124781847,1,0.2321947664022446,1,-4.79807663,1,-4.319760323,1,-6.439770699,1
1.76399076,-15.38820457,1,-3.131744623,1,-11.72330189,1,-1.261075735,1,-5.022559166,1,3.683135271072388,1,-0.037795674,1,-1.144889235,1,0.2680471539497375,1,-6.481757164,1,-3.284427166,1,-7.685543537,1
1.76799202,-14.26721764,1,-4.77123642,1,-10.42884159,1,-1.208957314,1,-4.924054146,1,3.733679533004761,1,-0.078717627,1,-1.163901567,1,0.3074584603309631,1,-5.285562515,1,-5.075605392,1,-6.57023716,1
1.771989465,-14.23842335,1,-5.429308414,1,-10.73681545,1,-1.326679349,1,-4.771733284,1,3.796814918518066,1,-0.124159023,1,-1.181673646,1,0.3512409925460815,1,-5.189401627,1,-5.888801575,1,-7.055007935,1
1.775988936,-15.01079178,1,-4.530838013,1,-11.64225292,1,-1.428131938,1,-4.588498116,1,3.776831150054932,1,-0.174094319,1,-1.197945237,1,0.3990795910358429,1,-5.902597427,1,-5.147944927,1,-8.133467674,1
1.779990554,-15.08729172,1,-5.685633183,1,-11.17521095,1,-1.431450248,1,-4.416342258,1,3.699228286743164,1,-0.227486596,1,-1.212614179,1,0.4501005411148071,1,-5.927818298,1,-6.458896637,1,-7.834889412,1
1.783987999,-13.71808052,1,-5.993863583,1,-10.18225479,1,-1.434312582,1,-4.170607567,1,3.630804300308228,1,-0.283770502,1,-1.225555897,1,0.5039434432983398,1,-4.515003204,1,-6.920541763,1,-7.004794121,1
1.787987471,-12.12204361,1,-5.486991405,1,-10.1488018,1,-1.40071702,1,-3.948992491,1,3.524853944778442,1,-0.342119217,1,-1.236563563,1,0.5598068237304688,1,-2.883090973,1,-6.563335419,1,-7.126408577,1
1.79198873,-10.91901302,1,-4.723241806,1,-10.03779697,1,-1.317430019,1,-3.817037582,1,3.402852535247803,1,-0.401808262,1,-1.24598515,1,0.6171184778213501,1,-1.650243759,1,-5.943869591,1,-7.165233135,1
1.795986176,-10.32024479,1,-3.881506443,1,-9.879061699,1,-1.187570095,1,-3.700205088,1,3.246473073959351,1,-0.462141514,1,-1.254082918,1,0.675397515,1,-1.026504517,1,-5.239608765,1,-7.152598858,1
1.799985647,-9.48684597,1,-3.78389883,1,-9.976899147,1,-1.018442154,1,-3.550315619,1,3.082780122756958,1,-0.522184789,1,-1.260887027,1,0.7338564395904541,1,-0.172595978,1,-5.271588326,1,-7.391710281,1
1.803986907,-8.135586739,1,-3.760389566,1,-9.957328796,1,-0.85919416,1,-3.4198277,1,2.936275482177734,1,-0.581302524,1,-1.266455412,1,0.7919348478317261,1,1.195126533508301,1,-5.369713306,1,-7.507943153,1
1.807984352,-5.866577148,1,-3.990872145,1,-9.597934723,1,-0.759366453,1,-3.30783844,1,2.811579227,1,-0.639443576,1,-1.270873904,1,0.8494586944580078,1,3.476995468139648,1,-5.715183258,1,-7.279313087,1
1.811983824,-0.896412194,1,-4.958534241,1,-8.570831299,1,-0.728473842,1,-3.219263554,1,2.647992610931396,1,-0.696652055,1,-1.27434504,1,0.9062236547470093,1,8.457134246826172,1,-6.791779518,1,-6.379477978,1
1.815985203,4.452678203582764,1,-5.963866234,1,-9.378142357,1,-0.82383585,1,-3.057437658,1,2.238167285919189,1,-0.751576662,1,-1.277243018,1,0.960404634,1,13.81446457,1,-7.896128654,1,-7.310547352,1
1.819982648,-10.1419487,1,-7.341165543,1,-9.588276863,1,-0.740920007,1,-2.687649012,1,1.651393652,1,-0.800057948,1,-1.280042291,1,1.007696032524109,1,-0.772277832,1,-9.352546692,1,-7.635020733,1
1.823981881,-24.05968666,1,-13.41048145,1,-15.07323265,1,-0.600798726,1,-1.577111483,1,0.8623344302177429,1,-0.835862458,1,-1.282320499,1,1.042199850082397,1,-14.68365192,1,-15.47466087,1,-13.20754051,1
1.827989459,-15.60602665,1,-13.67270756,1,-17.77075195,1,-0.642743647,1,-0.554290771,1,0.092168234,1,-0.852780163,1,-1.283606172,1,1.057351828,1,-6.22642231,1,-15.75906658,1,-15.94818401,1
1.831993341,-9.726436615,1,-14.97178841,1,-13.11497784,1,-0.896368146,1,0.061003949,1,-0.529879808,1,-0.85623461,1,-1.284946203,1,1.057763457298279,1,-0.343128204,1,-17.05493355,1,-11.3078661,1
1.835993052,-6.412828922,1,-16.45320892,1,-11.8561945,1,-1.301404595,1,0.6056039929389954,1,-0.924803138,1,-0.850477755,1,-1.286269903,1,1.047216653823853,1,2.974121570587158,1,-18.5165863,1,-10.04530907,1
1.839994669,-4.740516663,1,-14.58254337,1,-11.12102413,1,-1.718294382,1,1.034365535,1,-1.253512859,1,-0.838121772,1,-1.28734839,1,1.028033614,1,4.649388313293457,1,-16.6158638,1,-9.291553497,1
1.843992114,-3.393507719,1,-12.37420177,1,-10.21704865,1,-2.011086226,1,1.356413722038269,1,-1.489116788,1,-0.82061404,1,-1.288171649,1,1.001983046531677,1,5.998645782470703,1,-14.36952209,1,-8.357536316,1
1.847991347,-1.789518476,1,-10.32888508,1,-9.877152443,1,-2.147106647,1,1.583499312400818,1,-1.622780204,1,-0.799374282,1,-1.288621068,1,0.971169114,1,7.603860855102539,1,-12.28122902,1,-7.978631973,1
1.851992607,-0.285690963,1,-8.159536362,1,-9.473999023,1,-2.141666889,1,1.714352607727051,1,-1.70851934,1,-0.775575399,1,-1.288675547,1,0.9374394416809082,1,9.10783577,1,-10.06580162,1,-7.529911995,1
1.855990052,0.8520057201385498,1,-6.359897614,1,-9.025615692,1,-1.993963718,1,1.783626437187195,1,-1.786720872,1,-0.749724507,1,-1.288432121,1,0.901875913,1,10.24487018585205,1,-8.216825485,1,-7.031239986,1
1.859989524,1.200419545173645,1,-5.250889301,1,-8.857737541,1,-1.761916161,1,1.798563361167908,1,-1.854277134,1,-0.722060204,1,-1.288014412,1,0.8652372360229492,1,10.59214496612549,1,-7.054536343,1,-6.809813023,1
1.863990784,1.145078420639038,1,-4.701162815,1,-8.668195724,1,-1.506403804,1,1.797993302345276,1,-1.903381824,1,-0.692892194,1,-1.287435532,1,0.8280552625656128,1,10.53522205352783,1,-6.447790146,1,-6.564357758,1
1.867988229,0.9185441136360168,1,-4.575174809,1,-8.292431831,1,-1.263265848,1,1.808589935302734,1,-1.934835196,1,-0.662450135,1,-1.286634564,1,0.7905791401863098,1,10.30649471282959,1,-6.261580467,1,-6.130479336,1
1.8719877,0.5629550814628601,1,-4.676138401,1,-7.811469078,1,-1.04887712,1,1.842879414558411,1,-1.96830368,1,-0.630743682,1,-1.285523415,1,0.7527427077293396,1,9.947853088378906,1,-6.299315929,1,-5.588712692,1
1.87598896,0.1411703526973724,1,-4.953059673,1,-7.351700306,1,-0.882609785,1,1.902993679046631,1,-1.992193937,1,-0.597910345,1,-1.283972979,1,0.7145054340362549,1,9.521789551,1,-6.510583401,1,-5.064834118,1
1.879986167,-0.168979734,1,-5.287417412,1,-6.942611217,1,-0.771131516,1,1.984087347984314,1,-2.000509262,1,-0.564263105,1,-1.281858325,1,0.6759729385375977,1,9.205767631530762,1,-6.777729034,1,-4.587891579,1
1.883985639,-0.438358575,1,-5.664895535,1,-6.692327023,1,-0.716462076,1,2.072033405303955,1,-1.985886097,1,-0.530293822,1,-1.279084921,1,0.6374233961105347,1,8.928624153137207,1,-7.087519646,1,-4.265931129,1
1.887986898,-0.695927858,1,-5.976444244,1,-6.457797527,1,-0.70776844,1,2.163612365722656,1,-1.960667014,1,-0.496596307,1,-1.275593877,1,0.5992527008056641,1,8.661178588867188,1,-7.332088947,1,-3.956105709,1
1.891984582,-1.046205997,1,-6.173125267,1,-6.336595058,1,-0.725648105,1,2.255211591720581,1,-1.911649704,1,-0.463701218,1,-1.27132535,1,0.5618594288825989,1,8.298669815063477,1,-7.463609219,1,-3.755972862,1
1.895984173,-1.629004598,1,-6.119874001,1,-6.200780869,1,-0.751673102,1,2.362844467163086,1,-1.870666265,1,-0.431793481,1,-1.266251564,1,0.5251494646072388,1,7.701111793518066,1,-7.347198486,1,-3.537279367,1
1.899985433,-2.230310202,1,-5.935316563,1,-6.23733139,1,-0.785119116,1,2.475305080413818,1,-1.8371948,1,-0.401201755,1,-1.260400891,1,0.4898348748683929,1,7.082488059997559,1,-7.101896286,1,-3.487329245,1
1.903982878,-2.612341881,1,-5.796960831,1,-6.269259453,1,-0.816971421,1,2.588900566101074,1,-1.805727243,1,-0.371842921,1,-1.253760576,1,0.4556040465831757,1,6.680415153503418,1,-6.904758453,1,-3.428642035,1
1.907988191,-3.039350033,1,-5.628745556,1,-6.283143997,1,-0.83778441,1,2.698928117752075,1,-1.783231854,1,-0.343763649,1,-1.246363521,1,0.4225263595581055,1,6.230599880218506,1,-6.679490089,1,-3.347914934,1
1.911989808,-3.481620312,1,-5.529419899,1,-6.299627304,1,-0.838125467,1,2.812111616134644,1,-1.778675914,1,-0.316884011,1,-1.23824954,1,0.3905894756317139,1,5.762728214263916,1,-6.52430582,1,-3.265834808,1
1.915987492,-3.952197075,1,-5.428452015,1,-6.358940601,1,-0.817783356,1,2.917966604232788,1,-1.779290199,1,-0.291011453,1,-1.229444027,1,0.359656811,1,5.263679504394531,1,-6.367839813,1,-3.222574234,1
1.919986725,-4.443076611,1,-5.397829056,1,-6.351321697,1,-0.794284046,1,3.025799989700317,1,-1.802505493,1,-0.266081989,1,-1.219971776,1,0.3297267258167267,1,4.741374492645264,1,-6.281660557,1,-3.108434677,1
1.923988223,-4.91665411,1,-5.418548107,1,-6.3214221,1,-0.762538671,1,3.133875370025635,1,-1.826353788,1,-0.24198398,1,-1.209868431,1,0.3007043898105621,1,4.233370304107666,1,-6.246178627,1,-2.96825552,1
1.927985668,-5.365741253,1,-5.5204072,1,-6.274311543,1,-0.727336764,1,3.233830690383911,1,-1.868641615,1,-0.218604967,1,-1.199158072,1,0.2724725902080536,1,3.746767520904541,1,-6.290634632,1,-2.807240963,1
1.931984901,-5.725920677,1,-5.569449902,1,-6.190876484,1,-0.707757294,1,3.327991724014282,1,-1.922895193,1,-0.195917472,1,-1.187869906,1,0.2449846118688583,1,3.345917701721191,1,-6.280806541,1,-2.606551647,1
1.9359864,-5.961138248,1,-5.748896599,1,-6.084283829,1,-0.686764479,1,3.409565925598145,1,-1.985136747,1,-0.173907444,1,-1.176053524,1,0.2181837111711502,1,3.066887378692627,1,-6.399699211,1,-2.379852533,1
1.939984083,-6.241967678,1,-5.879796982,1,-6.030966759,1,-0.684718132,1,3.481557607650757,1,-2.054812431,1,-0.15255934,1,-1.163764834,1,0.1920272409915924,1,2.739158153533936,1,-6.468191624,1,-2.204110146,1
1.943983674,-6.529839516,1,-6.020116329,1,-5.960289001,1,-0.682355046,1,3.546086788,1,-2.133529186,1,-0.131856769,1,-1.151038766,1,0.1664390116930008,1,2.401287078857422,1,-6.544150352,1,-2.009081602,1
1.947985172,-6.811214447,1,-6.066340923,1,-5.84295845,1,-0.686800122,1,3.601192474365234,1,-2.223121405,1,-0.111747257,1,-1.137912273,1,0.1413435041904449,1,2.066824913024902,1,-6.523851395,1,-1.76585865,1
1.951982617,-7.020423889,1,-6.029615402,1,-5.828568935,1,-0.695814848,1,3.645906686782837,1,-2.317619085,1,-0.092173286,1,-1.124413133,1,0.1166559085249901,1,1.801424980163574,1,-6.418234825,1,-1.624332428,1
1.955982089,-7.186805725,1,-6.055296421,1,-5.775109768,1,-0.718790948,1,3.681752681732178,1,-2.425122023,1,-0.07311172,1,-1.110583663,1,0.092298985,1,1.575811386108398,1,-6.372592926,1,-1.442961693,1
1.959983587,-7.232541084,1,-6.066589832,1,-5.779024124,1,-0.729862332,1,3.693546533584595,1,-2.533027172,1,-0.054522149,1,-1.096490979,1,0.06821911,1,1.467992782592773,1,-6.310009003,1,-1.318859577,1
1.963981032,-7.312402248,1,-5.988078594,1,-5.686564922,1,-0.740531504,1,3.697946310043335,1,-2.645798683,1,-0.036376905,1,-1.082196116,1,0.04442269,1,1.323393345,1,-6.15503788,1,-1.098881245,1
1.967980504,-7.422680855,1,-5.921687126,1,-5.673643112,1,-0.745674729,1,3.675463438034058,1,-2.753865719,1,-0.018643241,1,-1.067738414,1,0.020884153,1,1.145842552185059,1,-6.009586334,1,-0.959373951,1
1.971981883,-7.502786636,1,-5.91789484,1,-5.652403355,1,-0.736883819,1,3.650969028,1,-2.860523701,1,-0.001306267,1,-1.05318594,1,-0.00238333,1,0.99621582,1,-5.92421627,1,-0.813133717,1
1.975979209,-7.65659523,1,-5.8173666,1,-5.640525818,1,-0.724828005,1,3.618234157562256,1,-2.957889318,1,0.015665434,1,-1.038570523,1,-0.025370205,1,0.7707738876342773,1,-5.739622593,1,-0.678163052,1
1.979984641,-7.820920467,1,-5.735955238,1,-5.656045914,1,-0.707009435,1,3.576815843582153,1,-3.056962013,1,0.032317091,1,-1.023897052,1,-0.048120134,1,0.5327200889587402,1,-5.571616173,1,-0.572608471,1
1.9839921,-8.059551239,1,-5.690018177,1,-5.710214138,1,-0.675985157,1,3.527944087982178,1,-3.147279024,1,0.04865925,1,-1.009195685,1,-0.070590556,1,0.2184171676635742,1,-5.436684132,1,-0.508035183,1
1.987995625,-8.254728317,1,-5.763511181,1,-5.782939911,1,-0.650377393,1,3.480436563491821,1,-3.235120535,1,0.064690448,1,-0.994476318,1,-0.092776559,1,-0.054317474,1,-5.41897583,1,-0.46446228,1
1.991995335,-8.566344261,1,-5.844600677,1,-5.818895817,1,-0.609267116,1,3.435309171676636,1,-3.309555531,1,0.080445275,1,-0.979735792,1,-0.11466828,1,-0.445383072,1,-5.406652927,1,-0.386597633,1
1.995996952,-8.975344658,1,-5.901751518,1,-5.925493717,1,-0.567424476,1,3.399211406707764,1,-3.388313293,1,0.095896505,1,-0.964945436,1,-0.136208251,1,-0.935874939,1,-5.368480682,1,-0.381650925,1
1.999994636,-9.305095673,1,-5.97035408,1,-5.968688011,1,-0.538905859,1,3.377016305923462,1,-3.460251093,1,0.111041248,1,-0.950049877,1,-0.157434136,1,-1.34947443,1,-5.339986324,1,-0.315158844,1
2.003994226,-9.543600082,1,-6.164644718,1,-5.990977764,1,-0.511364698,1,3.364251613616943,1,-3.523694038,1,0.12583366,1,-0.935004115,1,-0.178320989,1,-1.674465179,1,-5.435778141,1,-0.229281425,1
2.007995367,-9.651077271,1,-6.414735317,1,-6.016172886,1,-0.5017156,1,3.357884645462036,1,-3.583580494,1,0.1402250528335571,1,-0.919792473,1,-0.198836371,1,-1.871192455,1,-5.586392879,1,-0.147704124,1
2.01199317,-9.709885597,1,-6.593759537,1,-6.002484798,1,-0.498779029,1,3.350003719329834,1,-3.640864134,1,0.1541501432657242,1,-0.904398799,1,-0.218976721,1,-2.02215147,1,-5.665501595,1,-0.028477669,1
2.015992641,-9.638678551,1,-6.676958084,1,-6.028512478,1,-0.495422125,1,3.338206291,1,-3.681447268,1,0.1675667464733124,1,-0.888852119,1,-0.238692656,1,-2.045860291,1,-5.648824215,1,0.049621582,1
2.01999402,-9.65997982,1,-6.626283646,1,-6.106590271,1,-0.487735808,1,3.320789098739624,1,-3.727380753,1,0.1804940849542618,1,-0.873164058,1,-0.258005053,1,-2.164800644,1,-5.498417377,1,0.074176311,1
2.023991823,-9.570100784,1,-6.579014778,1,-6.153578281,1,-0.483266801,1,3.301094294,1,-3.775917053,1,0.1929721981287003,1,-0.857361019,1,-0.276953399,1,-2.175140858,1,-5.351550102,1,0.1281075477600098,1
2.027991295,-9.505387306,1,-6.513548374,1,-6.187913895,1,-0.464426696,1,3.280625820159912,1,-3.816220284,1,0.2050479501485825,1,-0.841458797,1,-0.295554578,1,-2.213140011,1,-5.186540604,1,0.1928243637084961,1
2.031992912,-9.341032028,1,-6.397066116,1,-6.261241913,1,-0.429713577,1,3.244797229766846,1,-3.856403589,1,0.2167675793170929,1,-0.825493634,1,-0.3138147,1,-2.153759003,1,-4.97051239,1,0.2163872718811035,1
2.035990477,-9.248864174,1,-6.236263752,1,-6.323253155,1,-0.391908228,1,3.209408283233643,1,-3.895793676,1,0.22819823,1,-0.809487462,1,-0.331750453,1,-2.168673992,1,-4.709929466,1,0.2488727569580078,1
2.039989948,-9.159388542,1,-6.175116539,1,-6.432320118,1,-0.329215407,1,3.168139696121216,1,-3.918098927,1,0.2394122779369354,1,-0.793451428,1,-0.34936285,1,-2.188299656,1,-4.548462868,1,0.2317295074462891,1
2.043991566,-9.140354156,1,-6.178873539,1,-6.538289547,1,-0.256733149,1,3.132950305938721,1,-3.948621511,1,0.2504438757896423,1,-0.777406216,1,-0.366627514,1,-2.280222893,1,-4.451304436,1,0.2149124145507813,1
2.04798913,-9.129912376,1,-6.164669514,1,-6.642082214,1,-0.187799856,1,3.096440315246582,1,-3.963459015,1,0.2613281607627869,1,-0.761349797,1,-0.383551955,1,-2.382584572,1,-4.335475445,1,0.197453499,1
2.051989079,-9.087658882,1,-6.219498158,1,-6.789865494,1,-0.122890778,1,3.068010091781616,1,-3.981580257,1,0.2720467746257782,1,-0.745268345,1,-0.400125533,1,-2.455053806,1,-4.288191319,1,0.1333017349243164,1
2.055990458,-9.174409866,1,-6.260929585,1,-6.930712223,1,-0.057069924,1,3.037821531295776,1,-3.996293545,1,0.2825934290885925,1,-0.729160666,1,-0.416341156,1,-2.658433914,1,-4.227186203,1,0.073399067,1
2.05998826,-9.38428688,1,-6.353317738,1,-7.033927441,1,0.004930119,1,3.027649879455566,1,-4.000203133,1,0.2929443120956421,1,-0.712997437,1,-0.432173997,1,-2.98704195,1,-4.217047691,1,0.048676014,1
2.063993931,-9.49616909,1,-6.451757431,1,-7.182893276,1,0.066716224,1,3.027842998504639,1,-4.000377655,1,0.3030754923820496,1,-0.696718335,1,-0.447592407,1,-3.22019577,1,-4.213056087,1,-0.023841858,1
2.067995548,-9.629276276,1,-6.528513432,1,-7.334443569,1,0.1136262491345406,1,3.044452905654907,1,-3.999042988,1,0.3129484057426453,1,-0.68029058,1,-0.462575912,1,-3.477367878,1,-4.187812805,1,-0.100716591,1
2.071993351,-9.79018116,1,-6.470772743,1,-7.518645287,1,0.1638197302818298,1,3.065891504,1,-4.001142502,1,0.3225587606430054,1,-0.663677037,1,-0.477119982,1,-3.765428543,1,-4.028597832,1,-0.211810589,1
2.075992823,-9.951256752,1,-6.474690914,1,-7.664750576,1,0.2126960754394531,1,3.108054399490356,1,-3.997993708,1,0.3319032192230225,1,-0.646838307,1,-0.491217613,1,-4.057080269,1,-3.931647301,1,-0.286183834,1
2.07999444,-10.03852844,1,-6.476354599,1,-7.779657841,1,0.2558580636978149,1,3.157957792282104,1,-3.99192524,1,0.3409698605537415,1,-0.629733264,1,-0.504852295,1,-4.278704166,1,-3.83318615,1,-0.330513477,1
2.083992243,-10.08059311,1,-6.457606316,1,-7.877715588,1,0.3018995821475983,1,3.211661100387573,1,-3.986060619,1,0.3497450351715088,1,-0.612336159,1,-0.518021464,1,-4.459143162,1,-3.715248346,1,-0.359040737,1
2.087991714,-10.09493065,1,-6.411849022,1,-7.972828865,1,0.3362908959388733,1,3.267759799957275,1,-3.970749855,1,0.3582087755203247,1,-0.594660759,1,-0.530691743,1,-4.615810871,1,-3.571559429,1,-0.385758877,1
2.091993093,-10.17648411,1,-6.325728416,1,-8.070454597,1,0.3776719570159912,1,3.321218967437744,1,-3.95092845,1,0.3663747310638428,1,-0.576719046,1,-0.542865753,1,-4.843589306,1,-3.388831139,1,-0.416272163,1
2.095990896,-10.17192745,1,-6.227437019,1,-8.143299103,1,0.4139218628406525,1,3.377916097640991,1,-3.928638697,1,0.3742366433143616,1,-0.558521688,1,-0.554535687,1,-4.989094257,1,-3.195475817,1,-0.423380375,1
2.099990368,-10.25703049,1,-6.052849293,1,-8.169079781,1,0.442616343,1,3.427088975906372,1,-3.905988455,1,0.3817958533763885,1,-0.540086329,1,-0.565723181,1,-5.227971554,1,-2.927546501,1,-0.384946346,1
2.103991747,-10.30420017,1,-5.94670105,1,-8.167552948,1,0.4696525931358337,1,3.478639364242554,1,-3.884924889,1,0.3890450000762939,1,-0.521439493,1,-0.576444566,1,-5.432418346,1,-2.730037689,1,-0.320865154,1
2.107989788,-10.37918758,1,-5.766332626,1,-8.291740417,1,0.4968015551567078,1,3.524701118469238,1,-3.856778145,1,0.3960122466087341,1,-0.502578616,1,-0.586703777,1,-5.668210506,1,-2.460217714,1,-0.384277344,1
2.11198926,-10.49285698,1,-5.506662846,1,-8.358505249,1,0.5209146738052368,1,3.562723159790039,1,-3.830898523,1,0.4027130603790283,1,-0.483545005,1,-0.596536398,1,-5.945856094,1,-2.113106012,1,-0.392313957,1
2.115990877,-10.62124252,1,-5.337921619,1,-8.489727974,1,0.5487723350524902,1,3.596568584442139,1,-3.808409452,1,0.4091531038284302,1,-0.464352995,1,-0.605966628,1,-6.241250515,1,-1.859050989,1,-0.466959,1
2.11998868,-10.77917576,1,-5.173559189,1,-8.605911255,1,0.5714835524559021,1,3.625305891036987,1,-3.790078402,1,0.4153797924518585,1,-0.445035279,1,-0.615022063,1,-6.568915367,1,-1.611318827,1,-0.529044151,1
2.123988152,-11.02094269,1,-5.036980152,1,-8.68256855,1,0.5885289907455444,1,3.646015644073486,1,-3.762889147,1,0.4213688373565674,1,-0.425612509,1,-0.623732984,1,-6.982920647,1,-1.393666983,1,-0.554080009,1
2.127989769,-11.22860527,1,-4.948037624,1,-8.766653061,1,0.5953207015991211,1,3.669093370437622,1,-3.742861986,1,0.4271136224269867,1,-0.406094432,1,-0.632106483,1,-7.36520195,1,-1.226145744,1,-0.589046478,1
2.131987572,-11.38116646,1,-4.894367218,1,-8.863254547,1,0.593628466,1,3.686968326568604,1,-3.711854935,1,0.4325920343399048,1,-0.386505157,1,-0.640148699,1,-7.694497585,1,-1.096727848,1,-0.639019012,1
2.135987043,-11.58129787,1,-4.724443436,1,-8.991646767,1,0.5865632891654968,1,3.693209409713745,1,-3.674053431,1,0.4377852380275726,1,-0.366893381,1,-0.647860527,1,-8.072983742,1,-0.854235172,1,-0.723343849,1
2.139988422,-11.73566437,1,-4.503521442,1,-9.197196007,1,0.5832465887069702,1,3.687952756881714,1,-3.631933212,1,0.4427030980587006,1,-0.347298354,1,-0.655255079,1,-8.406900406,1,-0.56400156,1,-0.887495995,1
2.143991947,-11.97729874,1,-4.271916389,1,-9.417377472,1,0.5810549855232239,1,3.671994924545288,1,-3.589640379,1,0.447353333,1,-0.327760339,1,-0.662299395,1,-8.828834534,1,-0.266422272,1,-1.069032669,1
2.147992134,-12.33787251,1,-3.982233047,1,-9.559837341,1,0.5887726545333862,1,3.653700351715088,1,-3.538900137,1,0.4518251419067383,1,-0.308376372,1,-0.669102609,1,-9.369475365,1,0.086436749,1,-1.176153183,1
2.151993513,-12.72175884,1,-3.763024807,1,-9.681674957,1,0.6090728640556335,1,3.631489992141724,1,-3.48199892,1,0.4561385214328766,1,-0.289123178,1,-0.675625741,1,-9.933317184,1,0.3661823272705078,1,-1.265860558,1
2.155991316,-13.084939,1,-3.712084532,1,-9.817631721,1,0.6229797005653381,1,3.608911752700806,1,-3.418709755,1,0.4603187441825867,1,-0.270021081,1,-0.68184495,1,-10.47606277,1,0.4751670360565186,1,-1.372966766,1
2.159990788,-13.4591589,1,-3.860421419,1,-9.847584724,1,0.6427485942840576,1,3.600178480148315,1,-3.34320879,1,0.4643581807613373,1,-0.251079559,1,-0.68772614,1,-11.02927876,1,0.3822791576385498,1,-1.377236366,1
2.163992167,-13.88977909,1,-4.110326767,1,-9.645733833,1,0.64702493,1,3.594248056411743,1,-3.257334948,1,0.4682549834251404,1,-0.232301086,1,-0.693217635,1,-11.63821507,1,0.1851868629455566,1,-1.152759552,1
2.167989492,-14.18933964,1,-4.274479389,1,-9.416235924,1,0.6258432865142822,1,3.595644950866699,1,-3.160542965,1,0.4719215631484985,1,-0.213665918,1,-0.698275089,1,-12.11551571,1,0.070468426,1,-0.903166771,1
2.171988964,-14.31487274,1,-4.349220753,1,-9.233305931,1,0.5798961520195007,1,3.595681190490723,1,-3.063227177,1,0.4752751886844635,1,-0.195180103,1,-0.702885509,1,-12.41807652,1,0.041046143,1,-0.702222824,1
2.175990343,-14.46137714,1,-4.357295036,1,-8.91590786,1,0.5167574286460876,1,3.591218948364258,1,-2.969267845,1,0.4782494306564331,1,-0.176867545,1,-0.70707655,1,-12.74058819,1,0.073568821,1,-0.368515015,1
2.179987907,-14.64665318,1,-4.268436909,1,-8.555078506,1,0.4481640458106995,1,3.569582701,1,-2.877210617,1,0.4808171391487122,1,-0.158758461,1,-0.710897088,1,-13.10048389,1,0.1980419158935547,1,0.007137299,1
2.183987141,-14.71042538,1,-4.142790794,1,-8.138813019,1,0.3810218572616577,1,3.538508415222168,1,-2.778982639,1,0.4829971492290497,1,-0.140905187,1,-0.714366138,1,-13.33690453,1,0.3544497489929199,1,0.4367303848266602,1
2.18798852,-15.23714733,1,-3.479111195,1,-7.686620712,1,0.332956076,1,3.492742538452148,1,-2.696280956,1,0.4848427176475525,1,-0.123361133,1,-0.717536569,1,-14.03371239,1,1.044482707977295,1,0.9006071090698242,1
2.191985846,-15.64293289,1,-2.850854158,1,-7.066428185,1,0.3062351047992706,1,3.429300308227539,1,-2.62365818,1,0.4864574372768402,1,-0.106161237,1,-0.720507741,1,-14.60660744,1,1.695605516433716,1,1.530511856079102,1
2.195985079,-15.83338833,1,-2.537531614,1,-6.149391174,1,0.303800642,1,3.357012748718262,1,-2.539210796,1,0.4879464209079742,1,-0.089324147,1,-0.723302007,1,-14.96094513,1,2.029257535934448,1,2.454964637756348,1
2.199986458,-15.65429115,1,-2.247951746,1,-5.194717884,1,0.311601996,1,3.257301330566406,1,-2.439420223,1,0.4893757104873657,1,-0.072968103,1,-0.725884616,1,-14.94128418,1,2.337226629257202,1,3.414547443389893,1
2.203983784,-15.69792366,1,-1.67150557,1,-4.328721046,1,0.3183194994926453,1,3.126012563705444,1,-2.335381508,1,0.4907984435558319,1,-0.057194911,1,-0.728299856,1,-15.13885307,1,2.930644989013672,1,4.282858848571777,1
2.207983017,-15.66046429,1,-1.078052998,1,-3.515990257,1,0.3442654013633728,1,2.956798553466797,1,-2.21147871,1,0.4922283589839935,1,-0.042179465,1,-0.730578363,1,-15.24806404,1,3.539853572845459,1,5.095428466796875,1
2.211984634,-15.68956184,1,-0.244466871,1,-2.755612373,1,0.3983149230480194,1,2.752477407455444,1,-2.080143213,1,0.493793398,1,-0.028054835,1,-0.732742429,1,-15.4152174,1,4.389210224151611,1,5.852839469909668,1
2.215982199,-15.66258907,1,0.674936831,1,-1.968437672,1,0.4717203974723816,1,2.524334669113159,1,-1.938929677,1,0.4955742061138153,1,-0.01494745,1,-0.73480165,1,-15.51640606,1,5.325246810913086,1,6.634172916412354,1
2.219987392,-15.67594624,1,1.296021699905396,1,-1.272171497,1,0.5385480523109436,1,2.273867607116699,1,-1.781951189,1,0.4976114332675934,1,-0.002957959,1,-0.736774504,1,-15.64701653,1,5.964347839355469,1,7.321868419647217,1
2.22398901,-15.58982182,1,1.799932479858398,1,-0.625445485,1,0.5763515830039978,1,1.997121691703796,1,-1.617639303,1,0.4998426735401154,1,0.007805263,1,-0.738651752,1,-15.66615772,1,6.487301349639893,1,7.957935333251953,1
2.227986336,-15.63810825,1,2.204495668411255,1,-0.076283962,1,0.5758058428764343,1,1.692460179328918,1,-1.442911386,1,0.5021313428878784,1,0.017226387,1,-0.74047029,1,-15.80657673,1,6.910942077636719,1,8.495335578918457,1
2.231985569,-15.88284874,1,2.639393568,1,0.3345050513744354,1,0.5434287786483765,1,1.383791446685791,1,-1.274273515,1,0.504339874,1,0.025245709,1,-0.742259204,1,-16.12973022,1,7.363952637,1,8.894249916,1
2.235987186,-16.40142441,1,3.217421531677246,1,0.6342049837112427,1,0.4779072403907776,1,1.086915373802185,1,-1.116895556,1,0.5063294768333435,1,0.031874243,1,-0.744044244,1,-16.71310616,1,7.958104133605957,1,9.182913780212402,1
2.239984751,-16.85540199,1,3.696393966674805,1,0.835885763,1,0.3775273263454437,1,0.8102169036865234,1,-0.979461074,1,0.5079887509346008,1,0.037219789,1,-0.745867848,1,-17.21933365,1,8.450376510620117,1,9.375137329101563,1
2.243984222,-17.11559105,1,3.952996730804443,1,1.034230828285217,1,0.2443189322948456,1,0.5508858561515808,1,-0.846455514,1,0.5091603994369507,1,0.041377887,1,-0.747732401,1,-17.52015877,1,8.716201782226563,1,9.566514015197754,1
2.247985363,-17.06308937,1,3.971128940582275,1,1.240864396095276,1,0.056674819,1,0.3015753030776978,1,-0.713862181,1,0.5096745491027832,1,0.044392694,1,-0.74962467,1,-17.49711418,1,8.738103866577148,1,9.769591331481934,1
2.251982689,-16.75540924,1,3.916781663894653,1,1.330567002296448,1,-0.166032284,1,0.053575106,1,-0.579700291,1,0.5093755722045898,1,0.046285164,1,-0.751539469,1,-17.20792389,1,8.680797576904297,1,9.859989166259766,1
2.255982161,-16.38277817,1,3.931829929351807,1,1.237865328788757,1,-0.400519937,1,-0.206607178,1,-0.432603866,1,0.5081542730331421,1,0.047009554,1,-0.753451526,1,-16.84236908,1,8.685264587402344,1,9.772809028625488,1
2.259983301,-16.32285309,1,4.158028602600098,1,0.9371407628059387,1,-0.602313638,1,-0.464067072,1,-0.292556614,1,0.5060453414916992,1,0.046545841,1,-0.755362391,1,-16.77791405,1,8.893557548522949,1,9.482278823852539,1
2.263980865,-16.52024078,1,4.508944034576416,1,0.4534470736980438,1,-0.775028706,1,-0.704470515,1,-0.161640286,1,0.503203273,1,0.0449293,1,-0.75727731,1,-16.9595089,1,9.220513343811035,1,9.012637138366699,1
2.267980337,-16.70150948,1,4.689664363861084,1,0.048319723,1,-0.920229316,1,-0.895064831,1,-0.040906325,1,0.4997295141220093,1,0.042315848,1,-0.759181738,1,-17.115242,1,9.372008323669434,1,8.624806404,1
2.271981478,-16.41594505,1,4.485169410705566,1,-0.243134931,1,-1.046958089,1,-1.049025893,1,0.098620832,1,0.4957202970981598,1,0.038846981,1,-0.760936737,1,-16.79578018,1,9.133746147155762,1,8.353267669677734,1
2.275979042,-15.97018814,1,4.038332939147949,1,-0.530463696,1,-1.143161178,1,-1.201526046,1,0.2413533329963684,1,0.4912755787372589,1,0.034564637,1,-0.762464821,1,-16.30816841,1,8.649379730224609,1,8.087869644165039,1
2.279978275,-15.36034107,1,3.571249961853027,1,-0.973546386,1,-1.215487003,1,-1.357123256,1,0.4010753333568573,1,0.4865095317363739,1,0.029453112,1,-0.763735175,1,-15.64835548,1,8.141916275024414,1,7.668076992034912,1
2.283979416,-14.98883629,1,3.233536482,1,-1.71017611,1,-1.255699277,1,-1.516330957,1,0.5806996822357178,1,0.4815206825733185,1,0.02346269,1,-0.764669359,1,-15.21828461,1,7.761754035949707,1,6.955519199371338,1
2.28797698,-15.15506458,1,2.963653326034546,1,-2.43723464,1,-1.268713713,1,-1.651736736,1,0.7516554594039917,1,0.4764445424079895,1,0.016610418,1,-0.765229046,1,-15.31750965,1,7.448438644,1,6.252524375915527,1
2.291976452,-15.34758186,1,2.492248296737671,1,-3.139580965,1,-1.248005986,1,-1.756465554,1,0.9295696616172791,1,0.4714005887508392,1,0.008998292,1,-0.765348434,1,-15.43558502,1,6.933578491210938,1,5.573537826538086,1
2.295977831,-15.56470966,1,2.091859817504883,1,-3.817969322,1,-1.200807333,1,-1.816528797,1,1.101585149765015,1,0.466493696,1,0.000769317,1,-0.764957249,1,-15.57223415,1,6.490560054779053,1,4.917189598083496,1
2.299981117,-15.0522871,1,1.304092884063721,1,-4.877429008,1,-1.149743438,1,-1.841109514,1,1.231411933898926,1,0.4617904126644135,1,-0.007888637,1,-0.76404804,1,-14.9751358,1,5.661526679992676,1,3.878053665161133,1
2.30398035,15.91846656799316,1,-15.88264561,1,-29.30208206,1,-1.335638046,1,-2.706303596,1,2.437624216079712,1,0.4566017091274261,1,-0.018320946,1,-0.761822343,1,16.09763908,1,-11.57128906,1,-20.5253067,1
2.30798173,20.05968475341797,1,-8.467495918,1,-18.65800476,1,-1.2647717,1,-3.131441355,1,2.586566448,1,0.4520096480846405,1,-0.034350835,1,-0.757664323,1,20.39557456970215,1,-4.198291779,1,-9.865241051,1
2.311979294,33.46458435058594,1,-27.45959854,1,-19.55596542,1,-1.62081933,1,-2.812452555,1,2.698715925216675,1,0.4457538723945618,1,-0.04929563,1,-0.753469765,1,33.94651031494141,1,-23.24811745,1,-10.74217796,1
2.315978527,24.76396369934082,1,-22.51451302,1,-20.36607361,1,-1.385641813,1,-3.034160614,1,3.167459249,1,0.4393559694290161,1,-0.064828351,1,-0.747757137,1,25.39755249023438,1,-18.3631916,1,-11.53336334,1
2.319980145,20.58301734924316,1,-8.757771492,1,-8.873941422,1,-1.269856811,1,-3.750348091,1,3.404337167739868,1,0.4336775839328766,1,-0.082554363,1,-0.741500795,1,21.38949584960938,1,-4.662035942,1,-0.029382706,1
2.32397747,6.413023948669434,1,2.446118116378784,1,0.1305450201034546,1,-1.198901176,1,-4.870598793,1,3.678002119064331,1,0.4282429218292236,1,-0.104116671,1,-0.735775828,1,7.429463386535645,1,6.485564231872559,1,8.979351997375488,1
2.327976704,-11.63145447,1,9.102264404296875,1,0.011984634,1,-1.117861509,1,-5.661364079,1,3.488122463226318,1,0.4230754971504211,1,-0.129424796,1,-0.73132205,1,-10.36918926,1,13.08409118652344,1,8.855252265930176,1
2.331978083,-22.96475792,1,6.637775897979736,1,-7.257997036,1,-1.099923968,1,-5.799785137,1,2.926290273666382,1,0.4182632863521576,1,-0.155767396,1,-0.728927255,1,-21.44747925,1,10.56213092803955,1,1.570874691009521,1
