Time,inertial-6253.76535:estCompensatedAccelX,inertial-6253.76535:estCompensatedAccelX:valid,inertial-6253.76535:estCompensatedAccelY,inertial-6253.76535:estCompensatedAccelY:valid,inertial-6253.76535:estCompensatedAccelZ,inertial-6253.76535:estCompensatedAccelZ:valid,inertial-6253.76535:estAngularRateX,inertial-6253.76535:estAngularRateX:valid,inertial-6253.76535:estAngularRateY,inertial-6253.76535:estAngularRateY:valid,inertial-6253.76535:estAngularRateZ,inertial-6253.76535:estAngularRateZ:valid,inertial-6253.76535:estRoll,inertial-6253.76535:estRoll:valid,inertial-6253.76535:estPitch,inertial-6253.76535:estPitch:valid,inertial-6253.76535:estYaw,inertial-6253.76535:estYaw:valid
0,-5.057314396,1,-1.591580033,1,-8.351147652,1,0.003664246,1,0.004290046,1,0.0040653,1,0.186668813,1,-0.527138829,1,-0.275163114,1
0.003997952,-5.023054123,1,-1.548886061,1,-8.312999725,1,0.010429451,1,0.001782738,1,0.008064819,1,0.186684117,1,-0.527130187,1,-0.275130451,1
0.00799744,-5.00385952,1,-1.580947042,1,-8.293381691,1,0.012377399,1,-0.001150538,1,0.006830252,1,0.186711103,1,-0.527128577,1,-0.275099009,1
0.011999232,-5.019365788,1,-1.593442321,1,-8.307353973,1,0.013439227,1,0.004408929,1,0.00703038,1,0.186740443,1,-0.527130544,1,-0.275066555,1
0.015996927,-4.936804295,1,-1.587363601,1,-8.276984215,1,0.011674616,1,0.000777643,1,0.00557658,1,0.186782226,1,-0.527127147,1,-0.27504164,1
0.020002816,-4.953103065,1,-1.614411354,1,-8.282590866,1,0.010713912,1,-0.001884544,1,0.004755835,1,0.186819077,1,-0.527130127,1,-0.275019228,1
0.024004864,-4.984112263,1,-1.597005606,1,-8.305273056,1,0.009351678,1,-0.001293346,1,0.005354107,1,0.186845109,1,-0.527139604,1,-0.274990559,1
0.028002815,-4.941330433,1,-1.58616662,1,-8.324342728,1,0.009010883,1,-0.001937941,1,0.000269009,1,0.186891466,1,-0.52714026,1,-0.274989873,1
0.032002561,-4.941000938,1,-1.525748849,1,-8.334073067,1,0.009246301,1,-0.003472324,1,0.001034712,1,0.186921015,1,-0.527146161,1,-0.274979949,1
0.036004353,-4.943565845,1,-1.521435976,1,-8.314561844,1,0.007269421,1,-0.001018321,1,-0.003412069,1,0.186958194,1,-0.527152479,1,-0.274982572,1
0.040002305,-4.982672691,1,-1.565455556,1,-8.351776123,1,0.00808972,1,-0.003254033,1,0.00140901,1,0.186993822,1,-0.527154803,1,-0.274987459,1
0.044002049,-4.939184666,1,-1.604024768,1,-8.306899071,1,0.001999852,1,-0.0019583,1,-0.00206308,1,0.187023208,1,-0.527154028,1,-0.274994552,1
0.048003841,-4.992751598,1,-1.597854972,1,-8.36256218,1,0.004492856,1,0.000717017,1,-0.001879477,1,0.187038243,1,-0.527162194,1,-0.274999022,1
0.052001793,-4.992712975,1,-1.569877267,1,-8.339661598,1,0.001700098,1,-0.008392602,1,-0.002044901,1,0.187053889,1,-0.527169406,1,-0.275009513,1
0.056001537,-4.998078823,1,-1.57111907,1,-8.315590858,1,-0.000629939,1,-0.00349183,1,-0.004035883,1,0.187063649,1,-0.527180135,1,-0.275025904,1
0.060003072,-5.008038521,1,-1.563436508,1,-8.317296028,1,-0.001963558,1,-0.001700643,1,-0.003229075,1,0.18706347,1,-0.527184665,1,-0.275034368,1
0.064001024,-5.000308037,1,-1.567329764,1,-8.346801758,1,-0.007273091,1,0.000288432,1,-0.000904799,1,0.187053949,1,-0.527190983,1,-0.275054336,1
0.068000771,-4.969018459,1,-1.578038692,1,-8.3270998,1,-0.002793249,1,0.00288587,1,0.000705118,1,0.187039658,1,-0.52718848,1,-0.275055677,1
0.072002307,-5.026060104,1,-1.645638585,1,-8.334701538,1,-0.005223761,1,-0.002269261,1,0.002588093,1,0.187017381,1,-0.527192354,1,-0.27505219,1
0.075999998,-5.03977108,1,-1.627294898,1,-8.325534821,1,-0.001391873,1,-0.002191466,1,0.006414732,1,0.186996415,1,-0.527230382,1,-0.275523186,1
0.079999492,-5.037957668,1,-1.594104767,1,-8.275611877,1,0.001590055,1,-0.000921506,1,0.005326041,1,0.186970785,1,-0.527247608,1,-0.275488913,1
0.08400128,-4.999593258,1,-1.59862113,1,-8.316165924,1,0.000261815,1,0.001347083,1,0.008265913,1,0.186958998,1,-0.527258873,1,-0.275462151,1
0.087998979,-4.995399475,1,-1.544379354,1,-8.315609932,1,-0.001105166,1,0.001999845,1,0.009640219,1,0.186931759,1,-0.527258098,1,-0.275420278,1
0.091998719,-4.998403549,1,-1.567029715,1,-8.291215897,1,-0.001383959,1,-0.00297117,1,0.006675451,1,0.186911225,1,-0.527261376,1,-0.275386035,1
0.096000515,-5.060128689,1,-1.588365793,1,-8.301250458,1,0.004756736,1,0.004904937,1,0.009150481,1,0.186906084,1,-0.527259827,1,-0.275359601,1
0.099998206,-5.067483902,1,-1.544245839,1,-8.293465614,1,0.003562317,1,0.002405545,1,0.010192947,1,0.186899036,1,-0.527254999,1,-0.275314212,1
0.103997692,-5.033389091,1,-1.551426411,1,-8.292830467,1,0.002230252,1,0.002372911,1,0.014734427,1,0.186891258,1,-0.52725625,1,-0.275255769,1
0.107999489,-5.037075043,1,-1.554983258,1,-8.306585312,1,0.008532441,1,0.001459447,1,0.006921453,1,0.186888799,1,-0.527252853,1,-0.275208294,1
0.111997187,-4.970102787,1,-1.569687128,1,-8.314992905,1,0.008772588,1,0.007312382,1,0.011024,1,0.186902493,1,-0.52724582,1,-0.275167733,1
0.115996927,-4.998680592,1,-1.589491129,1,-8.267995834,1,0.005777843,1,0.00157371,1,0.008087421,1,0.186913535,1,-0.527241468,1,-0.275126934,1
0.119998723,-4.980546474,1,-1.646943927,1,-8.293617249,1,0.009079307,1,0.002296926,1,0.006419102,1,0.186918423,1,-0.527234435,1,-0.275086373,1
0.123996414,-4.994503021,1,-1.612216353,1,-8.3139534,1,0.006902427,1,0.003528358,1,0.008793607,1,0.186929837,1,-0.527228832,1,-0.275047362,1
0.127996162,-4.977429867,1,-1.604678392,1,-8.304012299,1,0.00733193,1,0.004557548,1,0.013060754,1,0.186928555,1,-0.527211308,1,-0.274992526,1
0.131997958,-4.961023331,1,-1.58210516,1,-8.321374893,1,0.006510024,1,0.006519242,1,0.013183439,1,0.186925843,1,-0.527199268,1,-0.274926364,1
0.135995641,-5.068225384,1,-1.594308376,1,-8.290730476,1,0.008744915,1,0.009061271,1,0.016203992,1,0.186928511,1,-0.527179956,1,-0.274858296,1
0.140001535,-5.057199001,1,-1.558940411,1,-8.304070473,1,0.009220441,1,0.007168345,1,0.014417579,1,0.186919227,1,-0.527162313,1,-0.274785966,1
0.144003332,-4.990799427,1,-1.553302884,1,-8.29043293,1,0.010970665,1,0.013462055,1,0.016932137,1,0.186914489,1,-0.527124822,1,-0.274707079,1
0.148001283,-4.991674423,1,-1.56452024,1,-8.301579475,1,0.009989672,1,0.009182923,1,0.011241775,1,0.186912224,1,-0.527100444,1,-0.274637371,1
0.15200077,-4.943628311,1,-1.56861496,1,-8.317835808,1,0.00729519,1,0.006590621,1,0.01134604,1,0.186910316,1,-0.527064323,1,-0.274573177,1
0.156002298,-4.961601257,1,-1.533801913,1,-8.272813797,1,0.003703292,1,0.010926207,1,0.010322088,1,0.186895207,1,-0.527042806,1,-0.274512738,1
0.16000025,-4.98340559,1,-1.579871297,1,-8.293292046,1,0.002479877,1,0.004073109,1,0.014037715,1,0.186876819,1,-0.527022123,1,-0.27444613,1
0.163999751,-4.928020954,1,-1.556915641,1,-8.29763031,1,0.00033305,1,0.005382209,1,0.010690732,1,0.186851501,1,-0.527008235,1,-0.274389625,1
0.168001279,-4.969307899,1,-1.590905309,1,-8.312680244,1,-0.002030109,1,0.008267491,1,0.010991883,1,0.18682839,1,-0.526988149,1,-0.274338782,1
0.171999231,-4.941058636,1,-1.586268425,1,-8.343460083,1,-0.00211133,1,0.00662953,1,0.009360244,1,0.186798722,1,-0.526955307,1,-0.274291039,1
0.175998718,-4.954623222,1,-1.602704525,1,-8.332871437,1,-0.008446965,1,0.007444371,1,0.007191392,1,0.186753184,1,-0.526934981,1,-0.274247915,1
0.180000514,-4.981771946,1,-1.611240983,1,-8.326854706,1,-0.008907293,1,0.005255759,1,0.00708553,1,0.186703309,1,-0.526921928,1,-0.274202406,1
0.183998466,-4.97784996,1,-1.615746021,1,-8.346752167,1,-0.010587476,1,0.004930882,1,0.011113634,1,0.186637238,1,-0.526909292,1,-0.274152756,1
0.187997952,-4.947010517,1,-1.609122515,1,-8.315084457,1,-0.013486738,1,0.001383849,1,0.010212054,1,0.186545312,1,-0.526896596,1,-0.274098366,1
0.191999748,-4.961938381,1,-1.599117041,1,-8.359521866,1,-0.010482543,1,0.000536992,1,0.009640209,1,0.186476648,1,-0.526897311,1,-0.274049342,1
0.195997447,-4.988914013,1,-1.54657352,1,-8.338284492,1,-0.01238401,1,0.000342062,1,0.009478018,1,0.186415181,1,-0.526899934,1,-0.274018854,1
0.199996933,-4.983359814,1,-1.552316308,1,-8.338043213,1,-0.012980741,1,-0.002799154,1,0.012027042,1,0.186346203,1,-0.526909232,1,-0.273978621,1
0.203998715,-4.971311569,1,-1.518836975,1,-8.356012344,1,-0.008385951,1,0.002055934,1,0.011990461,1,0.186283723,1,-0.526921809,1,-0.273919582,1
0.207996413,-5.023593903,1,-1.539640903,1,-8.32464695,1,0.004863368,1,-0.004599754,1,0.010570392,1,0.186241224,1,-0.526938558,1,-0.273864418,1
0.211996153,-5.0191679,1,-1.547536492,1,-8.313960075,1,0.004738055,1,0.000108639,1,0.015062181,1,0.186225101,1,-0.526957929,1,-0.273800611,1
0.215997949,-5.044893265,1,-1.44642067,1,-8.304913521,1,0.011200853,1,0.001137177,1,0.01808745,1,0.186228037,1,-0.526970327,1,-0.273741245,1
0.219995648,-4.97291851,1,-1.475703239,1,-8.305477142,1,0.012341587,1,-0.000422824,1,0.007478959,1,0.186239064,1,-0.526983142,1,-0.273681283,1
0.223995388,-4.970984936,1,-1.461660504,1,-8.326709747,1,0.01887537,1,-0.000467792,1,0.007968072,1,0.186285183,1,-0.52698344,1,-0.273641407,1
0.22799693,-4.974890709,1,-1.46935153,1,-8.313119888,1,0.017926663,1,-0.003659444,1,0.010269566,1,0.186338708,1,-0.526998878,1,-0.273610085,1
0.231994629,-4.971441269,1,-1.516211271,1,-8.345932961,1,0.021450952,1,-0.003783676,1,0.002141716,1,0.186403707,1,-0.527010441,1,-0.27358526,1
0.235994369,-4.990973949,1,-1.549655437,1,-8.33028698,1,0.019595865,1,-0.001001169,1,-0.000993764,1,0.186471656,1,-0.527025163,1,-0.273568511,1
0.239995897,-5.043588638,1,-1.552891254,1,-8.29520607,1,0.018355643,1,-0.003076401,1,-0.000525382,1,0.186552331,1,-0.52703315,1,-0.273562878,1
0.243993849,-4.991204262,1,-1.503970861,1,-8.33426857,1,0.018216718,1,-2.25E-05,1,-0.002034372,1,0.18663691,1,-0.527044296,1,-0.273566902,1
0.247993603,-5.0249753,1,-1.509260774,1,-8.322689056,1,0.018963292,1,-0.005437655,1,-0.005198319,1,0.186730281,1,-0.527054608,1,-0.273581982,1
0.251995146,-5.025246143,1,-1.490793824,1,-8.349365234,1,0.017524503,1,-0.001166494,1,-0.006724392,1,0.186824575,1,-0.527067065,1,-0.273611009,1
0.255993098,-4.981267929,1,-1.53320682,1,-8.300269127,1,0.021184688,1,-0.001851414,1,-0.005961876,1,0.186914966,1,-0.527064443,1,-0.273649782,1
0.259998977,-4.956572533,1,-1.578534126,1,-8.307217598,1,0.014858127,1,-0.004788033,1,-0.005430393,1,0.187002316,1,-0.527065873,1,-0.273673534,1
0.264000773,-4.981062889,1,-1.599992871,1,-8.31733799,1,0.009514328,1,-0.002427248,1,-0.005898179,1,0.187081099,1,-0.527070463,1,-0.273712456,1
0.267998725,-4.976850986,1,-1.606185555,1,-8.304229736,1,0.010159467,1,-0.000453566,1,-0.002576175,1,0.187133372,1,-0.527074099,1,-0.273740917,1
0.271998197,-4.951557636,1,-1.61585629,1,-8.296682358,1,0.003755751,1,-0.002704126,1,-0.005654916,1,0.18717435,1,-0.527073145,1,-0.273758948,1
0.275999993,-4.984543324,1,-1.601450682,1,-8.29042244,1,0.005536831,1,0.00101146,1,-0.003225724,1,0.187193111,1,-0.52707237,1,-0.273772389,1
0.279997706,-5.008923531,1,-1.607303023,1,-8.287975311,1,-0.002834405,1,0.000479554,1,-0.002927258,1,0.187201813,1,-0.527065754,1,-0.273792028,1
0.283997446,-5.010485649,1,-1.622175694,1,-8.293111801,1,-0.0048151,1,-0.000156622,1,-0.003914854,1,0.187201813,1,-0.527064204,1,-0.273807764,1
0.287999243,-4.99008894,1,-1.623087764,1,-8.316984177,1,-0.00311299,1,0.003116937,1,-0.002310031,1,0.18718031,1,-0.52705425,1,-0.273815215,1
0.291997194,-5.038428307,1,-1.656198502,1,-8.310591698,1,-0.000889415,1,0.001796176,1,0.003299505,1,0.187170923,1,-0.527045429,1,-0.273808032,1
0.295996666,-5.066991329,1,-1.618673921,1,-8.306759834,1,0.003910943,1,0.00355457,1,0.004882845,1,0.187164217,1,-0.527033508,1,-0.273779452,1
0.299998462,-5.070807457,1,-1.600663304,1,-8.315169334,1,0.008844822,1,0.002343954,1,0.008817418,1,0.187174842,1,-0.527022481,1,-0.273741126,1
0.303996146,-5.022803783,1,-1.584562659,1,-8.319243431,1,0.011636854,1,0.002449225,1,0.004525042,1,0.187194705,1,-0.527008593,1,-0.273701698,1
0.307996154,-4.971968651,1,-1.648634791,1,-8.300365448,1,0.008393604,1,0.003137005,1,0.008488908,1,0.187213331,1,-0.52699852,1,-0.273662508,1
0.31199795,-4.978470325,1,-1.691366792,1,-8.309747696,1,0.011959842,1,0.008748238,1,0.01251258,1,0.187223271,1,-0.526985168,1,-0.273613214,1
0.315995634,-5.058166504,1,-1.677761436,1,-8.342788696,1,0.011652735,1,0.009599055,1,0.014181217,1,0.187233403,1,-0.526969612,1,-0.273543805,1
0.319995403,-5.082929611,1,-1.633277297,1,-8.318135262,1,0.012116712,1,0.006950446,1,0.016137287,1,0.18724595,1,-0.526953042,1,-0.273468405,1
0.32399717,-5.025959015,1,-1.561379194,1,-8.331036568,1,0.015842224,1,0.007322464,1,0.018859409,1,0.187264845,1,-0.526996374,1,-0.273397595,1
0.327994883,-5.084936142,1,-1.541337252,1,-8.407230377,1,0.018570114,1,0.002187385,1,0.00909273,1,0.187284112,1,-0.526950717,1,-0.273807824,1
0.331994623,-4.963424206,1,-1.545116901,1,-8.339137077,1,0.016038336,1,0.012956548,1,0.010826191,1,0.187324166,1,-0.526931226,1,-0.273748338,1
0.335996151,-5.050733566,1,-1.5754354,1,-8.291003227,1,0.018515281,1,0.011451366,1,0.006898509,1,0.187366992,1,-0.52689743,1,-0.273695827,1
0.339994103,-4.87918663,1,-1.598043203,1,-8.276860237,1,0.019453108,1,0.006617279,1,0.004049096,1,0.187427938,1,-0.526868939,1,-0.273663074,1
0.343993843,-4.874157906,1,-1.560747027,1,-8.369175911,1,0.015743069,1,-0.000406188,1,0.005070781,1,0.187486321,1,-0.526859641,1,-0.273637652,1
0.3479954,-4.94608593,1,-1.548555136,1,-8.352399826,1,0.017463066,1,0.004688214,1,0.003517748,1,0.187537655,1,-0.526856422,1,-0.273613751,1
0.351993352,-4.876564026,1,-1.549396515,1,-8.303730965,1,0.015509552,1,0.001560168,1,-0.001036504,1,0.187590241,1,-0.526851177,1,-0.273597658,1
0.355993092,-5.001777172,1,-1.555083275,1,-8.305909157,1,0.013883463,1,-0.005777285,1,0.000322343,1,0.187644497,1,-0.526856005,1,-0.273593664,1
0.35999462,-4.972145557,1,-1.529661179,1,-8.329511642,1,0.010011446,1,-0.001753864,1,-0.005361679,1,0.187696174,1,-0.526870251,1,-0.273597032,1
0.363992572,-4.93585825,1,-1.54496479,1,-8.310371399,1,0.01278385,1,-0.000252075,1,-0.005074436,1,0.187757224,1,-0.52688247,1,-0.273620814,1
0.367992073,-4.951694965,1,-1.564485788,1,-8.33163166,1,0.010670654,1,-0.007216361,1,-0.004534413,1,0.187816188,1,-0.526900172,1,-0.273637474,1
0.37199387,-4.975130081,1,-1.57111311,1,-8.28771019,1,0.011366691,1,-0.003659398,1,0.002036991,1,0.187864035,1,-0.526923239,1,-0.27364403,1
0.375991553,-5.003236294,1,-1.535602212,1,-8.303006172,1,0.011113196,1,-0.002931642,1,-0.001706646,1,0.187911361,1,-0.52694273,1,-0.273653746,1
0.379997194,-5.01496315,1,-1.546674013,1,-8.297391891,1,0.009370665,1,-0.002306304,1,-0.004458332,1,0.187955678,1,-0.526958704,1,-0.27366972,1
0.38399899,-4.968626499,1,-1.538170576,1,-8.309581757,1,0.007802107,1,-0.002404122,1,0.002854134,1,0.187995434,1,-0.526973128,1,-0.273682714,1
0.387996674,-4.963858128,1,-1.565150261,1,-8.304227829,1,0.008359998,1,-0.00578797,1,0.001522328,1,0.188031808,1,-0.526985168,1,-0.273689449,1
0.391996145,-4.988181114,1,-1.647057295,1,-8.298974991,1,0.000315421,1,-0.003368919,1,0.000491027,1,0.188055933,1,-0.527003765,1,-0.273697615,1
0.395997941,-4.980103493,1,-1.646712422,1,-8.297049522,1,-0.001960592,1,-0.00347766,1,-0.000405389,1,0.188057929,1,-0.5270226,1,-0.273697287,1
0.399995655,-5.011191845,1,-1.59749341,1,-8.25997448,1,-0.004730177,1,-0.004594352,1,0.002060184,1,0.188040748,1,-0.527032316,1,-0.273692042,1
0.403995395,-4.99139595,1,-1.593200445,1,-8.252632141,1,-0.00676367,1,-0.000579504,1,0.000441172,1,0.188006788,1,-0.527046859,1,-0.273682714,1
0.407997191,-4.988001347,1,-1.532670021,1,-8.287881851,1,-0.009366588,1,-0.004763956,1,-0.000640766,1,0.187971666,1,-0.527058423,1,-0.27367568,1
0.411995143,-4.999983311,1,-1.533077002,1,-8.313814163,1,-0.012816085,1,-0.001476401,1,0.003052421,1,0.187932864,1,-0.527060747,1,-0.273681521,1
0.415994883,-4.990667343,1,-1.530867815,1,-8.262548447,1,-0.013743992,1,0.000377183,1,-0.00148387,1,0.187874064,1,-0.52706176,1,-0.273677766,1
0.419996679,-4.963904381,1,-1.563261271,1,-8.300191879,1,-0.013976707,1,-0.001417201,1,-0.00360482,1,0.187815174,1,-0.527062356,1,-0.27368781,1
0.423994362,-4.985879898,1,-1.558921695,1,-8.312755585,1,-0.022124339,1,0.002605714,1,-0.005446068,1,0.187758788,1,-0.527064323,1,-0.273705304,1
0.427994102,-5.000822544,1,-1.619724393,1,-8.293364525,1,-0.017265975,1,0.002193811,1,0.002353161,1,0.187684894,1,-0.527053058,1,-0.273706913,1
0.431995898,-5.01565218,1,-1.611021519,1,-8.304796219,1,-0.016029363,1,0.004017382,1,-0.000778169,1,0.187610984,1,-0.527047873,1,-0.273706049,1
0.43599385,-4.975558281,1,-1.580789089,1,-8.302462578,1,-0.015510866,1,0.000569704,1,0.001127514,1,0.187534988,1,-0.527038574,1,-0.273700625,1
0.439993352,-4.953572273,1,-1.533643961,1,-8.307938576,1,-0.017924529,1,0.001894333,1,0.001971688,1,0.187468261,1,-0.527029574,1,-0.27369076,1
0.44399488,-4.928750515,1,-1.576073647,1,-8.32231617,1,-0.018088527,1,3.54E-05,1,-0.000415646,1,0.187392488,1,-0.527027667,1,-0.273685455,1
0.447992563,-5.033598423,1,-1.673117638,1,-8.372412682,1,-0.010023981,1,0.003128463,1,0.009040251,1,0.187335446,1,-0.52702862,1,-0.273671627,1
0.451992333,-5.107665062,1,-1.599084377,1,-8.381290436,1,-0.0027377,1,-0.002889969,1,0.006694052,1,0.187281936,1,-0.527035832,1,-0.273633033,1
0.455993861,-5.089345455,1,-1.554723024,1,-8.320412636,1,0.004864423,1,-0.000568157,1,0.009377373,1,0.187266514,1,-0.527055323,1,-0.273599893,1
0.459991544,-5.042344093,1,-1.529607177,1,-8.290836334,1,0.009253011,1,-0.003828235,1,0.008149765,1,0.187282577,1,-0.527069271,1,-0.27356723,1
0.463991046,-4.974844933,1,-1.557231903,1,-8.315005302,1,0.010476632,1,-0.002784854,1,0.008982176,1,0.18730171,1,-0.52708751,1,-0.273535818,1
0.467992842,-4.955352306,1,-1.599812269,1,-8.293830872,1,0.011264031,1,-0.003656183,1,0.008602259,1,0.187320128,1,-0.527108729,1,-0.273490131,1
0.471990526,-4.947686195,1,-1.621778011,1,-8.30008316,1,0.011977476,1,-0.006181304,1,0.009406607,1,0.187348366,1,-0.527131259,1,-0.273462266,1
0.475990266,-4.952558041,1,-1.680564404,1,-8.268868446,1,0.004289723,1,-0.004878039,1,0.006460313,1,0.187360868,1,-0.527152658,1,-0.273434192,1
0.479992062,-4.964550018,1,-1.618441701,1,-8.266282082,1,0.004356741,1,-0.007734097,1,0.004421537,1,0.187368244,1,-0.527170599,1,-0.273410261,1
0.483989745,-4.950677872,1,-1.56822598,1,-8.269639015,1,0.004246523,1,-0.001996868,1,0.008034356,1,0.187369153,1,-0.52718544,1,-0.273376673,1
0.487989247,-4.954010487,1,-1.539824128,1,-8.293487549,1,0.001224872,1,-0.001526843,1,0.004389265,1,0.187370405,1,-0.527205646,1,-0.273355484,1
0.491991043,-4.983917713,1,-1.490092039,1,-8.284575462,1,0.004291659,1,-0.004063453,1,0.000278879,1,0.187378317,1,-0.527227879,1,-0.273358792,1
0.495988995,-4.960445404,1,-1.491588712,1,-8.307806015,1,0.005124672,1,-0.004414245,1,-0.001406536,1,0.187395632,1,-0.527242839,1,-0.273353159,1
0.499995142,-4.969879627,1,-1.515258312,1,-8.265795708,1,0.002596046,1,-0.002849844,1,-0.000295375,1,0.187404096,1,-0.527254879,1,-0.273355126,1
0.503997207,-4.984735966,1,-1.598461747,1,-8.3161726,1,0.001618666,1,-0.004382092,1,0.003460248,1,0.187404841,1,-0.527270615,1,-0.273355156,1
0.507995129,-4.983430862,1,-1.563209414,1,-8.29744339,1,0.000615721,1,-0.005059979,1,-0.002026472,1,0.187413558,1,-0.527281761,1,-0.2733652,1
0.511994898,-4.951871395,1,-1.5754776,1,-8.270300865,1,-0.003960218,1,-0.005077963,1,4.14E-05,1,0.187414974,1,-0.527293205,1,-0.273379356,1
0.515996695,-4.980321884,1,-1.578653097,1,-8.305738449,1,-0.007143703,1,-0.00327089,1,0.002881997,1,0.187393382,1,-0.527309895,1,-0.273382604,1
0.519994378,-4.988793373,1,-1.579192996,1,-8.347524643,1,-0.00670781,1,-0.001217564,1,-0.004353147,1,0.187374294,1,-0.527318776,1,-0.273385495,1
0.523994088,-5.01162529,1,-1.57869482,1,-8.315635681,1,-0.007293752,1,-0.003043483,1,0.001530493,1,0.187346756,1,-0.527330041,1,-0.273387641,1
0.527995884,-5.003691196,1,-1.582142472,1,-8.319163322,1,-0.006316724,1,-0.004214226,1,0.003676543,1,0.187325478,1,-0.527333796,1,-0.273385257,1
0.531993866,-5.034938335,1,-1.542888641,1,-8.274904251,1,-0.007394677,1,-0.002471159,1,-0.001570691,1,0.187310159,1,-0.527344584,1,-0.273391813,1
0.535993338,-5.011852264,1,-1.546230555,1,-8.312440872,1,-0.00325055,1,-0.002788677,1,-0.00102569,1,0.187290445,1,-0.527352333,1,-0.27339834,1
0.539994895,-4.997024536,1,-1.578827024,1,-8.297921181,1,-0.005516095,1,-0.000521543,1,-0.004987282,1,0.187280655,1,-0.527353168,1,-0.273407578,1
0.543992579,-4.996349335,1,-1.555537105,1,-8.294363022,1,-0.004996273,1,0.001253336,1,0.001436787,1,0.187261283,1,-0.527350962,1,-0.273413092,1
0.547992349,-5.016892433,1,-1.525372863,1,-8.315015793,1,-0.008790076,1,0.00204799,1,-0.003405656,1,0.187241763,1,-0.52734226,1,-0.273415118,1
0.551993847,-5.010349274,1,-1.518856525,1,-8.283891678,1,-0.00936478,1,0.001925032,1,-0.003364456,1,0.187211663,1,-0.527335942,1,-0.27341646,1
0.55599153,-5.017932415,1,-1.509953856,1,-8.343327522,1,-0.004572419,1,0.002076489,1,-0.0008393,1,0.187181562,1,-0.527323306,1,-0.273411483,1
0.559991062,-5.010919571,1,-1.535056353,1,-8.332295418,1,-0.004067498,1,0.000642216,1,-0.004906943,1,0.187169388,1,-0.52731359,1,-0.273417175,1
0.563992858,-4.986115932,1,-1.539744258,1,-8.328351974,1,-0.002698136,1,0.003165134,1,-0.001601157,1,0.187159374,1,-0.527302027,1,-0.273429215,1
0.567990541,-4.990641117,1,-1.545032382,1,-8.297646523,1,-0.010026275,1,0.001238458,1,-0.002462692,1,0.187138736,1,-0.527291179,1,-0.273442268,1
0.571990013,-4.972884178,1,-1.568218589,1,-8.295109749,1,-0.009172145,1,0.001200171,1,-0.000552574,1,0.187105998,1,-0.52727735,1,-0.273448169,1
0.575991809,-4.978054523,1,-1.586939931,1,-8.292468071,1,-0.013760916,1,-0.000380949,1,-0.00524001,1,0.187044173,1,-0.527293801,1,-0.273943961,1
0.579989493,-4.982627392,1,-1.593578219,1,-8.299610138,1,-0.015761055,1,0.004004694,1,-0.001555855,1,0.186993465,1,-0.527275503,1,-0.273957729,1
0.583988965,-4.947223663,1,-1.595316648,1,-8.361124039,1,-0.016810853,1,-0.001247926,1,-0.004703275,1,0.186943799,1,-0.527263463,1,-0.273979515,1
0.587990761,-4.97846508,1,-1.580463648,1,-8.328466415,1,-0.019016763,1,0.001282106,1,-0.003938903,1,0.186882704,1,-0.527252734,1,-0.273999631,1
0.591988504,-4.957546234,1,-1.602498412,1,-8.330509186,1,-0.016398093,1,0.000709695,1,-0.003378951,1,0.186808154,1,-0.527243376,1,-0.274006516,1
0.595988214,-5.03467226,1,-1.601912618,1,-8.319704056,1,-0.017209282,1,0.002278398,1,-0.004346111,1,0.186734334,1,-0.5272367,1,-0.274016321,1
0.59999001,-5.026637554,1,-1.603800535,1,-8.329465866,1,-0.02255219,1,-0.000201332,1,-0.002454543,1,0.186658502,1,-0.527231812,1,-0.274026155,1
0.603987694,-4.966815472,1,-1.588358521,1,-8.323717117,1,-0.024213865,1,0.001810664,1,0.001236267,1,0.186570048,1,-0.527228653,1,-0.274036944,1
0.607987463,-4.94115591,1,-1.641188979,1,-8.360485077,1,-0.022470009,1,0.000355382,1,0.001498043,1,0.186485156,1,-0.527233243,1,-0.27403897,1
0.61198926,-5.007703781,1,-1.705794573,1,-8.390142441,1,-0.015092143,1,0.001455017,1,0.003240798,1,0.186386347,1,-0.527226806,1,-0.274021447,1
0.615987182,-5.075648785,1,-1.670179844,1,-8.358285904,1,-0.012792917,1,-0.000643711,1,0.012792323,1,0.186312199,1,-0.527233422,1,-0.273983061,1
0.619993091,-5.076401234,1,-1.601025224,1,-8.274792671,1,-0.004945856,1,0.001730999,1,0.014923284,1,0.186250374,1,-0.527244508,1,-0.27392602,1
0.623994887,-5.053136826,1,-1.584923148,1,-8.302559853,1,-0.003067904,1,0.000345741,1,0.014919911,1,0.186201572,1,-0.527251422,1,-0.273854256,1
0.627992809,-4.98242569,1,-1.602537751,1,-8.26362896,1,-0.00072861,1,0.002163485,1,0.016826687,1,0.186162591,1,-0.527256668,1,-0.273782283,1
0.63199234,-4.937562943,1,-1.634875417,1,-8.285320282,1,0.000946381,1,0.001019999,1,0.012788294,1,0.186124951,1,-0.52726078,1,-0.273707807,1
0.635994136,-4.946530819,1,-1.636528969,1,-8.292902946,1,-0.001571573,1,0.000974729,1,0.015418082,1,0.186085269,1,-0.527273417,1,-0.273638844,1
0.639992058,-4.957813263,1,-1.633090734,1,-8.284988403,1,-0.002468697,1,0.000359604,1,0.014722561,1,0.186034739,1,-0.527281761,1,-0.273563951,1
0.64399153,-4.974403858,1,-1.53961122,1,-8.283906937,1,-0.006846831,1,0.005881991,1,0.017142715,1,0.185971618,1,-0.527285159,1,-0.273485243,1
0.647993326,-4.974501133,1,-1.534681678,1,-8.275025368,1,-0.0092018,1,0.003101745,1,0.016359465,1,0.185905904,1,-0.527283788,1,-0.273416221,1
0.651991308,-4.962076187,1,-1.508769989,1,-8.309131622,1,-0.006537401,1,0.007194223,1,0.01449188,1,0.185848191,1,-0.527280688,1,-0.273342431,1
0.655990779,-4.994876385,1,-1.515654564,1,-8.285068512,1,-0.006245355,1,0.00594429,1,0.012465725,1,0.185787633,1,-0.527274609,1,-0.273274839,1
0.659992576,-5.003776073,1,-1.483347058,1,-8.282600403,1,-0.006197588,1,0.002369238,1,0.011574611,1,0.185739785,1,-0.52727139,1,-0.273221672,1
0.663990259,-5.009976387,1,-1.526932359,1,-8.313519478,1,-0.006977359,1,0.005005837,1,0.01059306,1,0.185695544,1,-0.527269304,1,-0.273177028,1
0.667989731,-5.005844593,1,-1.538106084,1,-8.297217369,1,-0.004032133,1,0.001846552,1,0.009826224,1,0.185651645,1,-0.527261078,1,-0.27313301,1
0.671991527,-4.97812748,1,-1.573489428,1,-8.308496475,1,-0.00986709,1,0.001874295,1,0.007055061,1,0.185611725,1,-0.527252734,1,-0.273104101,1
0.67598927,-4.964147568,1,-1.538103938,1,-8.326025009,1,-0.012398531,1,0.001409731,1,0.009038934,1,0.185567707,1,-0.527253628,1,-0.273077607,1
0.679988742,-4.969424725,1,-1.545424104,1,-8.310840607,1,-0.00708995,1,-0.001456964,1,0.000875047,1,0.185517192,1,-0.527262032,1,-0.273053527,1
0.683990538,-5.031315327,1,-1.470085621,1,-8.280093193,1,-0.008028845,1,-0.001755684,1,0.003020562,1,0.185479492,1,-0.527266562,1,-0.273045987,1
0.687988222,-5.062167645,1,-1.429684043,1,-8.317338943,1,-0.005002842,1,-0.003052029,1,-0.000438076,1,0.185454264,1,-0.527269959,1,-0.273042172,1
0.691987991,-4.954629421,1,-1.480665207,1,-8.35899353,1,-0.005991983,1,0.003127232,1,0.000690734,1,0.185431942,1,-0.527273059,1,-0.273043305,1
0.69598949,-4.92696619,1,-1.535390258,1,-8.32126236,1,-0.004769844,1,-0.002809532,1,-0.003007631,1,0.185414121,1,-0.527270734,1,-0.273060977,1
0.699987173,-4.934148312,1,-1.548788905,1,-8.310567856,1,-0.008519263,1,-0.00325169,1,-0.009256861,1,0.185400382,1,-0.527276099,1,-0.27308324,1
0.703986943,-4.985203743,1,-1.575096726,1,-8.327321053,1,-0.007250189,1,-0.002724801,1,-0.003481773,1,0.18538326,1,-0.527274966,1,-0.273110598,1
0.707988739,-5.00103569,1,-1.571364284,1,-8.297532082,1,-0.009215993,1,0.001270335,1,-0.005277952,1,0.185349628,1,-0.527272105,1,-0.273133457,1
0.711986423,-5.00649929,1,-1.561266184,1,-8.288497925,1,-0.011505311,1,-0.000720753,1,-0.007630293,1,0.185308754,1,-0.527279258,1,-0.273157775,1
0.715986192,-4.984165192,1,-1.542159677,1,-8.303982735,1,-0.014817609,1,-0.00253301,1,-0.009829069,1,0.185272962,1,-0.527275741,1,-0.273203105,1
0.71998769,-4.989136219,1,-1.518549442,1,-8.283191681,1,-0.017485842,1,-0.000686727,1,-0.008028592,1,0.185225978,1,-0.527270436,1,-0.273251116,1
0.723985672,-4.987639904,1,-1.515518069,1,-8.318983078,1,-0.020187931,1,0.00038559,1,-0.014617434,1,0.185183838,1,-0.527259409,1,-0.273307592,1
0.727985144,-4.966791153,1,-1.592736125,1,-8.327363968,1,-0.02446823,1,-0.000947873,1,-0.010983039,1,0.185119361,1,-0.527249217,1,-0.273369044,1
0.731986701,-4.978687286,1,-1.608306408,1,-8.338886261,1,-0.020642204,1,-0.006142801,1,-0.010430841,1,0.185065508,1,-0.527245462,1,-0.273429304,1
0.735984385,-5.033000469,1,-1.603522301,1,-8.343038559,1,-0.024465559,1,-0.003128177,1,-0.010777076,1,0.185000956,1,-0.527249992,1,-0.273477465,1
0.739989996,-5.007734299,1,-1.612318158,1,-8.278729439,1,-0.017344097,1,-0.000223842,1,-0.006671531,1,0.184936807,1,-0.527256429,1,-0.273514986,1
0.743991554,-5.010924339,1,-1.594672084,1,-8.331212044,1,-0.014688986,1,-0.005036395,1,-0.003592769,1,0.184892014,1,-0.527261794,1,-0.273535371,1
0.747989237,-5.019762039,1,-1.561458349,1,-8.359534264,1,-0.010700041,1,-0.00098766,1,-0.008516188,1,0.184849933,1,-0.527275085,1,-0.273558706,1
0.751988709,-4.991171837,1,-1.598651886,1,-8.311232567,1,-0.012980317,1,-0.005269347,1,0.000492996,1,0.184817463,1,-0.527287722,1,-0.273574948,1
0.755990505,-5.012861252,1,-1.635975838,1,-8.362661362,1,-0.010353146,1,-0.004279424,1,0.004125038,1,0.184769958,1,-0.527304351,1,-0.273575515,1
0.759988248,-5.08786869,1,-1.59548533,1,-8.306925774,1,-0.003682551,1,-0.003731735,1,0.002622548,1,0.184741855,1,-0.527328789,1,-0.273563474,1
0.76398772,-5.104187489,1,-1.568649173,1,-8.314250946,1,0.000488105,1,-0.008613965,1,0.000317593,1,0.184730679,1,-0.527345538,1,-0.273556799,1
0.767989516,-5.009254456,1,-1.544873476,1,-8.318033218,1,0.001040335,1,-0.006511736,1,0.00410494,1,0.18472594,1,-0.52737391,1,-0.273542881,1
0.7719872,-4.907820225,1,-1.568293691,1,-8.325405121,1,-0.001902749,1,-0.004138771,1,0.006241513,1,0.184717923,1,-0.527397275,1,-0.273526192,1
0.775986671,-4.94643116,1,-1.585650444,1,-8.304298401,1,-0.001413285,1,-0.003700444,1,0.009063534,1,0.184702203,1,-0.527418494,1,-0.27350083,1
0.779988468,-4.997298241,1,-1.610375762,1,-8.333320618,1,-0.000552445,1,-0.005349793,1,0.005150775,1,0.184678689,1,-0.527437866,1,-0.27347514,1
0.783986151,-5.038615704,1,-1.60579741,1,-8.342726707,1,0.002240387,1,-0.00502221,1,0.012349349,1,0.184661835,1,-0.527458429,1,-0.27344504,1
0.787985921,-5.026002407,1,-1.554467797,1,-8.338247299,1,-0.001341319,1,-0.00101472,1,0.010236539,1,0.184637815,1,-0.527481794,1,-0.273396403,1
0.791987479,-4.989708424,1,-1.516002417,1,-8.336724281,1,0.005152176,1,-0.009228837,1,0.011730127,1,0.18461892,1,-0.527501523,1,-0.273343652,1
0.795985162,-4.93400383,1,-1.527451277,1,-8.338226318,1,0.005244989,1,-0.002197573,1,0.007767118,1,0.184615329,1,-0.527516007,1,-0.27329877,1
0.799984872,-4.979353428,1,-1.544909,1,-8.290849686,1,0.00217825,1,-0.00060775,1,0.014022702,1,0.184607044,1,-0.527532816,1,-0.273247331,1
0.80398643,-4.976168156,1,-1.581814408,1,-8.287180901,1,0.002100662,1,0.001452099,1,0.01150956,1,0.184582651,1,-0.527546763,1,-0.273194581,1
0.807983875,-4.965277672,1,-1.572734714,1,-8.275708199,1,0.00218596,1,-0.002825778,1,0.005378861,1,0.184571996,1,-0.527564764,1,-0.273151547,1
0.811983347,-4.985460281,1,-1.524974942,1,-8.300284386,1,-0.001146777,1,-0.000563875,1,0.006181364,1,0.184557006,1,-0.527576447,1,-0.273128718,1
0.815984905,-4.987112522,1,-1.511278629,1,-8.327004433,1,0.000203389,1,-0.001616829,1,0.004582081,1,0.184544936,1,-0.527590215,1,-0.273102283,1
0.819982827,-5.017529964,1,-1.471567869,1,-8.300240517,1,-0.003831819,1,-0.002401455,1,0.002831403,1,0.184522241,1,-0.527609229,1,-0.273079485,1
0.823982596,-4.991454124,1,-1.478949308,1,-8.292468071,1,-0.002718246,1,-0.00214654,1,0.001173811,1,0.184504449,1,-0.527615011,1,-0.273064286,1
0.827984393,-4.987769127,1,-1.525728822,1,-8.341583252,1,0.001198949,1,-0.004904628,1,-0.000275876,1,0.184498578,1,-0.527655423,1,-0.273550659,1
0.831982315,-4.964490414,1,-1.504791975,1,-8.341146469,1,-0.000325494,1,-0.006458906,1,-0.009829858,1,0.184512854,1,-0.527674139,1,-0.273572862,1
0.835981846,-4.958944321,1,-1.456525803,1,-8.329936028,1,0.001873028,1,-0.01079987,1,-0.005263054,1,0.184531957,1,-0.527697206,1,-0.273611546,1
0.839983344,-5.01031208,1,-1.478421569,1,-8.268774986,1,0.002766037,1,-0.010972271,1,-0.018235328,1,0.184588164,1,-0.527723789,1,-0.273694634,1
0.843981028,-5.066360474,1,-1.481577039,1,-8.289903641,1,0.003639503,1,-0.004372591,1,-0.014102384,1,0.184638843,1,-0.527749658,1,-0.273771107,1
0.847980559,-5.052974224,1,-1.419184923,1,-8.280923843,1,0.005516458,1,-0.006770403,1,-0.015776701,1,0.184699833,1,-0.527764261,1,-0.27384907,1
0.851982355,-4.944219589,1,-1.490997672,1,-8.322672844,1,0.005134703,1,-0.002912096,1,-0.011247898,1,0.184754059,1,-0.527766109,1,-0.273913264,1
0.855980039,-4.946390629,1,-1.644107819,1,-8.387141228,1,0.006459772,1,-0.005432658,1,-0.012969298,1,0.184808195,1,-0.527776122,1,-0.273978889,1
0.85998565,-5.00248909,1,-1.641362071,1,-8.40240097,1,0.011294771,1,-0.006857925,1,-0.010699901,1,0.184883446,1,-0.527796686,1,-0.274037719,1
0.863987446,-5.087243557,1,-1.563636303,1,-8.336533546,1,0.017087569,1,-0.006659137,1,-0.008969767,1,0.184956774,1,-0.527819455,1,-0.27407527,1
0.867985129,-5.051549911,1,-1.537565947,1,-8.298253059,1,0.021601681,1,-0.004363902,1,-0.008870017,1,0.185062766,1,-0.527836442,1,-0.274114788,1
0.871984661,-4.994030952,1,-1.630918145,1,-8.274008751,1,0.023141399,1,0.000608648,1,-0.005523256,1,0.185164854,1,-0.527846336,1,-0.27413395,1
0.875986159,-5.014202595,1,-1.685352206,1,-8.304174423,1,0.024526948,1,-0.003742611,1,0.001790501,1,0.1852649,1,-0.527862906,1,-0.274151742,1
0.879983842,-5.024224281,1,-1.6616081,1,-8.348466873,1,0.029249635,1,-0.002695203,1,0.002946472,1,0.185373589,1,-0.527869225,1,-0.274147868,1
0.883983612,-5.063312054,1,-1.649571896,1,-8.280911446,1,0.030465033,1,-0.00267284,1,0.003439175,1,0.185485169,1,-0.527881145,1,-0.274134159,1
0.88798517,-5.097398281,1,-1.575776339,1,-8.34700489,1,0.034035213,1,-0.006019203,1,0.010214575,1,0.185598925,1,-0.527897,1,-0.274091005,1
0.891982615,-5.108006001,1,-1.552422523,1,-8.309588432,1,0.039219834,1,0.002106834,1,0.004593002,1,0.185733899,1,-0.527911246,1,-0.274055958,1
0.895982325,-5.063618183,1,-1.533496261,1,-8.302424431,1,0.044502046,1,-0.00049657,1,0.000644796,1,0.185897276,1,-0.527906358,1,-0.274048626,1
0.899983883,-5.11067152,1,-1.562948465,1,-8.30324173,1,0.048648223,1,0.001758283,1,-0.008838295,1,0.186091051,1,-0.527908742,1,-0.274066895,1
0.903981328,-5.032594204,1,-1.551594734,1,-8.294442177,1,0.04620418,1,0.002170844,1,-0.0044525,1,0.186299846,1,-0.52789551,1,-0.274102092,1
0.907981038,-4.952030659,1,-1.490812063,1,-8.275478363,1,0.049517311,1,0.006013119,1,-0.006918425,1,0.186511859,1,-0.527870297,1,-0.274123788,1
0.911982596,-4.928727627,1,-1.512260079,1,-8.241656303,1,0.046579309,1,0.005441363,1,-0.003207031,1,0.186711729,1,-0.527844667,1,-0.274149418,1
0.915980518,-4.943350792,1,-1.586048484,1,-8.263596535,1,0.045149595,1,0.004365131,1,-0.006813274,1,0.186906055,1,-0.527814686,1,-0.274171323,1
0.919980049,-4.944930077,1,-1.582303166,1,-8.28614521,1,0.039732002,1,0.00714419,1,-0.006768273,1,0.187090576,1,-0.527795315,1,-0.274193585,1
0.923981845,-4.952911854,1,-1.61528635,1,-8.296094894,1,0.037521221,1,0.007959339,1,-0.009497933,1,0.187252745,1,-0.527755439,1,-0.274219483,1
0.927980006,-4.919552326,1,-1.553879023,1,-8.294492722,1,0.03258501,1,0.009277443,1,-0.005225729,1,0.187417746,1,-0.527725518,1,-0.274249911,1
0.931979537,-4.936711311,1,-1.576449513,1,-8.318806648,1,0.031617541,1,0.000710525,1,-0.007997961,1,0.187549531,1,-0.527712405,1,-0.274273753,1
0.935981035,-4.941740036,1,-1.514978409,1,-8.304249763,1,0.027433788,1,0.001099146,1,-0.009518337,1,0.187683001,1,-0.527699828,1,-0.274303705,1
0.939979017,-4.880110264,1,-1.518074512,1,-8.298175812,1,0.018629495,1,-0.002022395,1,-0.005293294,1,0.187788621,1,-0.527697563,1,-0.274331152,1
0.943978488,-4.945066452,1,-1.535761476,1,-8.310247421,1,0.017569542,1,-0.001457274,1,0.000828688,1,0.187880054,1,-0.527700424,1,-0.274352789,1
0.947980285,-4.937561512,1,-1.596174717,1,-8.3086586,1,0.018673442,1,-0.000424885,1,-0.000623603,1,0.187938973,1,-0.527707875,1,-0.274358928,1
0.951977968,-4.978687763,1,-1.620257378,1,-8.317011833,1,0.010804776,1,-0.003383504,1,-0.001805027,1,0.188000411,1,-0.527713001,1,-0.274375826,1
0.955977499,-5.018931866,1,-1.613999367,1,-8.279092789,1,0.008970346,1,-0.001639483,1,-0.002375363,1,0.1880413,1,-0.527720153,1,-0.274383843,1
0.959979236,-5.037570953,1,-1.602469444,1,-8.279289246,1,0.008728774,1,-0.003399272,1,0.001092738,1,0.188077152,1,-0.527723134,1,-0.27438122,1
0.963976979,-5.040922165,1,-1.563084006,1,-8.28355217,1,0.009924112,1,0.002410448,1,0.000740521,1,0.188108981,1,-0.527727842,1,-0.274379373,1
0.967976689,-5.001064777,1,-1.550403357,1,-8.2859478,1,0.007250906,1,0.003242769,1,-0.006515377,1,0.188153997,1,-0.527720451,1,-0.274396956,1
0.971978486,-4.973083019,1,-1.489224195,1,-8.313604355,1,0.006166497,1,-0.001619615,1,-0.00422614,1,0.188199371,1,-0.527714193,1,-0.274422467,1
0.975976169,-5.02452898,1,-1.518589497,1,-8.290528297,1,0.005650667,1,0.00140462,1,-0.009750431,1,0.188234597,1,-0.527710021,1,-0.274454772,1
0.979975939,-5.012890339,1,-1.573513627,1,-8.278989792,1,0.00165208,1,0.00268047,1,-0.0025474,1,0.188262179,1,-0.527697086,1,-0.274477065,1
0.983983636,-5.021028519,1,-1.581381321,1,-8.306922913,1,0.00622601,1,0.00262948,1,-0.004194703,1,0.188280106,1,-0.527687669,1,-0.274488866,1
0.98798722,-5.026088715,1,-1.639086127,1,-8.302477837,1,0.008374875,1,0.002945121,1,-0.004849998,1,0.188311905,1,-0.527676165,1,-0.274500668,1
0.99198693,-5.018318176,1,-1.570459008,1,-8.27562809,1,0.009005141,1,0.000559265,1,-0.005464102,1,0.18834658,1,-0.527668476,1,-0.274517804,1
0.995988488,-5.005002022,1,-1.545773745,1,-8.332674026,1,0.01145103,1,-0.000370127,1,-0.008966336,1,0.188406885,1,-0.527660072,1,-0.274547189,1
0.999985933,-5.003619671,1,-1.497342587,1,-8.353727341,1,0.012945952,1,0.000437117,1,-0.008599934,1,0.188476667,1,-0.527657747,1,-0.274585694,1
1.003985405,-4.982814789,1,-1.55252111,1,-8.376278877,1,0.018863264,1,0.000313878,1,-0.00454335,1,0.188547239,1,-0.52764219,1,-0.274608672,1
1.007986903,-5.058850765,1,-1.612269044,1,-8.414500237,1,0.024587428,1,0.000328535,1,-0.001927446,1,0.188642234,1,-0.527637184,1,-0.274616361,1
1.011984587,-5.107590199,1,-1.59804368,1,-8.358943939,1,0.037252836,1,0.003782467,1,0.000140019,1,0.188767418,1,-0.527633786,1,-0.274618804,1
1.015984416,-5.127942562,1,-1.580019712,1,-8.398377419,1,0.045450434,1,0.001342867,1,0.001438394,1,0.188927889,1,-0.527618766,1,-0.274617344,1
1.019985914,-5.170055389,1,-1.615173936,1,-8.288452148,1,0.044945426,1,0.005122513,1,-0.007695289,1,0.189107537,1,-0.527600348,1,-0.274629235,1
1.023983836,-4.995746136,1,-1.549745679,1,-8.22608757,1,0.045965873,1,0.013315819,1,-0.005524477,1,0.189307377,1,-0.527548909,1,-0.274657965,1
1.027983665,-4.800496578,1,-1.517729759,1,-8.307128906,1,0.047711425,1,0.010106383,1,-0.005807902,1,0.189481705,1,-0.527493119,1,-0.274668097,1
1.031985164,-4.886710167,1,-1.573548079,1,-8.320106506,1,0.044178136,1,0.003943312,1,-0.006598444,1,0.189680368,1,-0.527455032,1,-0.274694324,1
1.035982847,-4.954563141,1,-1.617033243,1,-8.32954216,1,0.040005207,1,0.005492067,1,-0.008553656,1,0.189852923,1,-0.527436614,1,-0.274714708,1
1.039982557,-4.958294392,1,-1.595493197,1,-8.275328636,1,0.032722645,1,0.003769574,1,-0.006064199,1,0.190011993,1,-0.527405739,1,-0.274732202,1
1.043984413,-4.972962379,1,-1.629511237,1,-8.303294182,1,0.031275719,1,0.002764173,1,-0.006698028,1,0.190152332,1,-0.527386248,1,-0.274761885,1
1.047982097,-4.967451096,1,-1.614431262,1,-8.263886452,1,0.029470265,1,0.004899867,1,-0.0093276,1,0.190293923,1,-0.527366877,1,-0.27479279,1
1.051981568,-4.985035896,1,-1.557886362,1,-8.250135422,1,0.02814661,1,0.005395587,1,-0.007510861,1,0.190410182,1,-0.527344882,1,-0.274815261,1
1.055983305,-5.007425785,1,-1.554829478,1,-8.274988174,1,0.026644167,1,0.001362136,1,-0.011560164,1,0.19053261,1,-0.527322888,1,-0.274863839,1
1.059981108,-4.987540722,1,-1.536522627,1,-8.240797043,1,0.024693176,1,0.004561096,1,-0.010257115,1,0.190660626,1,-0.527303755,1,-0.274906546,1
1.063980579,-4.911900997,1,-1.55532527,1,-8.277083397,1,0.020814845,1,0.002859305,1,-0.014497513,1,0.190790936,1,-0.527281463,1,-0.274965942,1
1.067982316,-4.877820969,1,-1.644875526,1,-8.312520027,1,0.025335493,1,-0.00467889,1,-0.010211447,1,0.190921322,1,-0.527266204,1,-0.275019288,1
1.07198,-4.882610798,1,-1.58835268,1,-8.343479156,1,0.013462797,1,0.000117963,1,-0.009243453,1,0.191022292,1,-0.527265728,1,-0.27506417,1
1.075979829,-4.937012196,1,-1.671741605,1,-8.326775551,1,0.011028638,1,-0.006796273,1,-0.007199078,1,0.191071138,1,-0.527301669,1,-0.275575429,1
1.079981327,-4.926273823,1,-1.705546618,1,-8.296618462,1,0.002620515,1,-0.001987061,1,-0.003623396,1,0.191119596,1,-0.527314305,1,-0.275609672,1
1.083978772,-4.976966858,1,-1.691762328,1,-8.266854286,1,0.000667074,1,-0.005431053,1,-0.003589239,1,0.191139221,1,-0.527329266,1,-0.275626779,1
1.087978244,-4.938227177,1,-1.701058984,1,-8.308636665,1,-0.004293343,1,-0.006613401,1,-0.001597343,1,0.19113405,1,-0.527349472,1,-0.275635272,1
1.091979742,-4.892502308,1,-1.656849265,1,-8.3162117,1,-0.010249346,1,-0.01006777,1,0.001238749,1,0.191108257,1,-0.527386606,1,-0.275648683,1
1.095977187,-4.895803452,1,-1.650615573,1,-8.338970184,1,-0.013077499,1,-0.011243131,1,-0.001707369,1,0.191078842,1,-0.527429044,1,-0.275668651,1
1.099976659,-4.947243214,1,-1.618708134,1,-8.343136787,1,-0.018350095,1,-0.016262487,1,0.001053158,1,0.191025287,1,-0.527486622,1,-0.275693238,1
1.103984356,-4.985151291,1,-1.618360758,1,-8.268984795,1,-0.021219382,1,-0.015251719,1,-0.003141819,1,0.190956011,1,-0.527542412,1,-0.275706828,1
1.107988238,-5.035587788,1,-1.64790082,1,-8.289575577,1,-0.019669944,1,-0.014793606,1,6.11E-05,1,0.190882772,1,-0.527602315,1,-0.275732696,1
1.111987948,-5.034594059,1,-1.566162109,1,-8.282274246,1,-0.024854377,1,-0.016296515,1,-0.004714926,1,0.190814912,1,-0.527668953,1,-0.275767326,1
1.115989447,-5.018929958,1,-1.591688156,1,-8.309968948,1,-0.026312869,1,-0.016502976,1,-0.004987873,1,0.190738335,1,-0.527729571,1,-0.275806546,1
1.119987488,-4.972625732,1,-1.730517864,1,-8.438903809,1,-0.015523376,1,-0.014004269,1,-0.002247002,1,0.190672576,1,-0.527796566,1,-0.275837839,1
1.123986959,-5.221670628,1,-1.727520704,1,-8.412160873,1,-0.006221203,1,-0.016812311,1,0.012692841,1,0.190621793,1,-0.527854979,1,-0.275829494,1
1.127988458,-5.260574818,1,-1.610690117,1,-8.28385067,1,0.010537585,1,-0.012039711,1,0.012944048,1,0.190619215,1,-0.527916729,1,-0.275782645,1
1.131986141,-5.119665623,1,-1.575036883,1,-8.206009865,1,0.021879446,1,-0.010270773,1,0.005523564,1,0.190665245,1,-0.527958512,1,-0.275746047,1
1.13598597,-4.991867065,1,-1.570600629,1,-8.26378727,1,0.028552596,1,-0.010327805,1,0.000911617,1,0.190758228,1,-0.528000593,1,-0.275736898,1
1.139987707,-4.971528053,1,-1.575471401,1,-8.29855442,1,0.03350329,1,-0.0098299,1,-0.001927474,1,0.19089444,1,-0.528045475,1,-0.275756955,1
1.143985391,-4.974835873,1,-1.502383232,1,-8.277471542,1,0.030148264,1,-0.009436103,1,-0.00513065,1,0.191029042,1,-0.528089285,1,-0.275776207,1
1.147984862,-5.005203724,1,-1.513111472,1,-8.290431023,1,0.033770941,1,-0.004330622,1,0.001817254,1,0.191165954,1,-0.528113723,1,-0.275780171,1
1.151986718,-5.025494576,1,-1.594403505,1,-8.296994209,1,0.032617178,1,-0.003748037,1,0.000885806,1,0.191299677,1,-0.528134644,1,-0.275781423,1
1.155984402,-4.990958691,1,-1.592673421,1,-8.283017159,1,0.036573671,1,-0.000387904,1,-0.000605073,1,0.191441402,1,-0.528144538,1,-0.275788784,1
1.159983873,-5.005636692,1,-1.590279341,1,-8.294280052,1,0.03091006,1,-0.002366201,1,-0.001926732,1,0.191578791,1,-0.528159738,1,-0.275801808,1
1.163985372,-5.015348911,1,-1.571902394,1,-8.335576057,1,0.028389757,1,-0.003582867,1,-0.004383914,1,0.191699117,1,-0.528166413,1,-0.275823623,1
1.167983055,-5.041462898,1,-1.527097225,1,-8.297451019,1,0.029430076,1,-0.003875116,1,-0.011590442,1,0.191836134,1,-0.528171062,1,-0.275863618,1
1.171982884,-4.991979122,1,-1.555320382,1,-8.302956581,1,0.026650149,1,-0.004596553,1,-0.012115768,1,0.191974208,1,-0.528181195,1,-0.275928557,1
1.175984383,-4.976613522,1,-1.585387945,1,-8.257817268,1,0.023179768,1,-0.002432046,1,-0.014352451,1,0.192112491,1,-0.528182328,1,-0.27599296,1
1.179981828,-4.981301308,1,-1.616659403,1,-8.308171272,1,0.023636546,1,-0.004299113,1,-0.012789913,1,0.192237958,1,-0.528183341,1,-0.276053607,1
1.183981299,-4.917675018,1,-1.643388391,1,-8.276835442,1,0.019993745,1,-0.004407291,1,-0.014888989,1,0.19235082,1,-0.528184831,1,-0.276114553,1
1.187982798,-4.946640968,1,-1.640633106,1,-8.27340126,1,0.014154458,1,-0.003260397,1,-0.011197826,1,0.192445859,1,-0.52819854,1,-0.276173651,1
1.191980243,-5.002221584,1,-1.665364385,1,-8.296852112,1,0.008070523,1,-0.002771692,1,-0.009841297,1,0.192514524,1,-0.528204679,1,-0.276223361,1
1.195980072,-4.991875648,1,-1.644858479,1,-8.282889366,1,0.006712138,1,-0.002719181,1,-0.008580012,1,0.192573085,1,-0.528219163,1,-0.276266843,1
1.19998157,-4.975860596,1,-1.619456291,1,-8.299211502,1,0.006586167,1,-0.004493314,1,-0.014002474,1,0.19262068,1,-0.528224349,1,-0.276320755,1
1.203979254,-5.011040211,1,-1.615419626,1,-8.279349327,1,0.002286366,1,-0.005373157,1,-0.011917591,1,0.192666307,1,-0.528232098,1,-0.276379168,1
1.207978725,-5.009604931,1,-1.610630751,1,-8.283127785,1,0.001492072,1,-0.002976933,1,-0.013698921,1,0.192700744,1,-0.528235734,1,-0.276434541,1
1.211980343,-5.013766289,1,-1.636392355,1,-8.286748886,1,0.002463369,1,-0.002534195,1,-0.009922244,1,0.192736551,1,-0.528241694,1,-0.276499212,1
1.215978026,-5.080020905,1,-1.68723166,1,-8.357590675,1,0.006469829,1,-0.002747479,1,-0.004786245,1,0.19276762,1,-0.528240621,1,-0.276530057,1
1.219977498,-5.155798912,1,-1.664025664,1,-8.282636642,1,0.013584096,1,8.27E-05,1,-0.007135115,1,0.192820564,1,-0.528242052,1,-0.276559651,1
1.223985434,-5.105981827,1,-1.588230133,1,-8.305887222,1,0.019158047,1,0.002283933,1,-0.006144315,1,0.192903459,1,-0.528236389,1,-0.27659142,1
1.227989197,-5.104229927,1,-1.556523442,1,-8.265835762,1,0.023818137,1,0.002818894,1,-0.012688601,1,0.193000615,1,-0.528229237,1,-0.276631474,1
1.231989026,-4.971056461,1,-1.540416241,1,-8.249401093,1,0.025153954,1,0.004543039,1,-0.013625013,1,0.193128914,1,-0.528199077,1,-0.276691377,1
1.235990763,-5.003518105,1,-1.534163594,1,-8.256461143,1,0.029206306,1,0.001563744,1,-0.014763394,1,0.193266571,1,-0.528183699,1,-0.276761651,1
1.239988446,-5.046430588,1,-1.520449519,1,-8.257990837,1,0.029120926,1,0.002286689,1,-0.016865321,1,0.19341597,1,-0.528162897,1,-0.276835024,1
1.243987918,-4.960408688,1,-1.557025313,1,-8.259606361,1,0.023976626,1,0.004673372,1,-0.01730934,1,0.193560392,1,-0.528126001,1,-0.276914239,1
1.247989774,-4.94508028,1,-1.556794286,1,-8.278717995,1,0.027234411,1,0.008076075,1,-0.020932732,1,0.193710074,1,-0.52808708,1,-0.276992559,1
1.251987457,-4.978108883,1,-1.501597643,1,-8.292160988,1,0.029635236,1,0.001965008,1,-0.017043091,1,0.193863422,1,-0.528051198,1,-0.277085066,1
1.255986929,-5.007155418,1,-1.490223646,1,-8.373821259,1,0.027164072,1,0.005640335,1,-0.022946566,1,0.194024548,1,-0.52802223,1,-0.277171224,1
1.259988427,-4.975226402,1,-1.601072907,1,-8.227645874,1,0.026378892,1,0.003182096,1,-0.023832502,1,0.194179073,1,-0.527979851,1,-0.277270406,1
1.26398623,-4.907325745,1,-1.729041338,1,-8.202840805,1,0.022666076,1,0.003902176,1,-0.023130549,1,0.194334269,1,-0.5279513,1,-0.277368903,1
1.26798594,-4.977372646,1,-1.62166357,1,-8.27529335,1,0.022447223,1,0.000994783,1,-0.021290099,1,0.194478586,1,-0.527930975,1,-0.277463198,1
1.271987438,-4.965392113,1,-1.60510993,1,-8.269398689,1,0.024069773,1,0.003195147,1,-0.019028056,1,0.194617003,1,-0.527905583,1,-0.277565271,1
1.275984883,-4.91197443,1,-1.611776352,1,-8.31136322,1,0.021552671,1,0.001846536,1,-0.021685807,1,0.194757208,1,-0.527881026,1,-0.27765429,1
1.279984355,-4.898907185,1,-1.622512221,1,-8.312448502,1,0.01705936,1,0.003465323,1,-0.01399443,1,0.194875985,1,-0.527856648,1,-0.277727127,1
1.283985972,-4.939876556,1,-1.695804477,1,-8.299729347,1,0.017663579,1,-0.000343986,1,-0.014796878,1,0.19497484,1,-0.527838469,1,-0.277799249,1
1.287983418,-4.971299171,1,-1.71710968,1,-8.297265053,1,0.013453025,1,0.001073655,1,-0.009633952,1,0.195067436,1,-0.527827978,1,-0.277856201,1
1.291982889,-5.026556015,1,-1.734429121,1,-8.272363663,1,0.006927137,1,0.000632264,1,-0.010592395,1,0.195127159,1,-0.527818382,1,-0.277902097,1
1.295984387,-5.011990547,1,-1.675786853,1,-8.239636421,1,0.005437827,1,0.001699735,1,-0.012098012,1,0.195177004,1,-0.527803183,1,-0.277950615,1
1.299982071,-5.001808167,1,-1.621878505,1,-8.253090858,1,0.007887613,1,0.002529067,1,-0.008157709,1,0.195227519,1,-0.527786672,1,-0.277993023,1
1.303981543,-4.918457985,1,-1.603722095,1,-8.232104301,1,0.003432485,1,0.002388054,1,-0.007531318,1,0.195264548,1,-0.527773619,1,-0.278034568,1
1.30798316,-4.966183186,1,-1.592912197,1,-8.262501717,1,0.001650986,1,0.005562896,1,-0.012859471,1,0.195299566,1,-0.527758896,1,-0.278074026,1
1.311980844,-4.968031406,1,-1.63666594,1,-8.220492363,1,0.00095381,1,0.000855117,1,-0.012852402,1,0.195334688,1,-0.527719378,1,-0.278126776,1
1.315980315,-5.025804043,1,-1.560431838,1,-8.220683098,1,-0.00278955,1,0.006000835,1,-0.012229295,1,0.195361912,1,-0.527695119,1,-0.278183997,1
1.319981813,-4.991708755,1,-1.556303859,1,-8.228839874,1,-0.001314326,1,0.006653934,1,-0.015967742,1,0.195385829,1,-0.527655423,1,-0.278245926,1
1.323979497,-5.090983868,1,-1.548704505,1,-8.271245003,1,0.002501162,1,0.009393158,1,-0.014669345,1,0.195417553,1,-0.527674317,1,-0.27831161,1
1.327978969,-5.042565823,1,-1.54282999,1,-8.295296669,1,0.001129246,1,0.011733605,1,-0.020359326,1,0.195447683,1,-0.527583539,1,-0.278853536,1
1.331980824,-5.051476002,1,-1.532642484,1,-8.342463493,1,0.010041452,1,0.013634614,1,-0.013371093,1,0.195506603,1,-0.527513444,1,-0.278920293,1
1.335978508,-5.096806526,1,-1.563951492,1,-8.35655117,1,0.01967481,1,0.01394334,1,-0.009053534,1,0.195587084,1,-0.52746141,1,-0.278971255,1
1.33997798,-5.125308514,1,-1.631265402,1,-8.322692871,1,0.027946409,1,0.013720976,1,-0.013949163,1,0.195707977,1,-0.527389407,1,-0.279020458,1
1.343985677,-5.117053509,1,-1.622281671,1,-8.288913727,1,0.036806326,1,0.015007529,1,-0.016169457,1,0.195868373,1,-0.527318418,1,-0.279078543,1
1.347989202,-5.091569424,1,-1.6039958,1,-8.29550457,1,0.040279437,1,0.014782207,1,-0.014783544,1,0.196047887,1,-0.527247488,1,-0.279129028,1
1.351989031,-5.021090508,1,-1.60910356,1,-8.315685272,1,0.04851811,1,0.015018914,1,-0.01450816,1,0.196245372,1,-0.527170897,1,-0.279183269,1
1.355990529,-4.93779707,1,-1.696713567,1,-8.310774803,1,0.045759115,1,0.016998248,1,-0.016698904,1,0.196462572,1,-0.52709651,1,-0.279244214,1
1.359988213,-4.95539999,1,-1.731560826,1,-8.32288456,1,0.04275668,1,0.01487466,1,-0.014130838,1,0.19667086,1,-0.527022183,1,-0.279293001,1
1.363987923,-4.938188076,1,-1.779080391,1,-8.346856117,1,0.039293882,1,0.015311442,1,-0.009926328,1,0.196859822,1,-0.526948631,1,-0.279334158,1
1.36798954,-4.927510262,1,-1.856308579,1,-8.304858208,1,0.032372486,1,0.012118375,1,-0.009464889,1,0.197025493,1,-0.526888251,1,-0.27936855,1
1.371987224,-4.887315273,1,-1.87084353,1,-8.329539299,1,0.025730068,1,0.011285063,1,-0.008496973,1,0.197168723,1,-0.526839137,1,-0.279394895,1
1.375986695,-4.884340286,1,-1.861865044,1,-8.331260681,1,0.021022035,1,0.009237705,1,-0.002119404,1,0.197272077,1,-0.526795149,1,-0.279407531,1
1.379988194,-4.829924583,1,-1.8398031,1,-8.308842659,1,0.012592323,1,0.006865216,1,0.000826917,1,0.197331026,1,-0.526756704,1,-0.279402584,1
1.383985639,-4.901448727,1,-1.885812402,1,-8.30586338,1,0.00172166,1,0.002095464,1,0.005698541,1,0.197351828,1,-0.526737332,1,-0.279387116,1
1.38798511,-4.90327692,1,-1.862389326,1,-8.288853645,1,-0.001791587,1,0.002955347,1,0.006069279,1,0.197334707,1,-0.52673161,1,-0.279357731,1
1.391986728,-4.889152527,1,-1.887586951,1,-8.303085327,1,-0.011939997,1,-0.002259033,1,0.013446156,1,0.19728066,1,-0.526732624,1,-0.279308826,1
1.395984411,-4.892951965,1,-1.861370087,1,-8.268375397,1,-0.0231614,1,-0.005230662,1,0.017641701,1,0.197189197,1,-0.526760578,1,-0.27924782,1
1.399983883,-4.878191948,1,-1.775272846,1,-8.304735184,1,-0.023438808,1,-0.009121128,1,0.020184828,1,0.197066098,1,-0.52679646,1,-0.279171884,1
1.403985381,-4.999270439,1,-1.73506546,1,-8.318885803,1,-0.030340403,1,-0.009571149,1,0.023150805,1,0.196909457,1,-0.526854217,1,-0.279090971,1
1.407983065,-4.960198402,1,-1.705165386,1,-8.285772324,1,-0.032609608,1,-0.007579492,1,0.024509853,1,0.196725726,1,-0.526903749,1,-0.278996855,1
1.411982536,-4.958805084,1,-1.631433845,1,-8.283138275,1,-0.037814956,1,-0.014056392,1,0.018233368,1,0.196538925,1,-0.526964605,1,-0.278906703,1
1.415984154,-4.957468033,1,-1.672625899,1,-8.300451279,1,-0.039685238,1,-0.018654067,1,0.021851989,1,0.196337402,1,-0.527043462,1,-0.278819442,1
1.419981837,-4.866194248,1,-1.615089774,1,-8.330467224,1,-0.037813686,1,-0.020673065,1,0.01627746,1,0.196143717,1,-0.527133107,1,-0.278752565,1
1.423981309,-4.884074211,1,-1.614627719,1,-8.334539413,1,-0.039586719,1,-0.023638766,1,0.018866651,1,0.1959503,1,-0.527228951,1,-0.278682053,1
1.427983046,-4.895246506,1,-1.579185367,1,-8.306723595,1,-0.039368611,1,-0.024920419,1,0.01816977,1,0.195757717,1,-0.527326643,1,-0.278625548,1
1.431980848,-4.88773489,1,-1.609722376,1,-8.319065094,1,-0.042043142,1,-0.03021211,1,0.008452097,1,0.195567355,1,-0.527450085,1,-0.278592378,1
1.43598032,-4.946688175,1,-1.579378605,1,-8.311267853,1,-0.044303238,1,-0.028570296,1,0.004862569,1,0.195379674,1,-0.527570426,1,-0.27857691,1
1.439982057,-5.004636765,1,-1.552384496,1,-8.280929565,1,-0.052168153,1,-0.032336436,1,0.004851105,1,0.195187673,1,-0.527696609,1,-0.27857995,1
1.44397974,-4.969041348,1,-1.614941597,1,-8.288424492,1,-0.05359092,1,-0.028363736,1,0.005118935,1,0.194983184,1,-0.527823448,1,-0.278586209,1
1.447979212,-4.984920979,1,-1.582177758,1,-8.296718597,1,-0.060575556,1,-0.030787619,1,-0.000735243,1,0.194770306,1,-0.527942777,1,-0.278610379,1
1.451981068,-5.027599335,1,-1.628447056,1,-8.260128975,1,-0.060790747,1,-0.028286608,1,-0.003223825,1,0.194548264,1,-0.528064013,1,-0.278645277,1
1.455978751,-5.058398247,1,-1.665435791,1,-8.254517555,1,-0.065384082,1,-0.032779127,1,-0.004338092,1,0.194319963,1,-0.528173566,1,-0.278686285,1
1.459978461,-5.074342251,1,-1.667778134,1,-8.273873329,1,-0.069773845,1,-0.026458405,1,-0.005505264,1,0.194072783,1,-0.528278887,1,-0.278738528,1
1.463986158,-5.071691036,1,-1.629226565,1,-8.307240486,1,-0.071599677,1,-0.026101952,1,-0.000651844,1,0.193810195,1,-0.528379619,1,-0.278775245,1
1.467989802,-5.140122414,1,-1.708292484,1,-8.265349388,1,-0.068341203,1,-0.024095489,1,-0.001268874,1,0.193555281,1,-0.52847451,1,-0.278818905,1
1.471989512,-5.1225667,1,-1.793764472,1,-8.303208351,1,-0.061804045,1,-0.021279749,1,0.004453221,1,0.193305269,1,-0.528562367,1,-0.278831899,1
1.475991011,-5.13796854,1,-1.895578742,1,-8.296730995,1,-0.055445988,1,-0.01775234,1,0.017100053,1,0.193053365,1,-0.528645754,1,-0.278800458,1
1.479988456,-5.187897205,1,-1.764422774,1,-8.241159439,1,-0.043867458,1,-0.015201515,1,0.021396948,1,0.192816451,1,-0.528725803,1,-0.278739721,1
1.483987927,-5.133746624,1,-1.686703205,1,-8.229315758,1,-0.038075626,1,-0.007935278,1,0.024044005,1,0.192600876,1,-0.528796911,1,-0.278647929,1
1.487989545,-5.111472607,1,-1.572546244,1,-8.265821457,1,-0.036321115,1,-0.009040669,1,0.017743833,1,0.192401111,1,-0.528847039,1,-0.278566808,1
1.491987228,-5.085738659,1,-1.517888665,1,-8.287107468,1,-0.031548675,1,-0.002043431,1,0.020961214,1,0.192222595,1,-0.528891146,1,-0.278486758,1
1.4959867,-5.094269276,1,-1.541573405,1,-8.281316757,1,-0.034353662,1,-0.008506419,1,0.013340885,1,0.192063436,1,-0.528928101,1,-0.278416574,1
1.499988198,-5.081894875,1,-1.596958995,1,-8.253869057,1,-0.033212602,1,-0.004847893,1,0.015456472,1,0.1919128,1,-0.528965592,1,-0.278364211,1
1.503985882,-5.050867081,1,-1.570381403,1,-8.280264854,1,-0.029305108,1,-0.003449853,1,0.010912519,1,0.19177258,1,-0.528989434,1,-0.27831471,1
1.507985353,-5.036658764,1,-1.555645227,1,-8.296086311,1,-0.024330426,1,-0.005383487,1,0.013067452,1,0.191642269,1,-0.529010534,1,-0.27826488,1
1.511986971,-5.014890194,1,-1.529290557,1,-8.268670082,1,-0.025054229,1,-0.000280459,1,0.012680728,1,0.19151403,1,-0.529025733,1,-0.278210163,1
1.515984654,-4.968616486,1,-1.543053627,1,-8.299901009,1,-0.02011081,1,-0.003730899,1,0.011742247,1,0.191404417,1,-0.529037356,1,-0.278159827,1
1.519984126,-4.865915775,1,-1.57495594,1,-8.251142502,1,-0.019830814,1,-0.003484316,1,0.008551152,1,0.19131434,1,-0.52905798,1,-0.278125048,1
1.523985863,-4.797793865,1,-1.716580749,1,-8.329061508,1,-0.016383281,1,-0.011344369,1,0.007153001,1,0.191227317,1,-0.529094517,1,-0.278099954,1
1.527983665,-4.834143162,1,-1.764215589,1,-8.411951065,1,-0.015573154,1,-0.016405253,1,0.011954071,1,0.191153467,1,-0.529164255,1,-0.278066933,1
1.531983137,-4.805983067,1,-1.835870624,1,-8.389404297,1,-0.025132788,1,-0.025734179,1,0.013980174,1,0.191047817,1,-0.529258251,1,-0.27802974,1
1.535984874,-4.864899635,1,-1.876116753,1,-8.401917458,1,-0.029956698,1,-0.027497595,1,0.020691577,1,0.190910578,1,-0.529375911,1,-0.277973056,1
1.539982557,-4.845323086,1,-1.820927262,1,-8.370347023,1,-0.040306941,1,-0.036972012,1,0.025707537,1,0.19072789,1,-0.529519796,1,-0.277897477,1
1.543982029,-4.771321297,1,-1.810902476,1,-8.319946289,1,-0.045416377,1,-0.045851987,1,0.031389892,1,0.190513477,1,-0.529703736,1,-0.277810603,1
1.547983885,-4.687489986,1,-1.754018784,1,-8.328933716,1,-0.045318101,1,-0.05745833,1,0.034853969,1,0.190267026,1,-0.529925823,1,-0.277695745,1
1.551981568,-4.729717731,1,-1.715227485,1,-8.421096802,1,-0.051697303,1,-0.068397261,1,0.038121644,1,0.190012157,1,-0.530198157,1,-0.27758491,1
1.555981278,-4.769086361,1,-1.741344452,1,-8.404682159,1,-0.052898869,1,-0.076533839,1,0.04466622,1,0.189748228,1,-0.530524254,1,-0.277456999,1
1.559982896,-4.776242256,1,-1.698561907,1,-8.438362122,1,-0.056254838,1,-0.08760231,1,0.046502452,1,0.18945533,1,-0.530888259,1,-0.277310491,1
1.563980579,-4.80666256,1,-1.656621456,1,-8.356835365,1,-0.055994444,1,-0.098747663,1,0.051677663,1,0.189155877,1,-0.531289935,1,-0.277168036,1
1.567980051,-4.756611347,1,-1.631210446,1,-8.351371765,1,-0.055936858,1,-0.10958375,1,0.052640513,1,0.18886289,1,-0.531745136,1,-0.277028561,1
1.571981549,-4.761063099,1,-1.687382221,1,-8.388774872,1,-0.056034174,1,-0.123733908,1,0.056883145,1,0.188559145,1,-0.532244086,1,-0.276883721,1
1.575978994,-4.93403101,1,-1.737496376,1,-8.376361847,1,-0.060453255,1,-0.134304717,1,0.057341058,1,0.188295633,1,-0.532769561,1,-0.277245373,1
1.579978704,-4.999358177,1,-1.687110186,1,-8.359282494,1,-0.059648059,1,-0.135564685,1,0.062679775,1,0.187976792,1,-0.533342421,1,-0.277093172,1
1.583986402,-4.990557671,1,-1.524085045,1,-8.295073509,1,-0.062236123,1,-0.140745446,1,0.057109423,1,0.18765609,1,-0.533933997,1,-0.276941061,1
1.587990284,-5.257639408,1,-1.219132543,1,-8.316055298,1,-0.050841726,1,-0.156937227,1,0.063220076,1,0.18734166,1,-0.534566283,1,-0.276784509,1
1.591989994,-4.694337368,1,-1.437025905,1,-8.451094627,1,-0.043372057,1,-0.159410283,1,0.060034994,1,0.187081069,1,-0.535229564,1,-0.2766366,1
1.595991611,-4.759645939,1,-1.665121675,1,-8.491688728,1,-0.031637169,1,-0.183190867,1,0.052983698,1,0.186877131,1,-0.535942256,1,-0.276529312,1
1.599989295,-4.879084587,1,-1.706357718,1,-8.575903893,1,-0.028054804,1,-0.197889656,1,0.050004527,1,0.186725333,1,-0.536726534,1,-0.27646026,1
1.603988767,-4.824843884,1,-1.485872149,1,-8.655669212,1,-0.020490274,1,-0.210600272,1,0.055927172,1,0.186592549,1,-0.537560105,1,-0.276388973,1
1.607990265,-4.828921318,1,-1.366388321,1,-8.668160439,1,-0.007651465,1,-0.230289385,1,0.056782447,1,0.186510324,1,-0.538473129,1,-0.276329041,1
1.611987948,-4.856283665,1,-1.507309794,1,-8.746397018,1,0.001645837,1,-0.256485552,1,0.051012404,1,0.186476633,1,-0.539473712,1,-0.276293337,1
1.61598742,-4.902564526,1,-1.592308283,1,-8.799232483,1,0.00660874,1,-0.282810599,1,0.048042793,1,0.186497152,1,-0.540563345,1,-0.276294053,1
1.619989276,-4.782680988,1,-1.522521615,1,-8.935665131,1,0.028095592,1,-0.30438447,1,0.055746954,1,0.186558023,1,-0.541753113,1,-0.276308715,1
1.623986959,-4.661520958,1,-1.55138731,1,-9.178289413,1,0.041678723,1,-0.336564153,1,0.065295734,1,0.18669726,1,-0.543058693,1,-0.276309609,1
1.627986431,-4.504633427,1,-1.596574545,1,-9.349658012,1,0.079406813,1,-0.374141991,1,0.079594538,1,0.186924353,1,-0.544510901,1,-0.276280761,1
1.631988168,-4.502693653,1,-1.721261263,1,-9.486977577,1,0.097648196,1,-0.411311299,1,0.103073992,1,0.187243506,1,-0.546121895,1,-0.27619791,1
1.63598597,-4.247692585,1,-1.600739956,1,-9.579378128,1,0.138535038,1,-0.465093523,1,0.138289899,1,0.187612519,1,-0.547922194,1,-0.276024193,1
1.639985442,-3.656610489,1,-1.475926399,1,-10.04871178,1,0.216056421,1,-0.541601658,1,0.177175164,1,0.188178554,1,-0.550007999,1,-0.275734246,1
1.643987179,-3.986466408,1,-1.700428367,1,-9.893913269,1,0.280222207,1,-0.600690663,1,0.217382446,1,0.188972443,1,-0.55240798,1,-0.275337756,1
1.647984862,-4.065705776,1,-1.952442646,1,-10.11758804,1,0.294318348,1,-0.657269835,1,0.25531888,1,0.189846277,1,-0.555056512,1,-0.274800241,1
1.651984692,-3.611830473,1,-2.144823313,1,-10.32145309,1,0.316740751,1,-0.745079517,1,0.281634599,1,0.190742433,1,-0.557988703,1,-0.274172813,1
1.655986428,-3.277587652,1,-2.458378792,1,-10.79030609,1,0.335403591,1,-0.859841764,1,0.312906533,1,0.191699877,1,-0.561352909,1,-0.273511946,1
1.659984112,-3.918244362,1,-3.087244034,1,-10.64063644,1,0.286894858,1,-0.958763838,1,0.344405621,1,0.192596763,1,-0.565188944,1,-0.272802263,1
1.663983822,-3.764104843,1,-2.444624186,1,-11.05625057,1,0.306283385,1,-1.057513118,1,0.386113048,1,0.193327561,1,-0.569416165,1,-0.272021502,1
1.667985678,-4.002008438,1,-3.944161177,1,-11.0605154,1,0.274138719,1,-1.188298225,1,0.424508691,1,0.194077313,1,-0.574125051,1,-0.271167874,1
1.671983361,-3.01753974,1,-4.125324249,1,-10.57195473,1,0.135950178,1,-1.268652201,1,0.457816094,1,0.194373563,1,-0.579259098,1,-0.270236075,1
1.675983071,-4.333378315,1,-3.822120667,1,-10.69829273,1,0.09856765,1,-1.377360225,1,0.510024309,1,0.194242314,1,-0.584852099,1,-0.269197345,1
1.679984689,-5.15614748,1,-3.34585166,1,-10.76275063,1,0.106116414,1,-1.481523752,1,0.553044915,1,0.193997279,1,-0.590868711,1,-0.268017799,1
1.683982372,-4.910426617,1,-3.031716824,1,-11.22235775,1,0.122312687,1,-1.566662073,1,0.621430159,1,0.193694055,1,-0.597286642,1,-0.266674966,1
1.687981844,-4.937092304,1,-4.742808819,1,-11.03738308,1,0.076336585,1,-1.661365509,1,0.738906026,1,0.193166956,1,-0.604157209,1,-0.264964402,1
1.691983342,-3.852063894,1,-4.816945076,1,-10.50676727,1,-0.071377538,1,-1.724957466,1,0.808187127,1,0.191929325,1,-0.611399293,1,-0.262830675,1
1.695981026,-4.047687531,1,-4.342503548,1,-10.51119137,1,-0.114444353,1,-1.844711781,1,0.84277302,1,0.190197513,1,-0.619032562,1,-0.260521978,1
1.699980497,-5.055150032,1,-4.361152172,1,-10.82646656,1,-0.142293349,1,-1.950919986,1,0.907981157,1,0.188271195,1,-0.627149224,1,-0.258070618,1
1.703987956,-5.747406483,1,-4.469332218,1,-10.60416222,1,-0.21192424,1,-2.000826836,1,0.990839601,1,0.185928613,1,-0.635641873,1,-0.255267352,1
1.707991838,-5.466256142,1,-3.603237152,1,-10.65414619,1,-0.280873835,1,-2.061935186,1,1.067300916,1,0.18303071,1,-0.644364595,1,-0.252078682,1
1.711991549,-5.250348091,1,-3.159874439,1,-10.2581625,1,-0.282324672,1,-2.127918959,1,1.148584723,1,0.179728806,1,-0.653394938,1,-0.248501137,1
1.715993285,-4.886189938,1,-3.096334457,1,-10.01990891,1,-0.270551801,1,-2.223518133,1,1.198757768,1,0.176229343,1,-0.662784576,1,-0.244599521,1
1.719991088,-5.333708286,1,-3.199954271,1,-10.01565456,1,-0.250052035,1,-2.294910192,1,1.244305491,1,0.172630534,1,-0.672547579,1,-0.240476176,1
1.72399056,-5.978511333,1,-3.634835243,1,-10.08238983,1,-0.244457617,1,-2.359751701,1,1.303040862,1,0.168892488,1,-0.682589531,1,-0.236067429,1
1.727992296,-5.828701496,1,-3.708586454,1,-9.773658752,1,-0.24035722,1,-2.398806095,1,1.351607561,1,0.164907888,1,-0.692844152,1,-0.231329426,1
1.73198998,-5.521137714,1,-3.605460167,1,-9.663785934,1,-0.206624508,1,-2.461481094,1,1.417893648,1,0.160732642,1,-0.703326821,1,-0.2262436,1
1.735989451,-6.07490778,1,-3.539345026,1,-9.722072601,1,-0.134681463,1,-2.519989252,1,1.504575491,1,0.156453624,1,-0.714094281,1,-0.220728308,1
1.739991307,-7.0403409,1,-3.784183979,1,-9.919691086,1,-0.073187359,1,-2.553123713,1,1.611275196,1,0.15201512,1,-0.725076675,1,-0.214612767,1
1.743988991,-8.24007225,1,-4.262292862,1,-9.652121544,1,-0.056500454,1,-2.541617393,1,1.718271852,1,0.14722386,1,-0.736155331,1,-0.207807943,1
1.747988701,-7.463844776,1,-3.798199177,1,-9.104304314,1,-0.042691208,1,-2.531567812,1,1.760448098,1,0.142036408,1,-0.747189879,1,-0.200448126,1
1.751990557,-6.885375023,1,-3.355702877,1,-8.669555664,1,0.03246928,1,-2.556001902,1,1.816876888,1,0.136690855,1,-0.758259654,1,-0.19268474,1
1.75598824,-7.075330257,1,-3.567303896,1,-8.562495232,1,0.131740361,1,-2.570111036,1,1.866324186,1,0.131344497,1,-0.769400895,1,-0.184484959,1
1.75998795,-8.402075768,1,-4.590017319,1,-8.850290298,1,0.195361793,1,-2.552823782,1,1.92715776,1,0.12593095,1,-0.780554533,1,-0.175786853,1
1.763989806,-9.584749222,1,-5.023871422,1,-9.027697563,1,0.178265348,1,-2.466900587,1,1.975763202,1,0.12014538,1,-0.791485131,1,-0.166541696,1
1.76798749,-8.830299377,1,-4.799427986,1,-8.923264503,1,0.154039517,1,-2.331175089,1,1.983593225,1,0.113903172,1,-0.801947415,1,-0.156891912,1
1.771986961,-8.33984375,1,-5.002702713,1,-8.721384048,1,0.129586473,1,-2.220995903,1,2.007888317,1,0.107259102,1,-0.81186384,1,-0.146894678,1
1.77598846,-7.925449371,1,-4.668329239,1,-8.319014549,1,0.085282974,1,-2.115173578,1,2.04117322,1,0.100058116,1,-0.821327746,1,-0.136430934,1
1.779986143,-6.432355881,1,-4.607746124,1,-8.318996429,1,0.0600545,1,-2.005857229,1,2.039380074,1,0.092377432,1,-0.830323994,1,-0.125597611,1
1.783985615,-6.197548389,1,-4.641167641,1,-8.87416935,1,0.036187284,1,-1.893542767,1,2.012773037,1,0.08441364,1,-0.838823617,1,-0.11460188,1
1.787987232,-6.279631615,1,-4.901099205,1,-9.386320114,1,0.006407157,1,-1.699891448,1,1.961280704,1,0.076265566,1,-0.846644759,1,-0.103568554,1
1.791984916,-5.125257015,1,-5.592852592,1,-9.526576042,1,-0.072209343,1,-1.513346195,1,1.890241146,1,0.067911729,1,-0.853592634,1,-0.092611879,1
1.795984387,-3.643928289,1,-6.444322109,1,-9.693725586,1,-0.147459984,1,-1.308925509,1,1.764345407,1,0.0594659,1,-0.859680772,1,-0.082017995,1
1.799985886,-5.315432549,1,-6.038234234,1,-9.423086166,1,-0.254765242,1,-1.156924725,1,1.622644305,1,0.051069729,1,-0.864982247,1,-0.072012782,1
1.803983569,-7.055183411,1,-4.735683918,1,-10.06774235,1,-0.226677179,1,-0.857278883,1,1.361407399,1,0.043225769,1,-0.869323611,1,-0.063078389,1
1.80798316,-6.886031151,1,-4.283426285,1,-10.83403206,1,-0.088134535,1,-0.516939819,1,1.120072126,1,0.036853161,1,-0.872278094,1,-0.055563342,1
1.811984897,-5.105019093,1,-4.50850296,1,-10.86457539,1,0.015515181,1,-0.200376526,1,0.918112755,1,0.031900838,1,-0.873837054,1,-0.049289051,1
1.81598258,-3.403606415,1,-4.814883232,1,-10.78798676,1,0.114085302,1,0.053633563,1,0.692387938,1,0.028320298,1,-0.874204516,1,-0.04428459,1
1.819982052,-2.409926414,1,-5.26663065,1,-10.45877934,1,0.203354552,1,0.260736376,1,0.475178391,1,0.026164418,1,-0.873633623,1,-0.040633075,1
1.823989749,-1.550716996,1,-5.571123123,1,-10.22564793,1,0.263281643,1,0.445802659,1,0.274800897,1,0.025273373,1,-0.872255683,1,-0.03823673,1
1.827993393,-0.689011753,1,-5.808442593,1,-9.854442596,1,0.278748959,1,0.594453275,1,0.107568845,1,0.025401449,1,-0.87015152,1,-0.037485458,1
1.831992865,0.080695391,1,-5.86611414,1,-9.391347885,1,0.265896261,1,0.708569705,1,-0.035908718,1,0.026253564,1,-0.867535353,1,-0.037166636,1
1.835994363,0.752724588,1,-5.702636719,1,-9.000873566,1,0.237107366,1,0.800548792,1,-0.162374377,1,0.027622826,1,-0.864512801,1,-0.03764835,1
1.839992046,1.308936715,1,-5.340767384,1,-8.706944466,1,0.207254231,1,0.869852066,1,-0.275615424,1,0.029411849,1,-0.861151874,1,-0.038850099,1
1.843991756,1.693070531,1,-4.887506485,1,-8.507706642,1,0.187525511,1,0.925382614,1,-0.374726087,1,0.031577121,1,-0.857537508,1,-0.040669218,1
1.847993374,1.963857889,1,-4.414261341,1,-8.414400101,1,0.190469548,1,0.960839152,1,-0.467470914,1,0.034131557,1,-0.853709579,1,-0.043049004,1
1.851991057,2.048258781,1,-3.831542969,1,-8.391931534,1,0.225547433,1,0.988888443,1,-0.541191757,1,0.037111416,1,-0.849737465,1,-0.045902729,1
1.855990767,1.982284188,1,-3.365675211,1,-8.401183128,1,0.273884445,1,1.020559907,1,-0.616544783,1,0.040538363,1,-0.845633745,1,-0.049158052,1
1.859992266,1.921698689,1,-2.953347921,1,-8.244195938,1,0.349533617,1,1.054546714,1,-0.675326288,1,0.04447468,1,-0.841385543,1,-0.052769307,1
1.863990068,2.091047525,1,-2.633687973,1,-7.964547157,1,0.438610226,1,1.086453557,1,-0.733786047,1,0.048956227,1,-0.836978197,1,-0.05667844,1
1.867989779,2.473493814,1,-2.399470329,1,-7.704940796,1,0.54173851,1,1.097448826,1,-0.779639721,1,0.054012146,1,-0.832446635,1,-0.060846306,1
1.871991277,2.915045977,1,-2.194147587,1,-7.638093948,1,0.645241082,1,1.08546257,1,-0.81929636,1,0.059609838,1,-0.827894926,1,-0.06521897,1
1.875989199,3.190572262,1,-2.092593431,1,-7.650010586,1,0.730408847,1,1.037866831,1,-0.847991645,1,0.065696955,1,-0.823436975,1,-0.069749847,1
1.879989028,3.11276269,1,-2.175787449,1,-7.777339935,1,0.807199776,1,0.976017237,1,-0.861297369,1,0.072151557,1,-0.81918174,1,-0.074354976,1
1.883990526,2.800294876,1,-2.304621935,1,-7.906582832,1,0.853358567,1,0.91225636,1,-0.884530485,1,0.078890063,1,-0.815147161,1,-0.079029515,1
1.88798821,2.393303871,1,-2.45677352,1,-8.168507576,1,0.878037632,1,0.862980604,1,-0.905272603,1,0.085825153,1,-0.811318576,1,-0.083789982,1
1.891987681,1.738155842,1,-2.686102152,1,-8.581441879,1,0.89203757,1,0.833272338,1,-0.936466098,1,0.092913315,1,-0.807622313,1,-0.088663727,1
1.895989299,0.931350708,1,-2.858446121,1,-9.021540642,1,0.895437896,1,0.83541739,1,-0.97922051,1,0.100139543,1,-0.803934157,1,-0.093712524,1
1.899986982,-0.030334843,1,-3.024158955,1,-9.500995636,1,0.886730611,1,0.876766324,1,-1.033039451,1,0.107483432,1,-0.800119877,1,-0.098952286,1
1.903986454,-1.101994157,1,-3.120623589,1,-9.963298798,1,0.875115216,1,0.963073909,1,-1.095033526,1,0.11494045,1,-0.795996726,1,-0.104432859,1
1.907988191,-1.908522487,1,-3.155489683,1,-10.38816547,1,0.854622543,1,1.083832264,1,-1.165234447,1,0.12246947,1,-0.79140234,1,-0.11013294,1
1.911985874,-2.441408873,1,-3.168861866,1,-10.70141125,1,0.838573635,1,1.219419003,1,-1.237684131,1,0.130073622,1,-0.786236763,1,-0.116073787,1
1.915985465,-2.826998472,1,-3.047329426,1,-10.96114731,1,0.820630312,1,1.375893593,1,-1.31735003,1,0.137741044,1,-0.780415356,1,-0.122238196,1
1.919986963,-2.947577477,1,-2.865684271,1,-11.10979366,1,0.803861618,1,1.529015422,1,-1.393820763,1,0.145470083,1,-0.773899436,1,-0.128629684,1
1.923984647,-2.786594629,1,-2.793424845,1,-11.19250965,1,0.779221058,1,1.669809461,1,-1.466752052,1,0.153205201,1,-0.766714752,1,-0.135186836,1
1.927984118,-2.637092113,1,-2.598889828,1,-11.18533802,1,0.763098836,1,1.790393353,1,-1.533612609,1,0.160923034,1,-0.758942604,1,-0.141886592,1
1.931985974,-2.48657918,1,-2.475246429,1,-11.21477222,1,0.743679404,1,1.885176182,1,-1.585304737,1,0.16860269,1,-0.750666857,1,-0.148678958,1
1.935983658,-2.477708817,1,-2.320712805,1,-11.2135973,1,0.72587949,1,1.968146801,1,-1.623661041,1,0.176165417,1,-0.741969407,1,-0.155491769,1
1.939983368,-2.55716157,1,-2.155265331,1,-11.19648933,1,0.708444774,1,2.030538082,1,-1.659550667,1,0.183599859,1,-0.732912719,1,-0.162289724,1
1.943991065,-2.808869362,1,-1.943219066,1,-11.21433926,1,0.706723273,1,2.09053278,1,-1.682491779,1,0.190926164,1,-0.723569989,1,-0.169042468,1
1.94799459,-3.079820871,1,-1.827120781,1,-11.25129318,1,0.701171219,1,2.143903255,1,-1.707979083,1,0.198132843,1,-0.713944197,1,-0.175705522,1
1.951994419,-3.423529387,1,-1.654740453,1,-11.34189224,1,0.699930489,1,2.196447134,1,-1.721703053,1,0.205211774,1,-0.704071522,1,-0.182268173,1
1.955995917,-3.791376352,1,-1.572980881,1,-11.36348152,1,0.696985066,1,2.249183416,1,-1.736141443,1,0.212146431,1,-0.693941057,1,-0.188697144,1
1.959993601,-4.208977222,1,-1.50566268,1,-11.4065733,1,0.696294367,1,2.297343731,1,-1.743641376,1,0.218940645,1,-0.683574259,1,-0.194990635,1
1.963993073,-4.624423504,1,-1.549807668,1,-11.55591106,1,0.697103858,1,2.350613832,1,-1.741052032,1,0.225562692,1,-0.672959983,1,-0.201094642,1
1.967994571,-4.994869232,1,-1.509119868,1,-11.65645599,1,0.694508374,1,2.403213501,1,-1.742359996,1,0.231994331,1,-0.66211921,1,-0.206986398,1
1.971992612,-5.342494488,1,-1.455156207,1,-11.79506397,1,0.688889027,1,2.454226255,1,-1.734154582,1,0.238218293,1,-0.651055217,1,-0.212655932,1
1.975992084,-5.721714497,1,-1.419676542,1,-11.8784523,1,0.6814031,1,2.510084391,1,-1.735566378,1,0.244251445,1,-0.639758945,1,-0.21812731,1
1.979993582,-6.053229332,1,-1.470781326,1,-11.95018196,1,0.668499947,1,2.56426096,1,-1.731334329,1,0.250068784,1,-0.628216624,1,-0.22338517,1
1.983991265,-6.263021469,1,-1.605859756,1,-11.9633007,1,0.647847354,1,2.628136873,1,-1.71299696,1,0.255626857,1,-0.616437793,1,-0.228396073,1
1.987990737,-6.434897423,1,-1.65968442,1,-11.97485256,1,0.612451196,1,2.687551737,1,-1.69920361,1,0.26087749,1,-0.604410112,1,-0.233143702,1
1.991992354,-6.476266861,1,-1.67197597,1,-11.93342781,1,0.577387989,1,2.749764681,1,-1.679823399,1,0.26577583,1,-0.592150927,1,-0.237614289,1
1.995990038,-6.530302048,1,-1.644913435,1,-11.96120262,1,0.540874958,1,2.792665482,1,-1.656774998,1,0.270328373,1,-0.579691291,1,-0.24181281,1
1.99998951,-6.456102848,1,-1.600506663,1,-11.99093533,1,0.49857372,1,2.833142042,1,-1.627665401,1,0.274536252,1,-0.567081869,1,-0.24573727,1
2.003991365,-6.381846428,1,-1.553539515,1,-11.99548244,1,0.459863842,1,2.853792667,1,-1.59582746,1,0.278396159,1,-0.554374516,1,-0.249391481,1
2.00798893,-6.298231602,1,-1.474471927,1,-12.00696278,1,0.427426815,1,2.869241953,1,-1.561256289,1,0.281947613,1,-0.541616082,1,-0.252790123,1
2.011988401,-6.371770859,1,-1.386089325,1,-12.05942726,1,0.398850352,1,2.872059584,1,-1.532329917,1,0.285218596,1,-0.528869152,1,-0.255961031,1
2.015990257,-6.586754322,1,-1.389468074,1,-12.0425148,1,0.378669292,1,2.868812799,1,-1.497673869,1,0.288253784,1,-0.51614958,1,-0.258928925,1
2.01998806,-6.872691631,1,-1.382553935,1,-12.13219738,1,0.3690615,1,2.86151886,1,-1.4674685,1,0.291095406,1,-0.503474116,1,-0.261687964,1
2.023987532,-7.227100372,1,-1.539937139,1,-12.2154789,1,0.37236771,1,2.871934414,1,-1.430342793,1,0.293804109,1,-0.490827262,1,-0.26424557,1
2.027988911,-7.611744881,1,-1.75058639,1,-12.40635014,1,0.374175996,1,2.89100194,1,-1.405998707,1,0.296400666,1,-0.478157789,1,-0.266592383,1
2.031986713,-8.022849083,1,-1.856245518,1,-12.52074718,1,0.375854164,1,2.918714523,1,-1.384719372,1,0.298892289,1,-0.465422511,1,-0.268755555,1
2.035986423,-8.384720802,1,-1.962569952,1,-12.53039455,1,0.371791363,1,2.961055517,1,-1.375152946,1,0.301265299,1,-0.452557147,1,-0.270750254,1
2.039988041,-8.648705482,1,-1.942278266,1,-12.51605415,1,0.358589053,1,3.00758028,1,-1.364324689,1,0.303512245,1,-0.439518064,1,-0.272606343,1
2.043985367,-8.751386642,1,-1.861687303,1,-12.47700119,1,0.356351763,1,3.061811209,1,-1.36171639,1,0.305663347,1,-0.426291764,1,-0.274328321,1
2.047985077,-8.659074783,1,-1.969434738,1,-12.34307194,1,0.352782547,1,3.11040473,1,-1.358444452,1,0.30773586,1,-0.41288507,1,-0.275929421,1
2.051986694,-8.271769524,1,-2.215614319,1,-12.27220345,1,0.348404408,1,3.140505791,1,-1.344976068,1,0.309728265,1,-0.399323583,1,-0.277415872,1
2.05598402,-7.85444355,1,-2.304691792,1,-12.11147022,1,0.330520093,1,3.150140047,1,-1.333149076,1,0.311602831,1,-0.385695577,1,-0.278777093,1
2.05998373,-7.568285942,1,-2.229174137,1,-11.9188633,1,0.309182525,1,3.138703585,1,-1.320535898,1,0.313351393,1,-0.37209937,1,-0.280048966,1
2.063985109,-7.588002682,1,-1.976180077,1,-11.6691618,1,0.304540157,1,3.116660118,1,-1.302640676,1,0.315007925,1,-0.358583033,1,-0.281251311,1
2.067989111,-7.69781065,1,-1.577225924,1,-11.39496136,1,0.319085777,1,3.082705498,1,-1.282989264,1,0.316646934,1,-0.345194578,1,-0.282387137,1
2.071988821,-7.828130245,1,-1.360503197,1,-11.0353117,1,0.349884391,1,3.047344923,1,-1.254240751,1,0.318326235,1,-0.33196342,1,-0.283440292,1
2.0759902,-7.833978653,1,-1.363615751,1,-10.73631477,1,0.385704488,1,3.004155159,1,-1.215106368,1,0.320079297,1,-0.318891048,1,-0.284468859,1
2.079988241,-7.795198917,1,-1.440897584,1,-10.42038441,1,0.424913555,1,2.956146717,1,-1.165416479,1,0.321949244,1,-0.306073248,1,-0.285270154,1
2.083987951,-7.756508827,1,-1.491192818,1,-10.15381145,1,0.45951122,1,2.892930746,1,-1.11019814,1,0.323907882,1,-0.293529928,1,-0.285899282,1
2.087989569,-7.893307686,1,-1.385182619,1,-9.848568916,1,0.494262844,1,2.827667475,1,-1.054264307,1,0.325943619,1,-0.281310439,1,-0.286372989,1
2.091987371,-8.201965332,1,-1.058256626,1,-9.556202888,1,0.539698303,1,2.758172035,1,-0.98603642,1,0.328082979,1,-0.269413561,1,-0.286652565,1
2.095986843,-8.493956566,1,-0.75061667,1,-9.155632019,1,0.601279438,1,2.68977046,1,-0.910510659,1,0.330384731,1,-0.257873982,1,-0.286727935,1
2.099988699,-8.772303581,1,-0.594490111,1,-8.846885681,1,0.679874599,1,2.630773783,1,-0.831240356,1,0.332899302,1,-0.246679038,1,-0.286552727,1
2.103986502,-8.927036285,1,-0.691531956,1,-8.619709969,1,0.755575955,1,2.57827425,1,-0.743503332,1,0.335663915,1,-0.235800281,1,-0.286095619,1
2.107985973,-9.023701668,1,-0.60535574,1,-8.310198784,1,0.830197752,1,2.521412849,1,-0.655336201,1,0.338671923,1,-0.2252516,1,-0.28534323,1
2.111987352,-9.308065414,1,-0.41324684,1,-7.927845001,1,0.907050252,1,2.463867903,1,-0.560380995,1,0.341911077,1,-0.215048507,1,-0.2842848,1
2.115985155,-9.538658142,1,-0.052541271,1,-7.561355591,1,0.989948153,1,2.411422729,1,-0.46401304,1,0.345422685,1,-0.205176383,1,-0.282904476,1
2.119984627,-9.693043709,1,0.24944365,1,-7.113626957,1,1.08018291,1,2.356836081,1,-0.367323667,1,0.349218369,1,-0.195641011,1,-0.281193972,1
2.123986483,-9.548475266,1,0.367632419,1,-6.634348392,1,1.168993831,1,2.301312447,1,-0.263616711,1,0.353319764,1,-0.186456949,1,-0.279132485,1
2.127984047,-9.451350212,1,0.39256987,1,-6.238139629,1,1.23717463,1,2.233243704,1,-0.164486989,1,0.357708693,1,-0.177652046,1,-0.276737869,1
2.131983757,-9.493275642,1,0.41792345,1,-5.750457287,1,1.288128138,1,2.156154394,1,-0.067506261,1,0.362300426,1,-0.169261977,1,-0.274045855,1
2.135985613,-9.753484726,1,0.506242931,1,-5.296081543,1,1.315395951,1,2.078216314,1,0.01856035,1,0.367017299,1,-0.161311671,1,-0.271063834,1
2.139983416,-10.09439754,1,0.667910337,1,-4.89938736,1,1.323388338,1,1.996670604,1,0.108854622,1,0.371788621,1,-0.153797254,1,-0.267845035,1
2.143983126,-10.56567955,1,0.830203652,1,-4.545972824,1,1.322253704,1,1.911254048,1,0.178750128,1,0.376559556,1,-0.146728382,1,-0.264416754,1
2.147984743,-11.25171566,1,1.202603579,1,-4.191186905,1,1.31172955,1,1.832510829,1,0.245357201,1,0.381311029,1,-0.140097499,1,-0.260811061,1
2.151982069,-11.9544239,1,1.601157427,1,-3.778539658,1,1.29394567,1,1.762474537,1,0.295765996,1,0.386012137,1,-0.133841902,1,-0.257080495,1
2.155981541,-12.17906284,1,1.752498627,1,-3.463047028,1,1.264279485,1,1.7010566,1,0.33652705,1,0.390637159,1,-0.127915785,1,-0.25324744,1
2.159983158,-12.03885365,1,1.659304738,1,-3.245229244,1,1.200448275,1,1.634217381,1,0.368872315,1,0.395091057,1,-0.122276299,1,-0.249356747,1
2.163980722,-11.57816696,1,1.497044444,1,-2.992729664,1,1.100537539,1,1.559747458,1,0.399058402,1,0.399232268,1,-0.116980426,1,-0.245438471,1
2.167980433,-10.80994511,1,1.322520852,1,-2.746872902,1,0.953628719,1,1.453176856,1,0.419322729,1,0.402897894,1,-0.112067267,1,-0.241549313,1
2.17198205,-9.970653534,1,1.035938263,1,-2.529218912,1,0.778708577,1,1.325297952,1,0.446737915,1,0.405956656,1,-0.107632443,1,-0.237739876,1
2.175980091,-8.983862877,1,0.636541903,1,-2.477187157,1,0.577391326,1,1.187848568,1,0.480372459,1,0.40827316,1,-0.103737883,1,-0.23402369,1
2.179979563,-8.023334503,1,0.287364453,1,-2.684699059,1,0.364103824,1,1.024255753,1,0.50745213,1,0.409787834,1,-0.10046532,1,-0.230433717,1
2.183980942,-7.297520161,1,0.0456944,1,-2.95708847,1,0.156331912,1,0.857713044,1,0.541249156,1,0.410486847,1,-0.097847223,1,-0.226990774,1
2.187984705,-6.883402348,1,-0.121078245,1,-3.335666895,1,-0.028667366,1,0.699867845,1,0.560842514,1,0.410414398,1,-0.095867038,1,-0.223712683,1
2.191984177,-6.686704636,1,-0.102442242,1,-3.820939541,1,-0.175799683,1,0.567724109,1,0.560514033,1,0.409700751,1,-0.094439633,1,-0.220628858,1
2.195986032,-6.584536076,1,-0.186453104,1,-4.473134995,1,-0.286479175,1,0.463214248,1,0.543643832,1,0.40848887,1,-0.093428887,1,-0.217769265,1
2.199983597,-6.696214199,1,-0.29374215,1,-5.061813831,1,-0.355184436,1,0.401048273,1,0.505213797,1,0.40695402,1,-0.092682891,1,-0.215153426,1
2.203983068,-6.774060726,1,-0.433591902,1,-5.615982533,1,-0.385096431,1,0.372503102,1,0.442529917,1,0.405247092,1,-0.092017569,1,-0.212787494,1
2.207984924,-6.510419846,1,-0.693404555,1,-6.089160919,1,-0.405781686,1,0.383540303,1,0.364335239,1,0.40347591,1,-0.091264419,1,-0.210697964,1
2.211982489,-5.85603714,1,-1.159829736,1,-6.417114735,1,-0.422936767,1,0.408482492,1,0.282973617,1,0.401655555,1,-0.090310924,1,-0.208869442,1
2.215982199,-5.012857914,1,-1.53965044,1,-6.647369385,1,-0.44233793,1,0.436905563,1,0.199367315,1,0.399781287,1,-0.089131691,1,-0.207306221,1
2.219983578,-4.26426506,1,-1.73963654,1,-6.740479469,1,-0.467403144,1,0.446800113,1,0.118553951,1,0.397850722,1,-0.087743767,1,-0.206027508,1
2.223981142,-3.660753012,1,-1.847375154,1,-6.724606514,1,-0.485539913,1,0.450530112,1,0.040248487,1,0.395855337,1,-0.086195968,1,-0.20503974,1
2.227980852,-3.170139313,1,-1.787350416,1,-6.631698608,1,-0.502465904,1,0.419762284,1,-0.029878473,1,0.393820047,1,-0.084596716,1,-0.20435518,1
2.231982708,-2.909353733,1,-1.631957531,1,-6.465186596,1,-0.504709125,1,0.376799554,1,-0.092301235,1,0.39177528,1,-0.083029799,1,-0.203968465,1
2.235980272,-2.805922985,1,-1.468071103,1,-6.326985359,1,-0.504426003,1,0.310315937,1,-0.143864587,1,0.389748693,1,-0.081574969,1,-0.203876764,1
2.239979982,-2.830069542,1,-1.320180655,1,-6.232115269,1,-0.496352971,1,0.248597383,1,-0.183966458,1,0.387766778,1,-0.080290042,1,-0.204054832,1
2.2439816,-3.022330761,1,-1.288245797,1,-6.102174759,1,-0.487542897,1,0.184827298,1,-0.216672435,1,0.385837972,1,-0.079183981,1,-0.204476133,1
2.247978926,-3.386959791,1,-1.125741959,1,-6.029480457,1,-0.471488863,1,0.124424979,1,-0.244292781,1,0.38396433,1,-0.078263186,1,-0.205112547,1
2.251978397,-3.854687214,1,-0.884686589,1,-6.010733128,1,-0.453625798,1,0.071209416,1,-0.266087711,1,0.382176995,1,-0.077526845,1,-0.205916584,1
2.255980015,-4.33452177,1,-0.666963398,1,-6.0192523,1,-0.428852618,1,0.027433053,1,-0.283751637,1,0.380482644,1,-0.076942936,1,-0.206878245,1
2.259977818,-4.851335049,1,-0.585857153,1,-5.998632908,1,-0.411207408,1,-0.020810623,1,-0.296927899,1,0.378886163,1,-0.076498918,1,-0.207964435,1
2.263977528,-5.43494606,1,-0.536705554,1,-5.921151638,1,-0.389156282,1,-0.058972087,1,-0.299257785,1,0.377379,1,-0.07620573,1,-0.209129095,1
2.267978907,-6.036581039,1,-0.570708752,1,-5.82082653,1,-0.377366066,1,-0.081240892,1,-0.279440314,1,0.375937909,1,-0.076042272,1,-0.210311458,1
2.271976709,-6.376976967,1,-0.493977666,1,-5.646207809,1,-0.384007007,1,-0.095588438,1,-0.253288567,1,0.374501169,1,-0.07598231,1,-0.211444139,1
2.275976181,-6.457282543,1,-0.395026147,1,-5.42336607,1,-0.406963319,1,-0.116956733,1,-0.206444457,1,0.37300247,1,-0.076041937,1,-0.212462232,1
2.279978037,-6.338431358,1,-0.231833667,1,-5.189748287,1,-0.439761907,1,-0.153941855,1,-0.140943274,1,0.371374696,1,-0.076294757,1,-0.213312387,1
2.283975601,-6.28631258,1,-0.094210327,1,-4.996047497,1,-0.476871967,1,-0.202070042,1,-0.048858933,1,0.369587511,1,-0.076814987,1,-0.2139256,1
2.287975073,-6.150671482,1,0.026855335,1,-4.875947475,1,-0.513282835,1,-0.267174423,1,0.058006909,1,0.367635608,1,-0.077694952,1,-0.214246586,1
2.291976929,-6.032701969,1,-0.017226176,1,-4.848174095,1,-0.559154928,1,-0.337505013,1,0.188286543,1,0.365490109,1,-0.078999996,1,-0.214227393,1
2.295974731,-6.13203907,1,-0.010664679,1,-4.833022118,1,-0.599659264,1,-0.409364462,1,0.328909457,1,0.363132417,1,-0.080771938,1,-0.213785246,1
2.299974203,-6.4845891,1,0.110907413,1,-4.840694904,1,-0.63715589,1,-0.465001374,1,0.46740067,1,0.360584617,1,-0.082969241,1,-0.212912306,1
2.303975582,-6.973221302,1,0.215241805,1,-4.86425066,1,-0.649884582,1,-0.505530119,1,0.597730339,1,0.357900172,1,-0.08554589,1,-0.21159628,1
2.307979345,-7.440182686,1,0.143993169,1,-4.902943611,1,-0.656605124,1,-0.529649317,1,0.719908357,1,0.355135381,1,-0.088406034,1,-0.209841669,1
2.311978817,-7.770686626,1,-0.01087508,1,-4.888659,1,-0.657993615,1,-0.540648282,1,0.82703197,1,0.352308512,1,-0.091479219,1,-0.207665429,1
2.315980196,-7.648304462,1,-0.333846956,1,-4.874610901,1,-0.655106723,1,-0.557900369,1,0.915784478,1,0.349455595,1,-0.094736315,1,-0.20513621,1
2.319977999,-7.332009315,1,-0.907474518,1,-4.839505196,1,-0.663366437,1,-0.586664021,1,0.98977387,1,0.34654969,1,-0.098181866,1,-0.20231384,1
2.32397747,-6.922422886,1,-1.455128312,1,-4.705942631,1,-0.692257404,1,-0.641497433,1,1.040431261,1,0.343534499,1,-0.101865679,1,-0.199306309,1
2.327979326,-6.58501339,1,-1.796902895,1,-4.546906948,1,-0.726435184,1,-0.723215044,1,1.063882589,1,0.340372503,1,-0.105812907,1,-0.196018919,1
2.331976891,-6.398596287,1,-2.117309332,1,-4.396499157,1,-0.761876762,1,-0.82521385,1,1.06708622,1,0.337074935,1,-0.11014355,1,-0.193001464,1
2.335976362,-6.365691662,1,-2.393084049,1,-4.36473465,1,-0.790678859,1,-0.944810927,1,1.041551828,1,0.333647311,1,-0.114875153,1,-0.19016166,1
2.33997798,-6.549871445,1,-2.696692705,1,-4.354865074,1,-0.813726306,1,-1.078377008,1,0.987192452,1,0.330143511,1,-0.120030619,1,-0.187613651,1
2.343976021,-6.986354828,1,-3.168114185,1,-4.395309925,1,-0.840044737,1,-1.204497337,1,0.907039106,1,0.326579094,1,-0.125574544,1,-0.185472056,1
2.347975492,17.25860023,1,-3.456868172,1,-14.93472481,1,-0.632086217,1,-1.407667041,1,1.016039491,1,0.323144287,1,-0.131579265,1,-0.183584481,1
2.351976871,0.864387572,1,-4.120038509,1,-15.88440418,1,-0.036408491,1,-2.339312315,1,1.369359255,1,0.321718335,1,-0.140300006,1,-0.181391641,1
2.355974674,-3.68769598,1,-9.337796211,1,-11.5272522,1,-0.487095475,1,-2.16045475,1,1.314687014,1,0.320457667,1,-0.150780886,1,-0.17908445,1
2.359974146,20.82426643,1,-14.51965046,1,-11.47969437,1,-0.581443489,1,-2.020972967,1,1.161781669,1,0.31778574,1,-0.160138577,1,-0.176999748,1
2.363975763,20.27176285,1,-14.64650249,1,-16.07522202,1,-0.262030214,1,-2.175745964,1,1.161334753,1,0.315855563,1,-0.169566944,1,-0.175155967,1
2.367973328,15.23522091,1,-16.17232895,1,-22.23937225,1,-0.433932096,1,-2.143207073,1,1.051166534,1,0.314319134,1,-0.179218903,1,-0.173614413,1
2.371972799,11.48904228,1,-17.31695366,1,-25.69769669,1,-0.748537958,1,-1.856537819,1,0.893291533,1,0.311703354,1,-0.188099429,1,-0.172366098,1
2.375974655,13.43805885,1,-16.59748077,1,-26.89366531,1,-0.838090599,1,-1.39883256,1,0.65694654,1,0.308276087,1,-0.195221901,1,-0.171354026,1
2.379972458,4.425061703,1,-16.40146255,1,-23.05205917,1,-1.120188475,1,-1.148686051,1,0.309600919,1,0.304387599,1,-0.200646698,1,-0.17100814,1
2.38397193,-1.185177326,1,-12.02651787,1,-14.47491264,1,-1.388632178,1,-0.941535175,1,-0.066892654,1,0.299468845,1,-0.204710707,1,-0.171818361,1
2.387973547,3.215680838,1,-6.734593391,1,-7.095909595,1,-1.398251891,1,-1.263177752,1,-0.228109047,1,0.294224739,1,-0.208605036,1,-0.173707291,1
2.39197135,0.811123848,1,-1.38569808,1,-3.609050512,1,-1.291404605,1,-1.863219619,1,-0.307445467,1,0.289439678,1,-0.214303225,1,-0.176604867,1
2.395970821,-2.91323781,1,0.76300323,1,-3.199645996,1,-1.139893413,1,-2.275772333,1,-0.375247747,1,0.285392284,1,-0.221907675,1,-0.180363849,1
2.399972677,-5.280377388,1,1.785611153,1,-5.073579311,1,-0.958647013,1,-2.530750036,1,-0.412349433,1,0.282152623,1,-0.230716482,1,-0.184690505,1
2.403970242,-6.768081188,1,2.645587921,1,-8.038778305,1,-0.757005274,1,-2.619581938,1,-0.422764987,1,0.279787242,1,-0.240195498,1,-0.189301535,1
2.407969952,-7.751351357,1,3.182133198,1,-11.55372047,1,-0.609624624,1,-2.518960714,1,-0.363348275,1,0.278167009,1,-0.249676093,1,-0.193815172,1
2.411971569,-7.787637234,1,3.235758066,1,-13.85248756,1,-0.515040278,1,-2.263212204,1,-0.227772877,1,0.27691561,1,-0.258571237,1,-0.197718859,1
2.415969372,-7.120505333,1,2.46877265,1,-14.2521162,1,-0.517971158,1,-1.991155148,1,0.016997453,1,0.275614142,1,-0.266637057,1,-0.200572833,1
2.419969082,-5.722738743,1,2.464642286,1,-13.10385799,1,-0.538857996,1,-1.771930575,1,0.362740368,1,0.273870826,1,-0.274058759,1,-0.201946467,1
2.423970461,-4.431794643,1,3.144004583,1,-11.42242336,1,-0.529540539,1,-1.660629749,1,0.710351706,1,0.27166298,1,-0.281219602,1,-0.201695859,1
2.427974224,-3.998728752,1,3.83511138,1,-10.16831017,1,-0.484951437,1,-1.626102567,1,0.992455781,1,0.269156456,1,-0.288452864,1,-0.20007889,1
2.431973934,-3.740062237,1,4.137190342,1,-9.516366005,1,-0.324077636,1,-1.643835545,1,1.146140575,1,0.266809255,1,-0.295888782,1,-0.197542667,1
2.435975313,-4.637061119,1,2.756371498,1,-9.324027061,1,-0.190513849,1,-1.671923518,1,1.159347534,1,0.264939755,1,-0.303511083,1,-0.194683522,1
2.439973116,-5.100812435,1,-0.128512099,1,-9.458684921,1,-0.087347068,1,-1.680199862,1,1.092413187,1,0.263584763,1,-0.311169475,1,-0.191944733,1
2.443972826,-5.836431026,1,-2.972768307,1,-9.385152817,1,-0.054481909,1,-1.662048221,1,0.991596997,1,0.262578487,1,-0.318723023,1,-0.189523458,1
2.447974443,-5.708365917,1,-5.659373283,1,-8.998829842,1,-0.071042843,1,-1.630705476,1,0.848694265,1,0.261714965,1,-0.326033652,1,-0.187578782,1
2.451972008,-5.330942631,1,-7.008593559,1,-8.417981148,1,-0.137157276,1,-1.615166306,1,0.721774817,1,0.260841638,1,-0.333107919,1,-0.186145812,1
2.455971479,-4.647862911,1,-7.650604725,1,-7.916611195,1,-0.223499686,1,-1.63249743,1,0.606250703,1,0.259817779,1,-0.340061307,1,-0.185198799,1
2.459973097,-3.722936869,1,-8.073672295,1,-7.623619556,1,-0.321811706,1,-1.670953989,1,0.500997722,1,0.258563846,1,-0.34700948,1,-0.184737384,1
2.4639709,-3.256170988,1,-7.843113899,1,-7.74148035,1,-0.427227437,1,-1.726984382,1,0.416414201,1,0.257046461,1,-0.354053319,1,-0.184695885,1
2.467970371,-3.961203814,1,-7.23514843,1,-7.937650681,1,-0.537684798,1,-1.768805146,1,0.379201442,1,0.255208522,1,-0.361231863,1,-0.184962064,1
2.471971989,-3.960127831,1,-6.540424347,1,-8.391964912,1,-0.618936837,1,-1.765846252,1,0.353091925,1,0.253023893,1,-0.368454635,1,-0.1853531,1
2.475969791,-4.816678047,1,-4.946084499,1,-8.833669662,1,-0.653931618,1,-1.739162445,1,0.332736224,1,0.250642002,1,-0.375581026,1,-0.185812682,1
2.479969263,-5.420958042,1,-3.57268095,1,-8.786657333,1,-0.687560856,1,-1.664062381,1,0.325270563,1,0.248114645,1,-0.382508278,1,-0.186248943,1
2.483971119,-5.361044884,1,-2.645728827,1,-8.5319767,1,-0.697036445,1,-1.612097859,1,0.351301879,1,0.245458573,1,-0.389190555,1,-0.186575994,1
2.487968683,-4.895231247,1,-1.972183943,1,-8.307862282,1,-0.695208013,1,-1.593963385,1,0.398215473,1,0.242711037,1,-0.395770788,1,-0.186679691,1
2.491968155,-4.335859299,1,-1.505305052,1,-8.323284149,1,-0.688934684,1,-1.586044431,1,0.488851309,1,0.239862606,1,-0.402333438,1,-0.186468095,1
2.495970011,-3.504310369,1,-1.250296712,1,-8.695920944,1,-0.691246808,1,-1.607555151,1,0.545460463,1,0.236897364,1,-0.409029424,1,-0.185907602,1
2.499967813,-4.55312252,1,-1.931504846,1,-9.034373283,1,-0.726859033,1,-1.664056182,1,0.640902936,1,0.233726606,1,-0.415961504,1,-0.185082674,1
2.503967524,-4.919630051,1,-2.025038958,1,-9.604372025,1,-0.750161171,1,-1.648974419,1,0.664017141,1,0.230305657,1,-0.423021734,1,-0.183939517,1
2.507969379,-7.346233845,1,-2.155123472,1,-9.968852997,1,-0.746105134,1,-1.582690597,1,0.635974765,1,0.226831615,1,-0.429922789,1,-0.182769194,1
2.511966944,-9.615571022,1,-2.09758997,1,-9.741656303,1,-0.742440224,1,-1.448966861,1,0.628718495,1,0.223354444,1,-0.436422288,1,-0.181540951,1
2.515966654,-9.468190193,1,-2.069787264,1,-9.459646225,1,-0.75752455,1,-1.27624011,1,0.609884679,1,0.219775766,1,-0.442270339,1,-0.180209205,1
2.519968271,-8.628670692,1,-1.633179784,1,-8.963655472,1,-0.753909528,1,-1.130522251,1,0.589965761,1,0.216132671,1,-0.44749102,1,-0.178757325,1
2.523965836,-7.150780201,1,-1.169294715,1,-8.995303154,1,-0.756672859,1,-1.047302961,1,0.600792825,1,0.212443113,1,-0.452218145,1,-0.177224159,1
2.527965784,-6.307491779,1,-1.24014616,1,-8.987963676,1,-0.772320509,1,-0.981095016,1,0.614528775,1,0.208638057,1,-0.45669359,1,-0.175520584,1
2.531967163,-5.612483978,1,-0.236417532,1,-9.264706612,1,-0.748914659,1,-0.942976713,1,0.614696205,1,0.204774171,1,-0.460953534,1,-0.173712373,1
2.535964966,-5.714976311,1,-0.040470958,1,-9.335090637,1,-0.708120584,1,-0.917231798,1,0.586355984,1,0.201067016,1,-0.465090662,1,-0.171907738,1
2.539964437,-6.341499329,1,0.225615099,1,-9.534052849,1,-0.686179399,1,-0.878328383,1,0.568867207,1,0.197498158,1,-0.469079286,1,-0.170179665,1
2.543966055,-9.316740036,1,-0.778075278,1,-10.3792429,1,-0.69686085,1,-0.749275982,1,0.529542327,1,0.19396551,1,-0.472753584,1,-0.168452427,1
2.54796958,-10.61514473,1,0.557974637,1,-9.89453125,1,-0.682022691,1,-0.459689051,1,0.483619094,1,0.190403432,1,-0.475517452,1,-0.16675885,1
2.551969051,-7.489124298,1,1.10144496,1,-9.122928619,1,-0.616352022,1,-0.302996039,1,0.473257303,1,0.186976612,1,-0.477314562,1,-0.164949432,1
2.555970669,-6.273808479,1,1.229847908,1,-9.059612274,1,-0.542037904,1,-0.29538843,1,0.432730705,1,0.183849812,1,-0.478821784,1,-0.163185567,1
2.559968472,-6.03374958,1,0.504814982,1,-9.318058014,1,-0.480554342,1,-0.272156805,1,0.390497237,1,0.181062892,1,-0.480235875,1,-0.161591291,1
2.563967943,-5.300448418,1,0.088142037,1,-9.679059982,1,-0.399122357,1,-0.249114603,1,0.303246409,1,0.17868112,1,-0.481504679,1,-0.160254508,1
2.567969799,-5.222640991,1,-0.593357801,1,-9.567755699,1,-0.359939188,1,-0.219810203,1,0.261686802,1,0.17668505,1,-0.482630253,1,-0.159204617,1
2.571967602,-4.683526516,1,-0.814373314,1,-9.349291801,1,-0.322585285,1,-0.230770513,1,0.233797267,1,0.174891457,1,-0.483680189,1,-0.158278137,1
2.575967073,-5.184083462,1,-1.293527842,1,-9.04045105,1,-0.310895234,1,-0.226614147,1,0.22646375,1,0.173172936,1,-0.484712839,1,-0.157055587,1
2.579968691,-5.230820179,1,-1.418847799,1,-9.17382431,1,-0.282508314,1,-0.232690096,1,0.194807604,1,0.171635568,1,-0.485768467,1,-0.156304538,1
2.583966494,-5.347393036,1,-1.444843888,1,-8.925396919,1,-0.27201575,1,-0.202713206,1,0.183599412,1,0.170216188,1,-0.486759722,1,-0.155634671,1
2.587966204,-4.970136166,1,-1.333512068,1,-8.856128693,1,-0.260412902,1,-0.21026729,1,0.185315669,1,0.168855354,1,-0.48769635,1,-0.154983759,1
2.59196806,-5.394658566,1,-1.012089968,1,-9.097811699,1,-0.241759941,1,-0.208506748,1,0.190120518,1,0.16753599,1,-0.4886491,1,-0.15430294,1
2.595965624,-5.512705326,1,-1.513042569,1,-8.768247604,1,-0.235666946,1,-0.165002957,1,0.207982749,1,0.166253358,1,-0.489519179,1,-0.153562188,1
2.599965334,-4.962014675,1,-1.908747911,1,-8.627260208,1,-0.249532893,1,-0.171494216,1,0.245654434,1,0.164853588,1,-0.490315855,1,-0.152664363,1
2.603966951,-5.502498627,1,-2.373723269,1,-8.663496971,1,-0.265304446,1,-0.165520057,1,0.251962095,1,0.163367867,1,-0.491162091,1,-0.151678726,1
2.607964754,-5.369726181,1,-2.533280373,1,-8.710616112,1,-0.287988871,1,-0.146721393,1,0.250487775,1,0.161777705,1,-0.491940349,1,-0.150663704,1
2.611964464,-5.144428253,1,-2.502775669,1,-8.613919258,1,-0.313666046,1,-0.150790423,1,0.246683419,1,0.160098687,1,-0.492687643,1,-0.14965798,1
2.615965843,-5.362057686,1,-2.402468443,1,-8.500671387,1,-0.33174473,1,-0.128389373,1,0.254056424,1,0.158318236,1,-0.493410766,1,-0.148631692,1
2.619963646,-5.381801605,1,-2.123936892,1,-8.318481445,1,-0.356873304,1,-0.111992292,1,0.259119987,1,0.156443596,1,-0.494048238,1,-0.147577375,1
2.623963356,-5.103012085,1,-1.853746653,1,-8.402290344,1,-0.367738038,1,-0.077919953,1,0.258755296,1,0.154473856,1,-0.494568229,1,-0.146458209,1
2.627964973,-5.392058849,1,-1.81733954,1,-8.463282585,1,-0.368706375,1,-0.068653278,1,0.245401502,1,0.15249975,1,-0.495015085,1,-0.145389035,1
2.631962538,-5.069207668,1,-1.502333283,1,-8.600184441,1,-0.374083638,1,-0.055135854,1,0.234858021,1,0.15051654,1,-0.495400518,1,-0.144335136,1
2.635962009,-5.636843204,1,-1.142100453,1,-8.705568314,1,-0.361829042,1,-0.04966962,1,0.214605108,1,0.148576066,1,-0.495750666,1,-0.143376023,1
2.639963627,-5.320245266,1,-0.946062565,1,-8.646749496,1,-0.363295317,1,-0.033107281,1,0.199351966,1,0.146691784,1,-0.49602586,1,-0.142462119,1
2.64396143,-5.496505737,1,-0.578124642,1,-8.717248917,1,-0.336957127,1,-0.030082891,1,0.194036067,1,0.144877791,1,-0.496274322,1,-0.141601503,1
2.647960901,-4.986403942,1,-0.46312511,1,-8.627394676,1,-0.324827433,1,-0.022320721,1,0.195379153,1,0.143141046,1,-0.496471256,1,-0.140739948,1
2.65196228,-4.656960964,1,-0.662532091,1,-8.670380592,1,-0.300140858,1,-0.045093767,1,0.17995441,1,0.141504079,1,-0.496712446,1,-0.139920875,1
2.655960083,-4.777666569,1,-0.602243662,1,-8.850679398,1,-0.278936744,1,-0.047548339,1,0.169189543,1,0.139975965,1,-0.496990114,1,-0.139165416,1
2.659959555,-4.796896458,1,-0.655287504,1,-8.932552338,1,-0.263725996,1,-0.066392824,1,0.151896283,1,0.138562143,1,-0.497309744,1,-0.138477206,1
2.663961411,-4.86140728,1,-0.488906771,1,-8.92067337,1,-0.244091079,1,-0.068452649,1,0.151641801,1,0.137239128,1,-0.497668773,1,-0.137829959,1
2.667964935,-4.86824131,1,-0.413723648,1,-8.935853004,1,-0.224849671,1,-0.083974861,1,0.143524423,1,0.136018783,1,-0.498051167,1,-0.137223259,1
2.671964407,-4.92006731,1,-0.42026785,1,-8.849057198,1,-0.200204685,1,-0.089775987,1,0.142927989,1,0.134902969,1,-0.498472333,1,-0.136647344,1
2.675966263,-4.352203369,1,-0.473658949,1,-8.906646729,1,-0.17504552,1,-0.113388032,1,0.131889477,1,0.133903682,1,-0.498940945,1,-0.136090115,1
2.679963827,-4.34201622,1,-0.636788666,1,-8.962747574,1,-0.152584881,1,-0.134422749,1,0.134655178,1,0.132996812,1,-0.499511421,1,-0.135562927,1
2.683963299,-4.378501415,1,-1.077979445,1,-9.008728981,1,-0.147565842,1,-0.156368911,1,0.13610898,1,0.132148698,1,-0.500160933,1,-0.135033205,1
2.687965155,-4.756795406,1,-1.548591256,1,-8.976507187,1,-0.145068005,1,-0.165554821,1,0.144988626,1,0.131318286,1,-0.500876784,1,-0.134497404,1
2.691962957,-3.323223352,1,-1.333202004,1,-8.90683651,1,-0.153960556,1,-0.139819697,1,0.154859111,1,0.130401984,1,-0.501513362,1,-0.133854449,1
2.695962667,-4.748477936,1,-1.294151783,1,-8.6895895,1,-0.155119032,1,-0.186310425,1,0.140408099,1,0.129512012,1,-0.502284765,1,-0.133304849,1
2.699964523,-4.780758381,1,-1.135053158,1,-8.776328087,1,-0.157303765,1,-0.179369256,1,0.143844694,1,0.128628358,1,-0.503081381,1,-0.132778317,1
2.703962088,-4.749518871,1,-1.12244904,1,-8.634926796,1,-0.166686937,1,-0.179041803,1,0.157119498,1,0.127701998,1,-0.503871679,1,-0.132205278,1
2.707961798,-4.860533237,1,-1.441910386,1,-8.554879189,1,-0.172211856,1,-0.175074235,1,0.174072966,1,0.126714945,1,-0.504664898,1,-0.131554395,1
2.711963654,-5.032703876,1,-1.791071534,1,-8.447461128,1,-0.200349465,1,-0.119258255,1,0.205186263,1,0.125602737,1,-0.505374134,1,-0.130758166,1
2.715961456,-4.754273891,1,-2.19569087,1,-8.496110916,1,-0.211592987,1,-0.183323517,1,0.193541646,1,0.12440414,1,-0.506097794,1,-0.129962847,1
2.719961166,-4.877520561,1,-2.163368464,1,-8.61841774,1,-0.236073792,1,-0.171634436,1,0.195801169,1,0.123123243,1,-0.506899297,1,-0.129181445,1
2.723962545,-4.915404797,1,-1.870730758,1,-8.537447929,1,-0.264933825,1,-0.172952637,1,0.200765729,1,0.121725664,1,-0.507688284,1,-0.128378153,1
2.727960348,-5.938082218,1,-1.510869145,1,-8.322904587,1,-0.289870888,1,-0.120007291,1,0.22827667,1,0.120185718,1,-0.508409739,1,-0.127486467,1
2.73195982,-5.121621132,1,-1.05009532,1,-8.44448185,1,-0.282765329,1,-0.175278172,1,0.192899644,1,0.118627414,1,-0.509094179,1,-0.12662901,1
2.735961437,-5.232387066,1,-0.772327185,1,-8.237184525,1,-0.272971123,1,-0.146522343,1,0.182434201,1,0.117139183,1,-0.50982976,1,-0.125860974,1
2.739959002,-5.342465401,1,-0.802441239,1,-8.216135025,1,-0.265426189,1,-0.140187606,1,0.194794819,1,0.115678273,1,-0.510478675,1,-0.125086203,1
2.743958473,-4.037899017,1,-0.545045674,1,-8.374281883,1,-0.256983608,1,-0.100092784,1,0.187823802,1,0.114205405,1,-0.510989964,1,-0.124224328,1
2.747960091,-5.089688301,1,-0.822326243,1,-8.390254974,1,-0.248167783,1,-0.133221611,1,0.16782926,1,0.112843089,1,-0.511569321,1,-0.123492897,1
2.751957655,-5.336082458,1,-0.884816825,1,-8.456022263,1,-0.251941204,1,-0.119643889,1,0.171707571,1,0.111502305,1,-0.512144148,1,-0.122802883,1
2.755957365,-4.224019051,1,-0.429762721,1,-8.542714119,1,-0.245922893,1,-0.099265657,1,0.173143268,1,0.110122062,1,-0.512615383,1,-0.12202435,1
2.759958982,-5.11696434,1,-0.572436333,1,-8.287628174,1,-0.238790333,1,-0.129750654,1,0.15533559,1,0.108827934,1,-0.513171673,1,-0.121346183,1
2.763956785,-5.686299801,1,-0.676816404,1,-8.19670105,1,-0.225017175,1,-0.101626799,1,0.172026157,1,0.107571408,1,-0.513709962,1,-0.120674603,1
2.767956257,-4.304666042,1,-0.265097946,1,-8.523216248,1,-0.202555299,1,-0.101356812,1,0.152371764,1,0.106339186,1,-0.514117897,1,-0.119946994,1
2.771958113,-5.118508339,1,-0.531378806,1,-8.242136002,1,-0.198922664,1,-0.107447989,1,0.145685732,1,0.105218343,1,-0.514618218,1,-0.119319364,1
2.775955677,-5.398645878,1,-0.497659177,1,-8.347306252,1,-0.181543469,1,-0.089989886,1,0.154460013,1,0.104146205,1,-0.515081763,1,-0.11867816,1
2.779955149,-4.347325325,1,-0.445633858,1,-8.534251213,1,-0.167196214,1,-0.068288505,1,0.14939332,1,0.103094548,1,-0.515406728,1,-0.11797215,1
2.783956766,-5.1241436,1,-0.571156502,1,-8.311069489,1,-0.157568142,1,-0.085269511,1,0.139899731,1,0.102139905,1,-0.515789866,1,-0.117366232,1
2.787960291,-5.179974556,1,-0.518181801,1,-8.363288879,1,-0.15213944,1,-0.072682157,1,0.136551797,1,0.101232909,1,-0.516154349,1,-0.116777897,1
2.791960239,-5.883430958,1,-0.731126308,1,-8.209607124,1,-0.145694271,1,-0.045813736,1,0.163054034,1,0.100325733,1,-0.516461849,1,-0.116129465,1
2.795962095,-3.888526917,1,-0.34235552,1,-8.558296204,1,-0.124950767,1,-0.044780072,1,0.139916435,1,0.099417172,1,-0.516619146,1,-0.115414403,1
2.799959898,-4.916664124,1,-0.603779793,1,-8.304735184,1,-0.124547526,1,-0.056269828,1,0.135951966,1,0.098624796,1,-0.51690197,1,-0.1148201,1
2.803959608,-4.919766903,1,-0.795763969,1,-8.470064163,1,-0.11850474,1,-0.046130214,1,0.135072142,1,0.097843438,1,-0.517142892,1,-0.114223018,1
2.807961226,-4.863483906,1,-0.761458874,1,-8.167384148,1,-0.1156957,1,0.026562745,1,0.162784845,1,0.097021982,1,-0.517257094,1,-0.113531992,1
2.811959028,-3.321951628,1,-0.495113403,1,-8.529697418,1,-0.116630279,1,-0.036954079,1,0.116739035,1,0.096196771,1,-0.5172593,1,-0.112850092,1
2.8159585,-5.102270603,1,-0.503136218,1,-8.326298714,1,-0.117161401,1,-0.048062541,1,0.116566718,1,0.09548419,1,-0.517507195,1,-0.112340204,1
2.819960117,-5.053406715,1,-0.458794206,1,-8.283707619,1,-0.105431259,1,-0.036909416,1,0.110835716,1,0.094793618,1,-0.5177055,1,-0.111837164,1
2.823957682,-5.658302784,1,-0.531362355,1,-8.309440613,1,-0.096843518,1,-0.022219967,1,0.120644808,1,0.094084069,1,-0.518128276,1,-0.111270726,1
2.827957153,-3.870896816,1,-0.317157865,1,-8.687138557,1,-0.076134838,1,-0.013255639,1,0.102844708,1,0.093445636,1,-0.518120527,1,-0.110482559,1
2.831958771,-4.945158958,1,-0.484698087,1,-8.377346992,1,-0.077321745,1,-0.025983587,1,0.084427439,1,0.092931204,1,-0.518252671,1,-0.110066965,1
2.835956573,-5.007297993,1,-0.488629818,1,-8.431974411,1,-0.070112482,1,-0.019337645,1,0.076518141,1,0.092453271,1,-0.518367529,1,-0.109702162,1
2.839956284,-6.130251408,1,-0.605316877,1,-8.256239891,1,-0.068004742,1,0.013550448,1,0.092935443,1,0.092006028,1,-0.518441617,1,-0.109340973,1
2.843957663,-4.307155609,1,-0.166378856,1,-8.669650078,1,-0.046041004,1,-0.007247351,1,0.064762793,1,0.091583319,1,-0.518395126,1,-0.108949743,1
2.847955465,-5.090006351,1,-0.248490959,1,-8.409882545,1,-0.037697807,1,-0.012865554,1,0.058585793,1,0.091269881,1,-0.518475235,1,-0.108674787,1
2.851954937,-5.063353539,1,-0.247546986,1,-8.384747505,1,-0.030881343,1,-0.001021142,1,0.050425246,1,0.091015354,1,-0.518519938,1,-0.108436301,1
2.855956793,-6.186579704,1,-0.606023073,1,-8.027365685,1,-0.015937492,1,0.04074249,1,0.070258483,1,0.090794928,1,-0.518494844,1,-0.10816852,1
2.859954357,-5.122113228,1,-0.338401377,1,-8.4037714,1,0.002169181,1,0.023284009,1,0.043160867,1,0.090638258,1,-0.518362999,1,-0.107900068,1
2.863953829,-2.991549253,1,-0.306216896,1,-8.548433304,1,0.005388773,1,0.056675509,1,0.049627312,1,0.090474136,1,-0.518129289,1,-0.107605822,1
2.867955685,-5.117454529,1,-0.614285588,1,-8.366161346,1,0.003344974,1,0.014236302,1,0.046535861,1,0.090387136,1,-0.518052995,1,-0.107389808,1
2.871953487,-4.940438271,1,-0.813756347,1,-8.327542305,1,0.00939377,1,0.03122562,1,0.045772873,1,0.090305783,1,-0.517963946,1,-0.107169881,1
2.875952959,-4.896670818,1,-0.977557898,1,-8.384985924,1,0.002766392,1,0.026284913,1,0.056912586,1,0.090213433,1,-0.517870903,1,-0.106927276,1
2.879954576,-3.555314779,1,-1.204836011,1,-8.579087257,1,0.004380449,1,0.053440541,1,0.062885091,1,0.090047121,1,-0.517700255,1,-0.106582567,1
2.883952379,-4.408575058,1,-1.508630395,1,-8.621207237,1,-0.011253016,1,0.009789439,1,0.051462639,1,0.089912169,1,-0.517627299,1,-0.106326848,1
2.887952089,-4.661912918,1,-1.54211545,1,-8.715089798,1,-0.036399867,1,0.008467576,1,0.070235796,1,0.089680865,1,-0.51759851,1,-0.106033757,1
2.891953707,-4.654342651,1,-1.476100326,1,-8.418745995,1,-0.047624234,1,0.039616983,1,0.093200386,1,0.08930698,1,-0.51754874,1,-0.105638981,1
2.895951271,-4.797002316,1,-1.139967084,1,-8.695261002,1,-0.063568525,1,-0.019756829,1,0.080131419,1,0.088900141,1,-0.517557681,1,-0.105248824,1
2.89995122,-4.888596535,1,-0.790810525,1,-8.650960922,1,-0.064910509,1,-0.014688109,1,0.083424225,1,0.08846876,1,-0.517648578,1,-0.104889967,1
2.903952599,-5.249347687,1,-0.653357923,1,-8.374254227,1,-0.067026779,1,0.006210287,1,0.100337073,1,0.087995119,1,-0.517717302,1,-0.104481898,1
2.907956123,-4.766160965,1,-0.461151481,1,-8.594322205,1,-0.054310355,1,-0.027713707,1,0.077867016,1,0.087565437,1,-0.517789006,1,-0.104096539,1
2.911956072,-5.040161133,1,-0.592702627,1,-8.419314384,1,-0.052785713,1,-0.023766978,1,0.070138656,1,0.087198459,1,-0.517925858,1,-0.103768811,1
2.915957689,-5.058394432,1,-0.758160055,1,-8.40516758,1,-0.04499254,1,-0.023927823,1,0.079658575,1,0.086845778,1,-0.518043101,1,-0.103439175,1
2.91995573,-4.829645157,1,-0.666343927,1,-8.144249916,1,-0.049396951,1,0.024539167,1,0.097851694,1,0.086431049,1,-0.518092692,1,-0.103011474,1
2.923955441,-4.984725475,1,-0.474845201,1,-8.533838272,1,-0.040496692,1,-0.027412916,1,0.075479597,1,0.086081646,1,-0.518149734,1,-0.102631614,1
2.927957058,-4.969436169,1,-0.171611637,1,-8.551095963,1,-0.022456249,1,-0.014238018,1,0.066038191,1,0.085791528,1,-0.51824677,1,-0.102316737,1
2.931954861,-8.114830971,1,0.311526388,1,-8.063947678,1,-0.015627449,1,0.083584465,1,0.08964745,1,0.085548028,1,-0.518226266,1,-0.101977579,1
2.935954571,-4.590062141,1,-0.181160778,1,-8.940777779,1,0.026799209,1,-0.052251521,1,0.032159887,1,0.085438944,1,-0.51813513,1,-0.101712406,1
2.939956188,-5.036163807,1,0.083524212,1,-8.519845963,1,0.038635254,1,-0.029121244,1,0.021172794,1,0.085494138,1,-0.518316209,1,-0.10159421,1
2.943953991,-4.7585392,1,-0.2909486,1,-8.552630424,1,0.047896683,1,-0.047747217,1,0.017587524,1,0.085634507,1,-0.518472672,1,-0.101525865,1
2.947953463,-4.903507233,1,-0.32907033,1,-8.671401978,1,0.048646495,1,-0.05698324,1,0.006122474,1,0.085809849,1,-0.518684566,1,-0.101491354,1
2.951955318,-5.956100464,1,-0.847662687,1,-8.319543839,1,0.026295081,1,-0.030844558,1,0.024730423,1,0.085953087,1,-0.518906534,1,-0.101463541,1
2.955952883,-4.863851547,1,-0.947843969,1,-8.833024979,1,0.02709542,1,-0.08849211,1,-0.003213996,1,0.08606942,1,-0.519123495,1,-0.101444259,1
2.959952354,-4.917433739,1,-1.098151088,1,-8.483959198,1,0.009521656,1,-0.092087016,1,0.005212338,1,0.086149484,1,-0.519497693,1,-0.101473749,1
2.96395421,-5.716783524,1,-1.05249548,1,-8.485188484,1,-0.009178157,1,-0.083842978,1,0.031354092,1,0.086128376,1,-0.519862831,1,-0.101437986,1
2.967951775,-6.377930641,1,-0.136428162,1,-7.928654194,1,-0.004442214,1,-0.011416752,1,0.031703766,1,0.08601281,1,-0.520070374,1,-0.101300806,1
2.971951246,-3.902693272,1,-1.114811778,1,-8.666567802,1,-0.00618681,1,-0.111538671,1,0.031382911,1,0.085885838,1,-0.520255625,1,-0.101165794,1
2.975953102,-4.922966003,1,-0.851592183,1,-8.419090271,1,-0.027765032,1,-0.097764075,1,0.04103183,1,0.085741282,1,-0.520701826,1,-0.101041533,1
2.979950905,-5.042582512,1,-0.909347832,1,-8.404361725,1,-0.03466272,1,-0.096748926,1,0.052169692,1,0.085534886,1,-0.521094322,1,-0.100880891,1
2.983950615,-3.587588072,1,-0.680564046,1,-8.19403553,1,-0.033608377,1,-0.056399193,1,0.066686176,1,0.0852383,1,-0.521373332,1,-0.100594401,1
2.987952232,-4.847713947,1,-0.851073921,1,-8.258218765,1,-0.036243752,1,-0.095849887,1,0.067695111,1,0.084975377,1,-0.521729171,1,-0.100330271,1
2.991949797,-5.341941357,1,-0.830231607,1,-8.399451256,1,-0.025270717,1,-0.069436885,1,0.081701666,1,0.084697269,1,-0.52210021,1,-0.100028142,1
2.995949507,-4.153579712,1,-0.628407359,1,-8.483841896,1,-0.024820693,1,-0.09273982,1,0.070842087,1,0.084404364,1,-0.522414267,1,-0.099684484,1
2.999951363,-6.625581264,1,-0.382584304,1,-8.824316978,1,-0.03488411,1,0.009360135,1,0.082711525,1,0.084158324,1,-0.522671103,1,-0.099366046,1
3.003949165,-4.750183582,1,-0.968992829,1,-8.683018684,1,-0.007148969,1,-0.131976977,1,0.069464646,1,0.083973087,1,-0.522966564,1,-0.099072017,1
3.007948875,-4.960361481,1,-0.639321685,1,-8.596792221,1,-0.005852336,1,-0.108188175,1,0.071928442,1,0.083793253,1,-0.523475409,1,-0.098787315,1
3.011950493,-5.423322678,1,-0.817995846,1,-8.544835091,1,-0.010448401,1,-0.079013452,1,0.094681598,1,0.083597213,1,-0.523891032,1,-0.098451987,1
3.015948534,-4.718721867,1,-0.904910386,1,-8.601111412,1,-0.003700925,1,-0.114490919,1,0.077212557,1,0.083404794,1,-0.524301946,1,-0.098110124,1
3.019948006,-5.042239189,1,-0.841420949,1,-8.546496391,1,-0.011306301,1,-0.109323986,1,0.08700382,1,0.083211944,1,-0.524789035,1,-0.097782284,1
3.023949623,-5.001396179,1,-0.702712595,1,-8.453587532,1,-0.012279687,1,-0.0760087,1,0.106739752,1,0.082942672,1,-0.525204062,1,-0.097355343,1
3.027947426,-4.813304901,1,-0.775090277,1,-8.593871117,1,-0.019525627,1,-0.116884418,1,0.099360406,1,0.082669981,1,-0.525627196,1,-0.096924797,1
3.031953335,-5.205029964,1,-0.809094012,1,-8.440098763,1,-0.025394175,1,-0.107259385,1,0.106019177,1,0.082361504,1,-0.526111543,1,-0.096493341,1
3.035955191,-6.307312489,1,-0.460300863,1,-8.693291664,1,-0.053831149,1,0.008050792,1,0.10618683,1,0.081985764,1,-0.526375413,1,-0.096010074,1
3.039953232,-5.015752792,1,-1.229156375,1,-8.58850193,1,-0.044788182,1,-0.147030115,1,0.12135838,1,0.081594534,1,-0.52673167,1,-0.09552224,1
3.043952703,-5.070791721,1,-0.733993709,1,-8.296316147,1,-0.053914037,1,-0.118652344,1,0.127456129,1,0.081115127,1,-0.527298212,1,-0.094999112,1
3.047954321,-5.945978642,1,-0.697756231,1,-8.232640266,1,-0.062192146,1,-0.094152741,1,0.152978033,1,0.080580816,1,-0.527786255,1,-0.0944122,1
3.051952124,-4.279197693,1,-0.526126683,1,-8.369098663,1,-0.055862095,1,-0.110365093,1,0.133320302,1,0.080020167,1,-0.528193235,1,-0.093782499,1
3.055951595,-5.180194378,1,-0.311647743,1,-8.323722839,1,-0.042224225,1,-0.119338192,1,0.122569501,1,0.079544477,1,-0.528698504,1,-0.093226649,1
3.059953451,-5.629802227,1,-0.257753044,1,-8.292257309,1,-0.038587261,1,-0.092986666,1,0.124972045,1,0.079117045,1,-0.529172301,1,-0.092700653,1
3.063951015,-2.78344059,1,-1.429620624,1,-8.530482292,1,-0.038895737,1,-0.048520125,1,0.096333168,1,0.078743242,1,-0.529399812,1,-0.092239581,1
3.067950487,-5.180477619,1,-0.572427094,1,-8.325148582,1,-0.024630595,1,-0.138207227,1,0.099052161,1,0.078467198,1,-0.529890656,1,-0.091834225,1
3.071952343,-5.202887058,1,-0.424667716,1,-8.36531353,1,-0.007881877,1,-0.125137135,1,0.099098228,1,0.078182802,1,-0.530441284,1,-0.091429867,1
3.075950146,-4.326700211,1,-0.251298249,1,-8.35174942,1,-0.012105841,1,-0.096650459,1,0.100114599,1,0.077806577,1,-0.53090626,1,-0.090661541,1
3.079949856,-5.145961761,1,-0.374074191,1,-8.438318253,1,0.008014448,1,-0.130193472,1,0.088341713,1,0.07763017,1,-0.531412542,1,-0.09027683,1
3.083951473,-5.568967342,1,-0.288885146,1,-8.337472916,1,0.014521644,1,-0.101160325,1,0.098714545,1,0.077470042,1,-0.531913996,1,-0.08988703,1
3.087949038,-4.751447678,1,-0.279865444,1,-8.436532021,1,0.022541178,1,-0.110917918,1,0.088048339,1,0.077346966,1,-0.532346129,1,-0.089494213,1
3.091948748,-5.253559589,1,-0.445833206,1,-8.298501968,1,0.028339896,1,-0.113706648,1,0.087272778,1,0.077267766,1,-0.53283143,1,-0.089128792,1
3.095950365,-7.358920097,1,0.57231909,1,-7.912102699,1,0.038166814,1,-0.033634365,1,0.079867825,1,0.077202916,1,-0.533199549,1,-0.0887421,1
3.099947929,-2.752585649,1,-1.493505001,1,-8.303171158,1,0.047855414,1,-0.103394434,1,0.081829786,1,0.077139184,1,-0.533363461,1,-0.088386022,1
3.103947878,-5.082184315,1,-1.286863089,1,-8.338532448,1,0.01536626,1,-0.107648484,1,0.10432528,1,0.077044956,1,-0.533848345,1,-0.087983675,1
3.107949257,-5.718412876,1,-1.550573587,1,-8.444042206,1,-0.015239682,1,-0.082403392,1,0.155254006,1,0.076785989,1,-0.53427279,1,-0.08743009,1
3.11194706,-4.341405392,1,-1.711071491,1,-8.686986923,1,-0.025139349,1,-0.11342746,1,0.157607675,1,0.076349303,1,-0.53467828,1,-0.086726978,1
3.115946531,-5.060952187,1,-1.826419353,1,-8.552116394,1,-0.066657484,1,-0.111473143,1,0.196904808,1,0.07576222,1,-0.535193324,1,-0.085943364,1
3.119948149,-5.268146515,1,-1.77145195,1,-8.51464653,1,-0.107616767,1,-0.099146947,1,0.240848064,1,0.074921273,1,-0.535682857,1,-0.084973648,1
3.123945713,-7.820610523,1,-0.495627731,1,-8.694861412,1,-0.136125609,1,-0.059015866,1,0.248646721,1,0.073873639,1,-0.536114931,1,-0.083860859,1
3.127945185,-3.395283461,1,-1.912575722,1,-8.483695984,1,-0.135067523,1,-0.150725827,1,0.276587158,1,0.072676688,1,-0.536528051,1,-0.082667567,1
3.131947041,-4.881960869,1,-1.66261363,1,-8.530613899,1,-0.173463628,1,-0.147691011,1,0.309604585,1,0.071373425,1,-0.537227094,1,-0.081357233,1
3.135944843,-4.788969517,1,-1.536268234,1,-8.690870285,1,-0.195027947,1,-0.143095493,1,0.340942711,1,0.069897234,1,-0.537897527,1,-0.079897299,1
3.139944553,-5.273881912,1,-0.991733491,1,-8.427764893,1,-0.226881251,1,-0.111840613,1,0.363788754,1,0.068232253,1,-0.53855443,1,-0.078291088,1
3.143946171,-2.922257185,1,-1.580041289,1,-8.739145279,1,-0.235234365,1,-0.138287455,1,0.357267052,1,0.066473752,1,-0.539073527,1,-0.076672673,1
3.147943974,-4.888955116,1,-1.801727772,1,-8.885526657,1,-0.258657157,1,-0.181389257,1,0.399136096,1,0.064641438,1,-0.539866984,1,-0.074980497,1
3.151949644,-4.597414494,1,-1.770909309,1,-8.901620865,1,-0.259422988,1,-0.178571701,1,0.435571462,1,0.062608927,1,-0.540685833,1,-0.073079586,1
3.155951262,-4.806814671,1,-2.089463711,1,-8.943107605,1,-0.270374209,1,-0.192799985,1,0.4715994,1,0.060508881,1,-0.541539609,1,-0.071028166,1
3.159949064,-5.374435425,1,-2.189599991,1,-9.309446335,1,-0.304820776,1,-0.214923441,1,0.530594707,1,0.058191147,1,-0.542462885,1,-0.0687543,1
3.163948536,-3.162744761,1,-2.277046919,1,-9.238785744,1,-0.312215418,1,-0.157834113,1,0.562237144,1,0.055619672,1,-0.543310225,1,-0.066230766,1
3.167950392,-4.409642696,1,-2.699835539,1,-9.763348579,1,-0.301947057,1,-0.313295841,1,0.597126544,1,0.05312911,1,-0.544451058,1,-0.063595422,1
3.171947956,-4.428014755,1,-1.777872086,1,-9.771259308,1,-0.35337165,1,-0.337074131,1,0.620408535,1,0.050333653,1,-0.545855105,1,-0.060818445,1
3.175947666,-4.207258224,1,-0.524196208,1,-10.20318508,1,-0.329259157,1,-0.416465759,1,0.643332601,1,0.047475114,1,-0.547481179,1,-0.057956778,1
3.179949284,-4.699567795,1,-1.501043677,1,-9.936161041,1,-0.378175437,1,-0.49412933,1,0.66638118,1,0.044550359,1,-0.549435377,1,-0.054981399,1
3.183947086,-4.477637768,1,-1.055210114,1,-10.07938671,1,-0.352490425,1,-0.564950466,1,0.67487067,1,0.041466497,1,-0.551667452,1,-0.051941123,1
3.187946558,-5.006853104,1,-1.319926977,1,-10.25025082,1,-0.352995038,1,-0.65746963,1,0.702354848,1,0.038420841,1,-0.554221451,1,-0.048814535,1
3.191947937,-5.41404438,1,-1.292791843,1,-10.36588764,1,-0.388058394,1,-0.746530294,1,0.761188269,1,0.035210732,1,-0.557140708,1,-0.045506466,1
3.195945501,-3.903154373,1,-0.869318783,1,-10.65693569,1,-0.245613754,1,-0.87580359,1,0.765971184,1,0.032104697,1,-0.560426235,1,-0.042039696,1
3.199945211,-4.728287697,1,-1.823938012,1,-10.60797215,1,-0.331829935,1,-0.977995813,1,0.807577074,1,0.029051751,1,-0.56425488,1,-0.03846379,1
3.203946829,-4.328580856,1,-0.696593106,1,-10.63430786,1,-0.345919877,1,-1.071563601,1,0.822033644,1,0.025675556,1,-0.568419397,1,-0.034733959,1
3.207944393,-4.997209549,1,-0.222119242,1,-10.58792591,1,-0.320582628,1,-1.205919862,1,0.838770211,1,0.022278253,1,-0.57305187,1,-0.03091437,1
3.211943865,-4.735880375,1,-0.005952507,1,-10.65974903,1,-0.312049896,1,-1.310898781,1,0.849627733,1,0.018902212,1,-0.578141451,1,-0.027005585,1
3.215945482,-5.314366341,1,0.031245794,1,-10.9721632,1,-0.2849226,1,-1.433155656,1,0.868988514,1,0.015528537,1,-0.583683312,1,-0.0230105,1
3.219943523,-4.084730148,1,-0.399821311,1,-10.7703619,1,-0.334579021,1,-1.531234145,1,0.873785317,1,0.01203673,1,-0.589663684,1,-0.018923393,1
3.223942995,-4.631444454,1,0.27988565,1,-10.86491776,1,-0.352713674,1,-1.649807334,1,0.848234057,1,0.008364931,1,-0.596055627,1,-0.014860223,1
3.227944613,-4.880860329,1,1.165633798,1,-10.84820938,1,-0.27236259,1,-1.767920852,1,0.857883155,1,0.004815936,1,-0.602935433,1,-0.010781272,1
3.231942415,-4.456714153,1,-0.064212844,1,-10.65941906,1,-0.261791676,1,-1.892090321,1,0.88648051,1,0.001357334,1,-0.610255718,1,-0.006547828,1
3.235942125,-4.267250061,1,0.103335507,1,-10.86940575,1,-0.293588728,1,-2.014101267,1,0.875088513,1,-0.00224791,1,-0.618062198,1,-0.00221926,1
3.239943981,-4.567228794,1,0.546018302,1,-11.38910103,1,-0.308578819,1,-2.124169827,1,0.855263412,1,-0.005951992,1,-0.626330853,1,0.002082816,1
3.243941545,-3.781400681,1,0.543631136,1,-11.35417843,1,-0.32979849,1,-2.252631664,1,0.835990906,1,-0.009754024,1,-0.635056138,1,0.006359219,1
3.247941017,-3.967900515,1,1.138388515,1,-11.75455761,1,-0.31459868,1,-2.390125513,1,0.809554398,1,-0.013575041,1,-0.644296288,1,0.010603714,1
3.251942873,-3.945976734,1,1.098930001,1,-11.62012863,1,-0.286527276,1,-2.52205801,1,0.78677398,1,-0.017293999,1,-0.654067159,1,0.014782355,1
3.255940676,-3.925953388,1,0.598209739,1,-11.7297411,1,-0.27744472,1,-2.679382086,1,0.759701669,1,-0.020973586,1,-0.66441977,1,0.018950626,1
3.259940386,-4.401355743,1,-0.32769531,1,-11.70573807,1,-0.299296528,1,-2.836415529,1,0.751880527,1,-0.024700452,1,-0.675369501,1,0.023107329,1
3.263942003,-4.329149723,1,-1.000853658,1,-11.82109737,1,-0.341926277,1,-2.994029522,1,0.776936471,1,-0.028690318,1,-0.686935186,1,0.02743309,1
3.267939568,-3.960342407,1,-1.138926387,1,-11.89239216,1,-0.381277442,1,-3.180844069,1,0.809554577,1,-0.033085033,1,-0.699171185,1,0.032049116,1
3.271945477,-3.55862236,1,-1.324697375,1,-12.04340172,1,-0.407264858,1,-3.381356478,1,0.847333372,1,-0.037890188,1,-0.712168634,1,0.03701704,1
3.275947332,-3.585203648,1,-1.243619919,1,-12.1185894,1,-0.409983367,1,-3.572365761,1,0.875239313,1,-0.043018349,1,-0.72594893,1,0.042330198,1
3.279944897,-3.825849771,1,-1.440684557,1,-12.01375103,1,-0.421767592,1,-3.779425144,1,0.919163465,1,-0.048520286,1,-0.740481138,1,0.048071902,1
3.283944607,-3.812537193,1,-1.569112659,1,-12.17627335,1,-0.428387552,1,-3.988742352,1,0.975663543,1,-0.054477114,1,-0.755804181,1,0.05434062,1
3.287946224,-4.073035717,1,-1.949807644,1,-12.33194447,1,-0.457556307,1,-4.178848267,1,1.028895855,1,-0.060974125,1,-0.771888971,1,0.061186012,1
3.291944027,-3.600771189,1,-2.277703285,1,-12.24861908,1,-0.486670405,1,-4.386032104,1,1.097172737,1,-0.06813588,1,-0.788718224,1,0.068685599,1
3.295943499,-3.499666691,1,-2.265735388,1,-12.55316448,1,-0.526470482,1,-4.579716206,1,1.138764858,1,-0.076058336,1,-0.806281269,1,0.076928131,1
3.299944878,-3.759097576,1,-2.192554474,1,-12.288064,1,-0.527758121,1,-4.807699203,1,1.199982762,1,-0.084672429,1,-0.824604988,1,0.085891254,1
3.30394268,-3.668918133,1,-2.378043175,1,-12.31652164,1,-0.554082274,1,-5.030099869,1,1.282423139,1,-0.094248779,1,-0.843764246,1,0.09588819,1
3.307942152,-3.493327141,1,-2.856694221,1,-12.10292244,1,-0.568395495,1,-5.249695778,1,1.357646942,1,-0.10483665,1,-0.863699913,1,0.106981032,1
3.311943769,-3.701563597,1,-3.136771441,1,-11.96291065,1,-0.610604405,1,-5.439609528,1,1.468716741,1,-0.116740279,1,-0.884341836,1,0.119432896,1
3.315941334,-3.746343136,1,-3.433435202,1,-11.6124115,1,-0.634564102,1,-5.615646362,1,1.603248239,1,-0.13022539,1,-0.905539274,1,0.133532345,1
3.319940805,-3.046407461,1,-3.636520624,1,-11.82495689,1,-0.692696571,1,-5.77456522,1,1.750680447,1,-0.145615444,1,-0.927196324,1,0.149601445,1
3.323942661,-3.656421423,1,-3.248259783,1,-11.73391628,1,-0.775073409,1,-5.938650131,1,1.862285972,1,-0.163205862,1,-0.949237168,1,0.167757571,1
