Time,inertial-6253.76535:estCompensatedAccelX,inertial-6253.76535:estCompensatedAccelX:valid,inertial-6253.76535:estCompensatedAccelY,inertial-6253.76535:estCompensatedAccelY:valid,inertial-6253.76535:estCompensatedAccelZ,inertial-6253.76535:estCompensatedAccelZ:valid,inertial-6253.76535:estAngularRateX,inertial-6253.76535:estAngularRateX:valid,inertial-6253.76535:estAngularRateY,inertial-6253.76535:estAngularRateY:valid,inertial-6253.76535:estAngularRateZ,inertial-6253.76535:estAngularRateZ:valid,inertial-6253.76535:estRoll,inertial-6253.76535:estRoll:valid,inertial-6253.76535:estPitch,inertial-6253.76535:estPitch:valid,inertial-6253.76535:estYaw,inertial-6253.76535:estYaw:valid
0,-3.976686716,1,-0.707799852,1,-8.927240372,1,-0.008052916,1,0.009668253,1,0.01057567,1,0.082732499,1,-0.422914863,1,0.011000218,1
0.004001536,-4.005941391,1,-0.71378088,1,-8.975182533,1,-0.007586461,1,0.007923161,1,0.010210259,1,0.082678363,1,-0.422871292,1,0.011048098,1
0.007998976,-3.998837233,1,-0.723033369,1,-8.922802925,1,-0.006468259,1,0.0132484,1,0.008700379,1,0.082628727,1,-0.422829032,1,0.011092639,1
0.011998464,-4.016091347,1,-0.70101434,1,-8.920708656,1,-0.0077967,1,0.01128545,1,0.008814228,1,0.082582451,1,-0.422783017,1,0.011134227,1
0.016000001,-3.994970798,1,-0.632036269,1,-8.936947823,1,-0.009991039,1,0.014323358,1,0.006366328,1,0.082531534,1,-0.422739506,1,0.011180714,1
0.019997695,-3.972678185,1,-0.712845683,1,-8.953379631,1,-0.008823613,1,0.009949652,1,0.009110787,1,0.082483537,1,-0.422695577,1,0.011223087,1
0.023997439,-3.995628357,1,-0.624878287,1,-8.914776802,1,-0.003208409,1,0.009514109,1,0.012322407,1,0.082442202,1,-0.422655523,1,0.011270951,1
0.027999232,-3.978990793,1,-0.665591121,1,-8.963071823,1,-0.008148687,1,0.008240597,1,0.01098591,1,0.082399294,1,-0.422616631,1,0.011326639,1
0.031996928,-4.034282684,1,-0.659472644,1,-8.925164223,1,-0.005087631,1,0.008330532,1,0.010222301,1,0.082352862,1,-0.422588646,1,0.011374526,1
0.035996929,-4.000774384,1,-0.650646865,1,-8.957458496,1,-0.001513785,1,0.011948365,1,0.005137659,1,0.082310989,1,-0.422555447,1,0.011420551,1
0.039998464,-3.981434584,1,-0.659145355,1,-8.951196671,1,-0.006155333,1,0.007606397,1,0.008482531,1,0.082274176,1,-0.42252481,1,0.011466148,1
0.043996159,-3.970454216,1,-0.643421531,1,-8.929822922,1,-0.008739734,1,0.005420009,1,0.011850693,1,0.082233071,1,-0.422498256,1,0.01151103,1
0.047995649,-3.98937583,1,-0.628941238,1,-8.948929787,1,-0.004170189,1,0.008405051,1,0.008406695,1,0.082197398,1,-0.422484398,1,0.011556147,1
0.051997185,-3.962491989,1,-0.631612718,1,-8.968696594,1,-0.001622931,1,0.003953991,1,0.010201916,1,0.082167126,1,-0.422463983,1,0.011595289,1
0.055994879,-3.992669106,1,-0.637770295,1,-8.938555717,1,-0.003131164,1,0.004598364,1,0.005033612,1,0.082142293,1,-0.422446311,1,0.011631293,1
0.05999437,-3.953698874,1,-0.645395875,1,-8.968852043,1,-0.002668991,1,0.003185211,1,0.008684391,1,0.082119651,1,-0.422444344,1,0.011666674,1
0.063995644,-4.009641647,1,-0.628748417,1,-8.975175858,1,-0.005568528,1,0.005672066,1,0.006762214,1,0.082101472,1,-0.422434598,1,0.01169135,1
0.067993343,-4.026630878,1,-0.648527324,1,-8.94271183,1,-0.002142479,1,0.002967793,1,0.002009039,1,0.082076155,1,-0.422422618,1,0.011720346,1
0.071992829,-4.007628918,1,-0.655166686,1,-8.966031075,1,-0.002815104,1,-0.000276342,1,0.010499481,1,0.082050733,1,-0.422418863,1,0.011753623,1
0.075994626,-3.972045422,1,-0.670126855,1,-8.978500366,1,-0.000442437,1,0.003244701,1,0.002593747,1,0.082034893,1,-0.422413468,1,0.011780839,1
0.079992577,-4.020887375,1,-0.670102239,1,-8.94919014,1,-0.000894693,1,0.001108199,1,0.008830994,1,0.08202333,1,-0.422406733,1,0.011804192,1
0.083992064,-3.9757092,1,-0.668398738,1,-8.937480927,1,-7.37E-05,1,-0.000336254,1,0.003788341,1,0.08200936,1,-0.422405839,1,0.01182669,1
0.087993853,-3.994239807,1,-0.694782078,1,-8.961833954,1,-0.002176195,1,0.002797454,1,0.004447324,1,0.081983328,1,-0.422407627,1,0.011861447,1
0.091991551,-3.988943815,1,-0.690698683,1,-8.939194679,1,-0.004284926,1,0.002297987,1,0.006320995,1,0.081963174,1,-0.422401756,1,0.011882451,1
0.095991038,-3.963784218,1,-0.689230025,1,-8.944271088,1,-0.004349422,1,0.001038283,1,0.004647984,1,0.081937537,1,-0.422391653,1,0.011905611,1
0.099992573,-3.985677719,1,-0.671142638,1,-8.956554413,1,-0.003619827,1,0.003416538,1,0.003825422,1,0.081905834,1,-0.422388732,1,0.011931445,1
0.103990018,-3.950489998,1,-0.68814075,1,-8.902013779,1,-0.00381282,1,0.003192607,1,0.007105413,1,0.081870571,1,-0.422382832,1,0.01196078,1
0.107989758,-3.941293716,1,-0.651770473,1,-8.962472916,1,-0.002213507,1,0.000101345,1,0.005114623,1,0.081855997,1,-0.422376782,1,0.01197943,1
0.111991294,-4.016825199,1,-0.622705817,1,-8.91526413,1,-0.004190229,1,0.001473025,1,0.007047225,1,0.081821412,1,-0.422382891,1,0.01201192,1
0.115988739,-3.97486496,1,-0.687504947,1,-8.978029251,1,-0.005422868,1,-0.002890181,1,0.006966515,1,0.081795342,1,-0.422382683,1,0.012040282,1
0.119988225,-4.024731159,1,-0.60551703,1,-8.948489189,1,-0.005238923,1,0.000565925,1,0.006215918,1,0.081766121,1,-0.42238611,1,0.012067724,1
0.123995908,-4.011473656,1,-0.673641205,1,-8.975242615,1,-0.004438255,1,-0.002725054,1,0.008789995,1,0.081733771,1,-0.422379553,1,0.01209379,1
0.127999485,-3.988404989,1,-0.709017277,1,-8.94452095,1,-0.00607943,1,0.001742597,1,0.007463442,1,0.081700362,1,-0.422383487,1,0.012126545,1
0.131999239,-3.998264074,1,-0.671943188,1,-8.940228462,1,-0.004548302,1,0.000989014,1,0.008617001,1,0.081658833,1,-0.422388315,1,0.012164378,1
0.136000767,-3.981878281,1,-0.656622708,1,-8.918984413,1,-0.007365042,1,-0.000648307,1,0.004691728,1,0.081615634,1,-0.422396421,1,0.012196363,1
0.139998466,-3.991349936,1,-0.691101849,1,-8.9734478,1,-0.003984623,1,8.75E-05,1,0.004886128,1,0.08158654,1,-0.422401369,1,0.012222412,1
0.143997952,-3.957023144,1,-0.66504252,1,-8.933981895,1,-0.004461832,1,-9.24E-05,1,0.007433986,1,0.081540421,1,-0.422405988,1,0.012255147,1
0.147999495,-3.951703072,1,-0.653325915,1,-8.909689903,1,-0.007663751,1,-0.005620232,1,0.009400092,1,0.081499346,1,-0.422418743,1,0.01228652,1
0.151997179,-3.958930492,1,-0.625937819,1,-8.958754539,1,-0.006628968,1,-0.003961087,1,0.007064745,1,0.081468761,1,-0.422435462,1,0.012304609,1
0.155996665,-3.978064537,1,-0.629447818,1,-8.930659294,1,-0.002576468,1,-0.003358679,1,0.002071711,1,0.081434906,1,-0.422456354,1,0.012333926,1
0.159998208,-3.989498377,1,-0.647667289,1,-8.948831558,1,0.001060913,1,-0.004426966,1,0.003762398,1,0.081422292,1,-0.422473103,1,0.012340936,1
0.163995907,-3.987264156,1,-0.655643165,1,-8.960315704,1,-0.001739562,1,-0.008434082,1,0.00194856,1,0.081416592,1,-0.422494411,1,0.012344542,1
0.167995393,-3.960347652,1,-0.637397528,1,-8.959238052,1,-0.001880705,1,-0.004641135,1,0.003196006,1,0.081405379,1,-0.422515154,1,0.012356672,1
0.17199719,-4.008626938,1,-0.624478996,1,-8.949977875,1,0.000908902,1,-0.005507342,1,0.001558578,1,0.081396945,1,-0.422537327,1,0.012364688,1
0.175994873,-4.036421299,1,-0.661505461,1,-8.938289642,1,5.21E-05,1,-0.005586311,1,0.004437985,1,0.081400126,1,-0.422562122,1,0.012373322,1
0.179994375,-3.982121468,1,-0.673538446,1,-8.896134377,1,6.08E-05,1,0.000502298,1,0.001688035,1,0.081399828,1,-0.422573537,1,0.012373473,1
0.183996156,-4.002999783,1,-0.613617659,1,-8.98788166,1,0.001866973,1,-0.009286725,1,0.000802327,1,0.081413917,1,-0.422598124,1,0.012380626,1
0.187993854,-3.996769667,1,-0.690708518,1,-8.891198158,1,-0.002925614,1,-0.009101478,1,0.001584298,1,0.081413135,1,-0.422629952,1,0.012387384,1
0.191993341,-4.011097431,1,-0.692398846,1,-8.92864418,1,0.000439004,1,-0.006558749,1,0.004676054,1,0.081395365,1,-0.422655344,1,0.012402678,1
0.195995137,-3.987545013,1,-0.673654437,1,-8.948542595,1,-0.001356065,1,-0.006842505,1,0.001273877,1,0.081388652,1,-0.422680706,1,0.012418723,1
0.199992836,-3.975614309,1,-0.734207451,1,-8.919519424,1,-0.001299259,1,-0.005501742,1,0.004167548,1,0.081376016,1,-0.422700822,1,0.012439205,1
0.203992322,-3.948770285,1,-0.672512889,1,-8.934510231,1,-0.001748732,1,-0.007070138,1,0.000738975,1,0.081372812,1,-0.422722936,1,0.012446853,1
0.20799385,-3.979745626,1,-0.689100266,1,-8.920741081,1,-8.35E-05,1,-0.008022161,1,0.002112501,1,0.081354529,1,-0.422757566,1,0.012458749,1
0.211991549,-4.004113197,1,-0.65090555,1,-8.939994812,1,-0.002832792,1,-0.008667728,1,0.003872565,1,0.081345737,1,-0.422788352,1,0.012478691,1
0.215991303,-4.011389256,1,-0.651053131,1,-8.943920135,1,-0.002245618,1,-0.008194165,1,0.004765558,1,0.081327893,1,-0.422822833,1,0.012498279,1
0.219999239,-3.964745283,1,-0.697680771,1,-8.975125313,1,-0.004972421,1,-0.009918683,1,0.004787198,1,0.081307068,1,-0.422861069,1,0.012512846,1
0.22400333,-3.972847223,1,-0.696570039,1,-8.961344719,1,-0.002421384,1,-0.009907095,1,0.004197654,1,0.081296496,1,-0.422890216,1,0.012533306,1
0.228003591,-3.981373549,1,-0.677238703,1,-8.922914505,1,9.69E-05,1,-0.003513284,1,0.003766137,1,0.081282072,1,-0.422917247,1,0.012555113,1
0.232005373,-3.967365503,1,-0.66052562,1,-8.991463661,1,-0.001720648,1,-0.008246059,1,0.005341213,1,0.081118159,1,-0.422772765,1,0.011887489,1
0.236003071,-4.022294998,1,-0.631922185,1,-8.941755295,1,-0.003068475,1,-0.009215045,1,0.00275595,1,0.081101783,1,-0.422806948,1,0.011898792,1
0.240002558,-4.022628307,1,-0.642961144,1,-8.950473785,1,0.001181313,1,-0.010684073,1,0.002849966,1,0.081097804,1,-0.42284146,1,0.01190768,1
0.244004101,-3.990461826,1,-0.603875577,1,-8.956255913,1,0.000675364,1,-0.007045134,1,0.006312123,1,0.081099622,1,-0.422872782,1,0.011924901,1
0.248002052,-3.989048004,1,-0.631754935,1,-8.95980835,1,0.000275147,1,-0.004486178,1,0.000940182,1,0.081106424,1,-0.42289269,1,0.011930231,1
0.252002567,-3.996370554,1,-0.62849015,1,-8.958886147,1,0.009464948,1,-0.007608541,1,0.000773264,1,0.081118219,1,-0.42292279,1,0.011938286,1
0.256004363,-4.015414238,1,-0.651099801,1,-8.932303429,1,0.004366654,1,-0.008798267,1,-0.000296243,1,0.081128538,1,-0.422956049,1,0.011944978,1
0.260002315,-4.010457039,1,-0.668416023,1,-8.949437141,1,0.002928457,1,-0.004978926,1,0.007067415,1,0.08114475,1,-0.422983438,1,0.011953288,1
0.264001787,-4.028930187,1,-0.6794613,1,-8.9441185,1,0.004151169,1,-0.010148745,1,0.001644569,1,0.081161119,1,-0.423007607,1,0.011958832,1
0.268003583,-4.003031254,1,-0.701586783,1,-8.930191994,1,0.001879131,1,-0.003678601,1,0.001639171,1,0.081171118,1,-0.423030764,1,0.011962467,1
0.272001266,-3.965166092,1,-0.775354028,1,-8.872098923,1,0.008979743,1,0.001366591,1,0.000970535,1,0.081189856,1,-0.423040837,1,0.011965778,1
0.276000768,-3.980539083,1,-0.596887171,1,-8.986070633,1,0.009915111,1,-0.0026167,1,0.00067849,1,0.081236981,1,-0.42304948,1,0.011971219,1
0.280003071,-3.980807304,1,-0.699867547,1,-8.945773125,1,-0.00192604,1,-0.004766,1,0.002904027,1,0.081237569,1,-0.423061162,1,0.011986041,1
0.284001291,-4.027764797,1,-0.688806415,1,-8.908125877,1,0.001771969,1,-0.00129106,1,0.00383034,1,0.081229843,1,-0.423075855,1,0.012004115,1
0.288000762,-3.955820322,1,-0.714592278,1,-8.918935776,1,-0.008615965,1,-0.00697661,1,0.003506603,1,0.081211828,1,-0.423086226,1,0.012028868,1
0.29200229,-4.009785652,1,-0.733531833,1,-8.917175293,1,-0.00384068,1,-0.004591166,1,0.004184486,1,0.081182301,1,-0.423105061,1,0.012050894,1
0.295999736,-4.020780563,1,-0.735905468,1,-8.932034492,1,-0.008723555,1,-0.001369072,1,0.002726573,1,0.081148989,1,-0.423115015,1,0.012071487,1
0.299999475,-3.999756575,1,-0.711256027,1,-8.988166809,1,-0.01210544,1,-0.002874118,1,0.004566927,1,0.081107631,1,-0.423127443,1,0.012090452,1
0.304001033,-4.040178299,1,-0.696093857,1,-8.974356651,1,-0.0092357,1,-0.003726044,1,0.008341542,1,0.081054881,1,-0.423141837,1,0.012121694,1
0.307998478,-4.06611824,1,-0.661213279,1,-8.939103127,1,-0.010767645,1,6.52E-05,1,0.008740739,1,0.080994636,1,-0.423154622,1,0.012150152,1
0.311998218,-4.05418539,1,-0.677273035,1,-8.944458961,1,-0.015205685,1,0.003050934,1,0.007371077,1,0.080935203,1,-0.423149794,1,0.012181337,1
0.316000015,-3.982722044,1,-0.672531486,1,-8.94786644,1,-0.010597057,1,0.002045208,1,0.005517752,1,0.080877624,1,-0.42314893,1,0.012202499,1
0.320003569,-3.974464417,1,-0.617915273,1,-8.948057175,1,-0.011029126,1,0.003690443,1,0.007967676,1,0.080824152,1,-0.423142135,1,0.012231451,1
0.324003339,-3.960428476,1,-0.604630411,1,-8.979190826,1,-0.012380858,1,0.001725444,1,0.008259211,1,0.080762826,1,-0.423144609,1,0.012260303,1
0.328004867,-4.018810749,1,-0.599266708,1,-8.981985092,1,-0.008279405,1,0.000237812,1,0.007131686,1,0.080703579,1,-0.423143238,1,0.012292879,1
0.332002312,-4.023578644,1,-0.609907866,1,-8.950107574,1,-0.009615805,1,0.001913525,1,0.008692211,1,0.080658011,1,-0.423141301,1,0.012326581,1
0.336002052,-4.000187397,1,-0.603743494,1,-8.977725983,1,-0.007585022,1,0.002490319,1,0.004866527,1,0.080610581,1,-0.423135579,1,0.012354638,1
0.340003848,-4.009665966,1,-0.614206016,1,-8.940274239,1,-0.005599837,1,-0.002363164,1,0.00501585,1,0.080572054,1,-0.423136175,1,0.0123775,1
0.3440018,-3.969814539,1,-0.624722362,1,-8.966143608,1,-0.008006011,1,0.002614989,1,0.008614303,1,0.080538347,1,-0.42312789,1,0.012396027,1
0.348001271,-4.00095129,1,-0.594268143,1,-8.960775375,1,-0.002763993,1,-0.003608964,1,0.003730339,1,0.08050786,1,-0.423125446,1,0.012418453,1
0.352002829,-3.987255335,1,-0.627995551,1,-8.908035278,1,0.001094348,1,-0.000462342,1,0.000352014,1,0.080496572,1,-0.423125029,1,0.0124311,1
0.356000513,-4.006886005,1,-0.601220906,1,-9.06133461,1,0.001822534,1,-0.001800591,1,-0.000187509,1,0.080503337,1,-0.423125505,1,0.012447258,1
0.360000014,-4.011327267,1,-0.621483386,1,-8.975561142,1,0.003115228,1,-0.002463613,1,-0.000165342,1,0.080506846,1,-0.423132777,1,0.012449468,1
0.364001542,-4.018275738,1,-0.654128015,1,-8.976438522,1,0.007979632,1,-0.002169795,1,0.001095841,1,0.080523364,1,-0.42312932,1,0.0124474,1
0.367999226,-4.03203249,1,-0.595889509,1,-8.959810257,1,0.006812686,1,-0.001533803,1,-0.001520641,1,0.080549493,1,-0.423138261,1,0.012443207,1
0.371998727,-4.007255077,1,-0.667245686,1,-8.956833839,1,0.006216431,1,0.003995049,1,-0.001947964,1,0.08058612,1,-0.423135191,1,0.012434548,1
0.376000255,-3.995425701,1,-0.634471416,1,-8.946826935,1,0.005158324,1,-0.00475926,1,0.004082765,1,0.080609888,1,-0.423136681,1,0.012441264,1
0.3799977,-4.031528473,1,-0.658890963,1,-8.969002724,1,0.006092101,1,-0.000524103,1,-0.001693102,1,0.080637626,1,-0.42314145,1,0.012439919,1
0.383997172,-4.025071621,1,-0.694094121,1,-8.923612595,1,0.007552387,1,0.001326591,1,0.00269513,1,0.080658592,1,-0.423137605,1,0.012447232,1
0.38799873,-4.007457733,1,-0.675318778,1,-8.94641304,1,0.006015542,1,-0.000245378,1,0.003587232,1,0.080674477,1,-0.423129201,1,0.012456873,1
0.391996145,-3.953696012,1,-0.695981979,1,-8.897268295,1,0.004312129,1,0.003774602,1,0.002324487,1,0.080680437,1,-0.423120111,1,0.012470288,1
0.395995647,-4.006044865,1,-0.706188142,1,-8.923819542,1,0.000956803,1,0.002568275,1,0.002746902,1,0.080694586,1,-0.423112929,1,0.012478949,1
0.39999795,-3.966457129,1,-0.729188979,1,-8.937077522,1,0.001360197,1,0.002176924,1,0.002634239,1,0.080688246,1,-0.423106283,1,0.012495521,1
0.40399617,-3.99815321,1,-0.683532059,1,-8.912514687,1,-0.001590145,1,0.003146029,1,0.005225767,1,0.080685534,1,-0.423102349,1,0.012509841,1
0.407996148,-3.977727413,1,-0.662066519,1,-8.901445389,1,1.90E-06,1,0.003446228,1,0.005189552,1,0.080668874,1,-0.4230901,1,0.012530852,1
0.411997706,-4.00880909,1,-0.663942277,1,-8.927653313,1,-0.00263735,1,0.00579788,1,0.004487154,1,0.080640666,1,-0.423080713,1,0.012562156,1
0.41600129,-3.992972612,1,-0.685023248,1,-8.92472744,1,-0.004190681,1,0.004186449,1,0.004403666,1,0.080617085,1,-0.423063457,1,0.012582821,1
0.42000103,-4.008281708,1,-0.705518723,1,-8.942564964,1,-0.004520398,1,0.005960375,1,0.008074736,1,0.080588505,1,-0.423043638,1,0.012616377,1
0.424002558,-3.993420601,1,-0.702834308,1,-8.914968491,1,-0.007452112,1,0.003122229,1,0.007555123,1,0.080545567,1,-0.423024476,1,0.012654481,1
0.428000242,-4.01521349,1,-0.685915411,1,-8.961876869,1,-0.008155666,1,0.007075044,1,0.009955259,1,0.080508761,1,-0.423007548,1,0.012688411,1
0.431999743,-4.013307571,1,-0.672140241,1,-8.967611313,1,-0.010269912,1,0.004904573,1,0.008356502,1,0.080461577,1,-0.422980756,1,0.012723785,1
0.436001271,-4.018070221,1,-0.689519465,1,-8.925505638,1,-0.011005312,1,0.007024118,1,0.008458045,1,0.080406882,1,-0.422958732,1,0.012767742,1
0.439998984,-4.04891777,1,-0.669074893,1,-8.94474411,1,-0.01048246,1,0.007791138,1,0.008510281,1,0.080349252,1,-0.422932088,1,0.012809296,1
0.443998724,-4.032093525,1,-0.692377746,1,-8.917463303,1,-0.009446941,1,0.00972014,1,0.009415592,1,0.080290213,1,-0.42289412,1,0.012859815,1
0.448000252,-4.012615204,1,-0.679097772,1,-8.95153904,1,-0.01148155,1,0.011370526,1,0.009087122,1,0.080232732,1,-0.42285803,1,0.01290748,1
0.451997966,-3.973923445,1,-0.672455251,1,-8.929225922,1,-0.009402516,1,0.010058553,1,0.012589586,1,0.080163598,1,-0.42282182,1,0.01295749,1
0.455997437,-3.989886284,1,-0.68922627,1,-8.926520348,1,-0.015883397,1,0.011306766,1,0.011932226,1,0.080099523,1,-0.42278859,1,0.013014779,1
0.459999233,-4.001327038,1,-0.683743775,1,-8.947178841,1,-0.012622813,1,0.011245549,1,0.007329916,1,0.080027334,1,-0.422737122,1,0.013067456,1
0.463996917,-4.050889969,1,-0.679822922,1,-8.933154106,1,-0.015022506,1,0.011792581,1,0.015532125,1,0.079942636,1,-0.422686964,1,0.013128895,1
0.46799615,-4.007657528,1,-0.72419405,1,-8.913672447,1,-0.010576766,1,0.015932638,1,0.011874709,1,0.079858765,1,-0.422629297,1,0.013195047,1
0.471997708,-3.98225975,1,-0.690107584,1,-8.907096863,1,-0.012147802,1,0.020942727,1,0.016718609,1,0.079784952,1,-0.422563761,1,0.013275526,1
0.475995392,-3.953602552,1,-0.684765875,1,-8.885332108,1,-0.010763121,1,0.016974295,1,0.019400291,1,0.079704538,1,-0.422493786,1,0.013362824,1
0.479994893,-3.975132704,1,-0.694397211,1,-8.894942284,1,-0.008248738,1,0.016485551,1,0.009847756,1,0.079479732,1,-0.422364295,1,0.013528073,1
0.483996421,-3.975938797,1,-0.699107289,1,-8.907862663,1,-0.008921751,1,0.021100791,1,0.021230742,1,0.079410598,1,-0.422220916,1,0.012825608,1
0.487993866,-4.023076534,1,-0.713206053,1,-8.923287392,1,-0.008469963,1,0.01625701,1,0.018202975,1,0.079336584,1,-0.422152102,1,0.012919341,1
0.491993606,-3.999591112,1,-0.703704476,1,-8.969404221,1,-0.011051727,1,0.020603396,1,0.01884678,1,0.079260223,1,-0.422081828,1,0.013012643,1
0.495995402,-4.01461935,1,-0.682739377,1,-8.948163033,1,-0.00835524,1,0.01806348,1,0.02154319,1,0.079182237,1,-0.422004968,1,0.013107718,1
0.499993086,-4.032717228,1,-0.641418934,1,-8.945775986,1,-0.011368927,1,0.026127122,1,0.020194169,1,0.079104051,1,-0.421915054,1,0.013203565,1
0.503993094,-3.972625732,1,-0.682643056,1,-8.957039833,1,-0.015085482,1,0.026571464,1,0.02612794,1,0.079010636,1,-0.421822637,1,0.013319585,1
0.507994652,-3.934426546,1,-0.644961119,1,-8.953886986,1,-0.009382295,1,0.022873171,1,0.024613848,1,0.07891079,1,-0.421737492,1,0.013435658,1
0.511997938,-3.988305807,1,-0.680320978,1,-8.952413559,1,-0.015846394,1,0.024790917,1,0.027376378,1,0.078813806,1,-0.421652764,1,0.013553914,1
0.515997708,-4.002063751,1,-0.670257628,1,-8.929808617,1,-0.011452824,1,0.023382043,1,0.025274979,1,0.078716457,1,-0.421573967,1,0.013674716,1
0.519999206,-4.006660938,1,-0.68649888,1,-8.966591835,1,-0.015239034,1,0.023305587,1,0.024906168,1,0.078612462,1,-0.421486795,1,0.013786285,1
0.523996949,-4.00235796,1,-0.64601469,1,-8.925652504,1,-0.01442124,1,0.024334265,1,0.023075372,1,0.078500174,1,-0.421397299,1,0.013909961,1
0.527996659,-3.940743208,1,-0.584165156,1,-8.957467079,1,-0.009458583,1,0.021869814,1,0.028487412,1,0.078409545,1,-0.42130971,1,0.014026375,1
0.531998217,-3.93481636,1,-0.639813662,1,-8.951248169,1,-0.014072117,1,0.027149133,1,0.025980404,1,0.078303076,1,-0.42122072,1,0.014154087,1
0.535995901,-3.999484539,1,-0.616540909,1,-8.93813324,1,-0.010547682,1,0.025624979,1,0.02908705,1,0.078204036,1,-0.421129704,1,0.014278972,1
0.539995372,-4.03279686,1,-0.613484144,1,-8.954483032,1,-0.011443959,1,0.028252598,1,0.029192526,1,0.078119367,1,-0.421038419,1,0.01440299,1
0.54399693,-3.978415728,1,-0.622252226,1,-8.956993103,1,-0.001426783,1,0.025855288,1,0.025928341,1,0.078051932,1,-0.420933723,1,0.014528527,1
0.547994614,-4.013982773,1,-0.645417869,1,-8.96224308,1,0.002434295,1,0.034474324,1,0.026316006,1,0.078007117,1,-0.42082271,1,0.014653215,1
0.551994085,-3.990549803,1,-0.617568731,1,-8.969816208,1,0.008677917,1,0.033563741,1,0.029192664,1,0.077969275,1,-0.420692116,1,0.014796237,1
0.555995643,-4.016887188,1,-0.575251997,1,-9.011416435,1,0.015633762,1,0.035013683,1,0.030337881,1,0.077963106,1,-0.420567989,1,0.014933615,1
0.559993088,-4.042680264,1,-0.626686275,1,-8.984479904,1,0.017165296,1,0.03865115,1,0.029970907,1,0.077962987,1,-0.420419782,1,0.015076151,1
0.56399256,-4.054805279,1,-0.607251883,1,-8.96441555,1,0.024377467,1,0.041019753,1,0.03085712,1,0.077993199,1,-0.420265645,1,0.015219355,1
0.567994893,-3.990232706,1,-0.591215611,1,-8.967050552,1,0.025572028,1,0.043316822,1,0.030279446,1,0.07803601,1,-0.42009595,1,0.015369669,1
0.571993351,-3.938501596,1,-0.666620791,1,-8.975396156,1,0.032421999,1,0.045153886,1,0.025660446,1,0.078105785,1,-0.419924498,1,0.015514263,1
0.575992823,-3.986006498,1,-0.688787997,1,-8.98201561,1,0.034945183,1,0.048512403,1,0.030862071,1,0.078178801,1,-0.419743687,1,0.015657969,1
0.579994619,-4.054169655,1,-0.830041707,1,-9.202119827,1,0.051575907,1,0.048606727,1,0.02431366,1,0.0783135,1,-0.419561833,1,0.015789798,1
0.583992302,-4.038635731,1,-0.318668485,1,-8.995029449,1,0.050913576,1,0.066089086,1,0.02202245,1,0.078472681,1,-0.419347286,1,0.01592169,1
0.587992072,-3.986137152,1,-0.358789533,1,-9.069588661,1,0.037516654,1,0.058979377,1,-0.000257231,1,0.078671418,1,-0.419064671,1,0.015983319,1
0.59199357,-3.937796593,1,-0.652733803,1,-8.964643478,1,0.036341161,1,0.061086856,1,0.015567749,1,0.078775682,1,-0.418828279,1,0.016039439,1
0.595991313,-3.923556089,1,-0.603285253,1,-8.966994286,1,0.040748734,1,0.057393853,1,0.019858895,1,0.078891017,1,-0.418602258,1,0.016136935,1
0.599991024,-3.877774954,1,-0.562550306,1,-8.966738701,1,0.041110773,1,0.065851286,1,0.020210866,1,0.079016201,1,-0.418354064,1,0.016238468,1
0.603992581,-3.909047127,1,-0.626767874,1,-8.9804039,1,0.036503062,1,0.061231278,1,0.018009093,1,0.079128921,1,-0.418107569,1,0.016351391,1
0.607990265,-3.935362577,1,-0.575228989,1,-8.992366791,1,0.043233756,1,0.065328427,1,0.022121539,1,0.079249285,1,-0.417863935,1,0.016458571,1
0.611995876,-3.960725307,1,-0.550200105,1,-9.015529633,1,0.042424168,1,0.05755667,1,0.017049089,1,0.07936918,1,-0.417615831,1,0.0165674,1
0.615997434,-3.953671932,1,-0.563217282,1,-9.015101433,1,0.044289611,1,0.064736634,1,0.016709888,1,0.079501025,1,-0.417382866,1,0.016658591,1
0.619995117,-3.989637613,1,-0.585550964,1,-9.154401779,1,0.045060102,1,0.060965501,1,0.017793829,1,0.079653867,1,-0.417139411,1,0.016748965,1
0.623994648,-3.919303656,1,-0.468437523,1,-8.921316147,1,0.044676125,1,0.063337952,1,0.013883939,1,0.079794101,1,-0.416893989,1,0.016841561,1
0.627996683,-3.941756487,1,-0.543126106,1,-9.03012085,1,0.047450256,1,0.059911631,1,0.012516675,1,0.079939976,1,-0.416654408,1,0.016925655,1
0.631994903,-3.90367794,1,-0.662512302,1,-8.980524063,1,0.038935836,1,0.054682784,1,0.013001569,1,0.080073513,1,-0.416431665,1,0.016997052,1
0.635994852,-3.915333986,1,-0.66561532,1,-8.962789536,1,0.043720853,1,0.048703756,1,0.014083813,1,0.080199383,1,-0.416231215,1,0.017079256,1
0.639996409,-3.938349724,1,-0.674454987,1,-8.97604084,1,0.036505483,1,0.047231138,1,0.015887128,1,0.080316886,1,-0.416052669,1,0.0171635,1
0.643994093,-3.955021381,1,-0.706707835,1,-8.971216202,1,0.032263771,1,0.048527043,1,0.018853806,1,0.080421321,1,-0.415866077,1,0.017248122,1
0.647993624,-3.949713707,1,-0.691249609,1,-8.971458435,1,0.034352981,1,0.044121504,1,0.015169245,1,0.080521531,1,-0.415678084,1,0.017337423,1
0.65199542,-3.936628103,1,-0.678915739,1,-8.963360786,1,0.028626136,1,0.052567858,1,0.014789482,1,0.080605187,1,-0.415490866,1,0.01742753,1
0.655993104,-3.907063246,1,-0.684968233,1,-8.955937386,1,0.029335756,1,0.049047824,1,0.018270522,1,0.080693349,1,-0.415303558,1,0.017513016,1
0.659992576,-3.915863037,1,-0.671763062,1,-8.955384254,1,0.02765413,1,0.045841623,1,0.016754597,1,0.080764167,1,-0.415127486,1,0.017615281,1
0.663994908,-3.935603142,1,-0.688045681,1,-8.971849442,1,0.020618539,1,0.043496415,1,0.019972391,1,0.080827661,1,-0.414950192,1,0.017704768,1
0.667993367,-3.918231726,1,-0.711807489,1,-8.969521523,1,0.021625416,1,0.0430087,1,0.023321329,1,0.080866441,1,-0.414781272,1,0.017824678,1
0.671992838,-3.893167734,1,-0.70318532,1,-8.991669655,1,0.016018555,1,0.04124606,1,0.02328808,1,0.080903091,1,-0.414617032,1,0.017938208,1
0.675994396,-3.933412313,1,-0.732518435,1,-8.98292923,1,0.020330345,1,0.040674973,1,0.022145938,1,0.080931619,1,-0.4144575,1,0.018045072,1
0.67999208,-3.944624901,1,-0.672686875,1,-8.981752396,1,0.016112918,1,0.039092366,1,0.023006417,1,0.080951683,1,-0.414298475,1,0.018154036,1
0.68399179,-3.912666082,1,-0.698998213,1,-8.975212097,1,0.013114046,1,0.043569546,1,0.022717586,1,0.08096502,1,-0.41414234,1,0.018272515,1
0.687993348,-3.886971951,1,-0.63037169,1,-8.960594177,1,0.015281411,1,0.043430746,1,0.023656523,1,0.080981269,1,-0.41398555,1,0.018391224,1
0.691991031,-3.899056673,1,-0.64079529,1,-8.970277786,1,0.009769308,1,0.03652177,1,0.021766819,1,0.080984436,1,-0.413835377,1,0.018509373,1
0.695990503,-3.863258362,1,-0.651554167,1,-8.982719421,1,0.00603718,1,0.033101548,1,0.022815181,1,0.08098042,1,-0.413705051,1,0.01862593,1
0.699992061,-3.8960886,1,-0.66054374,1,-8.957061768,1,0.011236091,1,0.033584479,1,0.023325188,1,0.080982231,1,-0.413587362,1,0.018735562,1
0.703989506,-3.883858204,1,-0.66901356,1,-8.993366241,1,0.013099058,1,0.027839106,1,0.02346698,1,0.080986157,1,-0.413467169,1,0.018843673,1
0.707995117,-3.874856472,1,-0.65292269,1,-8.968195915,1,0.017211765,1,0.027287465,1,0.022125173,1,0.081007972,1,-0.413360506,1,0.018942447,1
0.711996675,-3.838175058,1,-0.684686661,1,-8.984160423,1,0.011444132,1,0.025428448,1,0.01537051,1,0.081020884,1,-0.413260043,1,0.019031221,1
0.715994358,-3.800110579,1,-0.633885264,1,-8.965842247,1,0.010165743,1,0.020792704,1,0.016174505,1,0.081034876,1,-0.413171887,1,0.019115031,1
0.71999383,-3.868169785,1,-0.616618931,1,-8.974346161,1,0.013565726,1,0.01736087,1,0.021794701,1,0.081035838,1,-0.413096488,1,0.019210413,1
0.723995924,-3.884446383,1,-0.574133635,1,-9.018018723,1,0.011784362,1,0.012970544,1,0.016921379,1,0.081051119,1,-0.413040519,1,0.019300124,1
0.727994084,-3.909340858,1,-0.638750136,1,-8.992147446,1,0.015405893,1,0.013485208,1,0.013988643,1,0.081071831,1,-0.412991375,1,0.019373871,1
0.731994092,-3.828150272,1,-0.553105891,1,-9.01973629,1,0.021364266,1,0.005877775,1,0.009870999,1,0.080941014,1,-0.412781179,1,0.018744638,1
0.73599565,-3.796801329,1,-0.644693255,1,-8.98618412,1,0.016849235,1,0.002568148,1,0.012137167,1,0.080989741,1,-0.412763715,1,0.018792346,1
0.739993334,-3.78477025,1,-0.592591643,1,-8.981507301,1,0.019106215,1,-0.0042765,1,0.011495659,1,0.081056558,1,-0.412761033,1,0.018845012,1
0.743992805,-3.83155489,1,-0.60632807,1,-8.9941082,1,0.022411134,1,-0.002628349,1,0.011342997,1,0.081109866,1,-0.412777603,1,0.018890325,1
0.747994602,-3.849163055,1,-0.574001491,1,-9.030006409,1,0.02434553,1,-0.010393082,1,0.014885642,1,0.081181057,1,-0.412806362,1,0.018942222,1
0.751992345,-3.911415815,1,-0.595513463,1,-9.003013611,1,0.029478194,1,-0.00621714,1,0.011275699,1,0.081262484,1,-0.41284588,1,0.018993713,1
0.755992591,-3.943909168,1,-0.63451159,1,-9.095661163,1,0.030767977,1,-0.009226442,1,0.01693554,1,0.081366189,1,-0.412880242,1,0.019048747,1
0.759994388,-3.965355635,1,-0.673224211,1,-9.016061783,1,0.036900796,1,-0.013852353,1,0.015814932,1,0.081461661,1,-0.412929922,1,0.019118076,1
0.76399231,-3.871392012,1,-0.622558177,1,-9.048494339,1,0.041638568,1,-0.008374797,1,0.012611831,1,0.081596181,1,-0.412973493,1,0.019176392,1
0.767991781,-3.856155396,1,-0.632527649,1,-9.052762032,1,0.046417993,1,-0.015217892,1,0.020652141,1,0.081738889,1,-0.413024902,1,0.01925616,1
0.771993339,-3.804062366,1,-0.639112413,1,-9.069583893,1,0.042866491,1,-0.020566478,1,0.017428363,1,0.08188884,1,-0.413103938,1,0.019333413,1
0.775990784,-3.790220737,1,-0.708001018,1,-9.056280136,1,0.049096946,1,-0.027117785,1,0.018800154,1,0.082044475,1,-0.413205504,1,0.019403894,1
0.779990554,-3.696899891,1,-0.69523716,1,-9.07403183,1,0.04810515,1,-0.042127643,1,0.022301326,1,0.082204215,1,-0.413351893,1,0.019472171,1
0.783992827,-3.708819389,1,-0.706561625,1,-9.135850906,1,0.049771033,1,-0.054134089,1,0.023572333,1,0.082366765,1,-0.41355443,1,0.019550608,1
0.787991047,-3.767575741,1,-0.730552793,1,-9.152498245,1,0.050718673,1,-0.06411735,1,0.030155463,1,0.082526907,1,-0.413797975,1,0.019648863,1
0.791990757,-3.823738337,1,-0.716961324,1,-9.158239365,1,0.057239234,1,-0.073070675,1,0.036412325,1,0.082697608,1,-0.414081156,1,0.019757841,1
0.795992315,-3.815391779,1,-0.83155483,1,-9.253146172,1,0.053166945,1,-0.084949739,1,0.041256145,1,0.082861573,1,-0.414411336,1,0.019896241,1
0.799989998,-3.775121927,1,-0.946667612,1,-9.260457039,1,0.043225374,1,-0.097696401,1,0.055742059,1,0.082982168,1,-0.414788276,1,0.02007089,1
0.80398953,-3.586303711,1,-1.103708386,1,-9.313426018,1,0.034694891,1,-0.120846272,1,0.077874891,1,0.083037876,1,-0.415250182,1,0.020317584,1
0.807991028,-3.37694335,1,-1.202882171,1,-9.495821953,1,0.026872635,1,-0.164226189,1,0.11219237,1,0.083039455,1,-0.415855646,1,0.020674331,1
0.811988711,-3.365810394,1,-0.909271955,1,-9.53674221,1,0.001763551,1,-0.202413037,1,0.15183118,1,0.082883663,1,-0.41663304,1,0.02119454,1
0.815988719,-3.181004763,1,-1.099127769,1,-9.755997658,1,-0.050478816,1,-0.260735035,1,0.217704758,1,0.082509242,1,-0.417604864,1,0.021902962,1
0.819990516,-2.965682983,1,-0.725655556,1,-9.740303993,1,-0.056204177,1,-0.31159246,1,0.305869758,1,0.081867963,1,-0.418835491,1,0.022947848,1
0.823988497,-3.12693572,1,-0.526629865,1,-10.13879013,1,-0.113216594,1,-0.339419961,1,0.423049152,1,0.080946624,1,-0.420248628,1,0.024420321,1
0.827987969,-2.817366362,1,-0.643280983,1,-10.29512024,1,-0.149671406,1,-0.399338901,1,0.574799538,1,0.079566024,1,-0.421870649,1,0.026463136,1
0.831989527,-2.410792828,1,0.322415382,1,-10.56176472,1,-0.132461697,1,-0.483073741,1,0.71805203,1,0.077929281,1,-0.423834413,1,0.029137576,1
0.83598721,-2.395815134,1,0.172811508,1,-10.97298241,1,-0.258699268,1,-0.579902589,1,0.902139783,1,0.075779937,1,-0.426199317,1,0.032497544,1
0.839986682,-2.412694216,1,-0.539114356,1,-11.51045799,1,-0.435042113,1,-0.664379418,1,1.028761625,1,0.07271941,1,-0.428968787,1,0.036550064,1
0.843988478,-1.716478705,1,-1.195173979,1,-12.77802753,1,-0.584917903,1,-0.858849108,1,1.155827641,1,0.068739146,1,-0.432263613,1,0.04111205,1
0.84798646,-1.578845382,1,0.097742215,1,-10.90263844,1,-0.633917034,1,-1.057929397,1,1.284641623,1,0.064151496,1,-0.436432213,1,0.046184249,1
0.851985931,-1.853856921,1,-0.164515525,1,-10.73459244,1,-0.645951688,1,-1.233116031,1,1.433305264,1,0.059158918,1,-0.441346586,1,0.051876187,1
0.85598743,-2.549766779,1,-1.040161848,1,-11.17389965,1,-0.597710609,1,-1.362860441,1,1.582128406,1,0.053935885,1,-0.446877778,1,0.05822267,1
0.859985173,-3.005633831,1,-1.442564845,1,-11.36661053,1,-0.573226035,1,-1.454729795,1,1.69323194,1,0.048576482,1,-0.452859402,1,0.065168716,1
0.863984644,-3.2762537,1,-2.004823685,1,-11.17416286,1,-0.55401516,1,-1.508483171,1,1.802003026,1,0.043029662,1,-0.45910722,1,0.072643526,1
0.867986202,-3.324269295,1,-2.454233408,1,-11.01002312,1,-0.530100048,1,-1.552557111,1,1.896468163,1,0.037300758,1,-0.465531945,1,0.08062984,1
0.871983886,-3.445843458,1,-3.044299841,1,-10.90603065,1,-0.514636099,1,-1.596408606,1,1.968615651,1,0.031383179,1,-0.472068906,1,0.089066587,1
0.875983894,-3.13296771,1,-3.065538883,1,-10.79087257,1,-0.505468607,1,-1.605288148,1,2.016931534,1,0.025340049,1,-0.478685051,1,0.097820118,1
0.87998569,-3.093926668,1,-4.495734215,1,-12.39299202,1,-0.569447875,1,-1.6952461,1,2.094635248,1,0.019030446,1,-0.485444754,1,0.10691873,1
0.883983374,-3.079446793,1,-3.836075783,1,-13.87066936,1,-0.584898293,1,-1.984833598,1,2.101269722,1,0.012192461,1,-0.492897987,1,0.116365895,1
0.887982845,-3.12381649,1,-2.023222923,1,-9.62931633,1,-0.645628273,1,-2.109793425,1,2.040411949,1,0.005382201,1,-0.50120908,1,0.125669435,1
0.891984403,-2.688787699,1,-2.956697941,1,-9.492964745,1,-0.621472299,1,-2.221059561,1,1.988747358,1,-0.001657655,1,-0.509879887,1,0.134875923,1
0.895981848,-5.033937931,1,-3.963562489,1,-10.79274178,1,-0.600848258,1,-2.245690107,1,1.94130671,1,-0.008533705,1,-0.518800735,1,0.143947929,1
0.89998132,-7.941847324,1,-5.106406689,1,-13.12747574,1,-0.735892832,1,-2.194504261,1,1.889399052,1,-0.015668277,1,-0.5276106,1,0.15293856,1
0.903989017,-12.02077007,1,-4.41142416,1,-15.55403709,1,-0.725055456,1,-1.988503695,1,1.813025355,1,-0.023128666,1,-0.53590858,1,0.161723644,1
0.90799284,-12.1243124,1,-1.085228443,1,-16.02614784,1,-0.641851664,1,-1.545852184,1,1.741143465,1,-0.030173218,1,-0.542819262,1,0.170235842,1
0.91199255,-9.464575768,1,-0.602819324,1,-14.98803806,1,-0.516758263,1,-1.13141191,1,1.661524057,1,-0.036782559,1,-0.547903717,1,0.178386912,1
0.915994108,-7.589982986,1,-0.825765431,1,-14.33533478,1,-0.333615988,1,-0.916869104,1,1.631849885,1,-0.042602357,1,-0.551681936,1,0.186275288,1
0.919991791,-5.573764801,1,-1.047595143,1,-13.60537338,1,-0.129828975,1,-0.854547322,1,1.644424319,1,-0.047656611,1,-0.554881215,1,0.194153771,1
0.923991323,-3.786400318,1,-1.423147321,1,-12.97568607,1,-0.024945075,1,-0.894130707,1,1.680063725,1,-0.052177943,1,-0.558033705,1,0.202181637,1
0.927992821,-3.146684885,1,-1.85954237,1,-12.1717062,1,0.010104142,1,-0.978427529,1,1.735660195,1,-0.056603953,1,-0.561398983,1,0.21047312,1
0.931990504,-3.121812105,1,-1.9469558,1,-12.00679398,1,0.049355794,1,-1.056718111,1,1.783221245,1,-0.061065719,1,-0.565056443,1,0.219061896,1
0.935990274,-3.172106028,1,-2.134068251,1,-11.91774273,1,0.049229857,1,-1.114877701,1,1.823912621,1,-0.065644599,1,-0.56893605,1,0.227935791,1
0.939992309,-3.379713058,1,-2.157540798,1,-12.06065273,1,0.08187791,1,-1.148474097,1,1.842724204,1,-0.07027708,1,-0.572960734,1,0.237000182,1
0.943990529,-3.337344646,1,-2.045163393,1,-12.14015675,1,0.128139228,1,-1.164832234,1,1.822679281,1,-0.074828401,1,-0.577048659,1,0.246131554,1
0.947990298,-3.125561476,1,-2.07918787,1,-12.36744976,1,0.208741546,1,-1.162204623,1,1.777769566,1,-0.079098493,1,-0.581133306,1,0.255145162,1
0.951992035,-3.01151371,1,-2.266053677,1,-12.31775475,1,0.280017227,1,-1.149700403,1,1.7029109,1,-0.082941011,1,-0.585185885,1,0.263913095,1
0.955989778,-2.33663106,1,-3.081749439,1,-12.37279701,1,0.295858294,1,-1.140969992,1,1.627735138,1,-0.086446889,1,-0.589197278,1,0.272351444,1
0.95998925,-2.429830551,1,-3.19295907,1,-12.42198753,1,0.282639474,1,-1.11021018,1,1.543080211,1,-0.089799456,1,-0.593130171,1,0.280443192,1
0.963990808,-2.098567486,1,-2.818470478,1,-12.38031101,1,0.292040199,1,-1.085700035,1,1.432424188,1,-0.092950933,1,-0.596968532,1,0.288095683,1
0.967988253,-1.699857831,1,-2.721377134,1,-12.30539131,1,0.329965651,1,-1.039168,1,1.31229651,1,-0.095711842,1,-0.600670397,1,0.295193106,1
0.971987963,-1.497499347,1,-2.736737967,1,-12.19034576,1,0.381656766,1,-0.998960555,1,1.192882419,1,-0.097997926,1,-0.604234755,1,0.301728845,1
0.975989521,-1.15927124,1,-2.643282175,1,-12.11105728,1,0.431282908,1,-0.947430193,1,1.069639921,1,-0.0997587,1,-0.607662618,1,0.307678968,1
0.979987204,-0.880659401,1,-2.706084251,1,-11.9941988,1,0.463923961,1,-0.901561618,1,0.945139885,1,-0.101019181,1,-0.610934317,1,0.313019753,1
0.983986676,-0.601603448,1,-2.601167917,1,-11.83254528,1,0.483847678,1,-0.845827103,1,0.830777705,1,-0.101762123,1,-0.614032269,1,0.317097962,1
0.987988234,-0.26735118,1,-2.541606665,1,-11.69311428,1,0.493735403,1,-0.789313197,1,0.710688055,1,-0.102210738,1,-0.616969109,1,0.321263164,1
0.991985679,-0.035705693,1,-2.354154348,1,-11.57977676,1,0.491363049,1,-0.735273123,1,0.597410858,1,-0.102323689,1,-0.619729161,1,0.324846685,1
0.995985389,0.259049982,1,-2.223585129,1,-11.52041531,1,0.474236012,1,-0.676838279,1,0.490234375,1,-0.102146029,1,-0.622309029,1,0.327854067,1
0.999993086,0.532371044,1,-1.9479357,1,-11.42171669,1,0.456224561,1,-0.613240898,1,0.383469939,1,-0.101716608,1,-0.624700844,1,0.330304205,1
1.003996968,0.662850022,1,-1.595512509,1,-11.33767319,1,0.451943129,1,-0.547925889,1,0.286459059,1,-0.10103067,1,-0.626872301,1,0.332240701,1
1.007996917,0.750607014,1,-1.33125186,1,-11.2051897,1,0.449052602,1,-0.474372119,1,0.200515166,1,-0.100093737,1,-0.628810048,1,0.333699286,1
1.011998415,0.863960922,1,-1.173796654,1,-11.08903408,1,0.46408686,1,-0.40202257,1,0.125383496,1,-0.098861553,1,-0.630488694,1,0.334712327,1
1.015996218,0.886521041,1,-0.899906516,1,-11.00732327,1,0.481443465,1,-0.323376209,1,0.069490843,1,-0.097344972,1,-0.631889284,1,0.335363626,1
1.019995689,0.89414984,1,-0.747119129,1,-10.91943645,1,0.489916235,1,-0.23859024,1,0.01618412,1,-0.095595151,1,-0.632993817,1,0.335702211,1
1.023997188,0.854151487,1,-0.574146152,1,-10.86531258,1,0.490744054,1,-0.153004155,1,-0.014722539,1,-0.093682982,1,-0.633769929,1,0.335794628,1
1.027994871,0.845751524,1,-0.52147615,1,-10.76671886,1,0.497239858,1,-0.054833446,1,-0.04003698,1,-0.091653839,1,-0.63420707,1,0.335701227,1
1.031995177,0.757000387,1,-0.127544418,1,-10.73964405,1,0.510451913,1,0.040776484,1,-0.056120016,1,-0.089489453,1,-0.63425231,1,0.335463613,1
1.035996914,0.747679174,1,0.047349736,1,-10.63053703,1,0.528928638,1,0.147813752,1,-0.075471632,1,-0.087187648,1,-0.633897245,1,0.335089684,1
1.039994597,0.799684227,1,0.255344123,1,-10.53247166,1,0.553190291,1,0.253486782,1,-0.092128411,1,-0.084729321,1,-0.633119643,1,0.334583819,1
1.043994069,0.795103014,1,0.377644807,1,-10.45437908,1,0.584750414,1,0.366638988,1,-0.106574357,1,-0.082084127,1,-0.631909549,1,0.333961844,1
1.047995687,0.748242497,1,0.332047909,1,-10.31398869,1,0.612847865,1,0.473545015,1,-0.126446247,1,-0.079250216,1,-0.630280137,1,0.333216369,1
1.05199337,0.68103385,1,0.393128991,1,-10.21435165,1,0.65574789,1,0.573603153,1,-0.139750361,1,-0.076208547,1,-0.628236473,1,0.332360983,1
1.055992842,0.693045676,1,0.351037681,1,-10.08842087,1,0.684146345,1,0.675147712,1,-0.158418179,1,-0.072963841,1,-0.625782728,1,0.331397295,1
1.059994936,0.631326675,1,0.342285573,1,-9.931523323,1,0.709371746,1,0.771627784,1,-0.189311877,1,-0.069532096,1,-0.622932374,1,0.330291569,1
1.063992858,0.616208673,1,0.235863432,1,-9.798467636,1,0.73391974,1,0.864567757,1,-0.218303069,1,-0.065908857,1,-0.619718432,1,0.329028606,1
1.067992568,0.478861958,1,0.083869055,1,-9.718278885,1,0.746310294,1,0.954672754,1,-0.254367888,1,-0.062109478,1,-0.616144836,1,0.327586383,1
1.071994424,0.387921125,1,-0.097352631,1,-9.631566048,1,0.743709981,1,1.046411157,1,-0.299768001,1,-0.058176063,1,-0.612217605,1,0.325940549,1
1.075992107,0.252768904,1,-0.286703199,1,-9.492178917,1,0.735509872,1,1.134368658,1,-0.346059114,1,-0.054139756,1,-0.607929885,1,0.324067771,1
1.079991579,0.129934356,1,-0.434608519,1,-9.35863018,1,0.707521677,1,1.234699726,1,-0.402798593,1,-0.050047226,1,-0.603275836,1,0.32196185,1
1.083993077,0.042747576,1,-0.489162505,1,-9.23514843,1,0.684642673,1,1.32445991,1,-0.467138916,1,-0.045900024,1,-0.598258853,1,0.31955713,1
1.087990522,-0.021340633,1,-0.541132152,1,-9.147961617,1,0.657720864,1,1.411042571,1,-0.538791478,1,-0.041690607,1,-0.592883229,1,0.316840529,1
1.091989994,-0.163383454,1,-0.642808914,1,-9.081255913,1,0.63536948,1,1.501242876,1,-0.619405448,1,-0.037399027,1,-0.587157249,1,0.313775718,1
1.09599185,-0.202671617,1,-0.725848138,1,-9.028113365,1,0.602018416,1,1.586497426,1,-0.699719071,1,-0.033046849,1,-0.58108449,1,0.310357124,1
1.099996209,-0.357353091,1,-0.837485492,1,-8.945732117,1,0.562702119,1,1.668515563,1,-0.784025192,1,-0.028652903,1,-0.574668944,1,0.306570172,1
1.103996396,-0.382219404,1,-0.861607969,1,-8.917427063,1,0.524061978,1,1.76069212,1,-0.876371622,1,-0.024221987,1,-0.567893744,1,0.302402139,1
1.107997894,-0.435103714,1,-0.858582675,1,-8.833411217,1,0.486069828,1,1.843138814,1,-0.964595497,1,-0.019776469,1,-0.560774922,1,0.29785639,1
1.111995697,-0.456623018,1,-0.812408626,1,-8.765025139,1,0.449638575,1,1.913201571,1,-1.055810452,1,-0.015303126,1,-0.553334415,1,0.29293552,1
1.115995169,-0.526207507,1,-0.789403141,1,-8.732457161,1,0.424833864,1,1.983593583,1,-1.142921925,1,-0.010788119,1,-0.545594394,1,0.287657827,1
1.119996667,-0.557851911,1,-0.86848706,1,-8.672339439,1,0.38946259,1,2.039355278,1,-1.226585865,1,-0.006262507,1,-0.537591934,1,0.282044172,1
1.12399435,-0.663040817,1,-0.929416895,1,-8.641934395,1,0.354369819,1,2.09328866,1,-1.308532119,1,-0.001758882,1,-0.529342473,1,0.276119292,1
1.127994657,-0.719467461,1,-0.919919908,1,-8.590537071,1,0.300604761,1,2.138974667,1,-1.381647825,1,0.002660393,1,-0.520881951,1,0.269899756,1
1.131996393,-0.87489599,1,-0.895407856,1,-8.57102108,1,0.244975016,1,2.185364962,1,-1.459775448,1,0.006968374,1,-0.512207389,1,0.263417453,1
1.135994077,-1.01984489,1,-0.820357382,1,-8.505409241,1,0.227286488,1,2.223731995,1,-1.530221105,1,0.011189441,1,-0.503329158,1,0.256676137,1
1.139993548,-1.145473361,1,-0.718968749,1,-8.565988541,1,0.20570682,1,2.268170595,1,-1.598881245,1,0.015398334,1,-0.494254172,1,0.249692097,1
1.143995166,-1.278006196,1,-0.7187199,1,-8.566223145,1,0.187810212,1,2.306836843,1,-1.66400075,1,0.019567795,1,-0.485002398,1,0.242484078,1
1.147992849,-1.445678115,1,-0.712191343,1,-8.574761391,1,0.162311226,1,2.344731092,1,-1.718904853,1,0.023693051,1,-0.475557685,1,0.235081047,1
1.151992321,-1.678598881,1,-0.798705339,1,-8.621957779,1,0.146115869,1,2.389613628,1,-1.768648267,1,0.027726354,1,-0.465915978,1,0.227533072,1
1.155994415,-1.853620291,1,-0.691493213,1,-8.746584892,1,0.13538684,1,2.428726196,1,-1.808542371,1,0.031700421,1,-0.456055701,1,0.219863921,1
1.159992337,-2.083776951,1,-0.636330009,1,-8.774642944,1,0.117123,1,2.47526598,1,-1.848165989,1,0.035579104,1,-0.446011305,1,0.212107554,1
1.163992286,-2.344955444,1,-0.642116189,1,-8.901288986,1,0.103449039,1,2.519604206,1,-1.871686339,1,0.039345309,1,-0.435746282,1,0.204308495,1
1.167993903,-2.609799385,1,-0.62617141,1,-8.976958275,1,0.086845294,1,2.574926376,1,-1.893651724,1,0.042995967,1,-0.425260007,1,0.196483821,1
1.171991587,-2.873985767,1,-0.617944479,1,-9.035340309,1,0.070266686,1,2.634954929,1,-1.894756913,1,0.046494164,1,-0.414508939,1,0.188706115,1
1.175991058,-3.090604067,1,-0.536708117,1,-9.094676018,1,0.064752594,1,2.696278811,1,-1.895991445,1,0.049819186,1,-0.403488427,1,0.181008548,1
1.179992795,-3.261514664,1,-0.410557806,1,-9.107240677,1,0.054974534,1,2.75698185,1,-1.881940603,1,0.052985646,1,-0.392202049,1,0.173437059,1
1.183990479,-3.293457031,1,-0.338294864,1,-9.094617844,1,0.04833569,1,2.81076169,1,-1.859568,1,0.055983532,1,-0.380668759,1,0.166019678,1
1.187990546,-3.331381559,1,-0.253690124,1,-9.021631241,1,0.043059207,1,2.858139277,1,-1.825349808,1,0.058814749,1,-0.368920147,1,0.158812195,1
1.191992521,-3.367850304,1,-0.190279767,1,-8.952151299,1,0.05175874,1,2.89341855,1,-1.783919215,1,0.061477318,1,-0.357002437,1,0.151845545,1
1.195996404,-3.410544157,1,-0.129765719,1,-8.908925056,1,0.048677355,1,2.914793015,1,-1.737663388,1,0.063988574,1,-0.344968915,1,0.145139724,1
1.199996114,-3.500001192,1,-0.053830579,1,-8.825226784,1,0.065964378,1,2.92653513,1,-1.683709621,1,0.066360191,1,-0.332863629,1,0.138711616,1
1.203997731,-3.632764816,1,-0.025572665,1,-8.728703499,1,0.077745415,1,2.932003736,1,-1.633925557,1,0.06861946,1,-0.320734799,1,0.132554069,1
1.207995415,-3.714431286,1,-0.094078749,1,-8.606830597,1,0.082354955,1,2.928619146,1,-1.58263278,1,0.070769049,1,-0.308588922,1,0.126669854,1
1.211994886,-3.735723019,1,-0.112967603,1,-8.556910515,1,0.084557466,1,2.924087524,1,-1.534110069,1,0.072782941,1,-0.296463728,1,0.121037975,1
1.215996385,-3.800543547,1,-0.180559516,1,-8.559786797,1,0.083007351,1,2.912152767,1,-1.484145522,1,0.074666195,1,-0.284383118,1,0.11565797,1
1.219994068,-3.976163626,1,-0.125848129,1,-8.61244297,1,0.087085798,1,2.889419317,1,-1.439165592,1,0.076416813,1,-0.272367477,1,0.110508896,1
1.223993659,-4.082851887,1,-0.084512055,1,-8.552325249,1,0.09533821,1,2.862576246,1,-1.402737737,1,0.078085884,1,-0.260452688,1,0.105556376,1
1.227995157,-4.191960812,1,-0.170425236,1,-8.488696098,1,0.106344752,1,2.839467525,1,-1.371530056,1,0.079697683,1,-0.248632908,1,0.100773618,1
1.231992841,-4.19289732,1,-0.221960917,1,-8.418553352,1,0.122921929,1,2.811603546,1,-1.339828968,1,0.079697162,1,-0.230624452,1,0.090515956,1
1.235992312,-4.19745636,1,-0.349212945,1,-8.332149506,1,0.132170916,1,2.772109747,1,-1.31613338,1,0.081214398,1,-0.219066381,1,0.086006895,1
1.239994168,-4.170701027,1,-0.404358238,1,-8.24472332,1,0.147331774,1,2.721951008,1,-1.29231751,1,0.082701929,1,-0.207690045,1,0.081606813,1
1.243991852,-4.159182072,1,-0.520322382,1,-8.252429962,1,0.157937497,1,2.666307211,1,-1.274610519,1,0.084187306,1,-0.19651188,1,0.077301309,1
1.247991562,-4.263998508,1,-0.606554151,1,-8.285957336,1,0.168904588,1,2.603832006,1,-1.259129047,1,0.085642047,1,-0.185576305,1,0.07306432,1
1.251993656,-4.546693325,1,-0.599470496,1,-8.371968269,1,0.188670292,1,2.547243595,1,-1.252930284,1,0.087110825,1,-0.174884215,1,0.068878546,1
1.255991578,-4.906733036,1,-0.743694305,1,-8.486052513,1,0.202341124,1,2.50043273,1,-1.251494169,1,0.088601023,1,-0.164392844,1,0.064707823,1
1.259991527,-5.352662086,1,-0.88542819,1,-8.58281517,1,0.204952016,1,2.473243475,1,-1.252017021,1,0.090074494,1,-0.154047638,1,0.06055855,1
1.263993144,-5.561832428,1,-1.075155616,1,-8.554971695,1,0.194104761,1,2.467918634,1,-1.262274265,1,0.091490254,1,-0.143753052,1,0.056395538,1
1.26799047,-5.552549362,1,-1.119921446,1,-8.549450874,1,0.177028164,1,2.453027725,1,-1.271538734,1,0.09280698,1,-0.133488625,1,0.052215844,1
1.271990061,-5.569972515,1,-1.05690372,1,-8.530221939,1,0.156628057,1,2.435925245,1,-1.279633999,1,0.094011664,1,-0.123274624,1,0.048001707,1
1.275991559,-5.572071075,1,-1.051046252,1,-8.475679398,1,0.142830491,1,2.407932997,1,-1.292443156,1,0.095106959,1,-0.113140374,1,0.043763049,1
1.279989004,-5.555758953,1,-1.010774016,1,-8.397537231,1,0.139597222,1,2.369934082,1,-1.298544765,1,0.096141122,1,-0.103135519,1,0.039493807,1
1.283988476,-5.555587769,1,-0.937254667,1,-8.390295982,1,0.136408463,1,2.327388525,1,-1.306720495,1,0.097112805,1,-0.093278244,1,0.035180911,1
1.287989974,-5.586745739,1,-0.870392501,1,-8.327161789,1,0.143933192,1,2.284540892,1,-1.312642336,1,0.098048687,1,-0.083587132,1,0.030853495,1
1.291993618,-5.591222286,1,-0.763051331,1,-8.317581177,1,0.147820219,1,2.230557203,1,-1.317638397,1,0.098966077,1,-0.074080594,1,0.026495419,1
1.295993328,-5.612167358,1,-0.685294032,1,-8.180380821,1,0.156300172,1,2.170304537,1,-1.318071723,1,0.099883214,1,-0.064797193,1,0.022115301,1
1.299994826,-5.53151083,1,-0.723562479,1,-8.063933372,1,0.166477799,1,2.101881981,1,-1.311440349,1,0.100794785,1,-0.055768933,1,0.017732056,1
1.303992629,-5.572813034,1,-0.763847947,1,-7.918599606,1,0.167853221,1,2.025429487,1,-1.29793632,1,0.101688221,1,-0.04703591,1,0.013361067,1
1.307992101,-5.587510109,1,-0.736485004,1,-7.755620956,1,0.175060436,1,1.938637018,1,-1.283222556,1,0.10256286,1,-0.038629062,1,0.009027747,1
1.311993599,-5.642284393,1,-0.542531848,1,-7.64321661,1,0.174837977,1,1.850014687,1,-1.267195702,1,0.103407249,1,-0.030575743,1,0.004734372,1
1.315991282,-5.751168728,1,-0.392404079,1,-7.476852417,1,0.184354484,1,1.75402081,1,-1.241496563,1,0.104240753,1,-0.022883795,1,0.000500188,1
1.319990754,-5.784172535,1,-0.214543894,1,-7.410527706,1,0.201131955,1,1.658975005,1,-1.204098105,1,0.105091043,1,-0.015589941,1,-0.003654708,1
1.323992372,-5.984661102,1,-0.046371303,1,-7.319005966,1,0.227436692,1,1.554021955,1,-1.161570311,1,0.10600315,1,-0.008706965,1,-0.007676383,1
1.327990055,-6.210656643,1,0.083358057,1,-7.241143227,1,0.255680174,1,1.459714413,1,-1.095603108,1,0.106991366,1,-0.002241875,1,-0.011531407,1
1.331989527,-6.370201111,1,0.260113239,1,-7.054417133,1,0.291810751,1,1.373114944,1,-1.026312232,1,0.10809198,1,0.00384386,1,-0.015154178,1
1.335991025,-6.474898338,1,0.45100227,1,-6.865634441,1,0.315339029,1,1.291315675,1,-0.944302022,1,0.109277405,1,0.009578994,1,-0.01849266,1
1.33998847,-6.494503021,1,0.649876833,1,-6.606592178,1,0.342852622,1,1.213779569,1,-0.846853733,1,0.110550478,1,0.014955366,1,-0.021504227,1
1.343987703,-6.436715603,1,0.84526062,1,-6.352127552,1,0.374324471,1,1.139107704,1,-0.738169849,1,0.111937582,1,0.019994782,1,-0.024126705,1
1.347989202,-6.243720055,1,1.001685381,1,-6.11309576,1,0.400535345,1,1.046931982,1,-0.621804178,1,0.113434471,1,0.024649158,1,-0.026344843,1
1.351986885,-6.122622013,1,1.131738544,1,-5.943639755,1,0.429529011,1,0.944805622,1,-0.494080156,1,0.115049303,1,0.028859831,1,-0.028113198,1
1.355986714,-6.140200615,1,1.226864576,1,-5.846146107,1,0.449651927,1,0.836115301,1,-0.366990566,1,0.116771832,1,0.032606445,1,-0.029414179,1
1.359988451,-6.331320763,1,1.240549088,1,-5.817330837,1,0.479337484,1,0.723155618,1,-0.232823804,1,0.118598908,1,0.035847738,1,-0.030237915,1
1.363986373,-6.60603857,1,1.304822326,1,-5.761432648,1,0.495258331,1,0.618120432,1,-0.106786475,1,0.120534584,1,0.038589187,1,-0.030599771,1
1.367985964,-6.95233345,1,1.239932418,1,-5.613841534,1,0.516942084,1,0.520640314,1,0.018262118,1,0.122561142,1,0.040870823,1,-0.030497933,1
1.371987462,-7.146077633,1,1.206943035,1,-5.489716053,1,0.51773411,1,0.428037763,1,0.136396036,1,0.124644198,1,0.042713158,1,-0.029966943,1
1.375984907,-7.308307648,1,1.093217015,1,-5.325134277,1,0.520312607,1,0.344047666,1,0.241225153,1,0.126768112,1,0.044148263,1,-0.029030519,1
1.379984379,-7.441408634,1,1.066525459,1,-5.162686348,1,0.521879077,1,0.25220868,1,0.341845125,1,0.128913328,1,0.045185696,1,-0.027718589,1
1.383985877,-7.465587616,1,1.013834715,1,-4.911514759,1,0.525299132,1,0.154707983,1,0.435999423,1,0.131090418,1,0.045796778,1,-0.026065106,1
1.387983561,-7.348935604,1,0.979169905,1,-4.693501949,1,0.524644554,1,0.050707217,1,0.531820476,1,0.133280128,1,0.0459597,1,-0.024078198,1
1.39198947,-7.401168346,1,0.89940685,1,-4.475875854,1,0.526053429,1,-0.061281484,1,0.616345644,1,0.13548182,1,0.045635749,1,-0.021803817,1
1.395991564,-7.432331085,1,0.836435437,1,-4.388694286,1,0.535097003,1,-0.190002903,1,0.698779225,1,0.13772139,1,0.044771664,1,-0.01926339,1
1.399989724,-7.552641392,1,0.634948909,1,-4.240107536,1,0.53723371,1,-0.323565036,1,0.770573735,1,0.139990315,1,0.04335073,1,-0.016490867,1
1.403989196,-7.764452934,1,0.441379339,1,-4.124352455,1,0.540491164,1,-0.461816519,1,0.838079333,1,0.142278463,1,0.04133857,1,-0.013521759,1
1.407990813,-7.992281437,1,0.190151885,1,-3.92600584,1,0.530865192,1,-0.601179481,1,0.897789538,1,0.144550785,1,0.038739428,1,-0.010373869,1
1.411988735,-8.22659111,1,-0.013483032,1,-3.847043991,1,0.522077262,1,-0.732804954,1,0.949508905,1,0.146786332,1,0.035573363,1,-0.007098042,1
1.415988207,-8.374904633,1,-0.294642299,1,-3.718003035,1,0.504617691,1,-0.860832095,1,0.982726872,1,0.148959771,1,0.03184434,1,-0.003739071,1
1.419990063,-8.433167458,1,-0.533525646,1,-3.70279932,1,0.477727503,1,-0.987580955,1,1.003543615,1,0.151029959,1,0.02759468,1,-0.000363762,1
1.423987746,-8.576083183,1,-0.717087746,1,-3.651647329,1,0.447288811,1,-1.108841419,1,1.005114913,1,0.152972862,1,0.022841636,1,0.002977548,1
1.427986979,-8.77636528,1,-0.908683956,1,-3.599327803,1,0.425610125,1,-1.226641417,1,0.99760592,1,0.15479371,1,0.017617416,1,0.006212814,1
1.431988478,-8.940382957,1,-1.070015669,1,-3.466422558,1,0.400479555,1,-1.336058855,1,0.966948688,1,0.156488106,1,0.011940089,1,0.009294155,1
1.435985923,-9.052111626,1,-1.264950037,1,-3.415300131,1,0.371533781,1,-1.450020194,1,0.935044169,1,0.158059955,1,0.005830877,1,0.012177845,1
1.439985394,-9.123757362,1,-1.353770494,1,-3.368673086,1,0.345633447,1,-1.562730908,1,0.890474975,1,0.159497023,1,-0.000700296,1,0.01483062,1
1.443987489,-9.208739281,1,-1.485965371,1,-3.27235508,1,0.322830647,1,-1.671037555,1,0.849142969,1,0.160826445,1,-0.007636589,1,0.017239489,1
1.447985649,-9.364611626,1,-1.594751477,1,-3.186148167,1,0.300745934,1,-1.785892129,1,0.804394126,1,0.162051305,1,-0.014979038,1,0.019391157,1
1.451985359,-9.521861076,1,-1.812099695,1,-3.172423124,1,0.274603277,1,-1.882485509,1,0.752690077,1,0.163164407,1,-0.022722872,1,0.021287009,1
1.455986977,-9.598996162,1,-1.966894031,1,-3.108520031,1,0.236805588,1,-1.979414463,1,0.70562017,1,0.16414246,1,-0.03081313,1,0.022907691,1
1.45998466,-9.623250961,1,-2.0718472,1,-3.077622175,1,0.19940415,1,-2.066608906,1,0.646048486,1,0.16496861,1,-0.039228749,1,0.024254505,1
1.463984132,49.37139511,1,-12.01914692,1,-59.17526627,1,-0.353476882,1,-4.173674107,1,0.547207117,1,0.165028125,1,-0.050310731,1,0.024929138,1
1.46798563,23.33853149,1,-6.317890644,1,-38.99649811,1,-0.396930158,1,-5.571766853,1,-0.106177717,1,0.165269911,1,-0.072302364,1,0.021888793,1
1.471983075,55.43884277,1,-14.38265896,1,-13.64094067,1,-0.321533978,1,-2.848485947,1,0.523672521,1,0.161514983,1,-0.088027246,1,0.019839687,1
1.475982547,13.97381878,1,-6.242249012,1,-35.77443314,1,-0.53169626,1,-3.289204597,1,0.415173233,1,0.162127256,1,-0.100268036,1,0.020291775,1
1.479984164,20.52871704,1,-4.704760075,1,-5.679477215,1,-1.043869734,1,-4.067206383,1,0.279453665,1,0.158350363,1,-0.114595056,1,0.019203875,1
1.483981848,-0.17768155,1,1.310137868,1,-0.661528885,1,-1.979468584,1,-6.179267406,1,0.516603947,1,0.152425274,1,-0.135145962,1,0.017216915,1
1.487987399,-11.23204708,1,-2.368234396,1,-6.809767246,1,-1.442806244,1,-6.937540531,1,0.617285788,1,0.145707548,1,-0.161744744,1,0.015614065,1
1.491989255,-20.55950356,1,-2.850386381,1,-15.53995132,1,-1.399677634,1,-6.551702499,1,0.58949542,1,0.140510976,1,-0.189125672,1,0.014092072,1
1.495987177,-24.96284676,1,-1.283607244,1,-20.38134575,1,-1.594278216,1,-5.547467232,1,0.484277129,1,0.134742603,1,-0.213398725,1,0.012891718,1
1.499986649,-25.3639679,1,-0.292447984,1,-19.24729729,1,-1.613500118,1,-4.585793972,1,0.415086716,1,0.128449872,1,-0.233687699,1,0.011968978,1
1.503988266,-21.85105896,1,1.440027595,1,-17.08088684,1,-1.441984296,1,-3.814610243,1,0.419128895,1,0.122429021,1,-0.250504971,1,0.011528764,1
1.50798595,-18.33337593,1,3.366291523,1,-15.8676033,1,-1.247399807,1,-3.255196095,1,0.352982014,1,0.117111742,1,-0.264687628,1,0.011372163,1
1.51198566,-16.49207115,1,4.675088406,1,-15.28818321,1,-1.017490029,1,-2.778531313,1,0.303668469,1,0.112569578,1,-0.27683109,1,0.011282342,1
1.515987515,-14.74328995,1,5.065867424,1,-15.15661335,1,-0.765470147,1,-2.300984859,1,0.273202747,1,0.109018639,1,-0.287049979,1,0.011297488,1
1.519985199,-12.34686852,1,5.569190502,1,-13.91478825,1,-0.488127351,1,-1.898306727,1,0.241552681,1,0.106485337,1,-0.2954835,1,0.011437679,1
1.523984671,-9.456768036,1,5.073716164,1,-12.28950405,1,-0.266909271,1,-1.624950171,1,0.201643288,1,0.104932085,1,-0.302548945,1,0.011583484,1
1.527986407,-6.929670334,1,3.237232924,1,-11.06064224,1,-0.107952945,1,-1.468018174,1,0.181924984,1,0.104153104,1,-0.308760822,1,0.011718403,1
1.531984091,-4.923835278,1,1.817776918,1,-10.46859837,1,0.042211369,1,-1.391855836,1,0.13616538,1,0.10401538,1,-0.314494371,1,0.011780285,1
1.535983562,-3.494804144,1,0.532089591,1,-9.872802734,1,0.119086549,1,-1.369412422,1,0.097082362,1,0.104387894,1,-0.320003927,1,0.011667405,1
1.53998518,-3.24590373,1,-1.239942551,1,-9.557379723,1,0.086769775,1,-1.374487758,1,0.081910945,1,0.104904041,1,-0.325511068,1,0.011416088,1
1.543982625,-3.949450493,1,-2.636116028,1,-9.556472778,1,0.04093042,1,-1.361676335,1,0.105436973,1,0.105237134,1,-0.330996633,1,0.01120689,1
1.547982097,-5.048874378,1,-3.067149162,1,-9.868816376,1,-0.044626687,1,-1.303585768,1,0.13731274,1,0.105233073,1,-0.336358637,1,0.011131205,1
1.551983595,-5.896966457,1,-2.994432688,1,-9.942417145,1,-0.125021219,1,-1.196777105,1,0.15583764,1,0.104884833,1,-0.341392547,1,0.011190651,1
1.55598104,-6.396866798,1,-3.24947238,1,-9.917152405,1,-0.208012298,1,-1.065353513,1,0.177705616,1,0.104154766,1,-0.345973462,1,0.011386822,1
1.55998075,-6.085751534,1,-3.383533001,1,-9.662539482,1,-0.279477745,1,-0.939716518,1,0.195579737,1,0.103049695,1,-0.350034028,1,0.011740658,1
1.563982368,-5.646196365,1,-2.836522579,1,-9.453569412,1,-0.335852146,1,-0.84975791,1,0.210231885,1,0.101670116,1,-0.353667498,1,0.012215402,1
1.567979813,-5.243621826,1,-2.098669291,1,-9.460249901,1,-0.342487603,1,-0.78119415,1,0.199756965,1,0.100103535,1,-0.356988668,1,0.01274432,1
1.571979523,-4.800402641,1,-1.079340458,1,-9.540113449,1,-0.343206495,1,-0.72317785,1,0.191796869,1,0.098546945,1,-0.360054612,1,0.013251979,1
1.575981021,-4.643836021,1,-0.2092437,1,-9.620355606,1,-0.330013484,1,-0.682182729,1,0.177419499,1,0.097028106,1,-0.362916827,1,0.013745295,1
1.579979062,-4.790483952,1,0.21301879,1,-9.767832756,1,-0.290627122,1,-0.632348597,1,0.163158149,1,0.095621467,1,-0.365594178,1,0.014196169,1
1.583978534,-4.757739544,1,0.334536582,1,-9.831727982,1,-0.269194484,1,-0.593072355,1,0.144782856,1,0.094354697,1,-0.368085921,1,0.014598563,1
1.587980032,-4.861547947,1,0.211072356,1,-9.750318527,1,-0.224075064,1,-0.540668309,1,0.125969768,1,0.093250677,1,-0.370385379,1,0.01493826,1
1.591977715,-4.773955822,1,0.228189871,1,-9.837362289,1,-0.180162221,1,-0.501309931,1,0.101112358,1,0.092331007,1,-0.372512758,1,0.015223464,1
1.595977426,-4.632082462,1,-0.002809873,1,-9.729558945,1,-0.146059901,1,-0.462584525,1,0.088811658,1,0.091605499,1,-0.374468684,1,0.01544839,1
1.599979281,-4.455596447,1,-0.294217408,1,-9.560618401,1,-0.112919211,1,-0.432980329,1,0.065884069,1,0.091038652,1,-0.376270711,1,0.015608656,1
1.603977203,-4.222870827,1,-0.94465059,1,-9.381979942,1,-0.092159241,1,-0.409574658,1,0.043265041,1,0.090602912,1,-0.377964526,1,0.015669785,1
1.607977271,-4.020305157,1,-0.274531633,1,-9.381754875,1,-0.078899801,1,-0.392740428,1,0.049047869,1,0.090247229,1,-0.379575908,1,0.015699575,1
1.611979008,-3.798606634,1,0.434541047,1,-9.352870941,1,-0.054018453,1,-0.392060846,1,0.047834706,1,0.089960486,1,-0.381156445,1,0.015760064,1
1.615976691,-4.10990715,1,-0.295369774,1,-9.559436798,1,-0.044147458,1,-0.359505445,1,0.023335977,1,0.0897668,1,-0.382668495,1,0.015767226,1
1.619976163,-3.801312447,1,-0.495653063,1,-9.158299446,1,-0.030507775,1,-0.346772999,1,0.009262243,1,0.089630768,1,-0.384078979,1,0.015694136,1
1.62397778,-3.834574461,1,-0.015304228,1,-9.222377777,1,-0.019914182,1,-0.341762066,1,0.038125478,1,0.089563094,1,-0.385459542,1,0.015662499,1
1.627975225,-4.311317444,1,0.08304394,1,-9.323886871,1,-0.017538978,1,-0.32255277,1,0.047900505,1,0.089449003,1,-0.386795163,1,0.015726998,1
1.631974697,-4.332769394,1,-0.652247429,1,-9.202587128,1,-0.007609845,1,-0.291155577,1,0.031400319,1,0.089372449,1,-0.388022572,1,0.015784679,1
1.635976434,-4.092794895,1,-1.69637084,1,-9.044703484,1,0.006926932,1,-0.271299303,1,0.008001018,1,0.089386337,1,-0.389145285,1,0.015758134,1
1.639974117,-4.06285429,1,-1.894156814,1,-8.973508835,1,-0.002614154,1,-0.255727232,1,-0.003408798,1,0.089436799,1,-0.390191019,1,0.015654087,1
1.643974185,-3.810393572,1,-1.133673072,1,-8.968471527,1,-0.009416919,1,-0.254140526,1,0.005272183,1,0.089454666,1,-0.391210556,1,0.015566621,1
1.647975683,-3.732691765,1,-0.581372619,1,-9.016717911,1,-0.020895863,1,-0.248172075,1,0.012705304,1,0.089412384,1,-0.392222166,1,0.01551466,1
1.651973367,-3.561136007,1,-0.34182784,1,-9.008997917,1,-0.010474555,1,-0.256068498,1,0.000375523,1,0.089368448,1,-0.393213958,1,0.015448306,1
1.655972838,-3.476469517,1,-0.425176919,1,-8.936415672,1,-0.009073529,1,-0.260741651,1,0.005668978,1,0.089359611,1,-0.394239664,1,0.015368132,1
1.659974456,-3.477284193,1,-0.472478241,1,-8.994651794,1,0.005041095,1,-0.270437062,1,-0.001514479,1,0.089383751,1,-0.39530313,1,0.015270565,1
1.663971782,-3.423892736,1,-0.320076019,1,-9.058897018,1,0.009770672,1,-0.286240935,1,-0.013168905,1,0.089473888,1,-0.396404833,1,0.015125502,1
1.667971373,-3.44622016,1,-0.094448358,1,-9.043087006,1,0.025723988,1,-0.299433291,1,-0.020726511,1,0.089610092,1,-0.397567809,1,0.014953646,1
1.671972871,-3.4844203,1,-0.143247321,1,-9.078103065,1,0.030803954,1,-0.320033342,1,-0.017178096,1,0.089824423,1,-0.398789465,1,0.014744041,1
1.675970793,-3.61586237,1,-0.228571504,1,-9.043765068,1,0.036750205,1,-0.319537759,1,-0.023739211,1,0.090028122,1,-0.400053233,1,0.014531351,1
1.679970503,-3.715378284,1,-0.34395349,1,-9.056647301,1,0.046087869,1,-0.329979986,1,-0.026909672,1,0.090288118,1,-0.401339829,1,0.014294206,1
1.6839782,-3.712150812,1,-0.457235187,1,-9.021995544,1,0.048876032,1,-0.312521696,1,-0.027991254,1,0.090564892,1,-0.402605683,1,0.014054551,1
1.687982321,-3.644847631,1,-0.525836051,1,-8.983592987,1,0.035774972,1,-0.326382875,1,-0.016807109,1,0.090843305,1,-0.403879166,1,0.013822788,1
1.691982388,-3.770674229,1,-0.6765697,1,-8.979722977,1,0.017150626,1,-0.308824539,1,-0.008517018,1,0.090999663,1,-0.405132204,1,0.013648435,1
1.695983887,-3.836612701,1,-0.807814777,1,-9.054820061,1,0.029604847,1,-0.335709095,1,-0.01474674,1,0.09118706,1,-0.406419307,1,0.013462709,1
1.69998157,-3.954694986,1,-0.954040587,1,-8.996679306,1,0.020238152,1,-0.329735756,1,-0.000653545,1,0.09136188,1,-0.407746643,1,0.013295966,1
1.703981042,-3.780001402,1,-1.022969127,1,-8.926785469,1,0.007493892,1,-0.330979198,1,0.010779891,1,0.091460504,1,-0.409062564,1,0.013194091,1
1.707982898,-3.644982815,1,-0.922823071,1,-8.786086082,1,-0.015640674,1,-0.326469183,1,0.00933204,1,0.09148106,1,-0.410377532,1,0.013100891,1
1.711980581,-3.974865913,1,-1.072722316,1,-8.852889061,1,-0.050715659,1,-0.318865091,1,0.041153517,1,0.091354817,1,-0.411673814,1,0.013065866,1
1.715980053,-4.200009346,1,-1.083676219,1,-8.884062767,1,-0.07489153,1,-0.299230993,1,0.05516104,1,0.091056988,1,-0.412914366,1,0.013151336,1
1.71998179,-4.153689861,1,-1.295574665,1,-8.871282578,1,-0.092849165,1,-0.284834653,1,0.074008808,1,0.090657011,1,-0.414111584,1,0.013310879,1
1.723979473,-4.29546833,1,-1.50055778,1,-8.774741173,1,-0.12453524,1,-0.270674378,1,0.099791482,1,0.090113804,1,-0.415245831,1,0.013577366,1
1.727979064,-4.396318436,1,-1.769722581,1,-8.910857201,1,-0.158061326,1,-0.257408261,1,0.123521417,1,0.089401454,1,-0.416331589,1,0.013949959,1
1.731980801,-5.718460083,1,-3.378785849,1,-9.024989128,1,-0.302574337,1,-0.184485868,1,0.182837293,1,0.086479887,1,-0.422754288,1,0.016291037,1
1.735978484,-5.06223917,1,-2.592945337,1,-8.616649628,1,-0.20505926,1,-0.129897609,1,0.140278235,1,0.085159272,1,-0.42343089,1,0.016940262,1
1.739978194,-3.751837492,1,-2.017110825,1,-8.356556892,1,-0.272485763,1,-0.128583431,1,0.178035051,1,0.08398623,1,-0.423984706,1,0.01756854,1
1.743979812,-3.456763029,1,-2.004033327,1,-8.506547928,1,-0.324930131,1,-0.153515503,1,0.21592018,1,0.082435325,1,-0.424604446,1,0.01838013,1
1.747977257,-3.60727334,1,-1.82292223,1,-8.598648071,1,-0.38464132,1,-0.158224866,1,0.253860652,1,0.080634691,1,-0.425316751,1,0.019353617,1
1.751976967,-3.936924696,1,-1.663260698,1,-8.597937584,1,-0.424556404,1,-0.140807331,1,0.294319749,1,0.078543685,1,-0.425997108,1,0.020504313,1
1.755978465,-4.066516876,1,-1.807714105,1,-8.584422112,1,-0.466460049,1,-0.123399898,1,0.325567573,1,0.076210231,1,-0.426614225,1,0.02182832,1
1.759976149,-3.901798248,1,-2.055860043,1,-8.544230461,1,-0.493625253,1,-0.110631265,1,0.358165979,1,0.073698923,1,-0.427177429,1,0.023285726,1
1.763975739,-3.661630154,1,-1.983767033,1,-8.484541893,1,-0.531926453,1,-0.114638105,1,0.397585988,1,0.070981145,1,-0.427743375,1,0.0249111,1
1.767977238,-3.557635546,1,-1.836101294,1,-8.55454731,1,-0.572792947,1,-0.115094222,1,0.444475323,1,0.068026751,1,-0.428326458,1,0.026721476,1
1.771974921,-3.566678524,1,-1.748805761,1,-8.625450134,1,-0.628171206,1,-0.116797931,1,0.489706039,1,0.064780422,1,-0.42891413,1,0.02874193,1
1.77597487,-3.702965021,1,-1.757980585,1,-8.650543213,1,-0.674807549,1,-0.124112889,1,0.529028118,1,0.061250243,1,-0.429518163,1,0.030943017,1
1.779982567,-3.655263424,1,-1.552406192,1,-8.603678703,1,-0.708713889,1,-0.128786549,1,0.57646662,1,0.057485212,1,-0.430142164,1,0.033334237,1
1.783986449,-3.797448397,1,-1.357596993,1,-8.691750526,1,-0.744865239,1,-0.138217062,1,0.611418903,1,0.053495165,1,-0.430814713,1,0.035920043,1
1.787986159,-3.853275061,1,-1.131506562,1,-8.707600594,1,-0.774882734,1,-0.140654564,1,0.643917143,1,0.049326245,1,-0.431499153,1,0.038639195,1
1.791988254,-3.853555679,1,-0.756783962,1,-8.764743805,1,-0.782073617,1,-0.143800482,1,0.677091956,1,0.04499324,1,-0.432186246,1,0.041515011,1
1.795986652,-3.779206276,1,-0.589222074,1,-8.7358284,1,-0.805504203,1,-0.154018238,1,0.713259578,1,0.04054017,1,-0.432915032,1,0.044554338,1
1.799986482,-3.949399948,1,-0.431958079,1,-8.784229279,1,-0.815090597,1,-0.15606679,1,0.740534186,1,0.035974443,1,-0.433635712,1,0.047719494,1
1.803988218,-3.830542564,1,-0.161875099,1,-8.855189323,1,-0.811077058,1,-0.156626284,1,0.789448261,1,0.031320702,1,-0.434368402,1,0.051077899,1
1.807985902,-3.762438059,1,0.269028425,1,-8.880275726,1,-0.804041326,1,-0.167874739,1,0.843950987,1,0.026562652,1,-0.43510595,1,0.054661423,1
1.811985373,-3.845022678,1,0.648575962,1,-8.723976135,1,-0.772078693,1,-0.164192453,1,0.89818716,1,0.021805961,1,-0.435853809,1,0.058471769,1
1.815986991,-4.064860821,1,0.628174484,1,-9.224298477,1,-0.7988711,1,-0.156122088,1,0.985975981,1,0.016925536,1,-0.436565787,1,0.062616169,1
1.819984436,-4.092226028,1,0.969870508,1,-9.062208176,1,-0.778083205,1,-0.174120709,1,1.060661793,1,0.011857259,1,-0.437276632,1,0.06712009,1
1.823983908,-4.085855007,1,1.256248593,1,-9.028553009,1,-0.746313453,1,-0.178711295,1,1.15575552,1,0.00674561,1,-0.438026369,1,0.072004519,1
1.827985406,-4.100528717,1,1.480656981,1,-9.321205139,1,-0.729512036,1,-0.20084922,1,1.239201546,1,0.001536808,1,-0.438793242,1,0.077311575,1
1.831982851,-4.048091888,1,1.79242909,1,-9.272471428,1,-0.70257616,1,-0.22506611,1,1.273142099,1,-0.003702479,1,-0.439642996,1,0.082867891,1
1.835982561,-4.384593964,1,1.966544986,1,-9.300185204,1,-0.657588601,1,-0.219420254,1,1.24697578,1,-0.008822138,1,-0.44051829,1,0.088475905,1
1.839984179,-11.62299919,1,8.206022263,1,-11.53584576,1,-0.280866325,1,0.315707415,1,0.649495542,1,-0.012710253,1,-0.440510869,1,0.092872635,1
1.843981624,-5.642763138,1,-1.89401269,1,-9.342288971,1,-0.234220013,1,0.363572598,1,0.168794885,1,-0.01437498,1,-0.438826919,1,0.094490968,1
1.847981095,-0.914745986,1,-4.761715412,1,-7.992009163,1,-0.147170335,1,-0.015861746,1,0.163216367,1,-0.015378533,1,-0.438202471,1,0.095106632,1
1.851982594,-4.156759262,1,2.558507681,1,-9.79156208,1,-0.171817482,1,0.035842177,1,0.236894548,1,-0.016362108,1,-0.438239157,1,0.096016899,1
1.855980039,-3.839340448,1,3.343761683,1,-9.097259521,1,-0.225924641,1,0.15972209,1,0.216901764,1,-0.017598704,1,-0.437771022,1,0.097040661,1
1.85997951,-3.852535248,1,0.228553802,1,-9.073714256,1,-0.24712047,1,0.105719313,1,0.17198284,1,-0.018921781,1,-0.437205642,1,0.09788274,1
1.863981009,-4.402808189,1,-0.29559204,1,-9.193141937,1,-0.223120317,1,0.067956433,1,0.168997735,1,-0.020188816,1,-0.436851174,1,0.098629326,1
1.86797905,-3.922073364,1,0.727513909,1,-9.088299751,1,-0.183745623,1,0.07304167,1,0.165695682,1,-0.021284495,1,-0.436563015,1,0.099353306,1
1.871978998,-3.740200043,1,0.79153043,1,-9.097082138,1,-0.219278812,1,0.065327883,1,0.149075866,1,-0.022372475,1,-0.436269522,1,0.100044988,1
1.875980258,-4.081860542,1,0.378434807,1,-9.09100914,1,-0.238151312,1,0.062730312,1,0.1496979,1,-0.023544772,1,-0.436012506,1,0.10069368,1
1.879983902,-4.058524609,1,-0.004222977,1,-8.909601212,1,-0.253834337,1,0.056392703,1,0.154673457,1,-0.024820475,1,-0.435761988,1,0.101359911,1
1.883983612,-4.056908607,1,-0.113007948,1,-8.936338425,1,-0.247310072,1,0.048165489,1,0.154636681,1,-0.026108166,1,-0.435535878,1,0.102036305,1
1.88798511,-4.105564594,1,0.043419354,1,-9.174476624,1,-0.266876251,1,0.038455915,1,0.15185526,1,-0.027401142,1,-0.435345292,1,0.102697045,1
1.891983151,-4.232192993,1,0.301509827,1,-9.081645966,1,-0.28560105,1,0.013070288,1,0.151224032,1,-0.028792571,1,-0.435224533,1,0.103375182,1
1.895982862,-4.176436424,1,0.399257421,1,-9.065442085,1,-0.29041025,1,0.006260821,1,0.146144196,1,-0.030223772,1,-0.435155421,1,0.104035467,1
1.899984598,-3.976099491,1,0.280041039,1,-9.124486923,1,-0.324123025,1,0.003023859,1,0.131160587,1,-0.031706613,1,-0.43511802,1,0.104661398,1
1.903982282,-4.036090374,1,0.249995142,1,-9.070542336,1,-0.367659122,1,-0.000545273,1,0.134303048,1,-0.033331878,1,-0.43510586,1,0.105242617,1
1.907981515,-4.177877426,1,0.439341277,1,-9.175948143,1,-0.419634253,1,-0.016983725,1,0.124857128,1,-0.035158027,1,-0.435126185,1,0.105817989,1
1.911983132,-4.087370396,1,0.317658097,1,-9.164678574,1,-0.443646252,1,-0.013295136,1,0.127747014,1,-0.037125327,1,-0.435167909,1,0.106369533,1
1.915980816,-4.070513725,1,0.270791173,1,-9.163896561,1,-0.447885871,1,-0.030704591,1,0.126827732,1,-0.039144181,1,-0.435234547,1,0.106936999,1
1.919980288,-4.072761059,1,0.533792973,1,-9.145992279,1,-0.448298484,1,-0.031693749,1,0.123358697,1,-0.041175958,1,-0.435339391,1,0.107492171,1
1.923982024,-4.121342182,1,0.627253175,1,-9.201310158,1,-0.448682487,1,-0.045060631,1,0.12569879,1,-0.043217517,1,-0.435478628,1,0.108050466,1
1.927980065,-4.171987534,1,0.738992691,1,-9.360612869,1,-0.43271488,1,-0.071344636,1,0.128003284,1,-0.045204986,1,-0.435691416,1,0.108616404,1
1.931980014,-3.808474064,1,0.704114676,1,-9.434635162,1,-0.387439251,1,-0.115026005,1,0.124874681,1,-0.047104839,1,-0.436038464,1,0.109194629,1
1.935981512,-3.873198032,1,0.356498122,1,-9.285065651,1,-0.382602304,1,-0.14218621,1,0.138576418,1,-0.048870951,1,-0.436524242,1,0.109809436,1
1.939978957,-4.178813457,1,0.329016119,1,-9.321678162,1,-0.390942007,1,-0.163599804,1,0.138499811,1,-0.05071421,1,-0.437101364,1,0.110451125,1
1.943978548,-4.029772282,1,0.6411044,1,-9.366214752,1,-0.360551924,1,-0.193566829,1,0.141050711,1,-0.052487571,1,-0.437785745,1,0.111115769,1
1.947980046,-3.879077435,1,1.071028829,1,-9.690258026,1,-0.307947367,1,-0.249393344,1,0.141297534,1,-0.054136977,1,-0.438640088,1,0.111800238,1
1.951977491,-3.468793869,1,1.467990279,1,-10.01106071,1,-0.110583745,1,-0.363655299,1,0.14290303,1,-0.055258829,1,-0.439813852,1,0.112503372,1
1.955976963,-3.803510189,1,0.90434581,1,-9.558075905,1,-0.130858928,1,-0.419570506,1,0.119994931,1,-0.056005538,1,-0.441356599,1,0.113184616,1
1.959978461,-4.118879318,1,0.918610871,1,-9.608878136,1,-0.087645032,1,-0.469036281,1,0.11362353,1,-0.056734059,1,-0.443097442,1,0.113809399,1
1.963976145,-3.782318354,1,0.92230922,1,-9.656098366,1,-0.070575833,1,-0.517787993,1,0.097624436,1,-0.057299092,1,-0.445036083,1,0.114407286,1
1.967975736,-3.806744099,1,0.925335705,1,-9.673534393,1,-0.059239712,1,-0.578701079,1,0.090830252,1,-0.057804171,1,-0.447202623,1,0.114960186,1
1.971976995,-3.834057808,1,0.914901853,1,-9.670148849,1,-0.039869964,1,-0.63781029,1,0.077935115,1,-0.058233645,1,-0.449607074,1,0.115488485,1
1.97598052,-3.97189784,1,1.068680286,1,-9.648888588,1,-0.030092508,1,-0.695001245,1,0.060472883,1,-0.058580395,1,-0.452259988,1,0.115967698,1
1.979979992,-3.99943471,1,1.160041094,1,-9.557602882,1,-0.018183699,1,-0.736473024,1,0.04020666,1,-0.058866918,1,-0.455114603,1,0.116378076,1
1.983981609,-3.926884651,1,1.016250968,1,-9.622783661,1,-0.01154076,1,-0.79252547,1,0.030303096,1,-0.059071995,1,-0.458101511,1,0.116659589,1
1.987979293,-3.995300055,1,1.025206089,1,-9.569747925,1,-0.012804197,1,-0.839711845,1,0.012408407,1,-0.059262436,1,-0.461358041,1,0.116977841,1
1.99197948,-4.039618015,1,0.924448729,1,-9.604323387,1,1.01E-05,1,-0.885043025,1,0.001120852,1,-0.059407502,1,-0.464802176,1,0.117239185,1
1.995981574,-3.933395147,1,0.944860339,1,-9.671364784,1,0.002692092,1,-0.945474803,1,-0.008451914,1,-0.059493884,1,-0.46845749,1,0.117467649,1
1.999979496,-4.025309086,1,0.985298932,1,-9.633991241,1,-0.00216557,1,-1.002536535,1,-0.020021608,1,-0.059585553,1,-0.472350299,1,0.117659628,1
2.003978968,-4.084807396,1,0.779819965,1,-9.692284584,1,-0.004535721,1,-1.055624127,1,-0.025343938,1,-0.059665546,1,-0.476467878,1,0.117825992,1
2.007980585,-4.041443825,1,0.643728435,1,-9.547912598,1,-0.012044185,1,-1.111428738,1,-0.033166878,1,-0.059760712,1,-0.480809599,1,0.117988795,1
2.011978149,-4.271372795,1,0.570204496,1,-9.433369637,1,-0.021804497,1,-1.155457735,1,-0.03172965,1,-0.059900489,1,-0.485355347,1,0.11815583,1
2.015977621,-4.286291122,1,0.665686131,1,-9.494638443,1,-0.030049577,1,-1.204507589,1,-0.033294182,1,-0.060087513,1,-0.490068257,1,0.118321389,1
2.019979477,-4.248079777,1,0.746849418,1,-9.433285713,1,-0.043401834,1,-1.254554152,1,-0.042493384,1,-0.060319219,1,-0.494978935,1,0.118487321,1
2.02397728,-4.203810215,1,0.683241606,1,-9.466629982,1,-0.054456905,1,-1.303930044,1,-0.043917105,1,-0.060584851,1,-0.500099838,1,0.118643351,1
2.027976751,-4.273003101,1,0.708847761,1,-9.460410118,1,-0.068981223,1,-1.342696548,1,-0.053945519,1,-0.060911361,1,-0.505393028,1,0.118790574,1
2.03197813,-4.251398563,1,0.713482678,1,-9.404326439,1,-0.086358666,1,-1.389353395,1,-0.0598526,1,-0.061284609,1,-0.510861456,1,0.118926071,1
2.035975695,-4.254525661,1,0.67655164,1,-9.269316673,1,-0.098886855,1,-1.424744248,1,-0.065724373,1,-0.061709419,1,-0.516501248,1,0.119032927,1
2.039975166,-4.348687649,1,0.671842158,1,-9.256762505,1,-0.110813253,1,-1.465410471,1,-0.068683855,1,-0.062176131,1,-0.522286236,1,0.119138695,1
2.043976784,-4.398046017,1,0.585516632,1,-9.148431778,1,-0.11637114,1,-1.494721889,1,-0.073886611,1,-0.062686451,1,-0.528211832,1,0.119241305,1
2.04797411,-4.42154932,1,0.585930467,1,-9.177739143,1,-0.131533176,1,-1.535591483,1,-0.076438718,1,-0.063216485,1,-0.534279346,1,0.119328715,1
2.051973581,-4.434510708,1,0.414247304,1,-9.102967262,1,-0.15511997,1,-1.57646656,1,-0.073764145,1,-0.063840486,1,-0.540511131,1,0.119444273,1
2.055975199,-4.486870289,1,0.361201614,1,-8.99973011,1,-0.174698621,1,-1.618338466,1,-0.072722457,1,-0.064569078,1,-0.546904325,1,0.119568691,1
2.059972763,-4.532753468,1,0.252945483,1,-8.941976547,1,-0.195525125,1,-1.647232413,1,-0.070438102,1,-0.06539119,1,-0.553432405,1,0.119728148,1
2.063972235,-4.532039165,1,0.331342965,1,-8.91618824,1,-0.211737245,1,-1.673615575,1,-0.066498674,1,-0.066308275,1,-0.560076714,1,0.119928449,1
2.067973852,-4.565390587,1,0.481441677,1,-8.958904266,1,-0.232508093,1,-1.713257194,1,-0.063072339,1,-0.067315318,1,-0.566851437,1,0.120152056,1
2.071977377,-4.550579071,1,0.470193475,1,-8.934804916,1,-0.250607938,1,-1.760531306,1,-0.0611558,1,-0.068437546,1,-0.573798776,1,0.120417871,1
2.075976849,-4.521922112,1,0.356567681,1,-8.924755096,1,-0.261958957,1,-1.805645347,1,-0.058424395,1,-0.069615565,1,-0.58091855,1,0.120711878,1
2.07997942,-4.586485386,1,0.468969584,1,-8.973152161,1,-0.28163293,1,-1.869163275,1,-0.05321851,1,-0.070888847,1,-0.588268042,1,0.121055089,1
2.083978176,-4.522399902,1,0.41392082,1,-9.054472923,1,-0.308829308,1,-1.918149114,1,-0.053276312,1,-0.072301708,1,-0.595831811,1,0.121456519,1
2.087977648,-4.505281925,1,0.551944375,1,-9.164995193,1,-0.321612895,1,-1.989467263,1,-0.055222008,1,-0.073803976,1,-0.60363692,1,0.121883914,1
2.091979504,-4.481032848,1,0.694267094,1,-9.138724327,1,-0.325451851,1,-2.058916807,1,-0.055879284,1,-0.075362317,1,-0.611729085,1,0.122345559,1
2.095977306,-4.623033524,1,0.658066988,1,-9.140094757,1,-0.340648472,1,-2.132150888,1,-0.05811438,1,-0.076984085,1,-0.620106459,1,0.122846015,1
2.099976778,-4.61870718,1,0.677972734,1,-9.191649437,1,-0.350509703,1,-2.210547686,1,-0.060166385,1,-0.078691781,1,-0.62876302,1,0.12339177,1
2.103978157,-4.576674461,1,0.806258321,1,-9.159975052,1,-0.360916972,1,-2.290792227,1,-0.063787349,1,-0.080474846,1,-0.637760162,1,0.123978108,1
2.10797596,-4.688114166,1,0.874076664,1,-9.161567688,1,-0.350018233,1,-2.380660534,1,-0.068931423,1,-0.082271032,1,-0.647100091,1,0.124583371,1
2.111975431,-4.690081596,1,0.868546486,1,-9.161611557,1,-0.3466295,1,-2.466431379,1,-0.078998961,1,-0.084052503,1,-0.656780005,1,0.125226572,1
2.115977049,-4.813454628,1,0.884745002,1,-9.107102394,1,-0.332188755,1,-2.566090822,1,-0.082338959,1,-0.085826434,1,-0.666849673,1,0.125905991,1
2.119974375,-5.016381741,1,0.732451618,1,-9.202136993,1,-0.30216524,1,-2.651614904,1,-0.085475445,1,-0.087551884,1,-0.677285314,1,0.126627654,1
2.123973846,-4.972327232,1,0.730676174,1,-9.059626579,1,-0.292426616,1,-2.750972509,1,-0.0924692,1,-0.089234054,1,-0.688069165,1,0.127401635,1
2.127975464,-5.062963963,1,0.730488718,1,-9.075991631,1,-0.286723793,1,-2.853708506,1,-0.083845749,1,-0.090939768,1,-0.69926852,1,0.128260449,1
2.131973028,-5.096222878,1,0.627239764,1,-9.076603889,1,-0.269889414,1,-2.96901083,1,-0.077422298,1,-0.09268757,1,-0.710887492,1,0.129233733,1
2.135972977,-5.200400352,1,0.531554461,1,-9.211632729,1,-0.271196187,1,-3.081406355,1,-0.062130235,1,-0.094519787,1,-0.722975373,1,0.13037613,1
2.139974833,-5.280448437,1,0.404920697,1,-9.363166809,1,-0.299335986,1,-3.181558132,1,-0.037398245,1,-0.096538439,1,-0.735457659,1,0.131703913,1
2.143972874,-5.404996872,1,0.080980763,1,-9.740247726,1,-0.287708282,1,-3.306905746,1,-0.009108514,1,-0.098794833,1,-0.748373032,1,0.133295506,1
2.147972584,-5.478887558,1,-0.226711556,1,-10.18876171,1,-0.338683248,1,-3.458571434,1,0.029640736,1,-0.101339072,1,-0.761829913,1,0.135207787,1
2.151974201,-4.608632565,1,-0.264129907,1,-10.5710392,1,-0.322851568,1,-3.606354713,1,0.067812316,1,-0.104297251,1,-0.775852799,1,0.137512177,1
2.155971766,-4.437654018,1,-0.341068894,1,-11.34475517,1,-0.355638474,1,-3.847781897,1,0.112860404,1,-0.107526034,1,-0.790624321,1,0.140219808,1
2.159971237,-5.203907967,1,-0.786415458,1,-12.62564182,1,-0.424073875,1,-4.084788322,1,0.172998056,1,-0.111484893,1,-0.80632782,1,0.143538833,1
2.163972855,-5.658103943,1,-0.729757547,1,-12.8476038,1,-0.480578959,1,-4.408364296,1,0.222552896,1,-0.116125524,1,-0.823058009,1,0.1474915,1
2.167970896,-4.286920547,1,-1.012812018,1,-12.4171772,1,-0.504646719,1,-4.677950382,1,0.302349359,1,-0.121602282,1,-0.841033459,1,0.152237281,1
2.171976566,-4.692132473,1,-1.233386278,1,-12.47796059,1,-0.571536183,1,-4.997899532,1,0.413909376,1,-0.128092617,1,-0.860032201,1,0.158010796,1
2.175978184,-5.554683208,1,-1.439580321,1,-12.74109077,1,-0.70161289,1,-5.287717342,1,0.564332068,1,-0.13613601,1,-0.880177081,1,0.165223911,1
2.179976225,-5.314231873,1,-1.47098732,1,-12.85568237,1,-0.839268386,1,-5.543624401,1,0.662709296,1,-0.1459883,1,-0.901260436,1,0.173944026,1
2.183975697,-5.972061634,1,-0.801478624,1,-13.21716499,1,-0.986914933,1,-5.874156952,1,0.768155694,1,-0.157754406,1,-0.923422277,1,0.184195608,1
2.187977314,-6.615794182,1,-1.256771803,1,-13.57491493,1,-1.083098173,1,-6.207576752,1,0.831234634,1,-0.171528369,1,-0.946707428,1,0.196172073,1
2.191974878,-8.623475075,1,-1.85659802,1,-14.32234001,1,-1.130358338,1,-6.499827385,1,0.969687343,1,-0.187455833,1,-0.971092105,1,0.210224852,1
2.19597435,-10.38866329,1,-2.961067677,1,-15.63605404,1,-1.249850392,1,-6.706394196,1,1.131058693,1,-0.206244141,1,-0.996155441,1,0.227041394,1
2.199975967,-14.93413353,1,-4.09700489,1,-17.3943882,1,-1.33720541,1,-6.847933292,1,1.183983922,1,-0.227875486,1,-1.021674037,1,0.246516421,1
2.203973293,-16.04466057,1,-4.284155846,1,-17.65582466,1,-1.464000463,1,-6.938135147,1,1.351588726,1,-0.252716571,1,-1.04720962,1,0.268939048,1
2.207972527,-13.98266125,1,-3.962346077,1,-17.23602486,1,-1.621661067,1,-7.128753185,1,1.476782799,1,-0.281956077,1,-1.072856665,1,0.295331299,1
2.211974144,-11.527771,1,-3.390428782,1,-17.54448509,1,-1.60641396,1,-7.317064285,1,1.597254992,1,-0.315713942,1,-1.098644972,1,0.326171666,1
2.21597147,-10.06714439,1,-3.595425367,1,-17.19701195,1,-1.564712048,1,-7.527915955,1,1.752460957,1,-0.354600519,1,-1.124504328,1,0.362472832,1
2.219971418,-9.264559746,1,-3.939743996,1,-17.4800396,1,-1.568049073,1,-7.77042675,1,1.892870307,1,-0.399845481,1,-1.150271535,1,0.405436456,1
2.223972797,-10.30960655,1,-3.545324802,1,-17.13740158,1,-1.601683378,1,-8.019782066,1,2.069206476,1,-0.453133613,1,-1.175744653,1,0.456577033,1
2.227970362,-12.36789322,1,-3.666641712,1,-17.11439514,1,-1.588145018,1,-8.187401772,1,2.251197577,1,-0.516072571,1,-1.200447559,1,0.517531931,1
2.231970072,-14.40819454,1,-3.898343801,1,-16.59677505,1,-1.657859325,1,-8.2867136,1,2.44019866,1,-0.589854717,1,-1.223521948,1,0.589149892,1
2.235971928,-16.35115623,1,-3.958227873,1,-15.9031496,1,-1.770824313,1,-8.320857048,1,2.586134672,1,-0.676071763,1,-1.244370222,1,0.673225284,1
2.239969969,-17.8146286,1,-3.946763277,1,-16.16752434,1,-1.883133292,1,-8.314803123,1,2.692583084,1,-0.774672747,1,-1.262290239,1,0.769299209,1
2.24396944,-17.58701515,1,-4.473079205,1,-17.10795975,1,-2.018923998,1,-8.264528275,1,2.844023943,1,-0.88520962,1,-1.276541591,1,0.876870394,1
2.247971058,-15.65255356,1,-4.981708527,1,-17.97115135,1,-2.264502764,1,-8.3455019,1,2.975820065,1,-1.007198334,1,-1.286488771,1,0.995216906,1
2.251968861,-16.76614761,1,-3.49101615,1,-18.46748161,1,-2.477151155,1,-8.441332817,1,2.961502314,1,-1.1386199,1,-1.292109728,1,1.122074842,1
2.255968571,-18.20933723,1,-0.984705448,1,-19.16600037,1,-2.453796387,1,-8.302156448,1,2.941200972,1,-1.272992253,1,-1.293058753,1,1.251582623,1
2.259970188,-17.78754044,1,-1.575265884,1,-16.90847969,1,-2.554982662,1,-7.953743458,1,2.877375603,1,-1.40269804,1,-1.289243221,1,1.376014829,1
2.263968229,-16.61530113,1,-1.790571332,1,-14.50031948,1,-2.488527298,1,-7.354418755,1,2.800057411,1,-1.520966172,1,-1.281276464,1,1.48876524,1
2.267974138,-15.91165829,1,-2.801603794,1,-11.78002453,1,-2.404329062,1,-6.447230339,1,2.666159153,1,-1.621923447,1,-1.27030611,1,1.584054589,1
2.271975994,-12.2914753,1,-1.138383389,1,-10.25664711,1,-2.225194216,1,-5.391232491,1,2.454712391,1,-1.70273447,1,-1.257921219,1,1.659050941,1
2.275974035,-3.872159719,1,-1.041768312,1,-9.338459969,1,-1.670833707,1,-4.474782944,1,2.158924103,1,-1.764915586,1,-1.245610476,1,1.716233611,1
2.279973745,8.642487526,1,4.027767658,1,-8.767332077,1,-0.707584023,1,-4.029736519,1,2.261108398,1,-1.812155485,1,-1.23356092,1,1.76102519,1
2.283975363,-13.77532387,1,3.933506012,1,-8.104657173,1,-0.205748633,1,-3.944297791,1,2.713582039,1,-1.849969149,1,-1.219709992,1,1.799297214,1
2.287973166,-33.19755936,1,1.35944283,1,-13.87000084,1,0.936799526,1,-2.844725132,1,2.220610857,1,-1.876524448,1,-1.206098557,1,1.829032779,1
2.291972637,-22.70029068,1,3.169220209,1,-18.819561,1,1.503848314,1,-1.538711429,1,1.938904285,1,-1.886028886,1,-1.195624828,1,1.844805479,1
2.295974255,-17.70209885,1,-2.196793318,1,-17.75105667,1,1.597083092,1,-0.539307833,1,1.584581852,1,-1.88427496,1,-1.18758142,1,1.849531651,1
2.299971819,-11.44578362,1,-4.966657639,1,-15.63091087,1,1.689668298,1,0.324378312,1,1.216457009,1,-1.874294639,1,-1.182188272,1,1.845909357,1
2.303971529,-6.282075882,1,-6.180189133,1,-12.12351704,1,1.711584926,1,0.842230499,1,1.059780478,1,-1.858737707,1,-1.178564906,1,1.836427689,1
2.307973146,-3.056993961,1,-8.08339119,1,-10.59284496,1,1.695232391,1,1.210331678,1,0.987261891,1,-1.839614391,1,-1.175766945,1,1.823144078,1
2.311970472,-0.473032624,1,-9.288064957,1,-9.797945976,1,1.420114636,1,1.498965144,1,0.949445248,1,-1.818424344,1,-1.173401952,1,1.806990623,1
2.315970421,1.016202092,1,-9.099237442,1,-9.201072693,1,1.004737377,1,1.672231436,1,0.885714948,1,-1.796764016,1,-1.171319246,1,1.788777709,1
2.3199718,1.175720811,1,-8.104158401,1,-8.570022583,1,0.601240337,1,1.728813887,1,0.777363718,1,-1.776132226,1,-1.169511557,1,1.769824028,1
2.323969364,0.853814423,1,-7.097201347,1,-8.087357521,1,0.282779515,1,1.701995134,1,0.653961301,1,-1.75720942,1,-1.168031693,1,1.751155734,1
2.327969074,0.763243794,1,-6.381579876,1,-6.884111881,1,0.090069592,1,1.708765745,1,0.527820349,1,-1.739863515,1,-1.166896701,1,1.733042836,1
2.331970453,1.489668012,1,-4.877532959,1,-6.845492363,1,-0.002578512,1,1.648648739,1,0.354426146,1,-1.723540783,1,-1.166216135,1,1.715470314,1
2.335968494,1.808833599,1,-3.287026167,1,-6.143808365,1,0.021554122,1,1.628686428,1,0.119179159,1,-1.708107233,1,-1.166201472,1,1.698662639,1
2.339967966,1.747841477,1,-2.146614075,1,-5.945409775,1,0.165944725,1,1.614185095,1,-0.174052581,1,-1.692795038,1,-1.167132616,1,1.682387829,1
2.343969584,1.238403201,1,-1.604970455,1,-5.993028164,1,0.389017493,1,1.607660055,1,-0.513380826,1,-1.677033901,1,-1.169216394,1,1.666448116,1
2.347967148,0.713934958,1,-1.462179899,1,-6.285978794,1,0.638159335,1,1.619997263,1,-0.86316365,1,-1.660433292,1,-1.172589064,1,1.650661349,1
2.351966619,0.202488229,1,-1.669509649,1,-6.402924061,1,0.861475706,1,1.675631523,1,-1.204249144,1,-1.642536879,1,-1.177240491,1,1.634524822,1
2.355968237,-0.146120802,1,-2.106218338,1,-6.488461971,1,1.039974928,1,1.758573294,1,-1.509365916,1,-1.622896194,1,-1.183096886,1,1.617409706,1
2.35996604,-0.400444299,1,-2.807624817,1,-6.620415688,1,1.157049417,1,1.881425023,1,-1.771429062,1,-1.601195097,1,-1.189968944,1,1.598749161,1
2.363965511,-0.64212662,1,-3.269701958,1,-6.827567101,1,1.202398777,1,2.023895025,1,-1.991467714,1,-1.577087045,1,-1.197651863,1,1.577922225,1
2.367967129,-0.848054945,1,-3.430255413,1,-7.149731159,1,1.185169339,1,2.194727421,1,-2.179565907,1,-1.550317287,1,-1.205937982,1,1.554356098,1
2.371964931,-1.344002247,1,-3.295846939,1,-7.184872627,1,1.143979192,1,2.388761997,1,-2.336133718,1,-1.52052772,1,-1.214641929,1,1.527495027,1
2.375964403,-1.60183084,1,-2.795329571,1,-7.400308132,1,1.102488041,1,2.604634285,1,-2.481364489,1,-1.48712647,1,-1.223597169,1,1.496709824,1
2.379966736,-1.807921052,1,-2.315740108,1,-7.547904968,1,1.059911609,1,2.823265076,1,-2.596638203,1,-1.449626923,1,-1.232595444,1,1.461487293,1
2.383965015,-1.967293143,1,-1.63283217,1,-7.659528732,1,1.045334816,1,3.047219038,1,-2.693964958,1,-1.407598495,1,-1.24141407,1,1.421443939,1
2.387964964,-2.022541523,1,-0.824881554,1,-7.780692577,1,1.050680995,1,3.264885902,1,-2.770770788,1,-1.360589385,1,-1.249807596,1,1.376252651,1
2.391967058,-2.009404421,1,0.069811791,1,-7.829988003,1,1.098515391,1,3.493620396,1,-2.825142384,1,-1.308263063,1,-1.257526278,1,1.325700998,1
2.395964861,-2.168247938,1,0.835157335,1,-7.795215607,1,1.184911489,1,3.694378138,1,-2.864676237,1,-1.250500321,1,-1.264298439,1,1.269835114,1
2.399964571,-2.244184256,1,1.479190588,1,-7.784943581,1,1.298828244,1,3.900140762,1,-2.882960081,1,-1.187391996,1,-1.269861937,1,1.208893776,1
2.403966188,-2.344313145,1,1.909458756,1,-7.71637249,1,1.420990944,1,4.086222649,1,-2.883255959,1,-1.119395256,1,-1.27393496,1,1.143434048,1
2.407963991,-2.39153862,1,2.145416737,1,-7.722985268,1,1.534614444,1,4.26157093,1,-2.858711958,1,-1.047384262,1,-1.276269674,1,1.074341059,1
2.411963463,-2.539726019,1,2.250646353,1,-7.688647747,1,1.625320077,1,4.421095848,1,-2.818395615,1,-0.972601354,1,-1.276648998,1,1.002815247,1
2.415964842,-2.711401224,1,2.280331373,1,-7.704367161,1,1.695602894,1,4.569830894,1,-2.751932144,1,-0.896528244,1,-1.274918437,1,0.930255175,1
2.419962406,-2.926484108,1,2.255837202,1,-7.743921757,1,1.739706278,1,4.714169025,1,-2.665076494,1,-0.82074213,1,-1.270992756,1,0.858178437,1
2.423961878,-3.107285261,1,2.33717823,1,-7.770756245,1,1.766864777,1,4.842506886,1,-2.569089174,1,-0.746791124,1,-1.264843464,1,0.788047433,1
2.427963495,-3.299695253,1,2.560371399,1,-7.883512974,1,1.777216911,1,4.966334343,1,-2.453255653,1,-0.675951004,1,-1.256532311,1,0.721102238,1
2.43196106,-3.569958687,1,2.844759226,1,-7.918741226,1,1.794089675,1,5.080421925,1,-2.341575861,1,-0.609174967,1,-1.246187091,1,0.658286631,1
2.435960531,-3.925520658,1,3.158123016,1,-8.117002487,1,1.824579358,1,5.183439255,1,-2.228108406,1,-0.5469594,1,-1.233989,1,0.600159287,1
2.439962149,-4.290522575,1,3.541950226,1,-8.187644958,1,1.875139952,1,5.287189484,1,-2.119555473,1,-0.489469141,1,-1.220098853,1,0.54695797,1
2.443959713,-4.67848444,1,3.905304193,1,-8.229084969,1,1.928909898,1,5.390898228,1,-2.022742987,1,-0.436609924,1,-1.204682827,1,0.498634189,1
2.447959185,-5.027739525,1,4.146828651,1,-8.31842041,1,2.009688139,1,5.490403175,1,-1.932763696,1,-0.388116181,1,-1.187906742,1,0.454990119,1
2.451960802,-5.306037903,1,4.408664227,1,-8.424535751,1,2.090267181,1,5.59170723,1,-1.850442886,1,-0.343647331,1,-1.169909596,1,0.415742457,1
2.455958843,-5.566195965,1,4.706203461,1,-8.540661812,1,2.189736128,1,5.680411339,1,-1.779326558,1,-0.302830935,1,-1.150833249,1,0.380568683,1
2.459958792,-5.718370914,1,4.79353857,1,-8.640953064,1,2.294533014,1,5.761248589,1,-1.71691978,1,-0.265250981,1,-1.130817056,1,0.349092662,1
2.463966608,-5.922260761,1,4.868842602,1,-8.743989944,1,2.392657518,1,5.840551853,1,-1.666699767,1,-0.230542868,1,-1.109982133,1,0.320957184,1
2.46797061,-6.160443306,1,4.706074238,1,-8.821284294,1,2.479815245,1,5.915439129,1,-1.622893214,1,-0.198379666,1,-1.088413,1,0.295808077,1
2.47197032,-6.367251396,1,4.52533865,1,-9.037286758,1,2.534001827,1,5.978736401,1,-1.581929445,1,-0.168552861,1,-1.066192985,1,0.273335934,1
2.475971937,-6.572638035,1,4.349821091,1,-9.146775246,1,2.558698654,1,6.042115211,1,-1.545239806,1,-0.140919015,1,-1.043406487,1,0.253293544,1
2.479969501,-6.782180309,1,4.207651138,1,-9.355952263,1,2.557059765,1,6.102021217,1,-1.510784268,1,-0.115351245,1,-1.020102262,1,0.235426202,1
2.483968973,-6.934588909,1,4.053281307,1,-9.451508522,1,2.535298824,1,6.14793539,1,-1.477854848,1,-0.091679998,1,-0.996266961,1,0.219550565,1
2.487971067,-7.170105457,1,3.928244829,1,-9.589507103,1,2.505884886,1,6.188425064,1,-1.443107009,1,-0.069827609,1,-0.972146988,1,0.205431938,1
2.491969347,-7.39153862,1,3.812952757,1,-9.818419456,1,2.459060669,1,6.217349529,1,-1.420774221,1,-0.049615871,1,-0.947722197,1,0.192881644,1
2.495969296,-7.693926811,1,3.771046877,1,-10.07548237,1,2.408942461,1,6.240106106,1,-1.393996835,1,-0.030891288,1,-0.923048139,1,0.181714907,1
2.499970913,-8.063243866,1,3.669352055,1,-10.20856762,1,2.355490685,1,6.25650835,1,-1.380007982,1,-0.013491303,1,-0.898186147,1,0.171760365,1
2.503968477,-8.45783329,1,3.600039244,1,-10.42396259,1,2.300708771,1,6.262778282,1,-1.368473053,1,0.002719789,1,-0.873181105,1,0.162862495,1
2.507967949,-8.925488472,1,3.566523552,1,-10.68103027,1,2.246312141,1,6.265005589,1,-1.360757709,1,0.017878529,1,-0.848070145,1,0.154876515,1
2.511969566,-9.50579834,1,3.436313629,1,-10.85787964,1,2.179555416,1,6.268092632,1,-1.368560553,1,0.032069191,1,-0.822880507,1,0.147678763,1
2.515966892,-10.13516235,1,3.263485193,1,-11.07770348,1,2.110028267,1,6.27436161,1,-1.382762313,1,0.045411799,1,-0.797608733,1,0.141101211,1
2.519966602,-10.91166306,1,3.118175983,1,-11.15370655,1,2.019845486,1,6.28827858,1,-1.412547112,1,0.057960998,1,-0.772233248,1,0.135034397,1
2.52396822,-11.64480686,1,2.937556267,1,-11.18867207,1,1.924847126,1,6.314990997,1,-1.449043512,1,0.069745488,1,-0.746710837,1,0.129385158,1
2.527966261,-12.27538109,1,2.824263334,1,-11.19002819,1,1.809473872,1,6.341197014,1,-1.498082876,1,0.080799907,1,-0.721029878,1,0.124023736,1
2.531965971,-12.75181389,1,2.831391096,1,-11.2324934,1,1.678762317,1,6.363385677,1,-1.54955709,1,0.091105074,1,-0.695183635,1,0.118905708,1
2.535967588,-13.25771713,1,2.989001751,1,-11.2768631,1,1.546828508,1,6.378334522,1,-1.596457481,1,0.100653052,1,-0.669204593,1,0.113992423,1
2.539965153,-13.94923496,1,3.044330359,1,-11.21814156,1,1.449298382,1,6.373058796,1,-1.633959889,1,0.109534442,1,-0.643146992,1,0.109259687,1
2.543964863,-14.59822655,1,3.374597788,1,-11.35441685,1,1.379141569,1,6.361678123,1,-1.663953424,1,0.117864907,1,-0.617094576,1,0.104720898,1
2.54796648,-15.4022646,1,3.449101925,1,-11.43182087,1,1.315075994,1,6.34312439,1,-1.681755781,1,0.125695735,1,-0.591053724,1,0.100398153,1
2.551964045,-16.28233337,1,3.508148432,1,-11.45962715,1,1.255800366,1,6.334287167,1,-1.685651183,1,0.133053228,1,-0.565029979,1,0.096333921,1
2.555963993,-17.21214867,1,3.57447958,1,-11.37782478,1,1.201574206,1,6.332127094,1,-1.687523603,1,0.139970884,1,-0.539017677,1,0.092529826,1
2.559971809,-18.07949448,1,3.633211136,1,-11.27106762,1,1.135895252,1,6.334907055,1,-1.688695788,1,0.146421924,1,-0.512981772,1,0.088983648,1
2.563975573,-18.80127144,1,3.775331259,1,-11.16201019,1,1.072392583,1,6.342483997,1,-1.680796385,1,0.152422249,1,-0.486910284,1,0.0856952,1
2.567975521,-19.45257187,1,4.035943508,1,-10.99032307,1,1.015539765,1,6.335844517,1,-1.682980776,1,0.15800254,1,-0.460813791,1,0.082631074,1
2.571977139,-20.03723717,1,4.096625805,1,-10.84718704,1,0.962073088,1,6.310966969,1,-1.677060008,1,0.163200811,1,-0.434767008,1,0.079758227,1
2.575974941,-20.4608326,1,4.028332233,1,-10.69285393,1,0.903055966,1,6.267206192,1,-1.668125629,1,0.168030083,1,-0.408839792,1,0.077075206,1
2.579974413,-20.73088646,1,3.961237431,1,-10.49450684,1,0.827453792,1,6.191203117,1,-1.647174239,1,0.172466144,1,-0.383152902,1,0.074571073,1
2.583976507,-20.75901031,1,3.806787968,1,-10.21538639,1,0.732808411,1,6.093033791,1,-1.611844063,1,0.176429182,1,-0.357822359,1,0.072258115,1
2.58797431,-20.75426483,1,3.71129775,1,-9.901433945,1,0.63554281,1,5.956348419,1,-1.560502887,1,0.179879472,1,-0.332969785,1,0.0701636,1
2.591973782,-20.73498344,1,3.6047194,1,-9.516078949,1,0.514857411,1,5.804693222,1,-1.504878044,1,0.18276827,1,-0.308718204,1,0.06827759,1
2.595975637,-20.62290382,1,3.51371789,1,-9.096974373,1,0.392136663,1,5.621050835,1,-1.440421462,1,0.185089782,1,-0.285169303,1,0.06658826,1
2.59997344,-20.43050003,1,3.346027851,1,-8.596441269,1,0.274422497,1,5.417991161,1,-1.373765111,1,0.186838716,1,-0.262430102,1,0.065073088,1
2.60397315,-20.03508377,1,3.238214254,1,-7.977860451,1,0.138266355,1,5.202211857,1,-1.327181816,1,0.188023135,1,-0.240553617,1,0.063686781,1
2.607975006,-19.51424599,1,2.915151596,1,-7.376387596,1,-0.009106331,1,4.975334167,1,-1.278992891,1,0.18858695,1,-0.219579235,1,0.0623473,1
2.61197257,-19.01943016,1,2.691834927,1,-6.557735443,1,-0.146489099,1,4.724892139,1,-1.231563807,1,0.188541487,1,-0.19958432,1,0.061023004,1
2.615972281,-18.54698753,1,2.221366405,1,-5.697687626,1,-0.281765133,1,4.459588528,1,-1.175873637,1,0.187922701,1,-0.180645004,1,0.059706066,1
2.619974136,-18.0243969,1,1.538113594,1,-4.597365856,1,-0.424046397,1,4.181655884,1,-1.10779047,1,0.186732575,1,-0.16281426,1,0.058406301,1
2.623971939,-17.62196732,1,0.711458981,1,-3.671156883,1,-0.565387547,1,3.892014742,1,-1.015927434,1,0.184937716,1,-0.146153539,1,0.057192869,1
2.627971411,-17.61877441,1,0.500163615,1,-2.786035538,1,-0.694120705,1,3.591448545,1,-0.91296804,1,0.182558134,1,-0.130739197,1,0.056122713,1
2.631973028,-17.66127014,1,0.738781273,1,-1.785589218,1,-0.763180375,1,3.289144993,1,-0.807079792,1,0.179728821,1,-0.116579637,1,0.055216514,1
2.635971069,-17.53688431,1,1.064300537,1,-0.976212204,1,-0.741534889,1,2.973880053,1,-0.699450493,1,0.176788509,1,-0.10372097,1,0.054467548,1
2.639970541,-17.43404579,1,1.456313729,1,-0.319505543,1,-0.624166369,1,2.653296947,1,-0.597857237,1,0.174085006,1,-0.092189997,1,0.053883068,1
2.643972158,-17.17920113,1,2.444624901,1,0.349397719,1,-0.449688792,1,2.322044134,1,-0.514828026,1,0.171959609,1,-0.082000293,1,0.053414289,1
2.647969961,-16.89649391,1,3.48072648,1,0.829751909,1,-0.195077151,1,1.989709496,1,-0.468290508,1,0.170683458,1,-0.073166676,1,0.052959412,1
2.651969433,-16.64356995,1,4.247703552,1,1.236579895,1,0.102830298,1,1.647694349,1,-0.457038969,1,0.170530125,1,-0.065684617,1,0.052376688,1
2.65597105,-16.37142181,1,4.506702423,1,1.584151626,1,0.409407467,1,1.294727802,1,-0.459164828,1,0.171611756,1,-0.059567597,1,0.051577434,1
2.659974813,-15.99494648,1,4.12626791,1,1.853205323,1,0.642315388,1,0.962104917,1,-0.477949888,1,0.173806101,1,-0.054796696,1,0.050497986,1
2.663974762,-15.61054611,1,3.293790579,1,2.042022705,1,0.7607705,1,0.626292646,1,-0.479565203,1,0.176707014,1,-0.051340707,1,0.049150698,1
2.667976856,-15.22657681,1,2.312386751,1,2.04666853,1,0.752125442,1,0.304478258,1,-0.454369426,1,0.179832295,1,-0.049185976,1,0.047632627,1
2.671975136,-14.8130579,1,1.528036833,1,2.015365601,1,0.628043234,1,-0.013351733,1,-0.413861006,1,0.182697177,1,-0.048293822,1,0.046015631,1
2.675974607,-14.63717842,1,1.06967628,1,1.937422752,1,0.420177728,1,-0.300400019,1,-0.358703792,1,0.184891045,1,-0.048626814,1,0.044384446,1
2.679976702,-14.45337868,1,0.688952506,1,1.879740834,1,0.165997759,1,-0.571887136,1,-0.284083039,1,0.1861469,1,-0.05010765,1,0.042792391,1
2.683974743,-14.19362831,1,0.484317452,1,1.701897502,1,-0.098329417,1,-0.82913667,1,-0.200389296,1,0.186360538,1,-0.052683774,1,0.041309934,1
2.687973976,-13.78715134,1,0.426154673,1,1.554677844,1,-0.341160119,1,-1.084670067,1,-0.113167658,1,0.185534596,1,-0.056328725,1,0.039980825,1
2.691975594,-13.37058544,1,0.674103558,1,1.309833169,1,-0.535728633,1,-1.346686006,1,-0.016435515,1,0.183830798,1,-0.061053813,1,0.03883671,1
2.695973396,-13.04564667,1,0.920134723,1,1.009550333,1,-0.655892372,1,-1.603644133,1,0.069203936,1,0.181494772,1,-0.066878036,1,0.037872352,1
2.699972868,-12.8031435,1,1.104706287,1,0.632714391,1,-0.699967384,1,-1.867986321,1,0.158635825,1,0.178821906,1,-0.073802941,1,0.037082907,1
2.703974724,-12.56776333,1,1.149691701,1,0.206109598,1,-0.678588808,1,-2.126894236,1,0.235902235,1,0.176099017,1,-0.081817098,1,0.036450349,1
2.707972527,-12.38286591,1,0.935386479,1,-0.218585938,1,-0.609748244,1,-2.37210393,1,0.311222255,1,0.173553407,1,-0.09087541,1,0.035954125,1
2.711972237,-12.15056324,1,0.525801241,1,-0.75317049,1,-0.522955239,1,-2.607838154,1,0.385345817,1,0.17131649,1,-0.100927472,1,0.035616655,1
2.715974092,-11.95678997,1,-0.036480565,1,-1.372858405,1,-0.437627316,1,-2.820503712,1,0.449916691,1,0.169423983,1,-0.111902364,1,0.035433661,1
2.719971895,-11.75099945,1,-0.522959709,1,-1.869395256,1,-0.37177217,1,-3.012814522,1,0.501769781,1,0.167822763,1,-0.123727411,1,0.035360437,1
2.723971367,-11.57823563,1,-1.064253092,1,-2.265850544,1,-0.327149332,1,-3.185085058,1,0.539210856,1,0.166436702,1,-0.13630639,1,0.035355821,1
2.727972746,-11.31540871,1,-1.551265955,1,-2.56855917,1,-0.300474226,1,-3.333211899,1,0.560485423,1,0.165186748,1,-0.149532184,1,0.035379786,1
2.731970787,-10.91421604,1,-2.001484394,1,-2.871147633,1,-0.297216266,1,-3.465475082,1,0.559104741,1,0.16403915,1,-0.163208619,1,0.036089677,1
2.735970259,-10.53332043,1,-2.265655279,1,-3.598741293,1,-0.291667223,1,-3.586732864,1,0.528114974,1,0.162892923,1,-0.177482441,1,0.035951022,1
2.739971876,-10.65986919,1,-2.581326962,1,-3.984072924,1,-0.310301572,1,-3.654688597,1,0.466865391,1,0.16176708,1,-0.192116737,1,0.035571966,1
2.743969679,-10.01466179,1,-2.856450796,1,-4.153834343,1,-0.335927427,1,-3.687702179,1,0.380698562,1,0.160609692,1,-0.206895366,1,0.034898441,1
2.747969389,-2.177868605,1,-6.664345741,1,-12.73277855,1,-0.796208322,1,-3.879728794,1,0.207205296,1,0.158934176,1,-0.221881926,1,0.03369391,1
2.751971006,34.20524979,1,-9.735700607,1,-39.88714981,1,-2.734476089,1,-5.426999092,1,-0.02882115,1,0.151955277,1,-0.240231022,1,0.031079894,1
2.755975246,-14.75504303,1,-22.06587029,1,-24.98768044,1,-4.46901226,1,-5.666130066,1,-0.953961968,1,0.13912645,1,-0.262487292,1,0.025679233,1
2.759975195,27.49694824,1,-13.18379498,1,-13.96258068,1,-1.656252503,1,-3.766848564,1,-0.416719317,1,0.128373101,1,-0.280643314,1,0.019827072,1
2.763977051,1.923726439,1,-17.68356895,1,-26.43144226,1,-4.514811039,1,-4.426207066,1,0.83161658,1,0.117225118,1,-0.296361864,1,0.018934958,1
2.767974615,18.92630386,1,-15.20928574,1,-13.60603046,1,-4.567977428,1,-5.355873108,1,2.01410079,1,0.097290225,1,-0.316159666,1,0.022712113,1
2.771974087,19.03134346,1,4.769110203,1,3.015560865,1,-4.486157417,1,-8.217431068,1,2.250752211,1,0.077354595,1,-0.343814254,1,0.029522538,1
2.775975943,-4.217823982,1,7.416230202,1,-8.083300591,1,-5.890773773,1,-8.851284981,1,2.219213009,1,0.054488804,1,-0.379049063,1,0.036386754,1
2.779973745,-48.31738663,1,-1.351405144,1,-27.17871857,1,-6.686407566,1,-6.679425716,1,3.113697529,1,0.025051801,1,-0.411354899,1,0.046383269,1
2.783973217,-81.48490143,1,7.535897255,1,-33.68695068,1,-5.330814362,1,-3.423924923,1,3.420221329,1,-0.005185221,1,-0.4314031,1,0.06092627,1
2.787974834,-91.98933411,1,26.63027,1,-44.17502594,1,-3.135185957,1,0.935597122,1,2.686201572,1,-0.028822945,1,-0.437482893,1,0.074849583,1
2.791972637,-43.77812576,1,28.02786446,1,0.367427737,1,-0.578153849,1,2.498736143,1,2.031264782,1,-0.037770782,1,-0.428643376,1,0.084248424,1
2.795972347,-0.143441081,1,25.81111336,1,-2.466890574,1,-0.042870015,1,1.357965708,1,1.286991239,1,-0.043091509,1,-0.420596033,1,0.091632403,1
2.799974203,20.8953743,1,21.55903435,1,-12.15593433,1,0.020434687,1,0.703223288,1,0.658696353,1,-0.044082347,1,-0.416091889,1,0.095467485,1
2.803971767,22.32704163,1,26.16293335,1,-16.29261589,1,-0.467205495,1,-0.356708467,1,0.081503041,1,-0.046161328,1,-0.415284157,1,0.097163148,1
2.807971239,-5.696249485,1,21.64075851,1,-10.27893543,1,0.141765282,1,-0.286904901,1,-0.22449097,1,-0.046530593,1,-0.416936457,1,0.096766256,1
2.811973095,-5.747009277,1,2.866379023,1,-5.846942425,1,0.330869883,1,-0.162534848,1,-0.422214925,1,-0.045062494,1,-0.417699933,1,0.095426224,1
2.815970898,-10.0949831,1,-5.540702343,1,-8.326859474,1,0.712235749,1,-0.280671567,1,-0.413869411,1,-0.042194411,1,-0.41875273,1,0.093508735,1
2.819970369,-5.408052921,1,-5.24108696,1,-11.09256744,1,0.735144436,1,-0.127580628,1,-0.251734734,1,-0.038609926,1,-0.419615209,1,0.09213575,1
2.823971987,1.265390992,1,0.072176985,1,-8.621796608,1,0.620301604,1,-0.241178378,1,-0.27381596,1,-0.035498515,1,-0.420311034,1,0.091046937,1
2.827970028,-0.013351486,1,2.6242733,1,-9.153380394,1,0.507917225,1,-0.356942296,1,-0.342894226,1,-0.032660272,1,-0.421607256,1,0.089735448,1
2.831969738,-8.244263649,1,-1.488776445,1,-11.04984283,1,0.264817268,1,-0.205824926,1,-0.279076815,1,-0.030510968,1,-0.42280978,1,0.088335954,1
2.835971355,-9.050850868,1,-4.437851906,1,-9.79648304,1,0.238184139,1,-0.090021119,1,-0.193244547,1,-0.029184397,1,-0.423389226,1,0.087324969,1
2.83996892,-2.877377748,1,-4.102617741,1,-9.147099495,1,0.218961239,1,-0.110809915,1,-0.129727036,1,-0.027906468,1,-0.423771501,1,0.086638115,1
2.843968868,-2.540213823,1,-0.18569243,1,-9.777269363,1,0.052706864,1,-0.181177393,1,-0.127741203,1,-0.027147105,1,-0.424375564,1,0.086106129,1
2.847970486,-5.334043503,1,2.963533401,1,-8.767737389,1,0.019973097,1,-0.154447764,1,-0.144252136,1,-0.026811678,1,-0.425086051,1,0.085535504,1
2.851968527,-6.553564072,1,1.69327724,1,-8.610482216,1,0.0917105,1,-0.112407401,1,-0.129711151,1,-0.026346944,1,-0.425642759,1,0.084945314,1
2.855974436,-4.6340909,1,-0.953832865,1,-8.893006325,1,0.127868637,1,-0.088355601,1,-0.117086887,1,-0.025664806,1,-0.426052094,1,0.084407918,1
2.859976768,-3.98912859,1,-2.248695135,1,-8.837125778,1,0.073411942,1,-0.086959198,1,-0.089063309,1,-0.025066793,1,-0.426414907,1,0.08395803,1
2.86397481,-5.0604496,1,-2.758453608,1,-8.802694321,1,-0.014068589,1,-0.074210912,1,-0.027652392,1,-0.024842659,1,-0.426755756,1,0.083703309,1
2.867974281,-4.563215733,1,-3.082415342,1,-8.723455429,1,-0.055055529,1,-0.038081221,1,0.045898922,1,-0.025000084,1,-0.426981658,1,0.083747461,1
2.871976137,-3.771004438,1,-1.850662827,1,-8.885460854,1,-0.094432496,1,-0.025985422,1,0.100670859,1,-0.02544505,1,-0.42708981,1,0.084088728,1
2.87597394,-4.037218571,1,0.438629389,1,-9.164744377,1,-0.116155706,1,-0.026228731,1,0.106933661,1,-0.026068207,1,-0.427171826,1,0.084563226,1
2.879973412,-4.557294369,1,1.460860729,1,-9.224596977,1,-0.105067067,1,-0.024019122,1,0.084189832,1,-0.02668787,1,-0.427274495,1,0.084983401,1
2.883975267,-4.326496601,1,0.899923146,1,-9.343783379,1,-0.099717915,1,-0.023553481,1,0.065383606,1,-0.027223738,1,-0.427354336,1,0.085319586,1
2.887972832,-4.054924965,1,-0.076373063,1,-9.328603745,1,-0.118961893,1,-0.038376231,1,0.059549022,1,-0.027763497,1,-0.427470177,1,0.085589446,1
2.89197278,-4.083400726,1,-0.324549973,1,-9.390330315,1,-0.148961559,1,-0.057039894,1,0.063760996,1,-0.028414378,1,-0.427654058,1,0.085860282,1
2.895974636,-3.963966608,1,-0.152077392,1,-9.54412365,1,-0.183996096,1,-0.066424951,1,0.060837358,1,-0.029194571,1,-0.427893907,1,0.086147912,1
2.899972439,-3.630995035,1,0.14576517,1,-9.735920906,1,-0.243773848,1,-0.079989396,1,0.049542993,1,-0.030156864,1,-0.428165913,1,0.086405374,1
2.903972149,-3.628304243,1,0.957745314,1,-9.779373169,1,-0.32449168,1,-0.1043626,1,0.001963559,1,-0.031351581,1,-0.428534091,1,0.086534835,1
2.907974005,-3.613173962,1,1.732280374,1,-9.710943222,1,-0.391398668,1,-0.123256095,1,-0.058921143,1,-0.03274639,1,-0.428997219,1,0.086432196,1
2.911971569,-3.238570452,1,1.409153342,1,-10.00052643,1,-0.523728669,1,-0.146748334,1,-0.151303604,1,-0.034376852,1,-0.42954275,1,0.085989937,1
2.915971041,-3.254414558,1,0.79911083,1,-9.90524292,1,-0.674278915,1,-0.175587431,1,-0.234787673,1,-0.036440838,1,-0.430215448,1,0.085178748,1
2.919972658,-3.541060686,1,0.530598521,1,-9.810059547,1,-0.78173238,1,-0.183917493,1,-0.294787765,1,-0.038898025,1,-0.430974305,1,0.084033467,1
2.923970461,-2.791832447,1,0.960316777,1,-10.7231636,1,-0.748747349,1,-0.295380622,1,-0.324781299,1,-0.041454114,1,-0.431932181,1,0.082691938,1
2.927969933,-3.111371517,1,1.449341297,1,-10.29925728,1,-0.761666119,1,-0.450516701,1,-0.336749673,1,-0.043815155,1,-0.433517128,1,0.08131633,1
2.93197155,-3.952393055,1,1.47005105,1,-10.64578724,1,-0.665992737,1,-0.540584624,1,-0.345863909,1,-0.046232071,1,-0.435518563,1,0.079894647,1
2.935969353,-2.574726343,1,3.27807188,1,-10.98327732,1,-0.098163292,1,-0.800129652,1,-0.269264221,1,-0.047153112,1,-0.438254416,1,0.0786497,1
2.939968824,-4.131875515,1,0.459216177,1,-10.09284687,1,-0.099253915,1,-0.899060845,1,-0.193530768,1,-0.047119252,1,-0.441734254,1,0.077819459,1
2.943970442,-4.847032547,1,-1.88215673,1,-9.43035984,1,-0.060147449,1,-0.913276911,1,-0.130237818,1,-0.047233481,1,-0.44538486,1,0.077291667,1
2.947968245,-3.885206223,1,-1.875319123,1,-9.651610374,1,-0.041914102,1,-0.938316762,1,-0.055128053,1,-0.047319256,1,-0.449096829,1,0.077088088,1
2.951973915,-3.546738625,1,-0.769729912,1,-9.883641243,1,-0.087289564,1,-1.008534431,1,-0.007258465,1,-0.047625665,1,-0.452991903,1,0.077167451,1
2.955976009,-4.080817699,1,-0.326816112,1,-9.357105255,1,-0.106301613,1,-1.049357414,1,0.025530487,1,-0.04813496,1,-0.45710665,1,0.07743039,1
2.959973812,-4.432349682,1,-0.313144177,1,-9.050546646,1,-0.129911676,1,-1.065320253,1,0.054557726,1,-0.0487797,1,-0.461313844,1,0.077845693,1
2.963973284,-4.417590141,1,-0.098111905,1,-8.840250969,1,-0.146979243,1,-1.06247282,1,0.073658355,1,-0.049579218,1,-0.465566128,1,0.078361787,1
2.96797514,-4.255648136,1,0.163843408,1,-8.675746918,1,-0.15806596,1,-1.059744596,1,0.081245087,1,-0.050452381,1,-0.469786048,1,0.078944586,1
2.971973181,-4.534233093,1,0.158786327,1,-8.663357735,1,-0.167223945,1,-1.054680347,1,0.095621303,1,-0.051391363,1,-0.473991632,1,0.079570688,1
2.975972652,-4.456366062,1,0.087709501,1,-8.555171013,1,-0.183607504,1,-1.046866655,1,0.104667626,1,-0.052412365,1,-0.4781681,1,0.080272183,1
2.979974508,-4.508846283,1,0.057630971,1,-8.45966053,1,-0.195313156,1,-1.037804842,1,0.126138061,1,-0.058827896,1,-0.487876296,1,0.07351812,1
2.983972073,-4.461660862,1,0.120680377,1,-8.534537315,1,-0.203684926,1,-1.026904583,1,0.138300315,1,-0.060015187,1,-0.491853416,1,0.075117052,1
2.987971783,-4.531116486,1,0.154338181,1,-8.532707214,1,-0.209383398,1,-1.023295522,1,0.151370093,1,-0.061281975,1,-0.495914102,1,0.076047763,1
2.991973639,-4.497409821,1,0.175242379,1,-8.613841057,1,-0.209908336,1,-1.018598557,1,0.16406624,1,-0.062594518,1,-0.499946475,1,0.07705038,1
2.995971441,-4.514118671,1,0.358222574,1,-8.632401466,1,-0.217075974,1,-1.015137315,1,0.166638315,1,-0.063954018,1,-0.503962815,1,0.078105122,1
2.999971151,-4.511118412,1,0.613720953,1,-8.607629776,1,-0.209386528,1,-1.02101028,1,0.175073907,1,-0.065338582,1,-0.50798732,1,0.079178914,1
3.003973007,-4.654716015,1,0.601913512,1,-8.473023415,1,-0.201138541,1,-1.021394491,1,0.174989492,1,-0.066688448,1,-0.512020946,1,0.080283895,1
3.007971287,-4.638120174,1,0.578409851,1,-8.605155945,1,-0.211529851,1,-1.028278351,1,0.181798697,1,-0.068070658,1,-0.516057253,1,0.0814225,1
3.011970758,-4.650880337,1,0.449432731,1,-8.511836052,1,-0.213495389,1,-1.025297403,1,0.186160579,1,-0.069495,1,-0.520103574,1,0.082579769,1
3.015972614,-4.617249489,1,0.430916429,1,-8.498376846,1,-0.204960987,1,-1.034074783,1,0.184619114,1,-0.070916757,1,-0.524156749,1,0.083769016,1
3.019970655,-4.789515495,1,0.502664626,1,-8.318245888,1,-0.204513207,1,-1.026497364,1,0.18742609,1,-0.07233236,1,-0.528216481,1,0.084971637,1
3.023970127,-4.895283222,1,0.458390981,1,-8.293992043,1,-0.219460428,1,-1.027659297,1,0.192242384,1,-0.073782161,1,-0.532260597,1,0.086189464,1
3.027971983,-4.858603954,1,0.371775806,1,-8.22591877,1,-0.211259201,1,-1.018728495,1,0.200411215,1,-0.075294442,1,-0.536284506,1,0.087464586,1
3.031970739,-4.929993629,1,0.442742795,1,-8.234173775,1,-0.21016039,1,-1.020496845,1,0.209961131,1,-0.076816447,1,-0.540279925,1,0.088784188,1
3.035970926,-5.014331341,1,0.530337036,1,-8.193210602,1,-0.224434227,1,-1.006890059,1,0.217283264,1,-0.078381263,1,-0.544259429,1,0.090138331,1
3.039972544,-4.973992348,1,0.591401279,1,-8.126699448,1,-0.223166287,1,-0.995805621,1,0.220497817,1,-0.080006652,1,-0.548172832,1,0.091532312,1
3.043970346,-4.986132622,1,0.667582572,1,-8.026420593,1,-0.216733634,1,-0.986819804,1,0.231831402,1,-0.081640959,1,-0.552052438,1,0.092974097,1
3.047976017,-5.011942387,1,0.797452092,1,-7.917188644,1,-0.221016586,1,-0.963795066,1,0.23120831,1,-0.083280869,1,-0.555881143,1,0.094431013,1
3.051977873,-5.142263889,1,0.844112754,1,-7.95698595,1,-0.221843436,1,-0.951052904,1,0.22488974,1,-0.084936574,1,-0.559619904,1,0.095880687,1
3.055975914,-5.183101177,1,0.94874382,1,-7.955178261,1,-0.208910003,1,-0.936649144,1,0.222935677,1,-0.086563505,1,-0.563303828,1,0.097324573,1
3.059975386,-5.139523983,1,1.014374018,1,-8.005741119,1,-0.208928138,1,-0.930496752,1,0.216792494,1,-0.088161983,1,-0.566954911,1,0.098753542,1
3.06397748,-5.144058704,1,1.14018631,1,-8.023838997,1,-0.217527747,1,-0.920974433,1,0.20855844,1,-0.089770779,1,-0.570573807,1,0.10015434,1
3.067975521,-5.10203743,1,1.005691528,1,-8.054574013,1,-0.223249614,1,-0.925556481,1,0.203491762,1,-0.0913883,1,-0.574177146,1,0.10153123,1
3.071974993,-5.287483215,1,1.128934741,1,-8.049445152,1,-0.218692183,1,-0.910086691,1,0.191180214,1,-0.093016237,1,-0.577759504,1,0.102880761,1
3.07597661,-5.24320507,1,0.968805969,1,-8.033196449,1,-0.229261607,1,-0.904589891,1,0.187389418,1,-0.094626106,1,-0.581310511,1,0.104188792,1
3.079974413,-5.344117165,1,0.902531087,1,-8.04804039,1,-0.223360464,1,-0.904931009,1,0.186809778,1,-0.096248746,1,-0.584840417,1,0.105499946,1
3.083973885,-5.263522625,1,0.77502507,1,-8.128721237,1,-0.229863063,1,-0.903117597,1,0.180722266,1,-0.097863212,1,-0.588364482,1,0.106790811,1
3.08797574,-5.327386856,1,0.732401133,1,-8.079732895,1,-0.241658479,1,-0.899931967,1,0.191215843,1,-0.099545978,1,-0.591874063,1,0.108115882,1
3.091973305,-5.433860779,1,0.69666326,1,-8.083018303,1,-0.247262821,1,-0.899959147,1,0.195031792,1,-0.101274431,1,-0.595387995,1,0.109470136,1
3.095972776,-5.409063816,1,0.553175986,1,-7.978589058,1,-0.261562139,1,-0.89813292,1,0.204685703,1,-0.103096418,1,-0.598891735,1,0.110890172,1
3.099974394,-5.41714859,1,0.453881502,1,-8.023726463,1,-0.275623292,1,-0.896352887,1,0.219174832,1,-0.105006576,1,-0.602373838,1,0.112360962,1
3.103972197,-5.452120304,1,0.468342036,1,-8.027348518,1,-0.29683283,1,-0.895029306,1,0.229443178,1,-0.107042149,1,-0.605831206,1,0.113916442,1
3.107971668,-5.508522987,1,0.603296697,1,-8.083763123,1,-0.310581595,1,-0.895241261,1,0.235934615,1,-0.109166585,1,-0.60928762,1,0.115507238,1
3.111973286,-5.468338013,1,0.67944622,1,-8.094665527,1,-0.327275485,1,-0.90040189,1,0.248921424,1,-0.111395165,1,-0.612742424,1,0.117165096,1
3.115971327,-5.488814354,1,0.684080422,1,-8.211864471,1,-0.344493359,1,-0.909750581,1,0.257461846,1,-0.113723516,1,-0.616223693,1,0.118886195,1
3.119970798,-5.461595058,1,0.790697515,1,-8.192990303,1,-0.361186713,1,-0.916573942,1,0.261942387,1,-0.116174243,1,-0.619730592,1,0.120664544,1
3.12397337,-5.490974426,1,0.897985637,1,-8.235891342,1,-0.367901772,1,-0.929392338,1,0.265905291,1,-0.118693724,1,-0.623266578,1,0.122486621,1
3.127972126,-5.487651825,1,0.920487523,1,-8.229081154,1,-0.377865046,1,-0.949204922,1,0.271468073,1,-0.121282779,1,-0.626873076,1,0.124355868,1
3.131971836,-5.50035429,1,1.009578705,1,-8.232190132,1,-0.38997218,1,-0.969279468,1,0.268614858,1,-0.123936772,1,-0.630553961,1,0.126254767,1
3.135973692,-5.548206329,1,1.198286176,1,-8.269066811,1,-0.393758118,1,-0.991215169,1,0.263583153,1,-0.126645789,1,-0.634304345,1,0.12817654,1
3.139971495,-5.551282406,1,1.37980473,1,-8.230079651,1,-0.386107475,1,-1.017861009,1,0.26412496,1,-0.129353538,1,-0.6381464,1,0.130115524,1
3.143970966,-5.569517612,1,1.488054752,1,-8.24202919,1,-0.386142462,1,-1.035522103,1,0.256498694,1,-0.132068172,1,-0.642079949,1,0.132074952,1
3.147979021,-5.60319376,1,1.611421108,1,-8.247458458,1,-0.37311253,1,-1.062640548,1,0.242795646,1,-0.134739086,1,-0.646106958,1,0.133998111,1
3.151983023,-5.635932446,1,1.614155054,1,-8.196178436,1,-0.368005902,1,-1.079290032,1,0.224948764,1,-0.137362778,1,-0.650227308,1,0.135888755,1
3.15598321,-5.792551994,1,1.643662333,1,-8.184714317,1,-0.363332182,1,-1.096995234,1,0.207425103,1,-0.139937311,1,-0.654427588,1,0.137720361,1
3.159984827,-5.688634872,1,1.732964277,1,-8.154195786,1,-0.354383796,1,-1.115356088,1,0.191620305,1,-0.142468259,1,-0.658698976,1,0.139509991,1
3.16398263,-5.689368248,1,1.722364664,1,-8.134536743,1,-0.336768091,1,-1.1377846,1,0.171979994,1,-0.144917712,1,-0.663060606,1,0.141256616,1
3.167981863,-5.629998207,1,1.820657611,1,-8.114657402,1,-0.325951248,1,-1.163953543,1,0.147763535,1,-0.147263318,1,-0.667511702,1,0.142917395,1
3.171983719,-5.757381916,1,1.894141793,1,-8.091080666,1,-0.306763113,1,-1.181462049,1,0.125392601,1,-0.149494603,1,-0.67207098,1,0.144487754,1
3.175981283,-5.816221714,1,1.920336127,1,-8.133612633,1,-0.300399274,1,-1.208243012,1,0.106410652,1,-0.1516435,1,-0.676722646,1,0.145994678,1
3.179980993,-5.774044037,1,1.813591361,1,-8.095162392,1,-0.273115307,1,-1.237235188,1,0.083409458,1,-0.153692991,1,-0.681486547,1,0.147425279,1
3.183983564,-5.761046886,1,1.857046008,1,-8.161973,1,-0.249341115,1,-1.267503142,1,0.056924228,1,-0.155581817,1,-0.686382949,1,0.148780152,1
3.187982082,-5.754592419,1,1.889715195,1,-8.166940689,1,-0.234409362,1,-1.297126174,1,0.033362344,1,-0.157360196,1,-0.691416442,1,0.150057063,1
3.191981792,-5.807501316,1,1.928512812,1,-8.092393875,1,-0.212865829,1,-1.334119678,1,0.007996068,1,-0.159018219,1,-0.696600974,1,0.151241705,1
3.195983648,-5.879740715,1,1.946707368,1,-8.010573387,1,-0.182627067,1,-1.366036177,1,-0.017989453,1,-0.160503522,1,-0.701932967,1,0.152329668,1
3.199981213,-5.901997089,1,1.884863496,1,-7.88502264,1,-0.165232807,1,-1.395806074,1,-0.041920923,1,-0.161845848,1,-0.707406402,1,0.153333366,1
3.203980684,-5.960081577,1,1.880711198,1,-7.817420006,1,-0.126581043,1,-1.426517129,1,-0.065336831,1,-0.163059428,1,-0.713024259,1,0.15425618,1
3.207982302,-5.848360538,1,1.967743874,1,-7.75398922,1,-0.084737502,1,-1.456281424,1,-0.091021568,1,-0.16400829,1,-0.718768477,1,0.155082077,1
3.211980343,-5.920246124,1,2.077442169,1,-7.669874191,1,-0.054640919,1,-1.486767411,1,-0.118593395,1,-0.164768621,1,-0.724643409,1,0.155807689,1
3.215980053,-5.982497215,1,2.063172102,1,-7.639616013,1,-0.012418668,1,-1.513323903,1,-0.147489399,1,-0.165316477,1,-0.730650783,1,0.156417727,1
3.219982147,-6.011593819,1,1.891885042,1,-7.677186966,1,0.017687678,1,-1.544862151,1,-0.162494555,1,-0.165662244,1,-0.736789048,1,0.156947166,1
3.223980427,-5.983813763,1,1.628822088,1,-7.861180782,1,0.035187781,1,-1.5838238,1,-0.177511007,1,-0.165878996,1,-0.7430709,1,0.157423615,1
3.227980137,-5.901531696,1,1.249316454,1,-8.064170837,1,0.041819282,1,-1.634582043,1,-0.172826156,1,-0.166054562,1,-0.749538004,1,0.157928675,1
3.231981516,-5.87497139,1,0.912204981,1,-8.385059357,1,0.036325164,1,-1.704383254,1,-0.163396075,1,-0.166967407,1,-0.755053997,1,0.159409836,1
3.235979557,-5.78143549,1,0.509549439,1,-8.549184799,1,0.006124855,1,-1.776685834,1,-0.138731346,1,-0.167411968,1,-0.762022793,1,0.160185158,1
3.239979029,-5.802984238,1,0.012228115,1,-8.773792267,1,-0.017887022,1,-1.865852714,1,-0.098952979,1,-0.168143675,1,-0.769275963,1,0.161213845,1
3.243987083,-5.677314758,1,-0.25430727,1,-8.8576231,1,-0.069559656,1,-1.962952733,1,-0.052193161,1,-0.169281006,1,-0.776879549,1,0.162596807,1
3.247991323,-5.856203079,1,-0.342191607,1,-8.893211365,1,-0.129933372,1,-2.076191425,1,0.000274123,1,-0.170930147,1,-0.784860015,1,0.164370492,1
3.251991272,-5.834424973,1,-0.342653096,1,-8.891504288,1,-0.194629386,1,-2.191438675,1,0.057455897,1,-0.17316325,1,-0.793249249,1,0.166602358,1
3.255993366,-5.807257175,1,-0.241258726,1,-8.899007797,1,-0.266204089,1,-2.311455965,1,0.110918336,1,-0.176034108,1,-0.802048862,1,0.169323951,1
3.259991407,-5.821068764,1,-0.019590382,1,-8.819518089,1,-0.32317248,1,-2.444801331,1,0.160211921,1,-0.179534927,1,-0.811320066,1,0.172527477,1
3.263990879,-5.820555687,1,0.236562788,1,-8.768584251,1,-0.385659963,1,-2.572027683,1,0.20460549,1,-0.183645338,1,-0.821054935,1,0.176227719,1
3.267992496,-6.026741505,1,0.481490225,1,-8.703930855,1,-0.467534155,1,-2.713773012,1,0.236312211,1,-0.188426152,1,-0.831284165,1,0.180409074,1
3.271990299,-5.755982876,1,1.077986717,1,-8.781813622,1,-0.454812497,1,-2.854284525,1,0.263696879,1,-0.193696156,1,-0.842016935,1,0.18502228,1
3.275990009,-5.821015358,1,0.993370831,1,-8.778770447,1,-0.493272126,1,-2.998933792,1,0.291989237,1,-0.199400827,1,-0.853272915,1,0.190114811,1
3.279991865,-6.035067081,1,0.930181146,1,-8.759986877,1,-0.567403972,1,-3.173598528,1,0.317118466,1,-0.205804408,1,-0.865122914,1,0.195758447,1
3.283989429,-5.751570702,1,1.108152032,1,-8.821228027,1,-0.543129981,1,-3.345971107,1,0.372212321,1,-0.212858886,1,-0.877574563,1,0.202058554,1
3.287988901,-5.783351421,1,0.711787045,1,-9.094608307,1,-0.586395144,1,-3.527469635,1,0.43168363,1,-0.220603779,1,-0.890644789,1,0.209178403,1
3.291990519,-5.798800945,1,0.628404319,1,-9.347605705,1,-0.642954588,1,-3.725456953,1,0.487158716,1,-0.229372799,1,-0.904365778,1,0.217233554,1
3.295988321,-6.195479393,1,0.925888896,1,-9.835813522,1,-0.749544919,1,-3.998229027,1,0.536925077,1,-0.239321113,1,-0.918850899,1,0.22635214,1
3.299987793,-5.49631691,1,0.260775208,1,-10.11768818,1,-0.802107692,1,-4.150756836,1,0.607637346,1,-0.250621438,1,-0.934037924,1,0.236590609,1
3.30398941,-5.346503735,1,0.015944108,1,-10.7692337,1,-0.867417753,1,-4.493291855,1,0.71491158,1,-0.263511837,1,-0.95012641,1,0.248388216,1
3.307987452,-4.508578777,1,-0.509183466,1,-11.41271782,1,-0.920850635,1,-4.79131031,1,0.881793499,1,-0.278533399,1,-0.967211962,1,0.262376755,1
3.3119874,-0.528631628,1,-2.51638937,1,-12.70726967,1,-0.947410107,1,-5.014719963,1,0.977905869,1,-0.295808375,1,-0.984874785,1,0.278753132,1
3.315989494,-6.030103207,1,-0.118633829,1,-14.17104912,1,-1.129104018,1,-5.639356136,1,0.924072862,1,-0.315359414,1,-1.004078269,1,0.297055423,1
3.319988012,-4.836120605,1,-0.116906643,1,-13.2977562,1,-1.094774008,1,-6.067311764,1,1.060303211,1,-0.3378582,1,-1.024888992,1,0.318327367,1
3.323987484,-5.041597366,1,-1.031732202,1,-13.15855694,1,-0.968435943,1,-6.625056267,1,1.197509289,1,-0.363696337,1,-1.047155857,1,0.343579531,1
3.327989101,-6.071273804,1,-2.432434797,1,-13.24662304,1,-0.814304054,1,-7.16322422,1,1.469702959,1,-0.394279867,1,-1.070850849,1,0.374579132,1
3.331986904,-7.19244194,1,-2.666198969,1,-13.41923618,1,-0.519744396,1,-7.739455223,1,1.721402764,1,-0.43056196,1,-1.095539093,1,0.412566036,1
3.335986376,-8.649850845,1,-3.650734425,1,-13.082407,1,-0.417285502,1,-8.244308472,1,1.805498123,1,-0.473248899,1,-1.121271729,1,0.458241343,1
3.339994192,-12.6483736,1,-1.995819569,1,-12.27236271,1,-0.095869407,1,-8.728360176,1,1.897546887,1,-0.523009777,1,-1.147855282,1,0.51231128,1
3.343997955,-16.01866913,1,-4.24373436,1,-12.18371201,1,-1.170199037,1,-8.136546135,1,2.014012337,1,-0.58190614,1,-1.172738671,1,0.573961139,1
3.347997665,-21.93375206,1,-1.367844582,1,-13.91682911,1,-1.594205499,1,-7.986856937,1,2.005868196,1,-0.649166226,1,-1.194334865,1,0.640447915,1
