Time,inertial-6253.76535:estCompensatedAccelX,inertial-6253.76535:estCompensatedAccelX:valid,inertial-6253.76535:estCompensatedAccelY,inertial-6253.76535:estCompensatedAccelY:valid,inertial-6253.76535:estCompensatedAccelZ,inertial-6253.76535:estCompensatedAccelZ:valid,inertial-6253.76535:estAngularRateX,inertial-6253.76535:estAngularRateX:valid,inertial-6253.76535:estAngularRateY,inertial-6253.76535:estAngularRateY:valid,inertial-6253.76535:estAngularRateZ,inertial-6253.76535:estAngularRateZ:valid,inertial-6253.76535:estRoll,inertial-6253.76535:estRoll:valid,inertial-6253.76535:estPitch,inertial-6253.76535:estPitch:valid,inertial-6253.76535:estYaw,inertial-6253.76535:estYaw:valid
0,-3.548058271,1,-3.570778847,1,-8.433546066,1,-0.010901322,1,0.001443488,1,0.008288052,1,0.395533562,1,-0.378658652,1,-1.106088638,1
0.003999232,-3.546518803,1,-3.563287258,1,-8.483797073,1,-0.010986585,1,0.001175344,1,0.00435928,1,0.3954857587814331,1,-0.37866497,1,-1.106062412,1
0.008000768,-3.526979923,1,-3.553104162,1,-8.429332733,1,-0.010844876,1,0.002809687,1,0.00317449,1,0.3954328298568726,1,-0.378664047,1,-1.106037498,1
0.011998208,-3.526189804,1,-3.573622942,1,-8.453381538,1,-0.011876796,1,-0.001414055,1,0.006599606,1,0.3953824043273926,1,-0.378667176,1,-1.106012344,1
0.01599744,-3.539340258,1,-3.533115864,1,-8.44630146,1,-0.012143621,1,0.002768074,1,0.005675879,1,0.3953142762184143,1,-0.378678679,1,-1.105985761,1
0.019998975,-3.535733461,1,-3.578893185,1,-8.462801933,1,-0.012114171,1,0.002461049,1,0.005052464,1,0.3952624797821045,1,-0.378676116,1,-1.105962515,1
0.023996416,-3.54254508,1,-3.563390493,1,-8.465023994,1,-0.012178761,1,0.001582895,1,0.00662053,1,0.3952013254165649,1,-0.378684431,1,-1.105935693,1
0.027995393,-3.55675602,1,-3.541527987,1,-8.432703018,1,-0.013614438,1,0.003134661,1,0.002413,1,0.3951357305049896,1,-0.378685802,1,-1.105910897,1
0.031996671,-3.53226018,1,-3.521908522,1,-8.437487602,1,-0.012806806,1,0.000188575,1,0.006941262,1,0.3950722217559814,1,-0.378684968,1,-1.10588634,1
0.035993855,-3.544345379,1,-3.536591053,1,-8.434920311,1,-0.010069089,1,0.002555712,1,0.00366309,1,0.3950095772743225,1,-0.378693789,1,-1.105856419,1
0.039993346,-3.531497955,1,-3.5235672,1,-8.450969696,1,-0.011201977,1,0.001537064,1,0.006468283,1,0.3949496150016785,1,-0.378696591,1,-1.105830789,1
0.043994624,-3.536466599,1,-3.526458263,1,-8.482650757,1,-0.008392951,1,0.004134573,1,0.009736216,1,0.394890308,1,-0.378696799,1,-1.105797887,1
0.047991809,-3.525872946,1,-3.528788805,1,-8.482515335,1,-0.010242864,1,0.001292555,1,0.009864081,1,0.3948304057121277,1,-0.378698409,1,-1.105765224,1
0.051991042,-3.522443295,1,-3.545966625,1,-8.446739197,1,-0.012652828,1,0.000280153,1,0.007075064,1,0.3947746753692627,1,-0.378706545,1,-1.105740547,1
0.05599232,-3.514243364,1,-3.549267769,1,-8.44161129,1,-0.010167728,1,0.003466484,1,0.003559213,1,0.3947173357009888,1,-0.378713131,1,-1.105709672,1
0.059995648,-3.554892063,1,-3.549049377,1,-8.458479881,1,-0.01472382,1,0.002725411,1,0.007639733,1,0.3946661353111267,1,-0.378713548,1,-1.105690002,1
0.063994877,-3.510417223,1,-3.529716492,1,-8.457753181,1,-0.01027822,1,0.000266175,1,0.006351555,1,0.3946129083633423,1,-0.378720045,1,-1.10566926,1
0.067996159,-3.518310547,1,-3.533560991,1,-8.446817398,1,-0.013827724,1,0.000502519,1,0.006695516,1,0.3945556282997131,1,-0.378730893,1,-1.105649352,1
0.071993597,-3.515624285,1,-3.536057711,1,-8.447193146,1,-0.009213117,1,-0.000340245,1,0.0074157,1,0.3944975137710571,1,-0.378736705,1,-1.105619788,1
0.07599283,-3.525177717,1,-3.539232731,1,-8.454792023,1,-0.014063674,1,7.989467121660709e-05,1,0.002078033,1,0.3944489657878876,1,-0.378740191,1,-1.105595946,1
0.079994112,-3.520633459,1,-3.560498238,1,-8.444982529,1,-0.009885275,1,2.030865289270878e-05,1,0.0080598,1,0.394399494,1,-0.378745973,1,-1.105581641,1
0.08399155,-3.567804098,1,-3.543159008,1,-8.443330765,1,-0.010711878,1,-0.001534094,1,0.004606555,1,0.3943442702293396,1,-0.378753364,1,-1.105553389,1
0.087990783,-3.559740782,1,-3.569315434,1,-8.452216148,1,-0.012465715,1,0.002795112,1,0.003745072,1,0.3942890167236328,1,-0.378761768,1,-1.105534792,1
0.091992065,-3.55581665,1,-3.533275604,1,-8.481347084,1,-0.009124321,1,-0.002815378,1,0.008751115,1,0.3942338824272156,1,-0.378771573,1,-1.10550952,1
0.095989503,-3.542187691,1,-3.543448448,1,-8.440761566,1,-0.012785214,1,0.001224984,1,0.004819476,1,0.3941767811775208,1,-0.378776759,1,-1.105478883,1
0.099988736,-3.543341875,1,-3.500167608,1,-8.462277412,1,-0.012407737,1,0.001525954,1,0.004090526,1,0.3941250145435333,1,-0.378781497,1,-1.105457544,1
0.103990018,-3.537317991,1,-3.516443491,1,-8.459060669,1,-0.007988709,1,0.001469852,1,0.006546497,1,0.3940715789794922,1,-0.378786385,1,-1.105433583,1
0.107987456,-3.562291384,1,-3.541232109,1,-8.450287819,1,-0.011265567,1,-0.003280174,1,0.00831857,1,0.3940290808677673,1,-0.378796399,1,-1.105411172,1
0.111986689,-3.562340021,1,-3.50890708,1,-8.459370613,1,-0.008893893,1,0.006499373,1,0.003030862,1,0.3939791619777679,1,-0.378802985,1,-1.1053859,1
0.115987971,-3.538652658,1,-3.526980877,1,-8.491540909,1,-0.006669573,1,-0.001300388,1,0.006284388,1,0.393951952,1,-0.378657997,1,-1.105491638,1
0.119985409,-3.565147161,1,-3.540957689,1,-8.425972939,1,-0.011137848,1,0.000955485,1,0.00402273,1,0.3939034938812256,1,-0.378658891,1,-1.105468035,1
0.123984896,-3.543316603,1,-3.523736477,1,-8.447312355,1,-0.007534598,1,0.001292502,1,0.00483681,1,0.3938658535480499,1,-0.378663361,1,-1.105450273,1
0.127986178,-3.545731544,1,-3.546888113,1,-8.477859497,1,-0.00658372,1,-0.003282564,1,0.003120629,1,0.393829733,1,-0.378663957,1,-1.10543263,1
0.131983623,-3.53101778,1,-3.501677275,1,-8.434342384,1,-0.005670607,1,0.000500488,1,0.006101602,1,0.393799365,1,-0.378674567,1,-1.105413795,1
0.135983109,-3.546569347,1,-3.501346588,1,-8.452871323,1,-0.006603435,1,-0.000916724,1,0.005511769,1,0.3937661349773407,1,-0.378682435,1,-1.105399966,1
0.139984384,-3.581548214,1,-3.524127722,1,-8.458511353,1,-0.006917221,1,0.001258967,1,0.00135604,1,0.3937352299690247,1,-0.378683627,1,-1.105385065,1
0.143981561,-3.57223177,1,-3.526236773,1,-8.463425636,1,-0.004948881,1,-0.00178964,1,0.004712274,1,0.3937130570411682,1,-0.378687739,1,-1.10537529,1
0.147980794,-3.526175499,1,-3.499650955,1,-8.462035179,1,-0.003921934,1,-0.000523439,1,0.008629172,1,0.3936907052993774,1,-0.378693104,1,-1.105359912,1
0.151982084,-3.538384676,1,-3.528860807,1,-8.45753479,1,-0.000958655,1,0.000930673,1,0.002595401,1,0.3936777710914612,1,-0.378697366,1,-1.10535121,1
0.155985415,-3.537075043,1,-3.525637627,1,-8.45327282,1,-0.002035664,1,-0.001897261,1,0.00305838,1,0.3936664462089539,1,-0.3787027,1,-1.105337858,1
0.159984633,-3.534521818,1,-3.532753706,1,-8.445828438,1,0.003362483,1,0.002350263,1,0.003486587,1,0.3936606645584106,1,-0.378715962,1,-1.10533011,1
0.163985923,-3.566471577,1,-3.529505014,1,-8.462961197,1,-0.003400539,1,-0.000340695,1,0.002111389,1,0.393662691,1,-0.378717124,1,-1.105321646,1
0.167983353,-3.545090914,1,-3.496227026,1,-8.445981026,1,0.003336216,1,0.002503665,1,0.003819831,1,0.3936598598957062,1,-0.378721833,1,-1.10531497,1
0.171982586,-3.591715813,1,-3.532210112,1,-8.438776016,1,0.002176885,1,0.001706114,1,0.002833932,1,0.3936609625816345,1,-0.378726989,1,-1.105304718,1
0.175983876,-3.541854382,1,-3.491865635,1,-8.441282272,1,9.897933341562748e-05,1,-0.004546745,1,0.003357542,1,0.3936629891395569,1,-0.378737271,1,-1.105296016,1
0.179981306,-3.521962166,1,-3.508383036,1,-8.436668396,1,-0.002723716,1,0.000564267,1,0.001920852,1,0.3936547636985779,1,-0.378748804,1,-1.105283737,1
0.183980539,-3.539514542,1,-3.524590492,1,-8.430360794,1,0.002376869,1,-0.001238239,1,0.001127531,1,0.39365977,1,-0.37875697,1,-1.105281591,1
0.187982082,-3.542319059,1,-3.518074036,1,-8.474233627,1,0.004359809,1,-0.002043112,1,0.004965609,1,0.3936598300933838,1,-0.378769279,1,-1.105272055,1
0.191979513,-3.526477814,1,-3.537372112,1,-8.44393158,1,0.004028981,1,-0.002294195,1,0.001169949,1,0.3936692774295807,1,-0.378780901,1,-1.10526967,1
0.195978746,-3.56282711,1,-3.512495279,1,-8.467646599,1,0.003797383,1,-0.004628466,1,6.538012530654669e-05,1,0.3936848044395447,1,-0.378786683,1,-1.105268478,1
0.199980035,-3.568815947,1,-3.540565014,1,-8.465870857,1,0.003681344,1,-0.002386334,1,0.004184947,1,0.3936959505081177,1,-0.378791422,1,-1.105254054,1
0.203977466,-3.539340734,1,-3.510048628,1,-8.476564407,1,0.006725751,1,0.003677448,1,0.001490298,1,0.393710732,1,-0.378794879,1,-1.105244756,1
0.207976699,-3.55198884,1,-3.550199032,1,-8.459852219,1,0.002185972,1,-0.002608084,1,0.002558434,1,0.393730104,1,-0.378799081,1,-1.105236888,1
0.211977988,-3.583631754,1,-3.519532919,1,-8.459119797,1,0.005209703,1,-0.001701619,1,0.0028204,1,0.3937432169914246,1,-0.378805518,1,-1.105232239,1
0.215975165,-3.550873756,1,-3.535731554,1,-8.450300217,1,0.006117082,1,0.002845501,1,-0.002932428,1,0.3937678635120392,1,-0.378803551,1,-1.105231762,1
0.219974399,-3.529894352,1,-3.524000168,1,-8.441892624,1,0.00731387,1,-0.004135587,1,0.00431835,1,0.3937845230102539,1,-0.378816903,1,-1.105224609,1
0.223975673,-3.551467657,1,-3.508407831,1,-8.450764656,1,0.004507985,1,-0.000110175,1,0.002097541,1,0.393814743,1,-0.378819644,1,-1.105224013,1
0.227972865,-3.52341485,1,-3.513238192,1,-8.458851814,1,0.004924731,1,-0.005779198,1,0.002989043,1,0.3938440978527069,1,-0.378832757,1,-1.105224609,1
0.231972098,-3.558146954,1,-3.523933172,1,-8.476097107,1,0.009849295,1,-0.001729239,1,0.001284084,1,0.3938754796981812,1,-0.378847331,1,-1.105225205,1
0.235973373,-3.55345726,1,-3.500479937,1,-8.470067024,1,0.007114183,1,-0.003709815,1,-0.000714411,1,0.3939054608345032,1,-0.378854036,1,-1.10522604,1
0.239970565,-3.541435242,1,-3.544119358,1,-8.467691422,1,0.009881357,1,-0.003995762,1,0.000584927,1,0.3939476609230042,1,-0.378860742,1,-1.105234146,1
0.243969798,-3.542412519,1,-3.509425402,1,-8.451217651,1,0.009392404,1,0.000947394,1,-0.001931118,1,0.3939850926399231,1,-0.378864765,1,-1.105234146,1
0.247971073,-3.571793795,1,-3.550842047,1,-8.438367844,1,0.010877264,1,-0.000755311,1,-0.002270981,1,0.3940288424491882,1,-0.378864169,1,-1.105243087,1
0.251968503,-3.550097466,1,-3.528069258,1,-8.461689949,1,0.007630539,1,-0.002006067,1,-0.001515733,1,0.3940747380256653,1,-0.378865004,1,-1.10524714,1
0.255973876,-3.558712244,1,-3.541111708,1,-8.444975853,1,0.008920916,1,0.000705888,1,-0.000293297,1,0.3941053152084351,1,-0.378869474,1,-1.105245948,1
0.259975165,-3.566541195,1,-3.527653694,1,-8.457891464,1,0.011314831,1,0.000103047,1,0.000908783,1,0.3941425085067749,1,-0.378875673,1,-1.105246305,1
0.26397261,-3.581651926,1,-3.501253843,1,-8.455141068,1,0.010201068,1,0.001470718,1,-0.000992692,1,0.3941795229911804,1,-0.378875256,1,-1.105251431,1
0.267971843,-3.532383204,1,-3.544093847,1,-8.43939209,1,0.007137806,1,-0.000873163,1,-0.00297321,1,0.3942147791385651,1,-0.378877521,1,-1.105255604,1
0.271973133,-3.575202227,1,-3.558311462,1,-8.472869873,1,0.012559775,1,-0.001801671,1,-0.003714233,1,0.394257128,1,-0.378888309,1,-1.105265379,1
0.275970817,-3.560439348,1,-3.563089848,1,-8.441898346,1,0.006201821,1,0.001398935,1,-0.003004099,1,0.3942937552928925,1,-0.378883123,1,-1.105269551,1
0.27997005,-3.541414261,1,-3.518887758,1,-8.430727959,1,0.012108876,1,-0.002134376,1,-0.001655897,1,0.3943284153938293,1,-0.378887057,1,-1.105271101,1
0.283971578,-3.543731213,1,-3.537879705,1,-8.452596664,1,0.00711767,1,-0.006140491,1,-1.74E-05,1,0.394365132,1,-0.378897667,1,-1.105276704,1
0.287969023,-3.561638832,1,-3.571610928,1,-8.416000366,1,0.003373377,1,-0.005926453,1,-0.000517056,1,0.3943974375724792,1,-0.378903061,1,-1.105278015,1
0.291968256,-3.533432245,1,-3.533311129,1,-8.455651283,1,0.007578379,1,0.000888718,1,0.001655383,1,0.3944280743598938,1,-0.378913969,1,-1.105278492,1
0.295969784,-3.538774967,1,-3.543313503,1,-8.437465668,1,0.003082633,1,-0.003774627,1,0.003267968,1,0.3944482207298279,1,-0.378923178,1,-1.105275154,1
0.299967498,-3.539665222,1,-3.526003122,1,-8.461935043,1,0.006312104,1,-0.003308122,1,0.003438544,1,0.3944671452045441,1,-0.378937423,1,-1.105274081,1
0.303966731,-3.546205044,1,-3.546568871,1,-8.431749344,1,0.005579534,1,-0.001679695,1,3.215845208615065e-05,1,0.3944839835166931,1,-0.378949404,1,-1.105269074,1
0.307967991,-3.551601887,1,-3.54622817,1,-8.458990097,1,0.004006826,1,-0.002996449,1,0.00285592,1,0.3945012986660004,1,-0.378960311,1,-1.105262399,1
0.311965197,-3.581581116,1,-3.576529264,1,-8.453133583,1,0.004496964,1,-0.003139266,1,-0.00137996,1,0.3945264220237732,1,-0.378976643,1,-1.105269313,1
0.315964669,-3.531198502,1,-3.556668282,1,-8.446892738,1,0.001313953,1,-0.000518804,1,-0.00048478,1,0.3945422172546387,1,-0.378985763,1,-1.105268836,1
0.319965959,-3.545147419,1,-3.549081326,1,-8.466363907,1,0.007776593,1,-0.004107325,1,0.000776125,1,0.3945612907409668,1,-0.379000634,1,-1.105266809,1
0.323963135,-3.53102684,1,-3.547336102,1,-8.441203117,1,0.003211903,1,0.001381437,1,0.000778083,1,0.3945821523666382,1,-0.37901482,1,-1.105264306,1
0.327962369,-3.566932201,1,-3.52129674,1,-8.428076744,1,0.000105839,1,-0.002313168,1,0.001494048,1,0.394589752,1,-0.379021525,1,-1.105261922,1
0.331963658,-3.559720516,1,-3.552368164,1,-8.446863174,1,0.002964873,1,-0.003850509,1,0.000672198,1,0.3946036696434021,1,-0.379039705,1,-1.105261207,1
0.335960835,-3.553676844,1,-3.551736116,1,-8.424233437,1,0.00156355,1,-0.002289086,1,0.006334513,1,0.394605428,1,-0.379051834,1,-1.105256319,1
0.339960068,-3.535800695,1,-3.552890778,1,-8.433854103,1,-0.000908466,1,-0.001113619,1,0.001986846,1,0.3946186304092407,1,-0.379063666,1,-1.105253458,1
0.343961358,-3.554494858,1,-3.560199738,1,-8.45166111,1,0.0025549,1,-0.004771836,1,0.000730491,1,0.3946163654327393,1,-0.379078746,1,-1.105242133,1
0.347958773,-3.550285339,1,-3.517329216,1,-8.430240631,1,-0.002248254,1,-0.003269811,1,0.004472555,1,0.3946124911308289,1,-0.379095733,1,-1.105230451,1
0.351964146,-3.545243025,1,-3.566709995,1,-8.454184532,1,-0.000304633,1,-0.003258279,1,0.005655679,1,0.3946011662483215,1,-0.37911123,1,-1.105222225,1
0.355965436,-3.561870575,1,-3.562346458,1,-8.476530075,1,-6.70E-05,1,0.000614792,1,0.002357162,1,0.3945948481559753,1,-0.379123688,1,-1.105221272,1
0.359962881,-3.526531696,1,-3.527628899,1,-8.45029068,1,-0.003498517,1,-0.00695366,1,0.006192998,1,0.394587517,1,-0.379143953,1,-1.105209708,1
0.363962114,-3.563953161,1,-3.550002813,1,-8.419539452,1,-0.001766155,1,-0.002225988,1,0.003238257,1,0.3945991694927216,1,-0.379031867,1,-1.105239272,1
0.367963403,-3.570275784,1,-3.568903208,1,-8.457966805,1,-0.00637173,1,-0.004096315,1,0.002453121,1,0.3945485055446625,1,-0.379037976,1,-1.105344057,1
0.371960819,-3.569731236,1,-3.522592306,1,-8.435166359,1,-0.00064052,1,-0.005583306,1,0.003173131,1,0.3945287466049194,1,-0.379057407,1,-1.105338573,1
0.375960052,-3.526670456,1,-3.568597555,1,-8.472249031,1,-0.00641076,1,-0.004024019,1,0.001366413,1,0.3945149481296539,1,-0.379077494,1,-1.105335355,1
0.37996161,-3.519276142,1,-3.550997496,1,-8.442065239,1,-0.007636609,1,-0.005813557,1,0.002547177,1,0.3944934606552124,1,-0.379091859,1,-1.105320454,1
0.383959025,-3.542887926,1,-3.52432394,1,-8.451505661,1,-0.004972957,1,-0.004199218,1,0.002191247,1,0.394463837,1,-0.379109681,1,-1.105311871,1
0.38795802,-3.556611538,1,-3.512024164,1,-8.417215347,1,-0.007991061,1,-0.003750388,1,0.006020943,1,0.3944275379180908,1,-0.379126251,1,-1.105302572,1
0.39195931,-3.566579103,1,-3.502121449,1,-8.444267273,1,-0.004069843,1,-0.006775658,1,0.004704351,1,0.3943927884101868,1,-0.379144847,1,-1.105291128,1
0.395956486,-3.542006493,1,-3.503064394,1,-8.463253021,1,-0.012011136,1,-0.001163682,1,0.002099151,1,0.3943607211112976,1,-0.379163921,1,-1.105279803,1
0.39995572,-3.566861391,1,-3.555587769,1,-8.448185921,1,-0.003974188,1,-0.00347888,1,0.004396186,1,0.3943256139755249,1,-0.379182875,1,-1.105268717,1
0.403957248,-3.561150312,1,-3.518902779,1,-8.413090706,1,-0.009340396,1,-0.000217353,1,0.002005043,1,0.3942936062812805,1,-0.379197657,1,-1.105265379,1
0.407954693,-3.533800602,1,-3.544301033,1,-8.434984207,1,-0.004588211,1,-0.00722258,1,0.003323552,1,0.3942544758319855,1,-0.379224926,1,-1.105254889,1
0.411954165,-3.553027391,1,-3.521529198,1,-8.429292679,1,-0.008840233,1,-0.003840998,1,-0.000481982,1,0.3942214846611023,1,-0.379240662,1,-1.105251074,1
0.415955454,-3.56506896,1,-3.496925354,1,-8.453073502,1,-0.007333974,1,-0.002866044,1,0.005497711,1,0.3941869735717773,1,-0.379259706,1,-1.105244875,1
0.419952631,-3.556055546,1,-3.529380083,1,-8.423139572,1,-0.005366019,1,-0.002017872,1,0.004401877,1,0.3941548466682434,1,-0.379281819,1,-1.105238438,1
0.423951864,-3.534644604,1,-3.551246881,1,-8.459988594,1,-0.005667154,1,-0.001924827,1,0.002671267,1,0.3941220045089722,1,-0.379296601,1,-1.105231524,1
0.427953154,-3.556147575,1,-3.494965792,1,-8.469040871,1,-0.010322957,1,-0.002926619,1,0.005242345,1,0.3940929174423218,1,-0.379310608,1,-1.105224609,1
0.431950599,-3.543768644,1,-3.526581049,1,-8.458374023,1,-0.002146693,1,-0.002482735,1,0.000284254,1,0.394072413,1,-0.379321486,1,-1.105225205,1
0.435950071,-3.538331985,1,-3.520802259,1,-8.471950531,1,-0.006478642,1,-0.006212434,1,0.006385253,1,0.394053578,1,-0.379334688,1,-1.105224967,1
0.43995136,-3.574639082,1,-3.540776253,1,-8.423663139,1,-0.003247803,1,-0.001914808,1,0.001881548,1,0.3940427303314209,1,-0.379348934,1,-1.105222702,1
0.443948805,-3.540566921,1,-3.554766655,1,-8.438556671,1,-0.001675662,1,-0.004045092,1,0.006618216,1,0.3940283954143524,1,-0.379364043,1,-1.105220795,1
0.447948039,-3.54744935,1,-3.531530857,1,-8.459456444,1,-0.004031011,1,-0.002433705,1,0.00036669,1,0.3940184712409973,1,-0.379375458,1,-1.105218768,1
0.451949298,-3.550647974,1,-3.526982307,1,-8.449615479,1,-7.45E-05,1,-0.002879099,1,0.003106149,1,0.3940141499042511,1,-0.379389644,1,-1.105223656,1
0.455946743,-3.541635036,1,-3.505298138,1,-8.436090469,1,0.001226166,1,0.001556417,1,-0.001292797,1,0.3940091729164124,1,-0.37940222,1,-1.105221152,1
0.459945977,-3.53622961,1,-3.558687687,1,-8.420003891,1,-0.00089229,1,-0.002736141,1,0.002327516,1,0.3940107226371765,1,-0.379406035,1,-1.10522151,1
0.463947773,-3.567986012,1,-3.543626785,1,-8.472085953,1,0.003419002,1,-0.000898794,1,0.00018348,1,0.3940197825431824,1,-0.379410028,1,-1.10521996,1
0.467945486,-3.546556234,1,-3.515733242,1,-8.447486877,1,0.0025752,1,0.001805288,1,0.002750888,1,0.3940344452857971,1,-0.37942034,1,-1.10521698,1
0.47194469,-3.559556007,1,-3.522322416,1,-8.458571434,1,0.003458448,1,-0.006801601,1,-0.002100487,1,0.3940516412258148,1,-0.379432976,1,-1.105219126,1
0.475945979,-3.541856527,1,-3.538410902,1,-8.462435722,1,0.006217074,1,-0.001329818,1,0.000101547,1,0.3940765261650085,1,-0.379446507,1,-1.105220199,1
0.479943424,-3.536667824,1,-3.555653811,1,-8.455412865,1,0.008257256,1,-0.00090253,1,0.002840476,1,0.394108921,1,-0.379449874,1,-1.105223298,1
0.483942658,-3.554330587,1,-3.56065011,1,-8.477017403,1,0.008204094,1,-0.005416025,1,0.002230036,1,0.3941426277160645,1,-0.379460216,1,-1.105219841,1
0.487943947,-3.536216259,1,-3.550933123,1,-8.444312096,1,0.007651583,1,0.002703317,1,0.000380208,1,0.3941750526428223,1,-0.379465491,1,-1.105219364,1
0.491941124,-3.528710365,1,-3.561508656,1,-8.434406281,1,0.003159761,1,-0.002632013,1,0.002742757,1,0.3942068219184875,1,-0.379471064,1,-1.105221272,1
0.495940596,-3.55649209,1,-3.528762341,1,-8.4328022,1,0.013280449,1,0.001449181,1,-0.001005568,1,0.3942357301712036,1,-0.379477292,1,-1.10521102,1
0.499941885,-3.568257809,1,-3.523068428,1,-8.457486153,1,0.009836077,1,0.000261656,1,0.003342408,1,0.3942636251449585,1,-0.379478812,1,-1.10520196,1
0.503939331,-3.526446581,1,-3.566681862,1,-8.433193207,1,0.00609315,1,-0.004587932,1,0.001496987,1,0.3942940235137939,1,-0.379485905,1,-1.105199337,1
0.507938564,-3.546338081,1,-3.556647301,1,-8.440460205,1,0.008558947,1,0.000108568,1,0.00216118,1,0.39432016,1,-0.379494905,1,-1.105188847,1
0.511939824,-3.531602859,1,-3.538306713,1,-8.451223373,1,0.005337056,1,-0.000913719,1,0.001964713,1,0.3943517804145813,1,-0.379493713,1,-1.105183959,1
0.51593703,-3.562628746,1,-3.54277277,1,-8.45510006,1,0.00808196,1,-0.001038674,1,-0.001153937,1,0.3943749070167542,1,-0.379495263,1,-1.105177999,1
0.519936264,-3.553359985,1,-3.560844421,1,-8.436957359,1,0.009407104,1,-0.001444744,1,0.004503796,1,0.3944031000137329,1,-0.379497141,1,-1.105172276,1
0.523937523,-3.542106628,1,-3.548723936,1,-8.463098526,1,0.005278738,1,0.001188719,1,-3.88E-05,1,0.3944233953952789,1,-0.379497021,1,-1.105155945,1
0.527934968,-3.558483601,1,-3.567341805,1,-8.432236671,1,0.002007811,1,-0.001215152,1,0.003613575,1,0.394448847,1,-0.379507065,1,-1.105148435,1
0.531934202,-3.5490098,1,-3.531147242,1,-8.458068848,1,0.007693505,1,0.002565771,1,0.001177906,1,0.3944701552391052,1,-0.379507989,1,-1.105141044,1
0.535935462,-3.508860111,1,-3.532161951,1,-8.433567047,1,0.005502214,1,0.000721767,1,0.000668759,1,0.3944949507713318,1,-0.379501939,1,-1.105131865,1
0.539932907,-3.547876358,1,-3.538088083,1,-8.446015358,1,0.007367322,1,-0.002253411,1,0.00242805,1,0.3945120275020599,1,-0.379505813,1,-1.105113506,1
0.54393214,-3.574844599,1,-3.53487277,1,-8.460661888,1,0.002114546,1,0.002003485,1,0.001463939,1,0.3945242762565613,1,-0.379505694,1,-1.105097651,1
0.547939301,-3.534126759,1,-3.5260396,1,-8.458034515,1,0.00475069,1,-0.004336091,1,-0.000680219,1,0.394544244,1,-0.379512817,1,-1.105093479,1
0.551942885,-3.589664221,1,-3.560420513,1,-8.420354843,1,0.006032941,1,0.003902893,1,0.010076564,1,0.394559771,1,-0.379518867,1,-1.105082035,1
0.555942416,-3.558633804,1,-3.554426432,1,-8.456519127,1,0.004488959,1,0.00142655,1,0.002001191,1,0.3945769965648651,1,-0.379514426,1,-1.105066776,1
0.559943914,-3.545384169,1,-3.54248476,1,-8.447010994,1,0.00504969,1,0.002433226,1,0.00677908,1,0.3945887684822083,1,-0.37951535,1,-1.105050683,1
0.56394136,-3.579096079,1,-3.553732395,1,-8.428020477,1,0.004404886,1,-0.000799965,1,0.00207291,1,0.3946041464805603,1,-0.379521608,1,-1.105031252,1
0.567940593,-3.587014675,1,-3.525683641,1,-8.455348969,1,0.002964608,1,-0.002541183,1,0.001766357,1,0.394623727,1,-0.379521996,1,-1.105020881,1
0.571941912,-3.554623365,1,-3.501905918,1,-8.457383156,1,0.004465664,1,0.002708645,1,-0.000474042,1,0.3946422636508942,1,-0.379515529,1,-1.105009437,1
0.575939357,-3.537339211,1,-3.529058695,1,-8.464132309,1,0.008277229,1,0.001931175,1,0.005212324,1,0.3946609497070313,1,-0.379513025,1,-1.1049968,1
0.579938531,-3.583150864,1,-3.548892021,1,-8.479569435,1,0.007346085,1,0.0039836,1,0.004780564,1,0.3946795463562012,1,-0.379514664,1,-1.104979634,1
0.583940089,-3.604132175,1,-3.545884609,1,-8.454286575,1,0.010442513,1,0.002893982,1,0.004250885,1,0.3947011828422546,1,-0.379512489,1,-1.104962349,1
0.587937534,-3.536349297,1,-3.513418913,1,-8.418552399,1,0.004018282,1,0.000420915,1,0.001193541,1,0.3947276473045349,1,-0.379508018,1,-1.104939938,1
0.591937006,-3.52293849,1,-3.539610386,1,-8.464191437,1,0.004095874,1,0.003134626,1,0.005294403,1,0.3947397172451019,1,-0.379503548,1,-1.104922652,1
0.595938325,-3.584625959,1,-3.535389185,1,-8.464826584,1,0.006132843,1,-0.001552437,1,0.003714944,1,0.3947629630565643,1,-0.379509687,1,-1.104919195,1
0.59993577,-3.578317642,1,-3.515797377,1,-8.452153206,1,0.008615006,1,0.00169825,1,0.000687208,1,0.3947895467281342,1,-0.379512429,1,-1.104901314,1
0.603935242,-3.518273592,1,-3.532565832,1,-8.422831535,1,0.009746185,1,0.00345839,1,-0.003421632,1,0.3948233723640442,1,-0.379508764,1,-1.104899645,1
0.607936502,-3.504338741,1,-3.472295523,1,-8.453300476,1,0.01222918,1,0.000786315,1,-0.001724422,1,0.3948512673377991,1,-0.379503816,1,-1.10488987,1
0.611933708,-3.550329447,1,-3.539014578,1,-8.490730286,1,0.009911341,1,0.003222112,1,0.003319723,1,0.3948840498924255,1,-0.379498601,1,-1.104869723,1
0.615932941,-3.577560425,1,-3.544335842,1,-8.436802864,1,0.012145622,1,0.004192594,1,0.001825162,1,0.3949209451675415,1,-0.379341245,1,-1.10500598,1
0.619934201,-3.599920034,1,-3.562682867,1,-8.419103622,1,0.009299098,1,0.004484391,1,-0.001111044,1,0.3949576020240784,1,-0.37932381,1,-1.104988694,1
0.623931646,-3.545314074,1,-3.55625248,1,-8.444468498,1,0.010573534,1,0.001505536,1,-0.000640135,1,0.3949934840202332,1,-0.3793163,1,-1.104979396,1
0.62793088,-3.504382133,1,-3.537247658,1,-8.45224762,1,0.009986388,1,0.00044362,1,0.003697283,1,0.395025373,1,-0.379312038,1,-1.104962945,1
0.631932139,-3.557832241,1,-3.542986155,1,-8.412975311,1,0.008208949,1,0.002903473,1,-0.00088226,1,0.3950627148151398,1,-0.379297078,1,-1.104953527,1
0.635929585,-3.566948414,1,-3.554283619,1,-8.441337585,1,0.009556675,1,0.002724464,1,0.000274431,1,0.3950979709625244,1,-0.37928918,1,-1.104941368,1
0.639928818,-3.547671556,1,-3.538972378,1,-8.46090889,1,0.012838682,1,0.004010475,1,0.005108935,1,0.3951370716094971,1,-0.37927717,1,-1.104921103,1
0.643936276,-3.538033009,1,-3.539007425,1,-8.419921875,1,0.013169567,1,0.005099359,1,-0.001136695,1,0.3951815962791443,1,-0.379264116,1,-1.104912639,1
0.647939563,-3.535539627,1,-3.556239605,1,-8.453390121,1,0.010149425,1,0.005364761,1,0.003556751,1,0.3952241539955139,1,-0.379254043,1,-1.104899883,1
0.651939094,-3.570493698,1,-3.526142359,1,-8.450896263,1,0.008182004,1,0.003684545,1,0.002405467,1,0.3952656388282776,1,-0.379237711,1,-1.104885578,1
0.655940592,-3.560185432,1,-3.524878502,1,-8.442893982,1,0.012278084,1,0.002530711,1,-0.00257811,1,0.3953070640563965,1,-0.379217803,1,-1.104876041,1
0.659938037,-3.560633421,1,-3.538943291,1,-8.458070755,1,0.011038763,1,0.004892385,1,2.902303822338581e-05,1,0.3953434824943542,1,-0.379199743,1,-1.10485971,1
0.663937271,-3.570522785,1,-3.534986496,1,-8.43927002,1,0.013290348,1,0.003039294,1,0.001598839,1,0.3953929841518402,1,-0.379182547,1,-1.104852438,1
0.667938828,-3.548597813,1,-3.530823708,1,-8.446387291,1,0.012457873,1,0.005147954,1,-0.000650738,1,0.3954412043094635,1,-0.379168391,1,-1.104845285,1
0.671936274,-3.525618553,1,-3.526064157,1,-8.459324837,1,0.013938149,1,0.009341184,1,-0.00101436,1,0.395493746,1,-0.37914288,1,-1.104837298,1
0.675935507,-3.5367136,1,-3.542263031,1,-8.459568977,1,0.014418701,1,0.005898514,1,-0.000239358,1,0.3955405354499817,1,-0.379118264,1,-1.104828596,1
0.679936767,-3.561730623,1,-3.533073187,1,-8.446180344,1,0.014203812,1,0.005833811,1,-0.001349546,1,0.3955945372581482,1,-0.379096836,1,-1.104828954,1
0.683934212,-3.551717281,1,-3.532413244,1,-8.431346893,1,0.01396673,1,0.011936374,1,0.000313377,1,0.3956438004970551,1,-0.379058182,1,-1.104823112,1
0.687933683,-3.528096199,1,-3.523948908,1,-8.460555077,1,0.016150456,1,0.005849483,1,-0.004779912,1,0.3956990242004395,1,-0.379027098,1,-1.104815602,1
0.691935003,-3.555221558,1,-3.518304825,1,-8.503767014,1,0.020939821,1,0.008001864,1,-0.002041229,1,0.3957692086696625,1,-0.378990561,1,-1.104815125,1
0.69593215,-3.553303003,1,-3.500205994,1,-8.45433712,1,0.023808425,1,0.007374675,1,-0.002478905,1,0.3958549499511719,1,-0.378959239,1,-1.104826212,1
0.699931383,-3.572751045,1,-3.536728859,1,-8.472920418,1,0.021009477,1,0.010528889,1,-0.004062981,1,0.3959481716156006,1,-0.378925204,1,-1.104822755,1
0.703932643,-3.563057899,1,-3.540497541,1,-8.451068878,1,0.030015733,1,0.010053659,1,-0.004854765,1,0.3960514664649963,1,-0.378884435,1,-1.104821086,1
0.70792985,-3.568162918,1,-3.548199415,1,-8.434680939,1,0.027970556,1,0.011512404,1,-0.006736585,1,0.3961674571037292,1,-0.378842533,1,-1.104829073,1
0.711929083,-3.552025318,1,-3.504620075,1,-8.451323509,1,0.038537402,1,0.008713827,1,-0.004234822,1,0.3963063061237335,1,-0.37879473,1,-1.104839087,1
0.715930343,-3.568289518,1,-3.565714121,1,-8.447253227,1,0.038078379,1,0.014205795,1,-0.009230783,1,0.3964527249336243,1,-0.378742397,1,-1.104849458,1
0.719927788,-3.543643236,1,-3.519867182,1,-8.46417141,1,0.035428796,1,0.010240018,1,-0.002349211,1,0.3966003060340881,1,-0.378694654,1,-1.104856014,1
0.723927319,-3.535130501,1,-3.530244589,1,-8.4572649,1,0.040011138,1,0.006303673,1,-0.009126918,1,0.3967597186565399,1,-0.378647327,1,-1.104864836,1
0.727928579,-3.586609364,1,-3.577026367,1,-8.425434113,1,0.043057587,1,0.011669077,1,-0.006614232,1,0.3969342112541199,1,-0.378604829,1,-1.104875326,1
0.731926024,-3.551629543,1,-3.499978304,1,-8.42291832,1,0.044509754,1,0.012725148,1,-0.007022846,1,0.3971078097820282,1,-0.378558457,1,-1.104887962,1
0.735925257,-3.543241262,1,-3.590905666,1,-8.429332733,1,0.044228993,1,0.012704046,1,-0.00824316,1,0.3972914814949036,1,-0.378508031,1,-1.10489738,1
0.739926755,-3.45821619,1,-3.589741707,1,-8.412844658,1,0.042485196,1,0.008304827,1,-0.004001544,1,0.3974611759185791,1,-0.378452837,1,-1.104902983,1
0.74393034,-3.556621313,1,-3.521114111,1,-8.433970451,1,0.039672308,1,0.009892067,1,-0.007660108,1,0.3976305425167084,1,-0.378412604,1,-1.104903936,1
0.747929871,-3.527843714,1,-3.589760542,1,-8.440179825,1,0.0424993,1,0.009761329,1,-0.005676279,1,0.3977884650230408,1,-0.378358364,1,-1.104915619,1
0.751931369,-3.568601847,1,-3.54147625,1,-8.441693306,1,0.036046561,1,0.007954087,1,-0.004958568,1,0.3979485034942627,1,-0.378304303,1,-1.104926705,1
0.755928814,-3.519283772,1,-3.597074509,1,-8.394218445,1,0.029370226,1,0.012875611,1,-0.010447563,1,0.3980873823165894,1,-0.37826103,1,-1.104939103,1
0.759928048,-3.533020973,1,-3.562406301,1,-8.443727493,1,0.031730011,1,0.004804815,1,-0.002824189,1,0.3982171714305878,1,-0.378209114,1,-1.10494709,1
0.763929605,-3.544608116,1,-3.611683607,1,-8.43771553,1,0.020562408,1,0.004415958,1,-0.010208914,1,0.3983270823955536,1,-0.37816608,1,-1.104955792,1
0.767927051,-3.546581984,1,-3.598920822,1,-8.428817749,1,0.026155435,1,0.011566378,1,-0.007252785,1,0.3984255790710449,1,-0.378117889,1,-1.104969501,1
0.771926522,-3.554946899,1,-3.641617298,1,-8.402201653,1,0.018113175,1,0.008179177,1,-0.008150065,1,0.3985139131546021,1,-0.378076017,1,-1.104974151,1
0.77592808,-3.513900518,1,-3.635283232,1,-8.437216759,1,0.013963593,1,0.007229342,1,-0.004999691,1,0.3985837697982788,1,-0.378040195,1,-1.104984403,1
0.779925525,-3.541628122,1,-3.657163143,1,-8.436715126,1,0.011177764,1,0.006816876,1,-0.00525716,1,0.3986320495605469,1,-0.37800324,1,-1.104991078,1
0.783924997,-3.544703484,1,-3.668396473,1,-8.40220356,1,0.009468141,1,0.00895864,1,0.002782128,1,0.3986651599407196,1,-0.377966046,1,-1.104990959,1
0.787926257,-3.539938688,1,-3.624014139,1,-8.378350258,1,-0.001321912,1,0.005200493,1,-0.001410442,1,0.3986795544624329,1,-0.377945721,1,-1.104982138,1
0.791923463,-3.508596182,1,-3.652170658,1,-8.424555779,1,-0.004579255,1,0.002025151,1,-0.002554504,1,0.3986710608005524,1,-0.377922237,1,-1.104979038,1
0.795922697,-3.51588583,1,-3.638473511,1,-8.4481287,1,-0.008742698,1,0.006307185,1,-0.000164814,1,0.3986415266990662,1,-0.377908468,1,-1.104975224,1
0.799923956,-3.519487858,1,-3.607747555,1,-8.438955307,1,-0.012170763,1,0.007951779,1,0.003073268,1,0.3985937237739563,1,-0.3778795,1,-1.10495913,1
0.803921402,-3.516986609,1,-3.618180037,1,-8.416236877,1,-0.01394509,1,0.002891879,1,0.002320008,1,0.3985339403152466,1,-0.377865434,1,-1.104944468,1
0.807920635,-3.501570702,1,-3.606607199,1,-8.450371742,1,-0.020793123,1,0.00434434,1,0.007362872,1,0.3984549045562744,1,-0.377861589,1,-1.10491538,1
0.811922193,-3.506865263,1,-3.586349487,1,-8.448925018,1,-0.017819894,1,0.004500628,1,0.006310053,1,0.3983666896820068,1,-0.377857745,1,-1.104888439,1
0.815919876,-3.512972832,1,-3.552695036,1,-8.411396027,1,-0.020330852,1,0.002774512,1,0.007286464,1,0.3982741236686707,1,-0.377861589,1,-1.10486269,1
0.819919109,-3.494940996,1,-3.455881596,1,-8.455899239,1,-0.015039792,1,-0.003130428,1,0.004933127,1,0.3982007503509521,1,-0.3778736,1,-1.104838967,1
0.823920369,-3.517236233,1,-3.418293476,1,-8.552602768,1,-0.002372521,1,-0.00843255,1,0.001746355,1,0.3981682658195496,1,-0.377907157,1,-1.104831457,1
0.827917814,-3.597750902,1,-3.336395741,1,-8.5645504,1,0.001431066,1,-0.004353523,1,0.002410855,1,0.3981707990169525,1,-0.377945065,1,-1.104829431,1
0.831917048,-3.520434618,1,-3.404020071,1,-8.457582474,1,0.002219376,1,-0.010333022,1,-0.003086501,1,0.3981859982013702,1,-0.377968043,1,-1.104838967,1
0.835918605,-3.533372402,1,-3.565257311,1,-8.4876194,1,0.015029516,1,-0.009498764,1,-0.005207639,1,0.39823103,1,-0.377999753,1,-1.104861498,1
0.839921892,-3.525959969,1,-3.575613499,1,-8.444102287,1,0.012670385,1,-0.010077242,1,-0.002137468,1,0.3982928097248077,1,-0.378034264,1,-1.10488832,1
0.843921125,-3.530651331,1,-3.520776272,1,-8.442461014,1,0.016004618,1,-0.014320839,1,0.00119258,1,0.3983584642410278,1,-0.37807554,1,-1.104921818,1
0.847922683,-3.517509699,1,-3.514713526,1,-8.48209095,1,0.019393478,1,-0.011074804,1,-0.001609912,1,0.3984352350234985,1,-0.378120005,1,-1.104945302,1
0.851920128,-3.515586853,1,-3.458612204,1,-8.470088005,1,0.0214475,1,-0.018558398,1,-0.004252765,1,0.3985294103622437,1,-0.378169835,1,-1.104976654,1
0.855919361,-3.515865088,1,-3.482656956,1,-8.474850655,1,0.025506927,1,-0.015812609,1,-0.002865117,1,0.3986393809318542,1,-0.378222346,1,-1.105027318,1
0.859920919,-3.514421225,1,-3.517075539,1,-8.429133415,1,0.027259933,1,-0.017436966,1,-0.007927701,1,0.3987547755241394,1,-0.378283262,1,-1.105074048,1
0.863918364,-3.511312246,1,-3.578965902,1,-8.431438446,1,0.024512146,1,-0.021705078,1,0.001367086,1,0.3988892436027527,1,-0.378203452,1,-1.105163097,1
0.867917836,-3.590227842,1,-3.623639107,1,-8.462968826,1,0.031293906,1,-0.018338025,1,-0.006368831,1,0.3989876806735992,1,-0.378257513,1,-1.105318546,1
0.871919334,-3.555026054,1,-3.548549414,1,-8.449994087,1,0.03189107,1,-0.015513341,1,-0.004195128,1,0.3991372585296631,1,-0.378302157,1,-1.105368376,1
0.875916779,-3.517380476,1,-3.510540724,1,-8.435376167,1,0.034676634,1,-0.017374516,1,-0.003089259,1,0.3992820382118225,1,-0.378351152,1,-1.105409265,1
0.87991631,-3.651571512,1,-3.566054344,1,-8.47759819,1,0.040337507,1,-0.016726006,1,-0.006413127,1,0.3994640111923218,1,-0.378404558,1,-1.105469584,1
0.883917809,-3.492079496,1,-3.561892271,1,-8.419809341,1,0.042642161,1,-0.0119251,1,-0.008875918,1,0.3996525406837463,1,-0.37843591,1,-1.105517507,1
0.887915254,-3.606955051,1,-3.567839146,1,-8.455451965,1,0.045004405,1,-0.013685246,1,-0.011475074,1,0.3998444676399231,1,-0.378473818,1,-1.105575085,1
0.891914725,-3.511302233,1,-3.604889631,1,-8.403004646,1,0.046428442,1,-0.005656628,1,-0.009880876,1,0.4000499248504639,1,-0.378492445,1,-1.105636001,1
0.895916045,-3.56882596,1,-3.640428305,1,-8.402188301,1,0.046834279,1,-0.007646507,1,-0.006811048,1,0.400248796,1,-0.378506571,1,-1.105682969,1
0.89991349,-3.499964714,1,-3.649996996,1,-8.366061211,1,0.0430707,1,-0.003668956,1,-0.007993303,1,0.4004414677619934,1,-0.378510118,1,-1.105724931,1
0.903912723,-3.521921158,1,-3.600092649,1,-8.359656334,1,0.036181666,1,-0.007122234,1,-0.004915958,1,0.4006129503250122,1,-0.378520906,1,-1.105757236,1
0.907913983,-3.501141548,1,-3.557350159,1,-8.404615402,1,0.038126364,1,-0.001906745,1,-0.007332813,1,0.4007721841335297,1,-0.378524542,1,-1.10578692,1
0.911911428,-3.533343792,1,-3.545996904,1,-8.40017128,1,0.040300243,1,-0.0030981,1,-0.005071103,1,0.4009339809417725,1,-0.378527105,1,-1.105820417,1
0.915910661,-3.51657176,1,-3.522475243,1,-8.4161129,1,0.038598128,1,4.539242945611477e-05,1,-0.004632542,1,0.401106209,1,-0.378518939,1,-1.105844378,1
0.919911921,-3.519417524,1,-3.453252316,1,-8.469508171,1,0.047046978,1,0.000411366,1,-0.01063208,1,0.4012919068336487,1,-0.378505945,1,-1.105874777,1
0.923909366,-3.546477318,1,-3.461123705,1,-8.482807159,1,0.053863481,1,0.00011868,1,-0.012473376,1,0.4015084803104401,1,-0.378487259,1,-1.10591352,1
0.927908599,-3.555672646,1,-3.453892231,1,-8.47041893,1,0.065288886,1,0.001881141,1,-0.010754834,1,0.4017658233642578,1,-0.378468871,1,-1.105966091,1
0.931910157,-3.572844505,1,-3.390672684,1,-8.496073723,1,0.074411467,1,-0.00083589,1,-0.019680815,1,0.4020735025405884,1,-0.378447235,1,-1.106027484,1
0.935913444,-3.560587406,1,-3.357196808,1,-8.515441895,1,0.094015159,1,0.002812681,1,-0.022466302,1,0.4024334251880646,1,-0.378413796,1,-1.106110334,1
0.939912677,-3.607476473,1,-3.355393171,1,-8.540435791,1,0.1103707253932953,1,-0.00032724,1,-0.032278452,1,0.4028728306293488,1,-0.378373444,1,-1.106213808,1
0.943914235,-3.594446898,1,-3.361182928,1,-8.53706646,1,0.1229976862668991,1,-0.002021686,1,-0.03996405,1,0.4033860266208649,1,-0.378320038,1,-1.106345654,1
0.94791168,-3.58959341,1,-3.388448715,1,-8.551434517,1,0.1461413651704788,1,0.001089082,1,-0.044670552,1,0.4039821624755859,1,-0.378249824,1,-1.106505752,1
0.951910913,-3.623419523,1,-3.325385332,1,-8.572492599,1,0.1603019833564758,1,0.003483358,1,-0.050013222,1,0.4046704173088074,1,-0.378161609,1,-1.106696248,1
0.955912471,-3.590589285,1,-3.267534494,1,-8.63008213,1,0.1875254809856415,1,0.001639515,1,-0.060352936,1,0.4054442048072815,1,-0.378073633,1,-1.106914878,1
0.959909916,-3.640066147,1,-3.345942736,1,-8.577065468,1,0.2005294412374496,1,0.003242842,1,-0.071429111,1,0.4063117206096649,1,-0.377969801,1,-1.107166052,1
0.963909388,-3.634221554,1,-3.444751263,1,-8.530831337,1,0.2112021595239639,1,-0.001044038,1,-0.072752416,1,0.4072386920452118,1,-0.377851188,1,-1.107448936,1
0.967910647,-3.589334726,1,-3.627475977,1,-8.500209808,1,0.2168946415185928,1,-6.92E-05,1,-0.078468911,1,0.4082134664058685,1,-0.377730608,1,-1.107761264,1
0.971907854,-3.610430241,1,-3.709273338,1,-8.477602959,1,0.2213641703128815,1,0.001955679,1,-0.081699133,1,0.4092113971710205,1,-0.377600431,1,-1.108080506,1
0.975907326,-3.601567268,1,-3.77342248,1,-8.491915703,1,0.215860054,1,-0.00190666,1,-0.083721504,1,0.4102050364017487,1,-0.377461076,1,-1.108406425,1
0.979908586,-3.468259811,1,-3.694050074,1,-8.403897285,1,0.2066021263599396,1,0.005561284,1,-0.088756606,1,0.4111722111701965,1,-0.377314389,1,-1.108736396,1
0.983906031,-3.6583395,1,-3.695597887,1,-8.547626495,1,0.2035569697618484,1,0.001637553,1,-0.090593316,1,0.4121347665786743,1,-0.377149045,1,-1.109080076,1
0.9879058,-3.534672737,1,-4.01042366,1,-8.392053604,1,0.1829111874103546,1,0.004653523,1,-0.086143591,1,0.413024902,1,-0.37700811,1,-1.109422684,1
0.99190706,-3.475651264,1,-3.944787979,1,-8.376182556,1,0.1728422194719315,1,-0.002457258,1,-0.085145257,1,0.4138587117195129,1,-0.376873165,1,-1.109754086,1
0.995904505,-3.538796663,1,-3.98583746,1,-8.295178413,1,0.1542602926492691,1,0.000130498,1,-0.07634341,1,0.414627343,1,-0.376747638,1,-1.110070825,1
0.999903738,-3.472721338,1,-4.048169613,1,-8.330418587,1,0.134950578,1,-0.000805856,1,-0.068524644,1,0.415307492,1,-0.376625657,1,-1.110351801,1
1.003905058,-3.51714468,1,-4.04086256,1,-8.309463501,1,0.1268943846225739,1,-0.000877205,1,-0.062032782,1,0.4159325063228607,1,-0.376524419,1,-1.110617876,1
1.007902503,-3.572186232,1,-4.010582447,1,-8.331798553,1,0.1148904711008072,1,0.000315671,1,-0.057653621,1,0.4164955019950867,1,-0.376423627,1,-1.110849857,1
1.011901736,-3.528452396,1,-4.047221184,1,-8.290334702,1,0.1058289706707001,1,0.004020068,1,-0.049896169,1,0.4170116782188416,1,-0.376327366,1,-1.111063004,1
1.015902996,-3.536794424,1,-4.026809216,1,-8.31851387,1,0.09593536,1,0.006771364,1,-0.045808822,1,0.4174823760986328,1,-0.376226574,1,-1.11123836,1
1.019900441,-3.542890549,1,-4.082174778,1,-8.281064987,1,0.097247027,1,0.008803634,1,-0.034898423,1,0.4179199039936066,1,-0.37612763,1,-1.11138618,1
1.023899674,-3.524359703,1,-3.966011763,1,-8.297683716,1,0.083670072,1,0.014644219,1,-0.020575898,1,0.4183025360107422,1,-0.376047134,1,-1.111474752,1
1.027901173,-3.538127422,1,-3.908482313,1,-8.374843597,1,0.079194382,1,0.020718601,1,-0.017730683,1,0.4186451435089111,1,-0.375950754,1,-1.111513615,1
1.031898618,-3.639817953,1,-3.887059927,1,-8.430276871,1,0.079282068,1,0.021482121,1,-0.007210975,1,0.4189654886722565,1,-0.375855565,1,-1.11152494,1
1.03590405,-3.545783281,1,-3.741062641,1,-8.46681118,1,0.075925946,1,0.02565407,1,0.001701312,1,0.4192571640014648,1,-0.375764042,1,-1.1114887,1
1.039905548,-3.631639242,1,-3.808773518,1,-8.468378067,1,0.073521875,1,0.031264145,1,0.007478927,1,0.4195287823677063,1,-0.375671983,1,-1.111417174,1
1.043902993,-3.64750886,1,-3.770610332,1,-8.488314629,1,0.074837558,1,0.034292713,1,0.015491236,1,0.4197944700717926,1,-0.375573158,1,-1.111319542,1
1.047902226,-3.706221104,1,-3.870524883,1,-8.446407318,1,0.07381399,1,0.042214047,1,0.019161081,1,0.4200379550457001,1,-0.375460148,1,-1.111186743,1
1.051903486,-3.787976265,1,-4.047721863,1,-8.446297646,1,0.063476332,1,0.048738305,1,0.023141982,1,0.4202457666397095,1,-0.375328213,1,-1.111024022,1
1.055900931,-3.876545429,1,-4.147265911,1,-8.339801788,1,0.051348127,1,0.071150787,1,0.020024318,1,0.4204017519950867,1,-0.375148118,1,-1.110821128,1
1.059900403,-3.629155636,1,-4.210199356,1,-8.253783226,1,0.048369478,1,0.081280448,1,0.011748334,1,0.4205401539802551,1,-0.374886632,1,-1.110628247,1
1.063901901,-3.582517624,1,-4.111927509,1,-8.423459053,1,0.022660533,1,0.073079959,1,0.010374558,1,0.420629621,1,-0.374614,1,-1.110439301,1
1.067899346,-3.819951296,1,-4.199532986,1,-8.31454277,1,0.013834741,1,0.084013797,1,-4.65E-05,1,0.4206313490867615,1,-0.374334216,1,-1.110274076,1
1.071898937,-4.494092464,1,-4.461958408,1,-8.498836517,1,0.003620409,1,0.1150905266404152,1,-0.043816801,1,0.4206317365169525,1,-0.373944342,1,-1.110182643,1
1.075900197,-4.067964077,1,-4.469206333,1,-8.315643311,1,-0.001553285,1,0.1513431221246719,1,-0.068521932,1,0.4206241965293884,1,-0.373355746,1,-1.110156655,1
1.079897642,-3.692703962,1,-4.382787228,1,-8.230052948,1,-0.022938035,1,0.1562739014625549,1,-0.070847481,1,0.4205807149410248,1,-0.372673512,1,-1.110162973,1
1.083896875,-3.450458288,1,-4.322216511,1,-8.160942078,1,-0.053273078,1,0.1572093069553375,1,-0.060880728,1,0.4204312264919281,1,-0.371993452,1,-1.110151887,1
1.087898135,-3.526466846,1,-4.35050106,1,-8.267204285,1,-0.074855253,1,0.1543186604976654,1,-0.046518836,1,0.4201496243476868,1,-0.371343791,1,-1.110093355,1
1.09189558,-3.809884548,1,-4.450290203,1,-8.497282028,1,-0.094793454,1,0.1403636783361435,1,-0.020986397,1,0.4197509586811066,1,-0.370729744,1,-1.109972358,1
1.095895052,-3.612254143,1,-4.344286442,1,-8.30761528,1,-0.119440272,1,0.1522669941186905,1,-0.01748365,1,0.4192991554737091,1,-0.370216966,1,-1.109790206,1
1.099896312,-3.727334023,1,-4.450825214,1,-8.239357948,1,-0.152497292,1,0.1789098680019379,1,-0.015766364,1,0.41866973,1,-0.36957562,1,-1.109571218,1
1.103893757,-3.596970558,1,-4.45279026,1,-8.238158226,1,-0.187689692,1,0.1873934417963028,1,-0.005251062,1,0.4178852140903473,1,-0.368884981,1,-1.109289169,1
1.10789299,-3.565438271,1,-4.532867432,1,-8.212794304,1,-0.221747011,1,0.1937882900238037,1,0.008934502,1,0.4169525802135468,1,-0.368191242,1,-1.108946919,1
1.111894488,-3.522890568,1,-4.701424122,1,-8.228010178,1,-0.263176918,1,0.1896076798439026,1,0.028960142,1,0.4158465266227722,1,-0.367526114,1,-1.108544111,1
1.115891933,-3.503711939,1,-4.814822674,1,-8.257342339,1,-0.314977735,1,0.1879056692123413,1,0.052424669,1,0.4146971106529236,1,-0.366840303,1,-1.10798943,1
1.119891167,-3.505130053,1,-4.901449203,1,-8.237103462,1,-0.378204703,1,0.1861752420663834,1,0.081971206,1,0.4130983352661133,1,-0.366265386,1,-1.107414007,1
1.123892784,-3.595740557,1,-5.007439613,1,-8.220024109,1,-0.442627698,1,0.1863345950841904,1,0.1112387999892235,1,0.4112032949924469,1,-0.365732521,1,-1.106720567,1
1.127890468,-3.699338913,1,-5.238462925,1,-8.294371605,1,-0.524491072,1,0.1901105046272278,1,0.1409356594085693,1,0.4089800417423248,1,-0.365246117,1,-1.10589695,1
1.131895781,-3.78177309,1,-5.464301109,1,-8.308819771,1,-0.604819655,1,0.2041668742895126,1,0.179475263,1,0.4063793420791626,1,-0.364775211,1,-1.104925394,1
1.135897398,-3.919779539,1,-5.648903847,1,-8.519637108,1,-0.704286337,1,0.2133447825908661,1,0.2234763652086258,1,0.4033621847629547,1,-0.36432445,1,-1.103783965,1
1.139894843,-3.672549725,1,-6.081837177,1,-8.721809387,1,-0.83229506,1,0.2179786711931229,1,0.2734850645065308,1,0.399828315,1,-0.363918245,1,-1.102451205,1
1.143894315,-3.562003136,1,-7.49544239,1,-9.080932617,1,-1.050954461,1,0.2012829184532166,1,0.3741119205951691,1,0.3954908549785614,1,-0.363651931,1,-1.100849986,1
1.147895575,-3.786562204,1,-8.603292465,1,-8.991306305,1,-1.281200528,1,0.222159132,1,0.5131895542144775,1,0.3900713324546814,1,-0.363551944,1,-1.098751903,1
1.15189302,-3.744775295,1,-7.401315212,1,-8.223690033,1,-1.375022054,1,0.2545148134231567,1,0.6040698885917664,1,0.3837811350822449,1,-0.363514751,1,-1.096136928,1
1.155892491,-2.96428895,1,-7.647427082,1,-8.915863037,1,-1.531388402,1,0.2253366410732269,1,0.6785951256752014,1,0.3769685626029968,1,-0.363563299,1,-1.093204737,1
1.15989399,-2.109475851,1,-8.796767235,1,-9.32719326,1,-1.781180382,1,0.1426821202039719,1,0.7981440424919128,1,0.3691795468330383,1,-0.363950551,1,-1.089979053,1
1.163891435,-2.317228556,1,-8.760597229,1,-8.637028694,1,-1.950361252,1,0.100497194,1,0.9100967049598694,1,0.3604163825511932,1,-0.364711493,1,-1.086374521,1
1.167890668,-2.910153151,1,-8.397526741,1,-8.490555763,1,-2.104438782,1,0.030457526,1,1.003911733627319,1,0.3508815169334412,1,-0.365789771,1,-1.082422972,1
1.171891928,-4.861150742,1,-8.626526833,1,-8.098754883,1,-2.233366728,1,-0.040173631,1,1.074968338012695,1,0.3406860828399658,1,-0.36721018,1,-1.078228712,1
1.175889373,-6.320080757,1,-8.583441734,1,-7.290718079,1,-2.280951977,1,-0.126244918,1,1.123581528663635,1,0.3300856351852417,1,-0.368965209,1,-1.073891282,1
1.179888606,-7.311420918,1,-8.754999161,1,-6.388728619,1,-2.291251183,1,-0.195504695,1,1.164867997169495,1,0.3193411827087402,1,-0.37102592,1,-1.069461346,1
1.183889866,-8.75067234,1,-9.42848587,1,-5.804675579,1,-2.34438014,1,-0.326291561,1,1.243322610855103,1,0.3084368109703064,1,-0.373490036,1,-1.064887404,1
1.187887669,-9.261611938,1,-9.192108154,1,-6.487791538,1,-2.475549698,1,-0.568921506,1,1.252054333686829,1,0.2970923185348511,1,-0.376643479,1,-1.060271263,1
1.191886902,-11.8446703,1,-6.98143959,1,-14.2213459,1,-2.416421652,1,-1.31856823,1,1.101927876472473,1,0.2859493494033813,1,-0.381471455,1,-1.056575775,1
1.195888162,-20.32271004,1,-13.08435917,1,-17.98599815,1,-2.867387772,1,-1.595536351,1,1.044355273246765,1,0.2744712829589844,1,-0.388576448,1,-1.053868771,1
1.199885607,-14.89056492,1,-13.79888344,1,-9.197010994,1,-3.049850702,1,-0.82867521,1,0.7390626668930054,1,0.2616879940032959,1,-0.394325107,1,-1.051549911,1
1.20388484,-7.756108761,1,-10.06348705,1,-7.960863113,1,-3.423039675,1,-0.426351398,1,0.5153272747993469,1,0.2480928599834442,1,-0.397241592,1,-1.049622655,1
1.207886338,-6.683979988,1,-6.401648998,1,-8.344290733,1,-3.658607244,1,-0.094489574,1,0.2637441456317902,1,0.2332568168640137,1,-0.398625255,1,-1.048241615,1
1.211883783,-6.573665619,1,-4.903699398,1,-9.070825577,1,-3.491759777,1,0.054832444,1,0.1453124433755875,1,0.2185913175344467,1,-0.398825109,1,-1.0474087,1
1.215883017,-5.340651035,1,-3.613861561,1,-10.25910568,1,-3.159862757,1,-0.003227551,1,0.065145724,1,0.205083892,1,-0.398746967,1,-1.046941519,1
1.219884515,-3.791175365,1,-2.662838459,1,-10.25543022,1,-2.760034084,1,-0.24054189,1,-0.013662644,1,0.1932353675365448,1,-0.399228275,1,-1.046928883,1
1.22388196,-2.489070892,1,-2.906455278,1,-8.724393845,1,-2.34251976,1,-0.485586941,1,-0.084418826,1,0.1832356750965118,1,-0.400629938,1,-1.047439933,1
1.227881193,-1.853518844,1,-3.582050323,1,-7.618600845,1,-1.958280563,1,-0.677817225,1,-0.110482663,1,0.1749788224697113,1,-0.402872205,1,-1.048307896,1
1.231882811,-1.782265663,1,-4.511795998,1,-7.064820766,1,-1.617791772,1,-0.818175256,1,-0.143109098,1,0.168270007,1,-0.405740261,1,-1.049410105,1
1.235880136,-2.091501236,1,-5.289787292,1,-7.272200584,1,-1.324139476,1,-0.94350487,1,-0.165414006,1,0.1629065722227097,1,-0.40911603,1,-1.0506953,1
1.239879727,-2.445945024,1,-6.385115623,1,-7.508709431,1,-1.142428994,1,-1.066259503,1,-0.173619464,1,0.1585760414600372,1,-0.412982196,1,-1.05213809,1
1.243880987,-2.57875371,1,-7.626970768,1,-7.621973991,1,-1.069595337,1,-1.176029325,1,-0.163961902,1,0.1547868549823761,1,-0.417310834,1,-1.053645372,1
1.247878432,-2.644377947,1,-8.39119339,1,-7.593461037,1,-1.08660531,1,-1.242359519,1,-0.137675598,1,0.1510910093784332,1,-0.422017276,1,-1.055106521,1
1.251877904,-2.570930958,1,-8.526043892,1,-7.730042458,1,-1.149632692,1,-1.267387033,1,-0.117839053,1,0.1471934020519257,1,-0.426914871,1,-1.056474328,1
1.255879164,-2.530134916,1,-8.168148041,1,-8.143708229,1,-1.208657146,1,-1.262388825,1,-0.109498881,1,0.1430157572031021,1,-0.431861609,1,-1.057770252,1
1.25987637,-2.730587482,1,-7.925266743,1,-8.505011559,1,-1.248976707,1,-1.226841569,1,-0.108030625,1,0.1386193484067917,1,-0.436736822,1,-1.059021115,1
1.263875842,-3.015435696,1,-7.541322708,1,-8.702297211,1,-1.242083073,1,-1.15784204,1,-0.101709738,1,0.1341430991888046,1,-0.441409469,1,-1.060204864,1
1.267877102,-2.914731979,1,-6.959725857,1,-8.997596741,1,-1.213931084,1,-1.082598925,1,-0.098371565,1,0.1296989023685455,1,-0.445812732,1,-1.061303496,1
1.271874785,-3.254803896,1,-6.451080322,1,-9.229584694,1,-1.162956476,1,-0.975805461,1,-0.09527196,1,0.1253612786531448,1,-0.449861288,1,-1.062303901,1
1.275874257,-3.33898139,1,-5.979904652,1,-9.352151871,1,-1.080279112,1,-0.832975984,1,-0.100998558,1,0.1212689131498337,1,-0.4534069,1,-1.063233733,1
1.279875636,-3.303050518,1,-5.782512665,1,-9.389614105,1,-0.973451078,1,-0.688022971,1,-0.091007322,1,0.1175204589962959,1,-0.456390232,1,-1.064065337,1
1.28387332,-3.018332243,1,-5.797099113,1,-9.330178261,1,-0.886885881,1,-0.548732817,1,-0.074897669,1,0.114106648,1,-0.458804131,1,-1.06475091,1
1.287872553,-2.594987392,1,-5.888182163,1,-9.151101112,1,-0.812030911,1,-0.408467531,1,-0.038839854,1,0.1109370365738869,1,-0.460686415,1,-1.065243721,1
1.291873813,-2.082903624,1,-5.993978024,1,-8.912303925,1,-0.759115458,1,-0.29508239,1,0.011913894,1,0.1079018712043762,1,-0.462088525,1,-1.065478325,1
1.295871496,-1.739218354,1,-5.983372211,1,-8.770013809,1,-0.72582382,1,-0.190050989,1,0.067215115,1,0.1049105599522591,1,-0.463060826,1,-1.065416932,1
1.299870729,-1.549842596,1,-5.884130478,1,-8.64166069,1,-0.692577899,1,-0.091841385,1,0.1096229255199432,1,0.1019202470779419,1,-0.463661581,1,-1.065085173,1
1.303872228,-1.46510303,1,-5.628629684,1,-8.55960083,1,-0.649272084,1,-0.002672587,1,0.1514688730239868,1,0.098980516,1,-0.463902414,1,-1.064518452,1
1.307869673,-1.387562871,1,-5.449509621,1,-8.398758888,1,-0.602667034,1,0.074455447,1,0.1716566979885101,1,0.096139692,1,-0.463829577,1,-1.063785434,1
1.311868906,-1.321931839,1,-5.398306847,1,-8.204161644,1,-0.532104969,1,0.1400251388549805,1,0.1841942369937897,1,0.09348806,1,-0.463474035,1,-1.062952638,1
1.315870523,-1.304962397,1,-5.347023487,1,-7.992136955,1,-0.454742104,1,0.2042130827903748,1,0.1717935055494308,1,0.091124326,1,-0.462845862,1,-1.062088251,1
1.319867849,-1.340091705,1,-5.352440357,1,-7.871706486,1,-0.382306069,1,0.2518781721591949,1,0.1485844552516937,1,0.089098036,1,-0.461981922,1,-1.061281919,1
1.323867083,-1.402385712,1,-5.483516216,1,-7.701019764,1,-0.304469258,1,0.2944780290126801,1,0.1092545688152313,1,0.087422304,1,-0.460936964,1,-1.060595989,1
1.327874541,-1.384242415,1,-5.66753149,1,-7.540970802,1,-0.233662009,1,0.3149759471416473,1,0.054721165,1,0.086131625,1,-0.459744245,1,-1.060108066,1
1.331877947,-1.427872777,1,-5.709784031,1,-7.422268391,1,-0.166156992,1,0.3300054371356964,1,-0.012153341,1,0.085236929,1,-0.458461821,1,-1.059885621,1
1.335877657,-1.483802915,1,-5.800656319,1,-7.233766079,1,-0.107999347,1,0.3312914073467255,1,-0.093912058,1,0.084728159,1,-0.45712477,1,-1.059995174,1
1.339879155,-1.633150101,1,-5.811995029,1,-7.113751411,1,-0.060170058,1,0.320024163,1,-0.192124456,1,0.084622569,1,-0.455784976,1,-1.060503364,1
1.343876839,-1.754330397,1,-5.863460064,1,-6.931177139,1,-0.011723868,1,0.3076926469802856,1,-0.307621062,1,0.084916733,1,-0.454443038,1,-1.061486006,1
1.34787631,-1.818961024,1,-5.982902527,1,-6.794472218,1,0.018843461,1,0.2938151061534882,1,-0.424015343,1,0.085590281,1,-0.453116328,1,-1.062990069,1
1.351877689,-1.912570596,1,-6.048376083,1,-6.779229641,1,0.038444955,1,0.2637965977191925,1,-0.550304353,1,0.086612307,1,-0.451827526,1,-1.065046549,1
1.355874777,-1.851498961,1,-6.189734936,1,-6.580519199,1,0.035125628,1,0.2275906801223755,1,-0.677609444,1,0.087907061,1,-0.450631678,1,-1.067676902,1
1.359880209,-1.840496778,1,-6.203688622,1,-6.465731144,1,0.026921924,1,0.1760977059602737,1,-0.810013235,1,0.08943145,1,-0.449562162,1,-1.070894718,1
1.363881707,-1.856136084,1,-6.145625114,1,-6.330796242,1,0.019578367,1,0.1195071712136269,1,-0.942761242,1,0.09117683,1,-0.448652029,1,-1.074703097,1
1.367879391,-1.89715898,1,-6.040047169,1,-6.328780651,1,0.016619818,1,0.068975806,1,-1.0762918,1,0.093146473,1,-0.447886765,1,-1.07913506,1
1.371878862,-2.117578983,1,-5.878020287,1,-6.3820858,1,0.026848422,1,0.004899654,1,-1.216972113,1,0.095419727,1,-0.447318912,1,-1.08418417,1
1.375880241,-2.28676343,1,-5.873967648,1,-6.432921886,1,0.036102839,1,-0.057303187,1,-1.361834288,1,0.098016441,1,-0.4469302,1,-1.08989203,1
1.379877687,-2.465039253,1,-5.793580532,1,-6.380630016,1,0.055580039,1,-0.111495607,1,-1.501321793,1,0.1009507775306702,1,-0.446694463,1,-1.09625113,1
1.383877158,-2.618593693,1,-5.79485321,1,-6.488229752,1,0.069272257,1,-0.157120451,1,-1.635022402,1,0.1042260006070137,1,-0.4465909,1,-1.103233457,1
1.387878418,-2.823088408,1,-5.832055569,1,-6.556886673,1,0.081146836,1,-0.20179528,1,-1.762711644,1,0.1078110560774803,1,-0.446583688,1,-1.110814095,1
1.391875863,-2.997102976,1,-5.839358807,1,-6.62576437,1,0.083059825,1,-0.242958724,1,-1.879542947,1,0.111661285,1,-0.446670055,1,-1.118961215,1
1.395875096,-3.096754313,1,-5.77229023,1,-6.681526661,1,0.09155564,1,-0.275834501,1,-1.986707687,1,0.1157576218247414,1,-0.446827173,1,-1.127625227,1
1.399876595,-3.178094864,1,-5.650375366,1,-6.75283432,1,0.098822623,1,-0.309761673,1,-2.085744143,1,0.1200742274522781,1,-0.447037041,1,-1.136739492,1
1.40387404,-3.32384038,1,-5.491394043,1,-6.822621822,1,0.1183697357773781,1,-0.343814313,1,-2.173158884,1,0.1246351525187492,1,-0.447299033,1,-1.146291614,1
1.407873273,-3.502339602,1,-5.29783392,1,-6.947821617,1,0.1424930989742279,1,-0.371342659,1,-2.252856731,1,0.1294551640748978,1,-0.447597533,1,-1.156234741,1
1.411874771,-3.729515791,1,-5.186298847,1,-7.023033619,1,0.1775176823139191,1,-0.396710575,1,-2.32473588,1,0.1345598995685577,1,-0.447926521,1,-1.166525602,1
1.415872216,-3.963232279,1,-5.101303101,1,-7.057822227,1,0.2196566164493561,1,-0.415961385,1,-2.390445471,1,0.1399600654840469,1,-0.44824332,1,-1.177142262,1
1.419871449,-4.143256664,1,-5.070414543,1,-7.16159296,1,0.2528775930404663,1,-0.420329422,1,-2.446074247,1,0.1456252932548523,1,-0.448520392,1,-1.188029051,1
1.423878908,-4.301057339,1,-5.05083704,1,-7.232308865,1,0.2910367846488953,1,-0.423541635,1,-2.491606951,1,0.1515349447727203,1,-0.448734939,1,-1.199141026,1
1.427882552,-4.334700108,1,-5.013075352,1,-7.277647018,1,0.3212796151638031,1,-0.428436458,1,-2.524825811,1,0.1576615571975708,1,-0.448866487,1,-1.210442781,1
1.431882262,-4.419817448,1,-4.932168007,1,-7.358896255,1,0.3539061546325684,1,-0.426133543,1,-2.5554111,1,0.1639812737703323,1,-0.448930591,1,-1.221882343,1
1.435883522,-4.509811401,1,-4.900699615,1,-7.405861378,1,0.388183981,1,-0.425923824,1,-2.576001883,1,0.1704811006784439,1,-0.448898405,1,-1.233431935,1
1.439880967,-4.590753078,1,-4.891312122,1,-7.474357128,1,0.4228783547878265,1,-0.428122938,1,-2.590331316,1,0.1771441847085953,1,-0.44878909,1,-1.245051742,1
1.443880439,-4.693830013,1,-4.958165169,1,-7.525865078,1,0.4459618330001831,1,-0.423049301,1,-2.592118502,1,0.183938593,1,-0.448600233,1,-1.256701112,1
1.447881699,-4.771074772,1,-5.092521191,1,-7.498492241,1,0.4614457786083221,1,-0.420882136,1,-2.595883131,1,0.1908121258020401,1,-0.448326677,1,-1.268367052,1
1.451878905,-4.808015347,1,-5.122618198,1,-7.572222233,1,0.4715085029602051,1,-0.412066817,1,-2.595493555,1,0.1977306753396988,1,-0.447956204,1,-1.280028224,1
1.455878377,-4.946215153,1,-5.082470417,1,-7.601500034,1,0.4838859140872955,1,-0.395288795,1,-2.598031044,1,0.2046855539083481,1,-0.447466671,1,-1.291681528,1
1.459879994,-4.981554031,1,-5.026011467,1,-7.681377411,1,0.5043201446533203,1,-0.385104448,1,-2.600832224,1,0.2116903513669968,1,-0.446850151,1,-1.303314805,1
1.463877678,-5.082158089,1,-5.063383579,1,-7.785618782,1,0.5203738808631897,1,-0.367145061,1,-2.609802961,1,0.218758225,1,-0.446089149,1,-1.314956903,1
1.467876911,-5.10216713,1,-5.124878407,1,-7.776170731,1,0.5524401664733887,1,-0.338659137,1,-2.619835138,1,0.2259267419576645,1,-0.445162743,1,-1.326611519,1
1.471878409,-5.112636566,1,-5.069963455,1,-7.828337669,1,0.5793330073356628,1,-0.320960075,1,-2.637020111,1,0.2332011163234711,1,-0.444056541,1,-1.338285327,1
1.475876093,-5.132377148,1,-5.151062489,1,-7.873533726,1,0.601712704,1,-0.291528642,1,-2.652603626,1,0.2405869215726852,1,-0.442762226,1,-1.349985361,1
1.479875326,-5.063750267,1,-5.252913475,1,-7.835497856,1,0.6186381578445435,1,-0.275384635,1,-2.671233416,1,0.2480518668889999,1,-0.441272914,1,-1.361715317,1
1.483876586,-5.008880138,1,-5.336370468,1,-7.756703854,1,0.628056526,1,-0.253875941,1,-2.697945833,1,0.2555810809135437,1,-0.439622402,1,-1.373510718,1
1.487874269,-4.871769428,1,-5.361567974,1,-7.738425732,1,0.632813573,1,-0.241457164,1,-2.727802515,1,0.2631309926509857,1,-0.437792569,1,-1.385365129,1
1.491873503,-4.759964466,1,-5.334440708,1,-7.694660187,1,0.6319797039031982,1,-0.237203419,1,-2.750598431,1,0.2707155346870422,1,-0.435823619,1,-1.397310495,1
1.49587512,-4.700919628,1,-5.309409142,1,-7.658075809,1,0.6486319899559021,1,-0.246040761,1,-2.781987906,1,0.2783347368240356,1,-0.433745563,1,-1.409345269,1
1.499872565,-4.696296215,1,-5.247657299,1,-7.629301071,1,0.6642251014709473,1,-0.252121955,1,-2.827690601,1,0.2860598564147949,1,-0.431573272,1,-1.421514988,1
1.503871799,-4.684502602,1,-5.192220211,1,-7.647348404,1,0.6831740140914917,1,-0.258214474,1,-2.867457628,1,0.2938920855522156,1,-0.429299176,1,-1.433842897,1
1.507873297,-4.690766335,1,-5.236130714,1,-7.647475243,1,0.7059382796287537,1,-0.270928741,1,-2.917618752,1,0.3018594682216644,1,-0.426924288,1,-1.446350694,1
1.511870742,-4.684633732,1,-5.286935329,1,-7.694559097,1,0.7275528907775879,1,-0.283302337,1,-2.96895647,1,0.3099752068519592,1,-0.424440145,1,-1.459039807,1
1.515869975,-4.668549538,1,-5.261238575,1,-7.76845026,1,0.7528455257415771,1,-0.294137418,1,-3.019737482,1,0.3182188868522644,1,-0.421838343,1,-1.471917152,1
1.519871473,-4.745326519,1,-5.25073719,1,-7.831048012,1,0.7747114896774292,1,-0.305416524,1,-3.074771643,1,0.3266146183013916,1,-0.419111758,1,-1.484992266,1
1.52387476,-4.780939579,1,-5.24316597,1,-7.913611412,1,0.785927951,1,-0.305769116,1,-3.126945496,1,0.335113525,1,-0.41623652,1,-1.49826324,1
1.527874351,-4.806738377,1,-5.238615036,1,-8.009541512,1,0.8103374838829041,1,-0.306643337,1,-3.18357873,1,0.3437187671661377,1,-0.413196087,1,-1.51171267,1
1.531875849,-4.787302017,1,-5.227198601,1,-8.055492401,1,0.820074737,1,-0.310307205,1,-3.22990489,1,0.3524216115474701,1,-0.409976691,1,-1.525332808,1
1.535873294,-4.749634743,1,-5.121763229,1,-8.079751015,1,0.8310292959213257,1,-0.308453083,1,-3.279712915,1,0.3611868321895599,1,-0.406578898,1,-1.539101481,1
1.539872766,-4.65596056,1,-5.092294693,1,-8.155963898,1,0.8430402874946594,1,-0.317732155,1,-3.320195436,1,0.3700000643730164,1,-0.403022081,1,-1.552995205,1
1.543874025,-4.591799259,1,-5.007445335,1,-8.167085648,1,0.8526099324226379,1,-0.317726314,1,-3.355870724,1,0.3788493871688843,1,-0.399316877,1,-1.566998005,1
1.547871232,-4.540161133,1,-4.888293743,1,-8.271777153,1,0.8648467659950256,1,-0.333304197,1,-3.387237072,1,0.3877415060997009,1,-0.395475328,1,-1.581096172,1
1.551870704,-4.536254883,1,-4.720461845,1,-8.295564651,1,0.8881424069404602,1,-0.343201399,1,-3.415261745,1,0.3966880142688751,1,-0.391517162,1,-1.595269322,1
1.555871964,-4.574831963,1,-4.524442196,1,-8.437111855,1,0.9152033925056458,1,-0.354463696,1,-3.439888716,1,0.4056960642337799,1,-0.387449831,1,-1.609501362,1
1.559869409,-4.578233242,1,-4.386063576,1,-8.570037842,1,0.9529416561126709,1,-0.358928919,1,-3.462830067,1,0.4148078262805939,1,-0.38324824,1,-1.623782635,1
1.56386888,-4.624896526,1,-4.384365082,1,-8.732885361,1,0.9847950339317322,1,-0.368821859,1,-3.48765111,1,0.4240062832832336,1,-0.37891984,1,-1.638094902,1
1.567870259,-4.724146366,1,-4.339657307,1,-8.866642952,1,1.021713852882385,1,-0.364704996,1,-3.505120993,1,0.4332960247993469,1,-0.374442935,1,-1.652432203,1
1.571867704,-4.844502926,1,-4.305193424,1,-9.001163483,1,1.041653394699097,1,-0.350301623,1,-3.523529768,1,0.4426328837871552,1,-0.369777441,1,-1.666754007,1
1.575866938,-4.839100838,1,-4.29473114,1,-9.117753029,1,1.050821185,1,-0.341553837,1,-3.533568859,1,0.4519545435905457,1,-0.364922434,1,-1.68104434,1
1.579868197,-4.8616395,1,-4.239868164,1,-9.229862213,1,1.055795669555664,1,-0.32213828,1,-3.545496702,1,0.4612148404121399,1,-0.359873176,1,-1.695261002,1
1.583865643,-4.831292629,1,-4.262633801,1,-9.325761795,1,1.043825030326843,1,-0.299717963,1,-3.549234867,1,0.4703594446182251,1,-0.354611695,1,-1.709386945,1
1.587864876,-4.805736065,1,-4.19824934,1,-9.344175339,1,1.033247828483582,1,-0.282117218,1,-3.545816898,1,0.4793480038642883,1,-0.349165142,1,-1.723397493,1
1.591866374,-4.746021748,1,-4.101251125,1,-9.376626015,1,1.014913320541382,1,-0.263511866,1,-3.536341906,1,0.4881474077701569,1,-0.343541026,1,-1.73727572,1
1.595863819,-4.734620094,1,-4.014609814,1,-9.4063797,1,1.001255631446838,1,-0.249398217,1,-3.529567003,1,0.4967650473117828,1,-0.337763339,1,-1.750998139,1
1.599863052,-4.733843327,1,-3.839163303,1,-9.383075714,1,0.9839184284210205,1,-0.23574917,1,-3.513382196,1,0.5052006244659424,1,-0.331850052,1,-1.764575601,1
1.603864551,-4.700086117,1,-3.856241465,1,-9.350703239,1,0.961071789,1,-0.222814068,1,-3.501104832,1,0.5134224891662598,1,-0.325812727,1,-1.777984023,1
1.607861996,-4.670348644,1,-3.845518351,1,-9.375188828,1,0.9353517889976501,1,-0.209149778,1,-3.479315519,1,0.5214096307754517,1,-0.31966871,1,-1.791228294,1
1.611861467,-4.623173237,1,-3.802302122,1,-9.377314568,1,0.9073794484138489,1,-0.195183784,1,-3.46017313,1,0.5291640758514404,1,-0.313410074,1,-1.804290533,1
1.615863085,-4.61925745,1,-3.641342163,1,-9.36329937,1,0.8829666972160339,1,-0.183490038,1,-3.442764759,1,0.5366373062133789,1,-0.307033479,1,-1.817303896,1
1.619866371,-4.691654205,1,-3.54993701,1,-9.372467995,1,0.8595614433288574,1,-0.161093056,1,-3.433967352,1,0.5439337491989136,1,-0.300553769,1,-1.830028296,1
1.623865843,-4.659719467,1,-3.56202364,1,-9.304471016,1,0.8301220536231995,1,-0.143602267,1,-3.421347857,1,0.5509999990463257,1,-0.293944418,1,-1.842600703,1
1.627867341,-4.558945656,1,-3.605791807,1,-9.209524155,1,0.7896040678024292,1,-0.130643561,1,-3.415343761,1,0.5578011274337769,1,-0.287197322,1,-1.85504508,1
1.631864786,-4.477230549,1,-3.719377041,1,-9.120257378,1,0.735226572,1,-0.106503896,1,-3.399393559,1,0.5642931461334229,1,-0.280336767,1,-1.867328644,1
1.635864377,-4.317232132,1,-3.813240051,1,-8.978872299,1,0.6681907176971436,1,-0.092095286,1,-3.38535738,1,0.5704178214073181,1,-0.273375034,1,-1.879448891,1
1.639865875,-4.214144707,1,-3.687484741,1,-8.900678635,1,0.6058189272880554,1,-0.071411863,1,-3.362629652,1,0.5761517882347107,1,-0.266329288,1,-1.891400933,1
1.64386332,-4.145129681,1,-3.523401022,1,-8.825167656,1,0.5477481484413147,1,-0.052569363,1,-3.344669342,1,0.5815140604972839,1,-0.259198397,1,-1.90316987,1
1.647862792,-4.091026783,1,-3.377399206,1,-8.75298214,1,0.5059728622436523,1,-0.033062749,1,-3.325490713,1,0.5865557789802551,1,-0.25198853,1,-1.914785743,1
1.651864052,-4.059214115,1,-3.219214678,1,-8.776834488,1,0.4706515073776245,1,-0.018273726,1,-3.313155413,1,0.5913272500038147,1,-0.244702339,1,-1.926237941,1
1.655861497,-4.016111374,1,-3.103112459,1,-8.718048096,1,0.4415848851203918,1,0.004712069,1,-3.299806356,1,0.5958473682403564,1,-0.237329811,1,-1.937541008,1
1.659860969,-3.929135561,1,-3.110022545,1,-8.612425804,1,0.4017698764801025,1,0.029814471,1,-3.286857367,1,0.6001051664352417,1,-0.22985293,1,-1.948691964,1
1.663862228,-3.827905178,1,-3.017410755,1,-8.514115334,1,0.3694988191127777,1,0.059923269,1,-3.270228148,1,0.6041058301925659,1,-0.222281843,1,-1.959674478,1
1.667859674,-3.726435661,1,-2.951270103,1,-8.431440353,1,0.329190195,1,0.091131948,1,-3.249406338,1,0.6078424453735352,1,-0.214607418,1,-1.970481396,1
1.671859145,-3.577123642,1,-2.813055277,1,-8.316313744,1,0.297434002,1,0.1170213595032692,1,-3.224599838,1,0.6113113760948181,1,-0.206859812,1,-1.981096983,1
1.675860763,-3.480502605,1,-2.582775354,1,-8.199807167,1,0.2685807943344116,1,0.1296675503253937,1,-3.195755005,1,0.6145432591438293,1,-0.199060977,1,-1.991526365,1
1.679858208,-3.344646692,1,-2.468695402,1,-8.180791855,1,0.2469571679830551,1,0.148072362,1,-3.163803101,1,0.6175613403320313,1,-0.191251442,1,-2.001789808,1
1.683857441,-3.258944035,1,-2.321418524,1,-8.078978539,1,0.2329174876213074,1,0.1536082923412323,1,-3.133204222,1,0.6204068064689636,1,-0.183457464,1,-2.011873007,1
1.687858939,-3.226298332,1,-2.187871218,1,-7.982205391,1,0.2249966412782669,1,0.1541831791400909,1,-3.096387148,1,0.6230934262275696,1,-0.175702721,1,-2.021804094,1
1.691856384,-3.286321402,1,-2.016372204,1,-7.971039772,1,0.2164251953363419,1,0.160392553,1,-3.066384315,1,0.6256435513496399,1,-0.16798079,1,-2.031572342,1
1.695855618,-3.20310235,1,-1.921679616,1,-7.935555458,1,0.2109537720680237,1,0.1577484011650085,1,-3.036923885,1,0.6280812621116638,1,-0.160299703,1,-2.041213274,1
1.699857116,-3.250082731,1,-1.991323829,1,-7.999780178,1,0.2016423940658569,1,0.1555326730012894,1,-3.003038406,1,0.6303950548171997,1,-0.152679265,1,-2.050727844,1
1.703854799,-3.364135027,1,-2.074525595,1,-8.019532204,1,0.1794991940259933,1,0.1582699865102768,1,-2.971557617,1,0.6325493454933167,1,-0.145117626,1,-2.060103893,1
1.70785439,-3.496177435,1,-2.110711336,1,-8.068660736,1,0.1541848480701447,1,0.1618833541870117,1,-2.941302299,1,0.6345266699790955,1,-0.137607023,1,-2.069353342,1
1.711855888,-3.674659252,1,-2.150492907,1,-8.095110893,1,0.1229051575064659,1,0.1675275862216949,1,-2.910698414,1,0.636294961,1,-0.130135149,1,-2.078470707,1
1.715859175,-3.814596891,1,-2.152156591,1,-8.090428352,1,0.08633858,1,0.1694042980670929,1,-2.885819674,1,0.6378443241119385,1,-0.122701369,1,-2.087461948,1
1.719858646,-4.02384901,1,-2.165233135,1,-8.084758759,1,0.049356472,1,0.1762731969356537,1,-2.856647968,1,0.6391593217849731,1,-0.115298614,1,-2.096331835,1
1.723860264,-4.093869209,1,-2.238394022,1,-8.036425591,1,0.008580028,1,0.1757600009441376,1,-2.818515301,1,0.6402552127838135,1,-0.107966259,1,-2.105068207,1
1.727857709,-4.205826283,1,-2.291370392,1,-7.946301937,1,-0.034345791,1,0.168850303,1,-2.778641939,1,0.6410923600196838,1,-0.100718208,1,-2.113684654,1
1.731857181,-4.341074467,1,-2.307952642,1,-7.897562027,1,-0.075892605,1,0.1595206260681152,1,-2.742063522,1,0.6416949033737183,1,-0.093589276,1,-2.122196198,1
1.73585844,-4.502495766,1,-2.235476971,1,-7.799997807,1,-0.117081665,1,0.1413553655147552,1,-2.703619242,1,0.6420574188232422,1,-0.086583607,1,-2.130584955,1
1.739856124,-4.72399044,1,-2.137354136,1,-7.670934677,1,-0.143944263,1,0.1303667575120926,1,-2.662275791,1,0.6422226428985596,1,-0.079719014,1,-2.138883352,1
1.743855357,-4.943855286,1,-2.067217827,1,-7.520869255,1,-0.160131231,1,0.1118760630488396,1,-2.620150089,1,0.64223659,1,-0.073001534,1,-2.147084475,1
1.747856617,-5.057986259,1,-1.962300062,1,-7.329497337,1,-0.174704388,1,0.092310682,1,-2.578691959,1,0.6421287059783936,1,-0.066445127,1,-2.155195475,1
1.751854062,-5.176194668,1,-1.934318304,1,-7.103984833,1,-0.182227999,1,0.070439629,1,-2.524915218,1,0.6419146060943604,1,-0.060069337,1,-2.163202047,1
1.755853295,-5.169983864,1,-1.806735396,1,-6.861506939,1,-0.195533931,1,0.04520417,1,-2.468011856,1,0.6415973305702209,1,-0.053911824,1,-2.17107749,1
1.759854555,-5.124445915,1,-1.687232256,1,-6.674470901,1,-0.206899792,1,0.013285264,1,-2.394870281,1,0.6411758661270142,1,-0.047999453,1,-2.178814888,1
1.763852239,-5.092198372,1,-1.504760504,1,-6.50116396,1,-0.207478151,1,-0.025711197,1,-2.305639267,1,0.6406960487365723,1,-0.042389706,1,-2.18638134,1
1.767851472,-5.16674614,1,-1.234351397,1,-6.388234615,1,-0.206378505,1,-0.070354894,1,-2.214934587,1,0.6401575207710266,1,-0.037134886,1,-2.193754911,1
1.771853089,-5.341472149,1,-0.964714348,1,-6.36545229,1,-0.187184751,1,-0.121585652,1,-2.120442629,1,0.6396195888519287,1,-0.032266095,1,-2.200939417,1
1.775850773,-5.573162556,1,-0.822247088,1,-6.313771248,1,-0.171427876,1,-0.156887338,1,-2.011739254,1,0.6391072869300842,1,-0.027779875,1,-2.20790267,1
1.779850006,-5.792701721,1,-0.700662911,1,-6.298058987,1,-0.16321218,1,-0.192310035,1,-1.901312232,1,0.6386125087738037,1,-0.02367831,1,-2.214605331,1
1.783851504,-6.038279533,1,-0.519456089,1,-6.309752464,1,-0.159184381,1,-0.208774105,1,-1.78401804,1,0.6381130814552307,1,-0.019931681,1,-2.220999002,1
1.787848949,-6.259732246,1,-0.396527588,1,-6.294462204,1,-0.160666093,1,-0.217627257,1,-1.652492046,1,0.6375823020935059,1,-0.016525395,1,-2.227034569,1
1.791848421,-6.42256546,1,-0.204354197,1,-6.341567516,1,-0.15909119,1,-0.223221898,1,-1.515962839,1,0.6370324492454529,1,-0.013467808,1,-2.232641697,1
1.795850039,-6.637916088,1,0.036088984,1,-6.377270699,1,-0.160663873,1,-0.22213535,1,-1.361473799,1,0.6364510655403137,1,-0.010760187,1,-2.237799883,1
1.799847364,-6.804718971,1,0.2696737051010132,1,-6.371479511,1,-0.15712215,1,-0.218827412,1,-1.211098433,1,0.6358563899993896,1,-0.008403445,1,-2.242460728,1
1.803846955,-7.035217762,1,0.53498137,1,-6.280677795,1,-0.15170072,1,-0.20830676,1,-1.043406963,1,0.6352735161781311,1,-0.006412028,1,-2.246598244,1
1.807848215,-7.213879108,1,0.7566282153129578,1,-6.206292629,1,-0.148779362,1,-0.190810278,1,-0.875517428,1,0.6347037553787231,1,-0.004773665,1,-2.250166416,1
1.81184566,-7.353820801,1,1.054697871208191,1,-6.121090412,1,-0.143825948,1,-0.178522259,1,-0.71138531,1,0.6341322660446167,1,-0.003482915,1,-2.253169298,1
1.815851212,-7.547356129,1,1.277595281600952,1,-5.977072239,1,-0.145258144,1,-0.162343472,1,-0.5427894,1,0.6335701942443848,1,-0.002550396,1,-2.255589247,1
1.819852829,-7.662640572,1,1.451093077659607,1,-5.823580742,1,-0.147508636,1,-0.143099785,1,-0.361131728,1,0.6329888701438904,1,-0.0019767,1,-2.257410288,1
1.823850274,-7.830000877,1,1.648537397384644,1,-5.646330357,1,-0.154562667,1,-0.134218603,1,-0.18187499,1,0.632395327,1,-0.001774685,1,-2.258624315,1
1.827849746,-7.958138943,1,1.904892325401306,1,-5.434201241,1,-0.159025177,1,-0.129225656,1,-0.0020157,1,0.6317631602287292,1,-0.001969428,1,-2.259222269,1
1.831851006,-8.056733131,1,2.1563375,1,-5.212635517,1,-0.168760508,1,-0.126236379,1,0.1900535970926285,1,0.6310977935791016,1,-0.002592209,1,-2.259213924,1
1.835848689,-8.112999916,1,2.383839607,1,-4.967263699,1,-0.15873535,1,-0.134255782,1,0.3869265615940094,1,0.6304434537887573,1,-0.003685021,1,-2.258591175,1
1.839848161,-8.208359718,1,2.552776336669922,1,-4.752137184,1,-0.145439371,1,-0.156462878,1,0.5718847513198853,1,0.6298234462738037,1,-0.00527666,1,-2.257395506,1
1.843849421,-8.316864014,1,2.747224569320679,1,-4.470239639,1,-0.122449987,1,-0.194240138,1,0.7568074464797974,1,0.6292724013328552,1,-0.007411115,1,-2.255660057,1
1.847846866,-8.403402328,1,2.861913204193115,1,-4.302776814,1,-0.097423188,1,-0.242647901,1,0.936980128,1,0.6288166046142578,1,-0.010105797,1,-2.253431797,1
1.851846099,-8.612648964,1,2.772000074386597,1,-4.089035511,1,-0.072543673,1,-0.293003947,1,1.103785276412964,1,0.6284517049789429,1,-0.013371716,1,-2.250751257,1
1.855847478,-8.844430923,1,2.663872480392456,1,-3.885767221,1,-0.046509776,1,-0.349547327,1,1.263672828674316,1,0.6281707286834717,1,-0.017199634,1,-2.247659445,1
1.859844923,-9.145559311,1,2.473088979721069,1,-3.766428471,1,-0.027207561,1,-0.402893305,1,1.423648357391357,1,0.6279568672180176,1,-0.021569911,1,-2.244190216,1
1.863844037,-9.477624893,1,2.334294080734253,1,-3.63234663,1,-0.010229473,1,-0.448756397,1,1.554791450500488,1,0.6248065233230591,1,-0.030893259,1,-2.246967316,1
1.867845654,-9.888878822,1,2.213710784912109,1,-3.495845556,1,0.00342564,1,-0.493016869,1,1.674178481,1,0.6246174573898315,1,-0.036221556,1,-2.242905855,1
1.8718431,-10.23151493,1,1.980664372444153,1,-3.379329205,1,0.017433433,1,-0.526280403,1,1.778122067451477,1,0.6244819164276123,1,-0.041913919,1,-2.238490343,1
1.875842333,-10.56816673,1,1.719899654388428,1,-3.180769682,1,0.022862662,1,-0.554566741,1,1.867830514907837,1,0.6243627071380615,1,-0.047938697,1,-2.233834267,1
1.879843831,-10.63694191,1,1.456896662712097,1,-3.06059432,1,0.020166719,1,-0.585583389,1,1.954207062721252,1,0.6242069005966187,1,-0.054260354,1,-2.228952885,1
1.883841515,-10.83988285,1,1.217024922370911,1,-3.098138332,1,0.016550822,1,-0.63305968,1,2.022161245346069,1,0.6239912509918213,1,-0.060896408,1,-2.223912001,1
1.887840748,-11.04847431,1,0.7938015460968018,1,-3.091470957,1,0.026691938,1,-0.657315075,1,2.052096843719482,1,0.6237382292747498,1,-0.067763358,1,-2.218793631,1
1.891842246,2.044907093048096,1,-3.446525097,1,-14.36795139,1,-0.438811988,1,-1.145191669,1,1.942644119262695,1,0.6230080127716064,1,-0.075100683,1,-2.214065552,1
1.895839691,41.87124252319336,1,-21.73021889,1,-45.47701263,1,-7.234405518,1,-4.560403347,1,2.147129774093628,1,0.6064978241920471,1,-0.090429828,1,-2.215259314,1
1.899839282,43.00505065917969,1,-44.39532471,1,-7.978455544,1,-1.780856013,1,-2.845301867,1,2.579941511154175,1,0.5890782475471497,1,-0.10746783,1,-2.21631217,1
1.90384078,36.43270874023438,1,-55.69883728,1,-16.11820221,1,-0.85692054,1,-2.963891506,1,5.109184265136719,1,0.5817994475364685,1,-0.124748416,1,-2.208422422,1
1.907838225,10.63546276092529,1,-16.5179615,1,-4.054383278,1,0.7583763003349304,1,-4.656457901,1,5.543605804443359,1,0.5816944241523743,1,-0.149771452,1,-2.199051142,1
1.911843896,-20.78118706,1,12.34740161895752,1,0.5856121182441711,1,-2.502901316,1,-5.703728199,1,5.196891307830811,1,0.5770184993743896,1,-0.178683758,1,-2.191934824,1
1.915845394,-29.25424767,1,-3.955332279,1,-5.854789734,1,-3.475794792,1,-6.758729458,1,4.378596305847168,1,0.5640423893928528,1,-0.210488185,1,-2.189553976,1
1.919842839,-31.17850494,1,-12.79857635,1,-15.20893383,1,-3.661887884,1,-6.165177822,1,3.743857145309448,1,0.5498181581497192,1,-0.241070554,1,-2.189544439,1
1.923842311,-27.28706169,1,-9.025194168,1,-19.78958893,1,-3.664747477,1,-5.370966911,1,3.126213550567627,1,0.5350600481033325,1,-0.267971992,1,-2.189690828,1
1.927843571,-26.0755291,1,-4.737988949,1,-22.58573341,1,-3.393461466,1,-4.379561901,1,2.537405490875244,1,0.5209335684776306,1,-0.290552318,1,-2.189773321,1
1.931841254,-28.91942596,1,-1.542123079,1,-24.99643517,1,-2.83362937,1,-3.142648697,1,1.929043412208557,1,0.5083129405975342,1,-0.308130443,1,-2.18938303,1
1.935840726,-27.76426697,1,5.242485523223877,1,-24.49936676,1,-2.080407143,1,-1.833419442,1,1.187198400497437,1,0.4982022643089294,1,-0.319829911,1,-2.188656092,1
1.939842105,-21.11309242,1,8.303433418273926,1,-20.24336624,1,-1.439490438,1,-0.868226588,1,0.5905219912528992,1,0.4910364747047424,1,-0.326108575,1,-2.188066721,1
1.943839431,-12.4221096,1,7.610818862915039,1,-14.6281662,1,-0.934064269,1,-0.41643253,1,0.3493266105651855,1,0.4862085282802582,1,-0.3291336,1,-2.187628031,1
1.947839022,-5.254122257,1,4.890810489654541,1,-10.62855434,1,-0.610587001,1,-0.332743347,1,0.3872266709804535,1,0.4828980267047882,1,-0.331056178,1,-2.186997652,1
1.951840281,-0.873417079,1,1.738789081573486,1,-9.273558617,1,-0.419619232,1,-0.424143046,1,0.4969508647918701,1,0.4805962145328522,1,-0.333197534,1,-2.186064243,1
1.955837727,0.2228985577821732,1,-1.718613982,1,-9.023142815,1,-0.261836767,1,-0.565320909,1,0.4882352650165558,1,0.4789494872093201,1,-0.335877419,1,-2.185150146,1
1.95983696,-0.435200661,1,-5.279382706,1,-7.963555336,1,-0.155119061,1,-0.666923404,1,0.4271657168865204,1,0.4779204726219177,1,-0.338918567,1,-2.184640646,1
1.963838696,-1.700683594,1,-7.887048244,1,-7.171083927,1,-0.128174856,1,-0.727057099,1,0.4170379936695099,1,0.477347732,1,-0.342184752,1,-2.184444427,1
1.96783638,-2.58839488,1,-9.020599365,1,-6.917522907,1,-0.172901168,1,-0.758070707,1,0.4301342070102692,1,0.4767116904258728,1,-0.345606446,1,-2.184296608,1
1.971835613,-3.369655371,1,-8.50082016,1,-7.208959579,1,-0.274621069,1,-0.755697608,1,0.4351049959659576,1,0.4757500290870667,1,-0.349111736,1,-2.184142351,1
1.975837231,-3.929276705,1,-6.636695385,1,-7.915802956,1,-0.348191112,1,-0.736771762,1,0.4068087935447693,1,0.4744674861431122,1,-0.352532387,1,-2.18398428,1
1.979834676,-4.454315662,1,-4.854467392,1,-8.459597588,1,-0.37353915,1,-0.687289298,1,0.3230406045913696,1,0.4730072319507599,1,-0.355742604,1,-2.18397975,1
1.983833909,-4.93044281,1,-3.635641575,1,-8.857665062,1,-0.391596228,1,-0.636032581,1,0.2432130575180054,1,0.4715339243412018,1,-0.358618855,1,-2.184194803,1
1.987835407,-5.237103462,1,-3.176396132,1,-8.804688454,1,-0.381361187,1,-0.572397232,1,0.1936570703983307,1,0.4701254367828369,1,-0.361158431,1,-2.184532881,1
1.991833091,-5.105681419,1,-3.531008959,1,-8.4403162,1,-0.358524382,1,-0.494822174,1,0.1710650473833084,1,0.4687682092189789,1,-0.363392353,1,-2.184882402,1
1.995832562,-4.676111221,1,-3.692430019,1,-8.37765789,1,-0.347872555,1,-0.438985825,1,0.1593585908412933,1,0.4674360752105713,1,-0.365354776,1,-2.185148954,1
1.999834061,-4.409058571,1,-3.863153458,1,-8.419336319,1,-0.326809555,1,-0.404611528,1,0.1305875331163406,1,0.4661788940429688,1,-0.367123306,1,-2.185400009,1
2.003831625,-4.52359724,1,-4.076342583,1,-8.50299263,1,-0.28639859,1,-0.3757855,1,0.077047609,1,0.4650654792785645,1,-0.368712127,1,-2.185741663,1
2.007831097,-4.690637112,1,-4.041717052,1,-8.67660141,1,-0.251739353,1,-0.345490158,1,0.010454584,1,0.4641696214675903,1,-0.370087624,1,-2.186257124,1
2.011832476,-4.686380386,1,-3.515207291,1,-8.969908714,1,-0.197755903,1,-0.31455937,1,-0.065755792,1,0.4635480940341949,1,-0.371212482,1,-2.186992645,1
2.015830278,-4.534170628,1,-3.11741972,1,-9.172501564,1,-0.131201431,1,-0.296706527,1,-0.147140056,1,0.4632374048233032,1,-0.372114301,1,-2.187994719,1
2.01982975,-4.402873993,1,-2.984101295,1,-9.257493973,1,-0.066915698,1,-0.285260528,1,-0.22514227,1,0.4633033275604248,1,-0.372827142,1,-2.189266205,1
2.023831367,-4.366904259,1,-3.111728668,1,-9.239772797,1,0.001655143,1,-0.26957944,1,-0.285574794,1,0.4637352228164673,1,-0.373363972,1,-2.190783501,1
2.027828932,-4.342585564,1,-2.913929462,1,-9.274181366,1,0.072170727,1,-0.254941702,1,-0.350910157,1,0.4645060300827026,1,-0.373737246,1,-2.192512989,1
2.031828403,-4.205374718,1,-2.571540117,1,-9.34245491,1,0.1375706940889359,1,-0.247834578,1,-0.424570322,1,0.4656461775302887,1,-0.373942733,1,-2.194481134,1
2.035829782,-3.930819035,1,-2.448399544,1,-9.320446014,1,0.2149045318365097,1,-0.255501151,1,-0.512646675,1,0.4671930372714996,1,-0.373995781,1,-2.196760416,1
2.039827108,-3.6415205,1,-2.620553732,1,-9.151531219,1,0.2860830426216125,1,-0.271063656,1,-0.592374861,1,0.4691514670848846,1,-0.37394309,1,-2.199384689,1
2.04382658,-3.285416126,1,-2.928701878,1,-8.95344162,1,0.3533250391483307,1,-0.294295818,1,-0.648773551,1,0.4715094268321991,1,-0.373824477,1,-2.202310562,1
2.047828197,-3.206893682,1,-3.150789022,1,-8.783299446,1,0.3951533734798431,1,-0.317729145,1,-0.68503648,1,0.4741784036159515,1,-0.373698205,1,-2.20546031,1
2.051825762,-3.149534225,1,-3.305623531,1,-8.438807487,1,0.4360356032848358,1,-0.342890978,1,-0.706809998,1,0.4770525991916656,1,-0.373595417,1,-2.208772421,1
2.055824995,-3.291300535,1,-3.516739368,1,-8.249947548,1,0.4613710045814514,1,-0.348745078,1,-0.707559884,1,0.4800872802734375,1,-0.373515189,1,-2.212160826,1
2.059826612,-3.262120724,1,-3.692714453,1,-8.223526955,1,0.4653749465942383,1,-0.348559588,1,-0.694635212,1,0.4831625819206238,1,-0.373450875,1,-2.215525627,1
2.063824415,-3.182985783,1,-3.903224707,1,-8.078069687,1,0.4686742722988129,1,-0.355435222,1,-0.671273291,1,0.4862329065799713,1,-0.373431504,1,-2.218826532,1
2.067823648,-3.247502089,1,-3.802577496,1,-8.147847176,1,0.485872209,1,-0.358234286,1,-0.637450814,1,0.4893099963665009,1,-0.373467803,1,-2.222028971,1
2.071825266,-3.25763464,1,-3.781794548,1,-8.213085175,1,0.4952978193759918,1,-0.366768092,1,-0.624437988,1,0.4924189448356628,1,-0.373557717,1,-2.2251544,1
2.07582283,-3.256453514,1,-3.880919218,1,-8.21823597,1,0.4989803731441498,1,-0.375608921,1,-0.606057405,1,0.495529443,1,-0.373703718,1,-2.228226662,1
2.079822302,-3.217353582,1,-3.964434147,1,-8.278318405,1,0.5129895806312561,1,-0.382344306,1,-0.576135337,1,0.4986513555049896,1,-0.373902738,1,-2.231231689,1
2.083823919,-3.272799969,1,-4.132802486,1,-8.144566536,1,0.5055134296417236,1,-0.382564366,1,-0.549902022,1,0.5017531514167786,1,-0.374158025,1,-2.234143257,1
2.087821245,-3.237213135,1,-4.368131161,1,-8.012729645,1,0.4930158853530884,1,-0.385585934,1,-0.515101671,1,0.5047728419303894,1,-0.374476969,1,-2.236943007,1
2.091820717,-3.115479231,1,-4.404113293,1,-7.92247963,1,0.4847623407840729,1,-0.392400503,1,-0.482354671,1,0.5077172517776489,1,-0.374875128,1,-2.239628553,1
2.095822334,-3.919174194,1,-5.684315205,1,-7.769845486,1,0.429917186,1,-0.360076815,1,-0.407346636,1,0.5104969143867493,1,-0.375335038,1,-2.242125273,1
2.099820137,-6.094264984,1,-5.799747944,1,-8.135169029,1,0.3216665387153625,1,-0.174028978,1,-0.287771553,1,0.5126242637634277,1,-0.375617921,1,-2.243951797,1
2.103819609,-2.833912849,1,-3.077144623,1,-8.502579689,1,0.3769602179527283,1,-0.106949709,1,-0.230253622,1,0.5144708156585693,1,-0.375543356,1,-2.24519515,1
2.107826948,-2.886107445,1,-3.581504107,1,-7.963932514,1,0.3435120284557343,1,-0.123616077,1,-0.127647087,1,0.516298234,1,-0.375599444,1,-2.246117353,1
2.111830711,-3.200923204,1,-4.110886574,1,-8.1428442,1,0.3221186697483063,1,-0.111735284,1,-0.067062467,1,0.517815888,1,-0.375835061,1,-2.246731281,1
2.115830421,-3.690052032,1,-4.64353323,1,-8.112913132,1,0.3228257596492767,1,-0.121150389,1,-0.078618623,1,0.518202007,1,-0.378277779,1,-2.249279499,1
2.1198318,-3.486434937,1,-5.173817158,1,-7.533561707,1,0.3260314166545868,1,-0.119897299,1,-0.079950407,1,0.5196915864944458,1,-0.378546149,1,-2.249839783,1
2.123829603,-3.159290314,1,-5.473928928,1,-7.478321552,1,0.3052543997764587,1,-0.127019614,1,-0.061867941,1,0.5211626887321472,1,-0.378833383,1,-2.250370264,1
2.127828836,-3.387871742,1,-5.460261345,1,-7.62029171,1,0.2640816867351532,1,-0.13996534,1,-0.033255659,1,0.522482157,1,-0.379199415,1,-2.25083065,1
2.131830215,-3.33229661,1,-4.951589108,1,-7.732865334,1,0.253618062,1,-0.146318719,1,-0.01863428,1,0.5236495733261108,1,-0.379640013,1,-2.251238108,1
2.135828018,-3.488170385,1,-4.91650486,1,-7.729618549,1,0.226078138,1,-0.144153103,1,-0.003680343,1,0.5247397422790527,1,-0.380123794,1,-2.251593113,1
2.13982749,-3.322956324,1,-4.949309349,1,-7.616599083,1,0.1914381980895996,1,-0.15633072,1,0.011853315,1,0.5256826281547546,1,-0.380651623,1,-2.25189805,1
2.143829107,-3.25778532,1,-5.066510677,1,-7.720582485,1,0.1804177463054657,1,-0.162295505,1,0.030246006,1,0.5265452861785889,1,-0.381239146,1,-2.252172709,1
2.147826433,-3.612794876,1,-5.385879517,1,-7.599476814,1,0.1449710726737976,1,-0.154188961,1,0.043529622,1,0.527274489,1,-0.381862223,1,-2.252372265,1
2.151825905,-3.798859119,1,-5.511120319,1,-7.485015869,1,0.087459564,1,-0.130532593,1,0.058223233,1,0.5277776718139648,1,-0.382462442,1,-2.252495527,1
2.155827522,-3.428858042,1,-5.157633781,1,-7.600496769,1,0.08803878,1,-0.13846688,1,0.06284707,1,0.5281710624694824,1,-0.383041561,1,-2.252568483,1
2.159824848,-3.517640829,1,-5.217085838,1,-7.488354683,1,0.045213599,1,-0.137833133,1,0.076292813,1,0.5284467935562134,1,-0.383655071,1,-2.252607822,1
2.163824081,-3.506063461,1,-5.292037487,1,-7.602712631,1,-0.012273426,1,-0.134460196,1,0.090327308,1,0.5285168290138245,1,-0.384299934,1,-2.252593517,1
2.167825699,-3.346009493,1,-5.046036243,1,-7.70620203,1,-0.027023727,1,-0.139833465,1,0.1047405451536179,1,0.5284180045127869,1,-0.384971976,1,-2.252531767,1
2.171823025,-3.533304453,1,-5.154332638,1,-7.498092651,1,-0.055832628,1,-0.138510033,1,0.1184194907546043,1,0.5282050371170044,1,-0.385682762,1,-2.252427101,1
2.175822496,-3.631934404,1,-5.067350864,1,-7.603240967,1,-0.085646316,1,-0.130212218,1,0.1304827630519867,1,0.5278623104095459,1,-0.38640517,1,-2.25225091,1
2.179824114,-3.529497385,1,-5.032352448,1,-7.683327675,1,-0.119676203,1,-0.124103844,1,0.1443562805652618,1,0.5273550152778625,1,-0.387119353,1,-2.252011538,1
2.183821678,-3.510177135,1,-5.023132324,1,-7.667713642,1,-0.15045929,1,-0.115371801,1,0.1584375351667404,1,0.5266953110694885,1,-0.387833834,1,-2.25169754,1
2.18782115,-3.536897182,1,-4.770181179,1,-7.534686565,1,-0.175295278,1,-0.106907219,1,0.1634450405836105,1,0.5258781313896179,1,-0.388544917,1,-2.251330137,1
2.191822529,-3.665574789,1,-4.939730167,1,-7.662785053,1,-0.184564963,1,-0.103060037,1,0.1725559234619141,1,0.5250177979469299,1,-0.38924545,1,-2.250937462,1
2.195820093,-3.474015713,1,-4.898042679,1,-7.686048985,1,-0.204487905,1,-0.096502788,1,0.1787639856338501,1,0.5240654945373535,1,-0.389941454,1,-2.250491619,1
2.199819565,-3.433600664,1,-4.915871143,1,-7.70087862,1,-0.230068505,1,-0.094510742,1,0.1923497319221497,1,0.5230106711387634,1,-0.390649855,1,-2.249993086,1
2.203826904,-3.483880997,1,-4.935700417,1,-7.754815102,1,-0.237173602,1,-0.093937241,1,0.2097612768411636,1,0.5218620300292969,1,-0.391379416,1,-2.249453068,1
2.207830429,-3.578898907,1,-4.851862907,1,-7.803980827,1,-0.248365119,1,-0.093049847,1,0.2161157578229904,1,0.5206573009490967,1,-0.392130733,1,-2.248869658,1
2.211829901,-3.531681299,1,-4.823053837,1,-7.748023987,1,-0.270461589,1,-0.096178882,1,0.223775789,1,0.5193774104118347,1,-0.392888606,1,-2.248247147,1
2.215831518,-3.522881269,1,-4.856087208,1,-7.757538795,1,-0.282697827,1,-0.093495809,1,0.2389003932476044,1,0.5180153846740723,1,-0.39367038,1,-2.247577667,1
2.219829321,-3.490598679,1,-4.88730526,1,-7.722445011,1,-0.299588859,1,-0.098634973,1,0.2512445449829102,1,0.5165813565254211,1,-0.394485593,1,-2.246870756,1
2.223828793,-3.530704021,1,-4.803863049,1,-7.726577282,1,-0.308237374,1,-0.097408324,1,0.2618242204189301,1,0.5150834321975708,1,-0.395338893,1,-2.2461164,1
2.227829933,-3.481157541,1,-4.829708099,1,-7.669072628,1,-0.323070258,1,-0.101898484,1,0.2732049524784088,1,0.5135083198547363,1,-0.396204233,1,-2.245314598,1
2.231827736,-3.551561117,1,-4.717571259,1,-7.659786224,1,-0.331686974,1,-0.096945882,1,0.2820601761341095,1,0.5118861794471741,1,-0.397094548,1,-2.24448514,1
2.235826969,-3.606649876,1,-4.566194057,1,-7.800400257,1,-0.337836027,1,-0.11140655,1,0.2793364524841309,1,0.5102146863937378,1,-0.3980093,1,-2.243637085,1
2.239828587,-3.657495737,1,-4.394664288,1,-8.01406002,1,-0.340739667,1,-0.113498211,1,0.2801805734634399,1,0.5085287690162659,1,-0.398949444,1,-2.242791891,1
2.243825912,-3.866646767,1,-4.014698505,1,-8.272902489,1,-0.329968959,1,-0.122969747,1,0.2681945562362671,1,0.5068720579147339,1,-0.399894238,1,-2.241992474,1
2.247825146,-4.004364014,1,-3.773921251,1,-8.395263672,1,-0.300731361,1,-0.121683575,1,0.2434011995792389,1,0.5053289532661438,1,-0.400830418,1,-2.241274118,1
2.251826763,-3.850975037,1,-3.542091608,1,-8.4439888,1,-0.28884688,1,-0.128577828,1,0.2168213725090027,1,0.503919244,1,-0.401712537,1,-2.240659237,1
2.255824089,-4.006964684,1,-3.628553629,1,-8.513044357,1,-0.256805271,1,-0.135053471,1,0.1865914165973663,1,0.5026416778564453,1,-0.402574807,1,-2.24016118,1
2.259823561,-3.897351503,1,-3.437182426,1,-8.580307007,1,-0.218869627,1,-0.124742493,1,0.1519592851400375,1,0.5015522241592407,1,-0.403348774,1,-2.239794493,1
2.263825178,-3.928379059,1,-3.55386734,1,-8.52603054,1,-0.182396576,1,-0.130269885,1,0.1197561100125313,1,0.5006622076034546,1,-0.404063582,1,-2.239555359,1
2.267822504,-3.866600037,1,-3.556150675,1,-8.450116158,1,-0.153704345,1,-0.133600891,1,0.091355845,1,0.4999395906925201,1,-0.404722959,1,-2.239418268,1
2.271821976,-3.908787251,1,-3.731882334,1,-8.424087524,1,-0.132908374,1,-0.136207372,1,0.070806563,1,0.4993537366390228,1,-0.405350238,1,-2.239389896,1
2.275823593,-3.834191561,1,-3.917372704,1,-8.475581169,1,-0.120032623,1,-0.131921142,1,0.053118251,1,0.4988770186901093,1,-0.405947566,1,-2.239427805,1
2.279821396,-3.785995007,1,-4.183411598,1,-8.281949043,1,-0.08600381,1,-0.144041985,1,0.036495205,1,0.4985183775424957,1,-0.406515598,1,-2.239554882,1
2.283820868,-3.720703125,1,-4.261310577,1,-8.336406708,1,-0.054706592,1,-0.142606214,1,0.027658159,1,0.4983157515525818,1,-0.407087564,1,-2.239730597,1
2.287822247,-3.845525265,1,-4.209368229,1,-8.325584412,1,-0.036796879,1,-0.153367415,1,0.021855017,1,0.4982129633426666,1,-0.407657117,1,-2.239951134,1
2.291819811,-3.890575886,1,-4.21624136,1,-8.415403366,1,-0.029562136,1,-0.155725405,1,0.020909816,1,0.4981681108474731,1,-0.408241659,1,-2.240184069,1
2.295819283,-3.800540924,1,-4.080821037,1,-8.27153492,1,-0.042144313,1,-0.170238659,1,0.019693362,1,0.498132735,1,-0.408856988,1,-2.240460634,1
2.299820662,-3.813100576,1,-4.359249115,1,-8.16374588,1,-0.001963638,1,-0.166433156,1,0.006136118,1,0.4981664419174194,1,-0.409483582,1,-2.240766525,1
2.303824186,-3.830856562,1,-4.441853523,1,-8.132648468,1,0.009175885,1,-0.173097745,1,0.013735476,1,0.4983203709125519,1,-0.410100102,1,-2.241079569,1
2.307823896,-3.766621113,1,-4.341480255,1,-8.155755043,1,0.017747872,1,-0.175576746,1,0.01166413,1,0.49849695,1,-0.410736442,1,-2.241391182,1
2.311825037,-3.836104155,1,-4.251093864,1,-8.193463326,1,0.011258257,1,-0.173122779,1,0.01782456,1,0.4986768960952759,1,-0.411375225,1,-2.241690159,1
2.31582284,-3.818990707,1,-4.39910078,1,-8.134057999,1,0.04325185,1,-0.179432601,1,0.012171717,1,0.4989140033721924,1,-0.412025154,1,-2.242017031,1
2.319822073,-3.739526272,1,-4.26693964,1,-8.263646126,1,0.068650402,1,-0.182768092,1,0.0184498,1,0.4992693364620209,1,-0.412695855,1,-2.242333889,1
2.32382369,-3.838922739,1,-4.372297764,1,-8.414528847,1,0.093715817,1,-0.192305192,1,0.026455024,1,0.4997188448905945,1,-0.413399726,1,-2.242643118,1
2.327821255,-3.824983835,1,-4.257003307,1,-8.205011368,1,0.1163767948746681,1,-0.195619091,1,0.026912186,1,0.5002415776252747,1,-0.414133787,1,-2.24294734,1
2.331820726,-3.825550556,1,-4.45042181,1,-8.062383652,1,0.1319203227758408,1,-0.204491273,1,0.028211797,1,0.5008625984191895,1,-0.414891064,1,-2.243259192,1
2.335822344,-3.864702702,1,-4.488093376,1,-8.146853447,1,0.1414982229471207,1,-0.204828545,1,0.040066335,1,0.5015331506729126,1,-0.415672004,1,-2.243557215,1
2.33981967,-3.870644569,1,-4.294391632,1,-8.063368797,1,0.1619087755680084,1,-0.209260777,1,0.041172609,1,0.502223015,1,-0.416481137,1,-2.243828773,1
2.343818903,-3.872861147,1,-4.542162895,1,-8.099563599,1,0.1924476623535156,1,-0.20789732,1,0.049544338,1,0.503054678,1,-0.417287081,1,-2.244098902,1
2.34782052,-3.624462366,1,-4.269827843,1,-8.177934647,1,0.1909531354904175,1,-0.217488781,1,0.060114782,1,0.5039247274398804,1,-0.41814813,1,-2.244331121,1
2.351818085,-3.458438873,1,-4.543381214,1,-8.336295128,1,0.2345314472913742,1,-0.244844407,1,0.076817408,1,0.5048699975013733,1,-0.41908142,1,-2.244554996,1
2.355817318,-3.432673454,1,-4.595470428,1,-8.367218971,1,0.2520195245742798,1,-0.263662547,1,0.096749492,1,0.5059399008750916,1,-0.420135826,1,-2.244758606,1
2.359818697,-3.908542156,1,-4.848205566,1,-7.871303558,1,0.3037901520729065,1,-0.270383596,1,0.1099299639463425,1,0.5071343183517456,1,-0.42127347,1,-2.244926929,1
2.3638165,-3.579763412,1,-5.051617146,1,-8.467744827,1,0.269470602,1,-0.28759706,1,0.1315904706716537,1,0.5085049867630005,1,-0.422221035,1,-2.244907379,1
2.367815971,-2.999016285,1,-4.923746109,1,-8.651947975,1,0.1694002449512482,1,-0.379906714,1,0.1477175205945969,1,0.5093916058540344,1,-0.423683107,1,-2.245062351,1
2.371817589,-3.673653126,1,-4.514386654,1,-8.17855072,1,0.1950652897357941,1,-0.419064909,1,0.1715676188468933,1,0.5101959109306335,1,-0.425408959,1,-2.245310068,1
2.375814915,-4.103756428,1,-4.552574635,1,-8.198225021,1,0.2243756353855133,1,-0.406480759,1,0.1854513138532639,1,0.5111473202705383,1,-0.427192748,1,-2.245512486,1
2.379814386,-3.783685207,1,-4.393108845,1,-8.212825775,1,0.2261013388633728,1,-0.422433078,1,0.1844087392091751,1,0.512123704,1,-0.428999513,1,-2.245696545,1
2.383816004,-3.843241692,1,-4.506956577,1,-8.334017754,1,0.238854855,1,-0.443637818,1,0.1962099522352219,1,0.5131484270095825,1,-0.430889875,1,-2.245905161,1
2.38781333,-3.760123253,1,-4.471905231,1,-8.250156403,1,0.2507822513580322,1,-0.470222443,1,0.2046186774969101,1,0.5142295956611633,1,-0.432877839,1,-2.246122837,1
2.391812801,-3.878532887,1,-4.520180702,1,-8.219265938,1,0.2515341937541962,1,-0.488606215,1,0.2126711308956146,1,0.5153312683105469,1,-0.434956193,1,-2.246359825,1
2.395814419,-3.77986002,1,-4.446004391,1,-8.301605225,1,0.2715456783771515,1,-0.508947253,1,0.2243721187114716,1,0.5164783596992493,1,-0.437128603,1,-2.246605158,1
2.399817944,-3.841026783,1,-4.451967239,1,-8.208515167,1,0.2727088928222656,1,-0.535664737,1,0.2362464368343353,1,0.5176792740821838,1,-0.439407349,1,-2.246861696,1
2.403817415,-3.87262702,1,-4.456176281,1,-8.185627937,1,0.2795546650886536,1,-0.555631876,1,0.2437329292297363,1,0.518890381,1,-0.441787571,1,-2.247134924,1
2.407819033,-3.848698854,1,-4.465274811,1,-8.217540741,1,0.2927384972572327,1,-0.582624674,1,0.2502806484699249,1,0.5201574563980103,1,-0.444251865,1,-2.247435331,1
2.411816597,-3.882941246,1,-4.385890484,1,-8.215578079,1,0.2929404377937317,1,-0.603762686,1,0.2556710243225098,1,0.5214717984199524,1,-0.446815133,1,-2.247768402,1
2.415816307,-3.931375027,1,-4.429138184,1,-8.206626892,1,0.3079307377338409,1,-0.630773842,1,0.2640887498855591,1,0.5228275656700134,1,-0.449474394,1,-2.24813199,1
2.419817686,-3.922584295,1,-4.407584667,1,-8.204975128,1,0.314841241,1,-0.654570758,1,0.2762261033058167,1,0.5242454409599304,1,-0.452243865,1,-2.248509407,1
2.423815727,-3.920092106,1,-4.511876106,1,-8.088383675,1,0.3229848742485046,1,-0.677650452,1,0.2881526350975037,1,0.5256887674331665,1,-0.455109835,1,-2.248915672,1
2.427815199,-3.999385357,1,-4.490463257,1,-8.077297211,1,0.3408762812614441,1,-0.694852173,1,0.2956548035144806,1,0.5271918177604675,1,-0.458081692,1,-2.249335527,1
2.431816816,-4.009679794,1,-4.580299377,1,-8.180157661,1,0.3505662083625793,1,-0.728647768,1,0.311854362,1,0.5287530422210693,1,-0.461152852,1,-2.249756336,1
2.435814142,-3.958999872,1,-4.535871983,1,-8.116229057,1,0.3430529832839966,1,-0.763597369,1,0.3196662962436676,1,0.5303635597229004,1,-0.464369476,1,-2.250236034,1
2.439813614,-4.089742184,1,-4.555382729,1,-8.059991837,1,0.348438025,1,-0.787826359,1,0.3280915021896362,1,0.5319675207138062,1,-0.46769461,1,-2.250745296,1
2.443815231,-4.085329533,1,-4.422281742,1,-8.012918472,1,0.3602931201457977,1,-0.813944697,1,0.3325784504413605,1,0.5336396098136902,1,-0.471124589,1,-2.251298189,1
2.447812557,-4.231169701,1,-4.416784286,1,-7.981921196,1,0.3838901221752167,1,-0.832683027,1,0.3415984511375427,1,0.5353958010673523,1,-0.474646956,1,-2.251875162,1
2.45181179,-4.167830944,1,-4.46297121,1,-7.994165421,1,0.3876846432685852,1,-0.854037821,1,0.3548739850521088,1,0.5372117757797241,1,-0.47826162,1,-2.25246954,1
2.455813646,-4.167550087,1,-4.401369095,1,-7.972905159,1,0.3833852410316467,1,-0.883780599,1,0.3512461483478546,1,0.5390561819076538,1,-0.481970668,1,-2.253121138,1
2.459811211,-4.258027554,1,-4.353417873,1,-7.950755596,1,0.390813023,1,-0.902017117,1,0.3539340198040009,1,0.5409278273582458,1,-0.485763371,1,-2.253828526,1
2.463810921,-4.28249979,1,-4.383641243,1,-7.925699234,1,0.4217456579208374,1,-0.92757678,1,0.3535030484199524,1,0.5429043173789978,1,-0.48962003,1,-2.254574537,1
2.4678123,-4.267296314,1,-4.392977715,1,-7.94063282,1,0.4077606797218323,1,-0.936904013,1,0.358130932,1,0.5449288487434387,1,-0.493550837,1,-2.255368471,1
2.471809864,-4.391504765,1,-4.306204796,1,-7.862606525,1,0.4104246497154236,1,-0.960033357,1,0.3552423417568207,1,0.5469812154769897,1,-0.497535348,1,-2.256243706,1
2.475809574,-4.363014221,1,-4.311533451,1,-7.847340584,1,0.4309594035148621,1,-0.985028327,1,0.3544680178165436,1,0.5491083264350891,1,-0.501598775,1,-2.257176399,1
2.479810953,-4.334309578,1,-4.305410385,1,-7.869042873,1,0.4400167465209961,1,-0.999592721,1,0.3550142645835876,1,0.5513308048248291,1,-0.505726695,1,-2.258163929,1
2.483808756,-4.424295425,1,-4.316394329,1,-7.745987892,1,0.4599529802799225,1,-1.027278662,1,0.3520439565181732,1,0.5536530613899231,1,-0.509917974,1,-2.259222507,1
2.487808228,-4.412364483,1,-4.447468281,1,-7.748150826,1,0.4468289315700531,1,-1.04949522,1,0.3613260090351105,1,0.5560192465782166,1,-0.514203429,1,-2.260334253,1
2.491809845,-4.407957554,1,-4.435676575,1,-7.659670353,1,0.4549114406108856,1,-1.071056485,1,0.3529466092586517,1,0.5584042072296143,1,-0.51855576,1,-2.26151371,1
2.49581337,-4.418025017,1,-4.506563663,1,-7.688979626,1,0.4510527551174164,1,-1.097308755,1,0.3662688434123993,1,0.5608472228050232,1,-0.522984147,1,-2.2627635,1
2.499812841,-4.53630352,1,-4.483887672,1,-7.675809383,1,0.4729844927787781,1,-1.117161155,1,0.3621889352798462,1,0.5633407235145569,1,-0.527510107,1,-2.264075041,1
2.503814459,-4.523454666,1,-4.437436104,1,-7.771170616,1,0.4941156804561615,1,-1.146855116,1,0.3718947470188141,1,0.5659738183021545,1,-0.532125473,1,-2.26544857,1
2.507812023,-4.56299448,1,-4.447464466,1,-7.843421459,1,0.4941875040531158,1,-1.179094553,1,0.3807517886161804,1,0.5686867237091064,1,-0.536860883,1,-2.266876459,1
2.511811495,-4.49297905,1,-4.460537434,1,-7.754768848,1,0.5087962746620178,1,-1.212536454,1,0.3920271098613739,1,0.5714522004127502,1,-0.541716754,1,-2.268378973,1
2.515812874,-4.530599594,1,-4.669222355,1,-7.712155819,1,0.5131838321685791,1,-1.248472929,1,0.4018262624740601,1,0.5742977857589722,1,-0.546708643,1,-2.269935608,1
2.519810677,-4.586529255,1,-4.680474758,1,-7.677579403,1,0.5288651585578918,1,-1.282535791,1,0.4088861346244812,1,0.5772300958633423,1,-0.551829398,1,-2.271570921,1
2.52380991,-4.613029003,1,-4.66986084,1,-7.681310177,1,0.5354201793670654,1,-1.31919992,1,0.4289800822734833,1,0.5802488327026367,1,-0.557094872,1,-2.273265123,1
2.527811289,-4.589175224,1,-4.626877785,1,-7.738297939,1,0.5569450855255127,1,-1.355600595,1,0.4381946325302124,1,0.5833666920661926,1,-0.5625121,1,-2.275027514,1
2.531808853,-4.686044693,1,-4.580246449,1,-7.715036869,1,0.5648927688598633,1,-1.393859506,1,0.4544671773910522,1,0.5865813493728638,1,-0.568091631,1,-2.276857615,1
2.535808086,-4.773296356,1,-4.656419754,1,-7.743849277,1,0.5820114016532898,1,-1.420396686,1,0.4616751074790955,1,0.5899128317832947,1,-0.573789775,1,-2.278767824,1
2.539809704,-4.77081871,1,-4.714321613,1,-7.741099834,1,0.6007067561149597,1,-1.473290086,1,0.4813611209392548,1,0.5933651924133301,1,-0.579635501,1,-2.280759335,1
2.543807507,-4.751225948,1,-4.786092281,1,-7.807030678,1,0.6142117381095886,1,-1.51857686,1,0.5056749582290649,1,0.5969293117523193,1,-0.585701287,1,-2.282814741,1
2.54780674,-4.71348238,1,-4.906844616,1,-7.869953632,1,0.631655753,1,-1.556284308,1,0.5183700323104858,1,0.6006193161010742,1,-0.591923654,1,-2.284949064,1
2.551808357,-4.727772713,1,-4.921097755,1,-7.875656128,1,0.6464776396751404,1,-1.606128335,1,0.5506853461265564,1,0.6044090390205383,1,-0.598347425,1,-2.287157297,1
2.555805922,-4.630367279,1,-4.86175251,1,-7.887663841,1,0.6689172387123108,1,-1.625535369,1,0.5937446355819702,1,0.6083060503005981,1,-0.604993522,1,-2.289383888,1
2.559805393,-4.54553175,1,-4.933610916,1,-6.981785297,1,0.6230590343475342,1,-1.677217245,1,0.6379126310348511,1,0.611879289,1,-0.61163938,1,-2.291270018,1
2.563807011,-5.166944504,1,-5.040102005,1,-7.932926178,1,0.6921631693840027,1,-1.756719112,1,0.6539481282234192,1,0.6159235239028931,1,-0.618801117,1,-2.293612957,1
2.567804337,-4.760602951,1,-4.64414835,1,-7.683022022,1,0.7379921078681946,1,-1.844432116,1,0.6874055862426758,1,0.6201814413070679,1,-0.626217842,1,-2.296031952,1
2.571803808,-5.011173248,1,-4.368487835,1,-7.86954689,1,0.773301899,1,-1.881806731,1,0.7104160189628601,1,0.6247256994247437,1,-0.633910775,1,-2.298601151,1
2.575805426,-5.135917187,1,-4.37372303,1,-7.888440609,1,0.8058457374572754,1,-1.942395687,1,0.7069830298423767,1,0.6295084357261658,1,-0.641767323,1,-2.301333427,1
2.57980299,-5.160151482,1,-4.010700226,1,-7.881330013,1,0.8536394834518433,1,-2.005607128,1,0.6999484896659851,1,0.6346457600593567,1,-0.649789155,1,-2.304345131,1
2.583802462,-4.948197842,1,-3.976539135,1,-7.946626663,1,0.9121256470680237,1,-2.114099264,1,0.7291297316551208,1,0.6401576995849609,1,-0.658089697,1,-2.307619095,1
2.587803602,-4.92356348,1,-3.882212877,1,-8.11542511,1,0.961394191,1,-2.242760181,1,0.7700178623199463,1,0.646092951,1,-0.666860223,1,-2.311199427,1
2.591801405,-5.003761768,1,-4.127457619,1,-8.307032585,1,0.9808452725410461,1,-2.321794033,1,0.7699285745620728,1,0.6523874402046204,1,-0.675991416,1,-2.315106392,1
2.595807076,-4.67286253,1,-4.216156483,1,-8.529502869,1,1.046052098274231,1,-2.439473867,1,0.7737151980400085,1,0.6591545939445496,1,-0.685419083,1,-2.319424868,1
2.599808455,-4.892274857,1,-3.732079029,1,-9.062052727,1,1.115598201751709,1,-2.593503237,1,0.7927737832069397,1,0.666563094,1,-0.695269704,1,-2.324269295,1
2.603806257,-4.746852875,1,-3.804118633,1,-9.767163277,1,1.209102034568787,1,-2.770817995,1,0.7899042963981628,1,0.6747082471847534,1,-0.705632269,1,-2.329730034,1
2.60780549,-4.260101318,1,-3.814769506,1,-10.76461411,1,1.349482297897339,1,-3.037053108,1,0.8246542811393738,1,0.6839393973350525,1,-0.716664195,1,-2.336039782,1
2.611806631,-4.507283688,1,-3.900032759,1,-11.46991348,1,1.481246352,1,-3.329156876,1,0.8442119956016541,1,0.6944588422775269,1,-0.728651643,1,-2.343375683,1
2.615804434,-3.818399906,1,-4.966193676,1,-11.82956409,1,1.614321947097778,1,-3.587650061,1,0.8679019212722778,1,0.7062928676605225,1,-0.741430521,1,-2.351768017,1
2.619803905,-3.950291634,1,-5.896341801,1,-11.97796822,1,1.760014176368713,1,-3.918653011,1,0.9801603555679321,1,0.7195755243301392,1,-0.755191088,1,-2.361372709,1
2.623805523,-3.671134233,1,-6.439465046,1,-11.68577099,1,1.869974732398987,1,-4.197594643,1,1.086593866348267,1,0.7342059016227722,1,-0.770089865,1,-2.372035265,1
2.627802849,-3.819068432,1,-6.566245079,1,-11.03246784,1,1.947470664978027,1,-4.478985786,1,1.218374013900757,1,0.7500432729721069,1,-0.785950303,1,-2.383733273,1
2.631802082,-4.638618946,1,-6.190227985,1,-10.55250263,1,2.008879661560059,1,-4.703752041,1,1.273571610450745,1,0.7671483755111694,1,-0.802770793,1,-2.396601677,1
2.635803699,-5.498124599,1,-5.703345776,1,-10.17502022,1,2.047101497650146,1,-4.908876896,1,1.328963041305542,1,0.785530686,1,-0.820109248,1,-2.410767317,1
2.639801025,-6.03797245,1,-5.915814877,1,-10.18614578,1,2.113876819610596,1,-5.117076874,1,1.430217981338501,1,0.8052918910980225,1,-0.838136733,1,-2.426270247,1
2.643800497,-6.983191013,1,-6.822010517,1,-10.17773819,1,2.144111633300781,1,-5.25539732,1,1.487775444984436,1,0.8263806700706482,1,-0.856581748,1,-2.443045855,1
2.647802114,-7.751608849,1,-7.85930872,1,-10.3592453,1,2.180317163467407,1,-5.441531658,1,1.590720891952515,1,0.8488881587982178,1,-0.875478387,1,-2.461232424,1
2.65179944,-8.331615448,1,-8.703454971,1,-11.08489799,1,2.273554086685181,1,-5.637328148,1,1.704008817672729,1,0.8730982542037964,1,-0.89490521,1,-2.481001377,1
2.65579915,-8.41071701,1,-9.834067345,1,-11.69226456,1,2.360157251358032,1,-5.781995296,1,1.874740362167358,1,0.899137557,1,-0.914883137,1,-2.502340555,1
2.659800529,-8.399954796,1,-11.27264977,1,-11.76972198,1,2.507789850234985,1,-5.903050423,1,2.064061641693115,1,0.9270057678222656,1,-0.935424089,1,-2.525069714,1
2.663798094,-7.7330966,1,-11.96318626,1,-11.26111698,1,2.641867160797119,1,-6.067201614,1,2.284287214279175,1,0.9570876955986023,1,-0.956512153,1,-2.549422503,1
2.667797565,-7.88143158,1,-12.32756519,1,-11.548172,1,2.736297607421875,1,-6.268188,1,2.553906202316284,1,0.9895402789115906,1,-0.978380442,1,-2.575769901,1
2.671798944,-8.711022377,1,-13.11734581,1,-11.73203754,1,2.86041522,1,-6.452786922,1,2.813628911972046,1,1.024725794792175,1,-1.001053333,1,-2.60449791,1
2.675796747,-9.192803383,1,-14.19873142,1,-11.07616615,1,2.897072792053223,1,-6.579712391,1,3.114882230758667,1,1.062836408615112,1,-1.024398685,1,-2.635792255,1
2.679796219,-10.54085827,1,-14.43889523,1,-10.60651684,1,2.746689081192017,1,-6.724565029,1,3.410733699798584,1,1.103538513183594,1,-1.048423171,1,-2.669927359,1
2.683797836,-13.08151817,1,-14.06589699,1,-10.68274403,1,2.541082859039307,1,-6.805791855,1,3.600533723831177,1,1.146925568580627,1,-1.07276547,1,-2.7075634,1
2.687795401,-15.0421648,1,-12.43679333,1,-10.94936085,1,2.581240892410278,1,-6.809289932,1,3.650159597396851,1,1.193884611129761,1,-1.096769094,1,-2.749161959,1
2.691801071,-16.44573975,1,-11.48208523,1,-10.97265625,1,2.719584226608276,1,-6.797831059,1,3.582693099975586,1,1.245750427246094,1,-1.119740605,1,-2.795260191,1
2.695802689,-17.88964653,1,-10.55063725,1,-10.34758186,1,2.936570405960083,1,-6.686332226,1,3.445522308349609,1,1.303140283,1,-1.141078353,1,-2.846235991,1
2.699800253,-17.49131203,1,-8.87768364,1,-10.36071491,1,3.247671842575073,1,-6.506271362,1,3.246563435,1,1.365856170654297,1,-1.160301089,1,-2.901400805,1
2.703799725,-14.73243618,1,-8.961190224,1,-10.3368082,1,3.712233304977417,1,-6.300244331,1,3.052760601043701,1,1.434143900871277,1,-1.177009344,1,-2.96052599,1
2.707801342,-15.62040997,1,-6.732188702,1,-9.115812302,1,4.046300888061523,1,-6.053706169,1,2.817886352539063,1,1.507402658462524,1,-1.191260695,1,-3.022746801,1
2.711799145,-13.38569832,1,-6.692196369,1,-9.567943573,1,4.386780738830566,1,-5.860636234,1,2.610892057418823,1,1.584251642227173,1,-1.202702641,1,-3.087178707,1
2.715798378,-11.49518776,1,-7.246697903,1,-9.099925041,1,4.694763184,1,-5.566491604,1,2.408361911773682,1,1.663851261138916,1,-1.211525083,1,3.130301475524902,1
2.719799757,-10.14300346,1,-6.72982645,1,-9.103486061,1,4.919667244,1,-5.191986561,1,2.289229631,1,1.743961811065674,1,-1.217931867,1,3.065396785736084,1
2.723797321,-8.832328796,1,-6.810673714,1,-8.19904232,1,4.924149990081787,1,-4.614844799,1,2.280600309371948,1,1.821211099624634,1,-1.222704172,1,3.004147768,1
2.727796555,-6.632136345,1,-7.336867809,1,-7.114219666,1,4.863397121429443,1,-4.141442299,1,2.268716096878052,1,1.894686222076416,1,-1.22650075,1,2.946863174438477,1
2.731798172,-5.293358326,1,-5.890247822,1,-6.083006859,1,4.700660228729248,1,-3.45220685,1,2.354244470596313,1,1.962913990020752,1,-1.229791045,1,2.894778966903687,1
2.735795975,-2.839998484,1,-4.799170494,1,-4.380675316,1,4.535336971282959,1,-2.677141428,1,2.524440288543701,1,2.024249554,1,-1.233617544,1,2.849245548248291,1
2.739795446,0.5815414190292358,1,1.197920918464661,1,-2.156268597,1,5.053620815,1,-2.014046192,1,3.176522731781006,1,2.082044363021851,1,-1.239186883,1,2.808099746704102,1
2.743797064,-9.818397522,1,0.9554840922355652,1,-1.961487532,1,5.460184574127197,1,-1.524400711,1,4.239815711975098,1,2.143794536590576,1,-1.248355627,1,2.765512466430664,1
2.74779439,-27.56667709,1,-5.880709171,1,-5.63762331,1,5.318725109100342,1,-0.645484865,1,4.236802577972412,1,2.207032918930054,1,-1.259951115,1,2.721576690673828,1
2.751793861,-21.40911484,1,-11.44151878,1,-10.95714664,1,5.005725860595703,1,0.8338287472724915,1,3.875391483306885,1,2.258249521255493,1,-1.272960186,1,2.689681768417358,1
2.755795479,-16.57302094,1,-14.77240467,1,-10.24556637,1,4.284526824951172,1,1.989069104194641,1,3.585228681564331,1,2.294904708862305,1,-1.288053036,1,2.670856714248657,1
2.759792805,-13.69706059,1,-15.56682682,1,-8.806475639,1,3.447216749191284,1,3.020600557327271,1,3.157185792922974,1,2.315966606140137,1,-1.304808378,1,2.665078878,1
2.763792276,-9.825779915,1,-14.48818302,1,-7.133230209,1,2.432899236679077,1,3.744827986,1,2.819081783294678,1,2.320609092712402,1,-1.322813869,1,2.672456502914429,1
2.767793894,-6.495326996,1,-13.17935085,1,-5.618715286,1,1.494757890701294,1,4.179574966430664,1,2.595672845840454,1,2.310461521148682,1,-1.341553092,1,2.690934181213379,1
2.771791697,-2.865912676,1,-10.788661,1,-4.718720436,1,0.7710931897163391,1,4.376332283,1,2.458884000778198,1,2.287615060806274,1,-1.360504985,1,2.718933105,1
2.775791168,0.209862083,1,-7.580385208,1,-4.261568069,1,0.2944168746471405,1,4.367293357849121,1,2.359934091567993,1,2.254289388656616,1,-1.379178047,1,2.755038261413574,1
2.779792547,1.985123991966248,1,-3.92206502,1,-3.280220747,1,0.074632972,1,4.18601656,1,2.247349739074707,1,2.212515830993652,1,-1.396998763,1,2.798212528,1
2.78379035,2.846175432,1,-0.780780673,1,-2.39418292,1,0.054953292,1,3.900039911270142,1,2.101805686950684,1,2.163834095001221,1,-1.413478851,1,2.847765207290649,1
2.787789822,3.376273155212402,1,1.452910780906677,1,-1.875347853,1,0.2494986057281494,1,3.541229248046875,1,1.918401956558228,1,2.109714031219482,1,-1.428261161,1,2.903065681,1
2.791791439,3.389155864715576,1,3.105297088623047,1,-1.59909749,1,0.6085761189460754,1,3.190712451934814,1,1.707068443,1,2.051467657089233,1,-1.441170216,1,2.963541030883789,1
2.795789003,3.027478933334351,1,4.020879745483398,1,-1.541395307,1,1.061953783035278,1,2.868149518966675,1,1.436025857925415,1,1.989383101463318,1,-1.452114582,1,3.029456853866577,1
2.799788475,2.603344678878784,1,3.988626718521118,1,-1.571427464,1,1.555899858474731,1,2.579694986343384,1,1.140251278877258,1,1.923573970794678,1,-1.461010456,1,3.100957155227661,1
2.803790092,1.929144382476807,1,3.428400517,1,-1.921779752,1,1.979892969,1,2.282907247543335,1,0.8184418678283691,1,1.855809569358826,1,-1.46777904,1,-3.106930733,1
2.807787418,1.398699641227722,1,2.147164583206177,1,-2.032149315,1,2.305511236190796,1,2.050171136856079,1,0.4923103451728821,1,1.787841439247131,1,-1.472471476,1,-3.029978037,1
2.81178689,0.716400683,1,0.7583160996437073,1,-2.307998419,1,2.504797935,1,1.865613341331482,1,0.1789185404777527,1,1.720959544181824,1,-1.475220203,1,-2.953081369,1
2.815788507,0.2581997215747833,1,-0.529166281,1,-2.482371569,1,2.588071108,1,1.745396971702576,1,-0.110689193,1,1.656262755393982,1,-1.476191998,1,-2.877832651,1
2.819786072,-0.308159292,1,-1.678111196,1,-2.828752518,1,2.566970348358154,1,1.680975675582886,1,-0.379547983,1,1.594347357749939,1,-1.475573063,1,-2.805255175,1
2.823785305,-0.827032447,1,-2.215545893,1,-3.377414227,1,2.473951816558838,1,1.681113839149475,1,-0.6339553,1,1.535020828,1,-1.473510265,1,-2.735514164,1
2.827786684,-1.198381424,1,-2.379089832,1,-3.95983386,1,2.356340169906616,1,1.739337682723999,1,-0.870216668,1,1.477913737297058,1,-1.470069528,1,-2.668416023,1
2.831784248,-1.500048399,1,-2.240444422,1,-4.546071053,1,2.229358196258545,1,1.822764158248901,1,-1.101359487,1,1.423441410064697,1,-1.465293407,1,-2.604438543,1
2.83578372,-1.689481258,1,-1.890407562,1,-5.076681137,1,2.129585266113281,1,1.936931014060974,1,-1.323041081,1,1.371870040893555,1,-1.459212422,1,-2.543798447,1
2.839785099,-1.783627391,1,-1.308047771,1,-5.51776123,1,2.063196897506714,1,2.063201904296875,1,-1.537060499,1,1.323802471160889,1,-1.451859117,1,-2.486976624,1
2.843782663,-1.814574838,1,-0.66676414,1,-5.860645771,1,2.040982961654663,1,2.200089931488037,1,-1.732322454,1,1.279635667800903,1,-1.443285942,1,-2.434222221,1
2.847782135,-1.834981441,1,-0.103309102,1,-6.07199955,1,2.045791625976563,1,2.337119102478027,1,-1.897674561,1,1.239625334739685,1,-1.433583379,1,-2.385623217,1
2.851783752,-1.760413885,1,0.2961640059947968,1,-6.212480545,1,2.082390308380127,1,2.465999603271484,1,-2.047843695,1,1.203809022903442,1,-1.422863007,1,-2.341106653,1
2.855781078,-1.688239455,1,0.5166895985603333,1,-6.319965839,1,2.117050647735596,1,2.587520122528076,1,-2.152071714,1,1.171929240226746,1,-1.411282897,1,-2.300349951,1
2.859786749,-1.786812425,1,0.6383383870124817,1,-6.482069969,1,2.152441024780273,1,2.704720258712769,1,-2.226385832,1,1.143526196479797,1,-1.399003148,1,-2.2628901,1
2.863788366,-1.887402296,1,0.7514967322349548,1,-6.627553463,1,2.185276985168457,1,2.823626041412354,1,-2.266936779,1,1.117975234985352,1,-1.386150599,1,-2.228108883,1
2.867785931,-2.127464294,1,0.9197636842727661,1,-6.774261475,1,2.217818499,1,2.936349391937256,1,-2.281605244,1,1.094374656677246,1,-1.372892141,1,-2.195196152,1
2.871785402,-2.307196617,1,1.148628115653992,1,-7.013195992,1,2.241580486297607,1,3.050722599029541,1,-2.28653574,1,1.072900891304016,1,-1.359207988,1,-2.164157152,1
2.875786781,-2.588537693,1,1.284188151359558,1,-7.283028603,1,2.267032384872437,1,3.183502435684204,1,-2.275795221,1,1.052829146385193,1,-1.345168471,1,-2.134364367,1
2.879784346,-2.870313406,1,1.324148774147034,1,-7.537498951,1,2.279508113861084,1,3.323832988739014,1,-2.259301901,1,1.033776998519897,1,-1.330788851,1,-2.105437517,1
2.883783817,-3.207152843,1,1.384929656982422,1,-7.789983749,1,2.291338920593262,1,3.461148977279663,1,-2.23571372,1,1.015507459640503,1,-1.316064239,1,-2.077159882,1
2.887791395,-3.508396864,1,1.497963786125183,1,-7.97166729,1,2.297081470489502,1,3.601924657821655,1,-2.208907127,1,0.9979339241981506,1,-1.300990343,1,-2.049454689,1
2.89179492,-3.792577982,1,1.525832176208496,1,-8.171695709,1,2.303720235824585,1,3.745880126953125,1,-2.186577082,1,0.9809543490409851,1,-1.285563469,1,-2.022242785,1
2.89579463,-4.107285023,1,1.616696357727051,1,-8.299344063,1,2.320639133453369,1,3.893267869949341,1,-2.155423641,1,0.9645625948905945,1,-1.269778252,1,-1.99546349,1
2.899796247,-4.474358559,1,1.706245541572571,1,-8.475226402,1,2.336560010910034,1,4.041421890258789,1,-2.121849537,1,0.9486950039863586,1,-1.253636718,1,-1.969036937,1
2.903793573,-4.738285542,1,1.763783336,1,-8.662548065,1,2.361404895782471,1,4.189104080200195,1,-2.086140156,1,0.9333274960517883,1,-1.237138033,1,-1.942903161,1
2.907792807,-5.094062328,1,1.772248268127441,1,-8.827020645,1,2.389338493347168,1,4.339086055755615,1,-2.052664995,1,0.9185401201248169,1,-1.220262408,1,-1.917119384,1
2.911794424,-5.394785881,1,1.835316777229309,1,-8.987045288,1,2.412403822,1,4.476636887,1,-2.017923117,1,0.9043136835098267,1,-1.203016996,1,-1.891669989,1
2.915791988,-5.692417145,1,1.840637683868408,1,-9.174502373,1,2.429265737533569,1,4.616313457489014,1,-1.984140873,1,0.8906713128089905,1,-1.185409427,1,-1.866579771,1
2.91979146,-5.989423275,1,1.782228589057922,1,-9.338338852,1,2.444926261901855,1,4.744041919708252,1,-1.947081447,1,0.8776326179504395,1,-1.167448759,1,-1.841888189,1
2.923792839,-6.185631752,1,1.762406706809998,1,-9.574233055,1,2.455588340759277,1,4.876271248,1,-1.913710475,1,0.8651309013366699,1,-1.149138927,1,-1.817546248,1
2.927790403,-6.370729446,1,1.760691762,1,-9.727952003,1,2.452236890792847,1,5.000829696655273,1,-1.862079501,1,0.8531401753425598,1,-1.130516171,1,-1.793540001,1
2.931789875,-6.449955463,1,1.788676619529724,1,-9.895154953,1,2.451783657073975,1,5.115017414093018,1,-1.814841628,1,0.841621995,1,-1.111610889,1,-1.769863367,1
2.935791254,-6.567147255,1,1.72791326,1,-10.09049988,1,2.443219900131226,1,5.222027302,1,-1.752137184,1,0.830549955,1,-1.09245491,1,-1.74649024,1
2.939788818,-6.811619282,1,1.848161220550537,1,-10.30072498,1,2.448424100875854,1,5.325728893280029,1,-1.691137314,1,0.8199579119682312,1,-1.073078156,1,-1.723426342,1
2.94378829,-7.025148392,1,1.908150672912598,1,-10.47644901,1,2.451907157897949,1,5.421215534210205,1,-1.634685159,1,0.8098247647285461,1,-1.053488493,1,-1.700626373,1
2.947789907,-7.002188683,1,1.896212458610535,1,-10.83442402,1,2.448102712631226,1,5.505040645599365,1,-1.572951555,1,0.8002015352249146,1,-1.03371954,1,-1.678155541,1
2.951787233,-7.489688873,1,1.900343298912048,1,-11.00154018,1,2.468015432357788,1,5.583838463,1,-1.522040725,1,0.7911355495452881,1,-1.013790607,1,-1.656018615,1
2.955786705,-7.721032619,1,1.740966558456421,1,-11.23025703,1,2.467617750167847,1,5.668087005615234,1,-1.46377492,1,0.7826188802719116,1,-0.993663371,1,-1.634209752,1
2.959788322,-8.024104118,1,1.495222806930542,1,-11.4038229,1,2.461364507675171,1,5.748776435852051,1,-1.425941229,1,0.7745740413665771,1,-0.973351181,1,-1.612701178,1
2.963785887,-8.151267052,1,1.328262925,1,-11.55686665,1,2.441752195358276,1,5.824880599975586,1,-1.385882497,1,0.7669999599456787,1,-0.95282954,1,-1.591529369,1
2.967785358,-8.35130024,1,1.116743803024292,1,-11.73023319,1,2.412838697433472,1,5.888754367828369,1,-1.348943233,1,0.759842575,1,-0.932125926,1,-1.570689678,1
2.971786737,-8.558303833,1,1.009147406,1,-11.89753532,1,2.376965522766113,1,5.947795391082764,1,-1.316763043,1,0.7531184554100037,1,-0.911251366,1,-1.550220847,1
2.975784302,-8.704319954,1,0.8885136246681213,1,-12.05879211,1,2.343239068984985,1,5.988085269927979,1,-1.296250582,1,0.7468501925468445,1,-0.890232205,1,-1.530169249,1
2.979783773,-8.818593979,1,0.749385655,1,-12.12795162,1,2.300909996032715,1,6.018498898,1,-1.272449017,1,0.7410456538200378,1,-0.869081676,1,-1.510585904,1
2.983791113,-9.020204544,1,0.5732136368751526,1,-12.25869751,1,2.261543035507202,1,6.042060852050781,1,-1.257158399,1,0.7357025146484375,1,-0.847843707,1,-1.491468549,1
2.987794638,-9.243556976,1,0.5001198053359985,1,-12.39985085,1,2.219813108444214,1,6.049959659576416,1,-1.253326893,1,0.7308470010757446,1,-0.826499999,1,-1.472856283,1
2.991794348,-9.405684471,1,0.3804507851600647,1,-12.51265335,1,2.172668933868408,1,6.054049968719482,1,-1.256482959,1,0.726476789,1,-0.805095017,1,-1.454788446,1
2.995795965,-9.548372269,1,0.2658858001232147,1,-12.66336536,1,2.122232675552368,1,6.051368713378906,1,-1.266156673,1,0.722571075,1,-0.783613086,1,-1.43727684,1
2.999793291,-9.624191284,1,0.1905668526887894,1,-12.76245403,1,2.073440551757813,1,6.033754825592041,1,-1.280369997,1,0.7191461324691772,1,-0.76209569,1,-1.420344234,1
3.003792524,-9.703355789,1,0.1107462644577026,1,-12.95514965,1,2.021872758865356,1,6.004984378814697,1,-1.306032538,1,0.7161862254142761,1,-0.740556359,1,-1.404006958,1
3.007794142,-9.861577988,1,0.1644361168146133,1,-13.12914371,1,1.962162494659424,1,5.972990513,1,-1.334405899,1,0.7136791348457336,1,-0.719015837,1,-1.388281703,1
3.011791706,-10.00550938,1,-0.048724774,1,-13.27620125,1,1.893568754196167,1,5.929894447,1,-1.371168971,1,0.7115676403045654,1,-0.697465062,1,-1.373179197,1
3.015790939,-10.17060089,1,-0.309697539,1,-13.51597023,1,1.814473748207092,1,5.889800548553467,1,-1.414645195,1,0.709809422,1,-0.675911725,1,-1.358693004,1
3.019792318,-10.51932621,1,-0.607263625,1,-13.68825531,1,1.720974922180176,1,5.846207618713379,1,-1.458666563,1,0.7083079218864441,1,-0.654361427,1,-1.344800711,1
3.023789883,-10.78190231,1,-0.841688335,1,-13.89806557,1,1.607890486717224,1,5.811007022857666,1,-1.508815885,1,0.7069856524467468,1,-0.632792234,1,-1.331495285,1
3.027789354,-10.96837997,1,-1.031327248,1,-13.98321915,1,1.481123089790344,1,5.779267788,1,-1.560479283,1,0.7057263851165771,1,-0.611179471,1,-1.318741083,1
3.031790733,-11.05838299,1,-1.225445151,1,-13.9935751,1,1.343156576156616,1,5.741617202758789,1,-1.614398003,1,0.704465926,1,-0.589507818,1,-1.306506753,1
3.035788298,-11.14943218,1,-1.439336181,1,-13.94005775,1,1.193783640861511,1,5.699963092803955,1,-1.659581065,1,0.7031339406967163,1,-0.567816675,1,-1.294786215,1
3.039787769,-11.23638344,1,-1.72669971,1,-13.90942764,1,1.042645215988159,1,5.648804664611816,1,-1.702647924,1,0.7016738653182983,1,-0.546142101,1,-1.283551455,1
3.043789387,-11.47457314,1,-1.929357052,1,-13.78442764,1,0.8643688559532166,1,5.584711074829102,1,-1.729799986,1,0.7000239491462708,1,-0.524546921,1,-1.272805929,1
3.047786713,-11.75791931,1,-2.140763044,1,-13.677001,1,0.6858035922050476,1,5.509529113769531,1,-1.752693892,1,0.6980867385864258,1,-0.503070951,1,-1.26254046,1
3.051786184,-12.20238781,1,-2.304080963,1,-13.53012848,1,0.5061835050582886,1,5.428937911987305,1,-1.782416701,1,0.695836067,1,-0.481763482,1,-1.252753496,1
3.055787563,-12.57370758,1,-2.362078428,1,-13.3247118,1,0.3280676007270813,1,5.348569869995117,1,-1.799400449,1,0.6932718753814697,1,-0.460610747,1,-1.243434668,1
3.059785128,-12.82679176,1,-2.450209141,1,-13.05282307,1,0.1574158221483231,1,5.265178680419922,1,-1.809238315,1,0.6903762221336365,1,-0.439654946,1,-1.234569788,1
3.063784599,-12.98784637,1,-2.567608595,1,-12.83676624,1,-0.005614107,1,5.185771465301514,1,-1.811389446,1,0.687156618,1,-0.418906033,1,-1.226116538,1
