Time,inertial-6253.76535:estCompensatedAccelX,inertial-6253.76535:estCompensatedAccelX:valid,inertial-6253.76535:estCompensatedAccelY,inertial-6253.76535:estCompensatedAccelY:valid,inertial-6253.76535:estCompensatedAccelZ,inertial-6253.76535:estCompensatedAccelZ:valid,inertial-6253.76535:estAngularRateX,inertial-6253.76535:estAngularRateX:valid,inertial-6253.76535:estAngularRateY,inertial-6253.76535:estAngularRateY:valid,inertial-6253.76535:estAngularRateZ,inertial-6253.76535:estAngularRateZ:valid,inertial-6253.76535:estRoll,inertial-6253.76535:estRoll:valid,inertial-6253.76535:estPitch,inertial-6253.76535:estPitch:valid,inertial-6253.76535:estYaw,inertial-6253.76535:estYaw:valid
2.499991655,-4.743634224,1,-2.144284248,1,-8.582011223,1,0.056048661,1,-0.100295424,1,-0.093625247,1,0.236628458,1,-0.495321035,1,-0.198103458,1
2.503989458,-4.753652573,1,-2.024758816,1,-8.718789101,1,0.059890751,1,-0.109144419,1,-0.088065408,1,0.237108201,1,-0.495646864,1,-0.198627934,1
2.507989168,-4.758258343,1,-1.765292764,1,-8.713414192,1,0.059218343,1,-0.10907732,1,-0.082855724,1,0.23757495,1,-0.495984644,1,-0.199118525,1
2.511990786,-4.790973663,1,-1.650625587,1,-8.654870033,1,0.069058813,1,-0.116384588,1,-0.087663859,1,0.23806864,1,-0.496345937,1,-0.199607834,1
2.515988588,-4.850496769,1,-1.467921495,1,-8.742073059,1,0.07865195,1,-0.125452757,1,-0.100026235,1,0.238632023,1,-0.49673453,1,-0.200158611,1
2.51998806,-4.859600544,1,-1.166003585,1,-8.902804375,1,0.104537919,1,-0.137840301,1,-0.11463809,1,0.23929815,1,-0.497139901,1,-0.200782523,1
2.523989677,-4.815813065,1,-1.008784413,1,-8.886241913,1,0.134598181,1,-0.151597992,1,-0.112013467,1,0.240092173,1,-0.497586906,1,-0.201439381,1
2.52798748,-4.733798981,1,-1.093647122,1,-8.938505173,1,0.161260501,1,-0.168947607,1,-0.111933641,1,0.241004661,1,-0.498102635,1,-0.202108905,1
2.531986952,-4.705727577,1,-1.455160975,1,-8.836006165,1,0.185275555,1,-0.189558491,1,-0.114991762,1,0.241856471,1,-0.498900801,1,-0.202444121,1
2.535988808,-4.709150314,1,-1.8176651,1,-8.744017601,1,0.198533818,1,-0.204645023,1,-0.115964413,1,0.242966428,1,-0.499521643,1,-0.203298748,1
2.539986372,-4.660367966,1,-2.09946084,1,-8.664549828,1,0.203192666,1,-0.217487529,1,-0.105264135,1,0.24412328,1,-0.500229478,1,-0.20401904,1
2.543985844,-4.772517681,1,-2.14397788,1,-8.626497269,1,0.208134174,1,-0.225016862,1,-0.097007342,1,0.245279774,1,-0.500990987,1,-0.204712272,1
2.54799366,-4.890823841,1,-2.219293118,1,-8.49569416,1,0.204307124,1,-0.228064552,1,-0.091476932,1,0.246427134,1,-0.501777709,1,-0.205382228,1
2.551997185,-4.939994335,1,-2.338864326,1,-8.348269463,1,0.197262123,1,-0.225511327,1,-0.089133561,1,0.24755168,1,-0.502567768,1,-0.206043348,1
2.555996895,-4.893312931,1,-2.470588923,1,-8.284522057,1,0.193486959,1,-0.219705105,1,-0.080033742,1,0.248636618,1,-0.503345251,1,-0.206668034,1
2.559999228,-5.031862259,1,-2.713427067,1,-8.310321808,1,0.17978251,1,-0.214516357,1,-0.068979099,1,0.249667361,1,-0.50410521,1,-0.207245052,1
2.563997507,-4.712789059,1,-2.602842569,1,-8.40592289,1,0.176619768,1,-0.201362759,1,-0.070512369,1,0.250613242,1,-0.504832447,1,-0.207783431,1
2.567997217,-4.876873016,1,-2.702935934,1,-8.174636841,1,0.16531603,1,-0.199534044,1,-0.069741607,1,0.251557946,1,-0.505542338,1,-0.208321974,1
2.571998835,-4.871386051,1,-2.601104736,1,-8.135557175,1,0.156546324,1,-0.192627922,1,-0.057259586,1,0.252439737,1,-0.506230295,1,-0.208817288,1
2.575996399,-4.702691078,1,-2.503637552,1,-8.096644402,1,0.149631947,1,-0.18854405,1,-0.053772356,1,0.253281891,1,-0.506915271,1,-0.209284738,1
2.579996109,-4.655876637,1,-2.564641953,1,-8.199994087,1,0.132717252,1,-0.19105114,1,-0.042586599,1,0.254040003,1,-0.507604003,1,-0.209712341,1
2.583997965,-4.695976734,1,-2.673878193,1,-8.183231354,1,0.122417226,1,-0.187982455,1,-0.029693911,1,0.254747808,1,-0.508293033,1,-0.210097656,1
2.587995529,-4.728476524,1,-2.747400284,1,-8.088265419,1,0.108268544,1,-0.181248412,1,-0.029762249,1,0.255381763,1,-0.508986533,1,-0.210440025,1
2.591995478,-4.89973402,1,-2.753098726,1,-8.136376381,1,0.088720962,1,-0.180225372,1,-0.026942624,1,0.255941421,1,-0.50965929,1,-0.210779056,1
2.595997095,-5.064316273,1,-2.710035801,1,-8.035773277,1,0.066741347,1,-0.166144699,1,-0.033283904,1,0.256415695,1,-0.510302663,1,-0.211118892,1
2.599995136,-5.068476677,1,-2.712468147,1,-8.002626419,1,0.054991938,1,-0.160118714,1,-0.02911279,1,0.25683248,1,-0.510896325,1,-0.211454645,1
2.603994608,-4.925140858,1,-2.743907928,1,-7.920681953,1,0.040358931,1,-0.145693779,1,-0.026442515,1,0.257166982,1,-0.511458278,1,-0.211754575,1
2.607996225,-4.815654755,1,-2.762163877,1,-7.894695282,1,0.021400474,1,-0.141361833,1,-0.013040585,1,0.257408768,1,-0.511994898,1,-0.212008327,1
2.61199379,-4.711767197,1,-2.859660149,1,-7.957392693,1,0.004084142,1,-0.132628143,1,0.006344741,1,0.257543594,1,-0.51252228,1,-0.21218735,1
2.615993261,-4.685861588,1,-2.882100821,1,-7.957356453,1,-0.020593794,1,-0.125854298,1,0.019100823,1,0.257560492,1,-0.513036072,1,-0.212281212,1
2.619994879,-4.800426483,1,-2.762977123,1,-7.934551239,1,-0.039160129,1,-0.120822795,1,0.032110587,1,0.257464468,1,-0.513543308,1,-0.212311655,1
2.623992682,-5.028242111,1,-2.610119343,1,-8.01821804,1,-0.05570177,1,-0.115444779,1,0.034973156,1,0.257262141,1,-0.514039278,1,-0.212295324,1
2.627992153,-5.181435108,1,-2.419826746,1,-7.987711906,1,-0.072709903,1,-0.104019634,1,0.028741604,1,0.256994337,1,-0.514489174,1,-0.21228534,1
2.631993771,-5.278580666,1,-2.390486956,1,-7.981257915,1,-0.085291706,1,-0.092686944,1,0.023722988,1,0.256691992,1,-0.514903426,1,-0.212288186,1
2.635991573,-5.140817642,1,-2.47509551,1,-7.965304375,1,-0.083402373,1,-0.087440886,1,0.023324512,1,0.256361693,1,-0.515282333,1,-0.212294742,1
2.639991283,-5.029729843,1,-2.545584679,1,-7.926091194,1,-0.08948423,1,-0.08163774,1,0.024764752,1,0.256004572,1,-0.515626371,1,-0.212281883,1
2.643993139,-4.967150688,1,-2.541511297,1,-7.942510605,1,-0.095772222,1,-0.072697654,1,0.036716621,1,0.255604446,1,-0.515950859,1,-0.21222724,1
2.647990704,-4.908065319,1,-2.630928278,1,-7.944591045,1,-0.104051366,1,-0.066473648,1,0.045913793,1,0.255155891,1,-0.516267657,1,-0.212127969,1
2.651990414,-5.007836819,1,-2.521855354,1,-8.070394516,1,-0.110432863,1,-0.065846145,1,0.052769896,1,0.254649788,1,-0.516567707,1,-0.211978674,1
2.65599227,-4.992014408,1,-2.319417715,1,-8.142347336,1,-0.114338711,1,-0.056907315,1,0.050582074,1,0.254105181,1,-0.516848862,1,-0.211800903,1
2.659990072,-5.022776127,1,-2.307454109,1,-8.144524574,1,-0.113087758,1,-0.056559119,1,0.060013857,1,0.253552109,1,-0.517127633,1,-0.211616352,1
2.663989782,-4.947309494,1,-2.373220682,1,-8.148860931,1,-0.117639542,1,-0.055878449,1,0.064371459,1,0.252985805,1,-0.517397225,1,-0.211404458,1
2.66799736,-4.803086758,1,-2.385681629,1,-8.120550156,1,-0.122743636,1,-0.04645475,1,0.081520967,1,0.252369434,1,-0.517665386,1,-0.21113658,1
2.672001362,-4.701688766,1,-2.609957218,1,-8.160414696,1,-0.130812794,1,-0.047103915,1,0.087740906,1,0.251709968,1,-0.517916381,1,-0.210815892,1
2.67600131,-4.785718918,1,-2.594458103,1,-8.267790794,1,-0.141544491,1,-0.042503197,1,0.103370301,1,0.250984907,1,-0.518181205,1,-0.210429773,1
2.680003166,-4.879964828,1,-2.468016863,1,-8.191519737,1,-0.141731426,1,-0.040900361,1,0.117685609,1,0.250192165,1,-0.51845485,1,-0.209981635,1
2.684000731,-4.988516331,1,-2.346042633,1,-8.20988369,1,-0.152318433,1,-0.041190088,1,0.125784338,1,0.249365166,1,-0.518739641,1,-0.209492132,1
2.688000441,-5.03791523,1,-2.300247908,1,-8.283395767,1,-0.155570775,1,-0.038711742,1,0.131578907,1,0.248490468,1,-0.519027233,1,-0.208963484,1
2.692002058,-4.973948479,1,-2.215131044,1,-8.226078033,1,-0.153108269,1,-0.044623241,1,0.135802224,1,0.247604787,1,-0.519321561,1,-0.208413437,1
2.695999861,-4.91187048,1,-2.384928465,1,-8.203789711,1,-0.155460089,1,-0.04150578,1,0.145774245,1,0.246699303,1,-0.519621372,1,-0.207837954,1
2.699999332,-4.839147568,1,-2.560081959,1,-8.186016083,1,-0.165323243,1,-0.0465817,1,0.153463051,1,0.245753169,1,-0.519938469,1,-0.207214922,1
2.704000711,-4.887525558,1,-2.562573433,1,-8.190329552,1,-0.177991673,1,-0.047297172,1,0.166163921,1,0.244743094,1,-0.520288169,1,-0.206542373,1
2.707998514,-4.980946541,1,-2.576644421,1,-8.221295357,1,-0.186715513,1,-0.050360117,1,0.175912082,1,0.243645698,1,-0.520632982,1,-0.205820888,1
2.711998224,-4.968760967,1,-2.368586063,1,-8.184770584,1,-0.200055584,1,-0.043374222,1,0.1851625,1,0.242495105,1,-0.520994127,1,-0.205055147,1
2.715999842,-5.12139225,1,-2.408122778,1,-8.201002121,1,-0.205781668,1,-0.037295148,1,0.193902075,1,0.241298661,1,-0.521334648,1,-0.20425877,1
2.719997644,-4.958741188,1,-2.022041082,1,-8.218982697,1,-0.212399676,1,-0.017642109,1,0.198147327,1,0.240022555,1,-0.521633208,1,-0.20338957,1
2.723997355,-5.096414566,1,-2.102846861,1,-8.247301102,1,-0.204589307,1,-0.042113576,1,0.193006158,1,0.238779113,1,-0.521942019,1,-0.202550411,1
2.72799921,-4.977941036,1,-1.932967305,1,-8.253582954,1,-0.204136193,1,-0.038491506,1,0.191393435,1,0.237542614,1,-0.522266328,1,-0.201735914,1
2.731997013,-4.985185623,1,-1.915566087,1,-8.251579285,1,-0.202607527,1,-0.033101607,1,0.191660404,1,0.236314416,1,-0.522583902,1,-0.200908348,1
2.735996485,-5.020696163,1,-1.868159413,1,-8.270737648,1,-0.204700068,1,-0.032255206,1,0.191659138,1,0.235095337,1,-0.522874057,1,-0.20009397,1
2.739998102,-5.04919672,1,-1.848793507,1,-8.387179375,1,-0.195269212,1,-0.033818349,1,0.184407517,1,0.233894855,1,-0.523168921,1,-0.199294746,1
2.743995905,-5.016552925,1,-1.688595891,1,-8.426717758,1,-0.191177472,1,-0.035083964,1,0.164343029,1,0.23274456,1,-0.523456752,1,-0.198542923,1
2.747995377,-5.077973843,1,-1.669092298,1,-8.345742226,1,-0.184815347,1,-0.037127022,1,0.156056806,1,0.231651515,1,-0.523752213,1,-0.197863609,1
2.751997232,-5.072427273,1,-1.814992666,1,-8.245200157,1,-0.177973941,1,-0.037459403,1,0.149647504,1,0.230598316,1,-0.524032891,1,-0.197207034,1
2.755994797,-4.901839733,1,-1.908914447,1,-8.221394539,1,-0.174814567,1,-0.033574279,1,0.146871105,1,0.229576826,1,-0.524304628,1,-0.196574301,1
2.759994507,-4.864299774,1,-1.883518457,1,-8.2853508,1,-0.169945776,1,-0.036403485,1,0.145937011,1,0.228566989,1,-0.52457279,1,-0.195948675,1
2.763996363,-4.904518127,1,-1.944431782,1,-8.265709877,1,-0.165775076,1,-0.040067669,1,0.140890762,1,0.22757934,1,-0.524859667,1,-0.195336506,1
2.767994165,-4.947660446,1,-1.835636973,1,-8.330939293,1,-0.159884602,1,-0.047218669,1,0.144895986,1,0.226630747,1,-0.52515161,1,-0.19474411,1
2.771993876,-4.918056965,1,-1.712025046,1,-8.308919907,1,-0.152910456,1,-0.052634202,1,0.133459568,1,0.225721598,1,-0.525468886,1,-0.194175303,1
2.775995493,-4.905418873,1,-1.646890402,1,-8.35428524,1,-0.148026526,1,-0.054411594,1,0.131535187,1,0.22484079,1,-0.525783479,1,-0.193627104,1
2.779992819,-4.989469051,1,-1.626249909,1,-8.376686096,1,-0.144781008,1,-0.049672425,1,0.131337881,1,0.223978966,1,-0.526108325,1,-0.193087578,1
2.783992529,-4.772510052,1,-1.712483764,1,-8.354602814,1,-0.141165778,1,-0.065912083,1,0.129745007,1,0.223507822,1,-0.526524603,1,-0.193598911,1
2.788000345,-4.88340044,1,-1.689855576,1,-8.374747276,1,-0.135825083,1,-0.068542868,1,0.123203099,1,0.222703218,1,-0.526896894,1,-0.193094686,1
2.792004108,-4.945293903,1,-1.646292448,1,-8.412209511,1,-0.130811781,1,-0.076622292,1,0.115554959,1,0.221934244,1,-0.527290881,1,-0.192633942,1
2.796003819,-4.938609123,1,-1.825629711,1,-8.311637878,1,-0.126803666,1,-0.077441536,1,0.117803283,1,0.221207738,1,-0.527700722,1,-0.192197084,1
2.800005436,-4.919457436,1,-1.69837153,1,-8.366640091,1,-0.121687174,1,-0.083435819,1,0.118953116,1,0.220492527,1,-0.528121889,1,-0.191746667,1
2.804003239,-4.952142715,1,-1.74271524,1,-8.299901009,1,-0.118806235,1,-0.08639095,1,0.117323108,1,0.21978949,1,-0.528560758,1,-0.191301569,1
2.808003187,-4.961864948,1,-1.780081987,1,-8.311309814,1,-0.108877219,1,-0.092300802,1,0.113478944,1,0.219116524,1,-0.5290097,1,-0.190874934,1
2.812004566,-4.918148041,1,-1.760103583,1,-8.283216476,1,-0.109277122,1,-0.093207881,1,0.107527748,1,0.218468651,1,-0.529466808,1,-0.190467417,1
2.816002369,-4.840828419,1,-1.709338546,1,-8.32474041,1,-0.107873872,1,-0.098122478,1,0.104835264,1,0.217838064,1,-0.529931307,1,-0.190073952,1
2.820001841,-4.821545601,1,-1.651319981,1,-8.406085968,1,-0.100105979,1,-0.104784928,1,0.092860825,1,0.217242911,1,-0.530418873,1,-0.189726174,1
2.824003696,-4.789531231,1,-1.658100486,1,-8.408493042,1,-0.094185285,1,-0.121922269,1,0.096992373,1,0.216696203,1,-0.530937135,1,-0.189407066,1
2.828001261,-4.878781319,1,-1.700740933,1,-8.378970146,1,-0.092645675,1,-0.123183265,1,0.093728364,1,0.216166452,1,-0.531492829,1,-0.189095855,1
2.832000732,-4.888721466,1,-1.717265725,1,-8.39268589,1,-0.089694485,1,-0.131175697,1,0.094257303,1,0.215660676,1,-0.53207314,1,-0.188799486,1
2.836002588,-4.966253757,1,-1.70988071,1,-8.404998779,1,-0.082236432,1,-0.133976683,1,0.093842179,1,0.215168625,1,-0.532666326,1,-0.188502744,1
2.840000153,-4.962121487,1,-1.649300218,1,-8.369988441,1,-0.078322761,1,-0.132350013,1,0.095842056,1,0.214692384,1,-0.533274293,1,-0.188211456,1
2.843999863,-4.95551157,1,-1.630873084,1,-8.35187912,1,-0.074362181,1,-0.13864249,1,0.094412901,1,0.214235604,1,-0.533894062,1,-0.187917024,1
2.848001242,-4.93292141,1,-1.660874248,1,-8.366622925,1,-0.073612295,1,-0.140229464,1,0.098440304,1,0.213787898,1,-0.53451407,1,-0.187614709,1
2.851999044,-4.813669205,1,-1.602793932,1,-8.40933609,1,-0.067532279,1,-0.14574036,1,0.092656061,1,0.213363051,1,-0.535153866,1,-0.187324867,1
2.855998755,-4.83800745,1,-1.533254266,1,-8.470895767,1,-0.060079359,1,-0.160317108,1,0.086632416,1,0.21298404,1,-0.53583169,1,-0.187073395,1
2.86000061,-4.961776257,1,-1.513112307,1,-8.40144825,1,-0.050657608,1,-0.171886504,1,0.086692363,1,0.21263738,1,-0.536548913,1,-0.186837882,1
2.863998413,-5.004007339,1,-1.55776906,1,-8.382350922,1,-0.044082131,1,-0.176592916,1,0.085750006,1,0.212340355,1,-0.537300229,1,-0.186618686,1
2.867998123,-4.975012779,1,-1.61187458,1,-8.315609932,1,-0.032108176,1,-0.185108081,1,0.078368172,1,0.212091103,1,-0.538079262,1,-0.1864274,1
2.871999741,-4.989760876,1,-1.661875606,1,-8.318303108,1,-0.020061718,1,-0.192445487,1,0.075319648,1,0.211903349,1,-0.53888005,1,-0.186273351,1
2.875997543,-5.010587692,1,-1.637459517,1,-8.335167885,1,-0.01088336,1,-0.197353631,1,0.064915821,1,0.211775094,1,-0.539696395,1,-0.186143383,1
2.879997253,-4.986305714,1,-1.530388236,1,-8.407119751,1,0.000719285,1,-0.20240587,1,0.061106302,1,0.211712241,1,-0.540524364,1,-0.186053872,1
2.883998632,-5.004346848,1,-1.422125816,1,-8.419665337,1,0.017578978,1,-0.208353952,1,0.054270536,1,0.211713821,1,-0.541374803,1,-0.185995236,1
2.887996435,-5.035480499,1,-1.473840475,1,-8.32979393,1,0.027793894,1,-0.212368652,1,0.050663702,1,0.211791739,1,-0.542236447,1,-0.185975179,1
2.891996145,-4.973896503,1,-1.695088744,1,-8.25505352,1,0.040250629,1,-0.218967766,1,0.052057624,1,0.211921617,1,-0.543130696,1,-0.185959265,1
2.895997763,-4.869813919,1,-1.814450502,1,-8.260292053,1,0.053391472,1,-0.219318405,1,0.048420779,1,0.212103963,1,-0.54402554,1,-0.185939789,1
2.899995565,-4.580763817,1,-1.927326322,1,-8.271775246,1,0.056450345,1,-0.231677577,1,0.046833053,1,0.212327793,1,-0.54495424,1,-0.185949743,1
2.903995037,-4.790547371,1,-1.824444771,1,-8.343587875,1,0.070879757,1,-0.247621417,1,0.04832083,1,0.212593377,1,-0.545928299,1,-0.185971126,1
2.908002615,-4.837340832,1,-1.552363038,1,-8.310148239,1,0.08054702,1,-0.252114445,1,0.044797033,1,0.212901071,1,-0.546944022,1,-0.185999706,1
2.912006378,-4.89632225,1,-1.535049438,1,-8.374084473,1,0.093867362,1,-0.264117777,1,0.03779304,1,0.213279217,1,-0.547982514,1,-0.186056569,1
2.916006088,-4.952232838,1,-1.560274839,1,-8.333936691,1,0.105692416,1,-0.270987511,1,0.033749171,1,0.213732168,1,-0.549067438,1,-0.186167255,1
2.920007944,-5.033522129,1,-1.679889441,1,-8.436775208,1,0.11270754,1,-0.285503626,1,0.034776516,1,0.214241952,1,-0.550188541,1,-0.18629095,1
2.924005747,-5.065967083,1,-1.773795009,1,-8.314535141,1,0.1254116,1,-0.288129926,1,0.030789288,1,0.214792803,1,-0.551335454,1,-0.186431214,1
2.928005219,-5.024076462,1,-1.871109009,1,-8.372659683,1,0.137309,1,-0.293260127,1,0.030040493,1,0.215388387,1,-0.552490473,1,-0.18657586,1
2.932006836,-4.963869572,1,-1.873205543,1,-8.576955795,1,0.142671824,1,-0.31545946,1,0.045953229,1,0.216005921,1,-0.553703964,1,-0.186699331,1
2.936004639,-4.733466148,1,-1.950740337,1,-8.343883514,1,0.156987637,1,-0.328530222,1,0.057663135,1,0.216664135,1,-0.555008411,1,-0.186797366,1
2.94000411,-4.78668499,1,-2.222260237,1,-8.304632187,1,0.166205406,1,-0.321705133,1,0.086953543,1,0.217309326,1,-0.556332827,1,-0.186797306,1
2.944005966,-4.820525646,1,-2.187287331,1,-8.405162811,1,0.195178777,1,-0.325094938,1,0.111628376,1,0.217953369,1,-0.557684362,1,-0.186667413,1
2.948003531,-4.831221581,1,-2.61069417,1,-8.439219475,1,0.215884805,1,-0.331141442,1,0.142684266,1,0.218655467,1,-0.559071541,1,-0.186416969,1
2.952003241,-5.000138283,1,-2.749490738,1,-8.264576912,1,0.226454765,1,-0.344500393,1,0.171476901,1,0.219322041,1,-0.56053412,1,-0.186020464,1
2.956004858,-5.138774395,1,-2.635863543,1,-8.112693787,1,0.226668954,1,-0.359683484,1,0.193808928,1,0.21997568,1,-0.562068343,1,-0.185535684,1
2.960002661,-5.301891804,1,-2.040256262,1,-8.611157417,1,0.255154133,1,-0.365985096,1,0.208923846,1,0.220635012,1,-0.563652515,1,-0.184965536,1
2.964002371,-4.796863079,1,-2.184897423,1,-8.440247536,1,0.244342506,1,-0.405247062,1,0.213852048,1,0.221337929,1,-0.565348327,1,-0.184385434,1
2.96800375,-4.994617939,1,-1.740482092,1,-8.62074852,1,0.215201423,1,-0.420894831,1,0.192630306,1,0.221967191,1,-0.567134023,1,-0.183867738,1
2.972001314,-4.888498306,1,-1.975672245,1,-8.698662758,1,0.202475712,1,-0.461396486,1,0.189802036,1,0.222596511,1,-0.569026589,1,-0.18345505,1
2.976000786,-4.995872498,1,-1.397115946,1,-8.58306694,1,0.189071998,1,-0.48960793,1,0.174710885,1,0.223157674,1,-0.571051717,1,-0.183100834,1
2.980002642,-5.022922993,1,-1.343837023,1,-8.718833923,1,0.212042302,1,-0.518590927,1,0.158191934,1,0.223838955,1,-0.573177338,1,-0.182873875,1
2.984000444,-5.052186489,1,-1.384584546,1,-8.889564514,1,0.23245208,1,-0.547895312,1,0.160977617,1,0.22463043,1,-0.575403214,1,-0.182701856,1
2.987999916,-4.923602104,1,-2.058053493,1,-8.871305466,1,0.227714211,1,-0.594765484,1,0.153741568,1,0.225489005,1,-0.577769101,1,-0.182579502,1
2.992001534,-5.045995712,1,-1.537645936,1,-8.810194016,1,0.224645764,1,-0.62162447,1,0.145660385,1,0.226358443,1,-0.580277383,1,-0.182544351,1
2.995999336,-5.238516331,1,-1.121452808,1,-8.722833633,1,0.233663246,1,-0.656839013,1,0.129843846,1,0.227305114,1,-0.582894444,1,-0.182588115,1
2.999998808,-5.280626774,1,-0.781813979,1,-8.918663979,1,0.261566311,1,-0.685659707,1,0.11465288,1,0.2283663,1,-0.585615277,1,-0.182731465,1
3.004000187,-5.146164894,1,-1.513486147,1,-9.080199242,1,0.272901654,1,-0.721910059,1,0.086373001,1,0.229619414,1,-0.588451743,1,-0.183037147,1
3.00799799,-5.237802029,1,-1.076926231,1,-8.563550949,1,0.259098977,1,-0.766382813,1,0.070517123,1,0.230921268,1,-0.591434777,1,-0.183488175,1
3.011997461,-5.526736736,1,-1.239978075,1,-8.871843338,1,0.302686125,1,-0.806420863,1,0.047782429,1,0.232392862,1,-0.594540656,1,-0.184089452,1
3.015999317,-5.185503006,1,-1.167794347,1,-8.618677139,1,0.320891917,1,-0.829318583,1,0.042468682,1,0.234022558,1,-0.597766817,1,-0.184786618,1
3.019996881,-5.2477355,1,-1.686057925,1,-8.720005989,1,0.345422983,1,-0.875437319,1,0.033502929,1,0.235808134,1,-0.601117492,1,-0.18557553,1
3.023996353,-5.204905987,1,-2.036275387,1,-8.632133484,1,0.349647284,1,-0.90410161,1,0.032819532,1,0.237688541,1,-0.604615748,1,-0.186444029,1
3.027998209,-5.181570053,1,-2.156354427,1,-8.591191292,1,0.354934126,1,-0.946636915,1,0.042394802,1,0.239606455,1,-0.608252048,1,-0.187325805,1
3.032001972,-5.068745613,1,-2.601385355,1,-8.582984924,1,0.334843397,1,-0.98228693,1,0.054744862,1,0.241507649,1,-0.612045228,1,-0.188217133,1
3.036001682,-5.179715157,1,-2.415383577,1,-8.524935722,1,0.330998927,1,-1.018444538,1,0.0671065,1,0.24333781,1,-0.615954518,1,-0.189222366,1
3.040003538,-5.276937485,1,-2.200675964,1,-8.48506546,1,0.338035434,1,-1.048386455,1,0.085762739,1,0.245170236,1,-0.620044112,1,-0.190083787,1
3.044001341,-5.408864975,1,-2.370680332,1,-8.44213295,1,0.345965743,1,-1.07670331,1,0.1073604,1,0.247016758,1,-0.624249101,1,-0.190891773,1
3.048001051,-4.746348858,1,-2.56241703,1,-8.483831406,1,0.341366857,1,-1.098717928,1,0.113280229,1,0.248860925,1,-0.628555655,1,-0.191685796,1
3.052002668,-5.415839672,1,-2.755633593,1,-8.368017197,1,0.321320117,1,-1.144654989,1,0.127995148,1,0.25065887,1,-0.633035302,1,-0.192484826,1
3.056000233,-5.301040649,1,-3.105963707,1,-8.63084507,1,0.294902682,1,-1.179618835,1,0.141148061,1,0.25235036,1,-0.637670219,1,-0.19326371,1
3.059999943,-5.04148674,1,-3.184789658,1,-8.630252838,1,0.26050368,1,-1.227275372,1,0.166842178,1,0.2539033,1,-0.642475903,1,-0.194004476,1
3.06400156,-5.141373634,1,-3.296238899,1,-8.830553055,1,0.236549512,1,-1.277495861,1,0.200184092,1,0.25531581,1,-0.647505701,1,-0.194683909,1
3.067998886,-5.022425652,1,-3.201450348,1,-8.63570118,1,0.212690011,1,-1.323928595,1,0.236504376,1,0.256571412,1,-0.652758598,1,-0.195273757,1
3.071998358,-5.171064377,1,-3.180850506,1,-8.7675457,1,0.217590198,1,-1.390168667,1,0.263357818,1,0.257757276,1,-0.658261001,1,-0.195803061,1
3.075999975,-5.393853188,1,-3.385686874,1,-8.688994408,1,0.214190602,1,-1.446218133,1,0.286507547,1,0.258929402,1,-0.664031386,1,-0.196299925,1
3.079998016,-5.288404465,1,-3.364137173,1,-8.873823166,1,0.196639806,1,-1.509337544,1,0.319777161,1,0.260039002,1,-0.67005825,1,-0.196745798,1
3.083998203,-5.230082512,1,-3.406698465,1,-9.006691933,1,0.164865673,1,-1.568635702,1,0.352802634,1,0.260986358,1,-0.67635715,1,-0.19711785,1
3.087999821,-5.09028244,1,-2.949397087,1,-9.079587936,1,0.153032169,1,-1.642778754,1,0.389938861,1,0.261803508,1,-0.68294847,1,-0.197414055,1
3.091997623,-5.268039227,1,-2.717084408,1,-9.189878464,1,0.161278933,1,-1.704983473,1,0.411822081,1,0.262595177,1,-0.689819217,1,-0.197665855,1
3.095997095,-5.4176898,1,-2.864733219,1,-9.137047768,1,0.161693886,1,-1.785104513,1,0.434607983,1,0.263394326,1,-0.69701004,1,-0.197886467,1
3.099998713,-5.782209873,1,-3.077964306,1,-9.161767006,1,0.127804995,1,-1.850218654,1,0.465808362,1,0.264112622,1,-0.704502404,1,-0.198092327,1
3.103996515,-5.902603626,1,-3.061469793,1,-9.291357994,1,0.089374311,1,-1.915091276,1,0.496551216,1,0.264634669,1,-0.712271512,1,-0.198234022,1
3.107995987,-5.456397533,1,-1.888780951,1,-9.343426704,1,0.105025202,1,-2.014979362,1,0.527478635,1,0.265072167,1,-0.720386922,1,-0.198332354,1
3.111997604,-5.543578148,1,-1.658143044,1,-9.567420006,1,0.173168629,1,-2.097278357,1,0.547213972,1,0.26570788,1,-0.728882134,1,-0.19844228,1
3.115995407,-5.365654469,1,-1.789013147,1,-9.533445358,1,0.226286411,1,-2.197251558,1,0.561950803,1,0.266613871,1,-0.737744749,1,-0.19859606,1
3.119994879,-5.548025608,1,-2.121082544,1,-9.448624611,1,0.26075235,1,-2.294372559,1,0.581720531,1,0.267746091,1,-0.747024417,1,-0.198820084,1
3.123996735,-5.526428223,1,-2.172569036,1,-9.484621048,1,0.278565019,1,-2.392197609,1,0.60585928,1,0.269008458,1,-0.756685376,1,-0.199085832,1
3.127994299,-5.716629505,1,-2.576801062,1,-9.731876373,1,0.290029764,1,-2.486159801,1,0.631313086,1,0.270364374,1,-0.766746521,1,-0.199392945,1
3.131993771,-5.736580372,1,-3.240665197,1,-9.576508522,1,0.25105387,1,-2.561526775,1,0.667228997,1,0.271652281,1,-0.777170181,1,-0.199670285,1
3.135995626,-5.762342453,1,-3.3871665,1,-9.568798065,1,0.199793637,1,-2.644095421,1,0.708306789,1,0.27270934,1,-0.787932277,1,-0.19988583,1
3.139993429,-5.649097443,1,-3.220344543,1,-9.249881744,1,0.162676454,1,-2.748598814,1,0.740049958,1,0.273551911,1,-0.799094021,1,-0.200054631,1
3.143993139,-5.858798504,1,-2.882459879,1,-9.318172455,1,0.14138934,1,-2.844944954,1,0.76412648,1,0.274278373,1,-0.810671389,1,-0.200220257,1
3.147994518,-5.734696865,1,-2.6685462,1,-9.347486496,1,0.134454072,1,-2.943850994,1,0.786328852,1,0.274982423,1,-0.822656453,1,-0.200437039,1
3.151998281,-5.601715565,1,-2.56201005,1,-9.384541512,1,0.14500013,1,-3.051484108,1,0.81132406,1,0.275755644,1,-0.835056543,1,-0.200710624,1
3.155997992,-5.997581482,1,-2.714671373,1,-9.308146477,1,0.136578172,1,-3.14887023,1,0.830646574,1,0.276576817,1,-0.847894847,1,-0.201046646,1
3.159999371,-6.204194069,1,-2.587371588,1,-9.093346596,1,0.14353846,1,-3.261593103,1,0.846055806,1,0.277471364,1,-0.861149848,1,-0.201484725,1
3.163996935,-7.234444618,1,-2.670285463,1,-9.022312164,1,0.124005251,1,-3.348263741,1,0.876107216,1,0.278392315,1,-0.874821424,1,-0.201979712,1
3.167996645,-7.299629211,1,-2.608626127,1,-8.947087288,1,0.092222199,1,-3.381366253,1,0.901829243,1,0.279176235,1,-0.888747096,1,-0.202447519,1
3.171998501,-6.283653259,1,-2.468485594,1,-9.08023262,1,0.078099594,1,-3.479127645,1,0.923325956,1,0.279863864,1,-0.902933002,1,-0.202900931,1
3.175996304,-6.612136841,1,-2.744198561,1,-9.381153107,1,0.058144335,1,-3.562658072,1,0.954904258,1,0.280517876,1,-0.917512774,1,-0.203364953,1
3.179996729,-8.214697838,1,-2.352208614,1,-10.13933563,1,0.048489463,1,-3.60819602,1,0.961238742,1,0.281076789,1,-0.93236959,1,-0.203832939,1
3.183998108,-7.194030762,1,-2.543376923,1,-9.334992409,1,-0.018208317,1,-3.67570734,1,0.992673159,1,0.281521738,1,-0.94743824,1,-0.204304665,1
3.187995911,-7.472443581,1,-3.122180939,1,-9.163175583,1,-0.073575467,1,-3.752173424,1,1.01765728,1,0.28174448,1,-0.962830126,1,-0.204786509,1
3.191995382,-7.2655406,1,-2.260666609,1,-9.270220757,1,-0.112144776,1,-3.8458004,1,1.040386915,1,0.281717479,1,-0.978568256,1,-0.205234259,1
3.195997,-7.68812418,1,-1.821739197,1,-9.672801018,1,-0.121143118,1,-3.92376399,1,1.045217276,1,0.281726599,1,-0.994669199,1,-0.205819011,1
3.199994564,-8.170372009,1,-1.684729338,1,-9.772224426,1,-0.080012567,1,-3.96196866,1,1.042558432,1,0.281909287,1,-1.010978222,1,-0.206517026,1
3.203994036,-8.725367546,1,-2.639613152,1,-9.486358643,1,-0.07694824,1,-3.997289181,1,1.061286688,1,0.282294571,1,-1.027454734,1,-0.207300887,1
3.207995892,-9.085303307,1,-2.699332237,1,-9.121775627,1,-0.14356178,1,-4.017710209,1,1.091941833,1,0.282423466,1,-1.044051409,1,-0.207960427,1
3.211993933,-8.774581909,1,-2.25045681,1,-8.828367233,1,-0.186973929,1,-4.05588913,1,1.092549324,1,0.282281727,1,-1.060775399,1,-0.208572224,1
3.215993404,-9.693052292,1,-1.337810755,1,-9.173615456,1,-0.178850248,1,-4.062949657,1,1.08536768,1,0.282148331,1,-1.077593565,1,-0.209268317,1
3.219995499,-8.817097664,1,-0.894777477,1,-8.924999237,1,-0.119862497,1,-4.096297264,1,1.076335669,1,0.282269925,1,-1.09446609,1,-0.21008049,1
3.22399354,-9.22513485,1,-1.573065162,1,-8.724481583,1,-0.075930052,1,-4.128818989,1,1.054652691,1,0.282888055,1,-1.111440659,1,-0.211200371,1
3.227993011,-8.757133484,1,-2.072415829,1,-8.340099335,1,-0.101725884,1,-4.14371109,1,1.075579166,1,0.283666432,1,-1.12851727,1,-0.212445915,1
3.231994867,-9.446364403,1,-1.619785309,1,-8.437754631,1,-0.129767716,1,-4.160866261,1,1.091654778,1,0.28424561,1,-1.145684481,1,-0.21361044,1
3.23599267,-11.12311554,1,-0.722823083,1,-8.676042557,1,-0.077880181,1,-4.059099674,1,1.052032471,1,0.284950852,1,-1.162690282,1,-0.214836255,1
3.23999238,-9.723254204,1,-1.296637535,1,-7.788489819,1,-0.01217193,1,-3.994235277,1,1.028130054,1,0.286088914,1,-1.179291487,1,-0.216259331,1
3.243993998,-8.938225746,1,-1.720665336,1,-7.041959286,1,-0.003742042,1,-3.993309259,1,1.040094137,1,0.287456781,1,-1.195783615,1,-0.217752844,1
3.2479918,-8.955183029,1,-2.06140542,1,-6.57283926,1,-0.050271362,1,-3.994973421,1,1.071843624,1,0.288656771,1,-1.212300539,1,-0.219137624,1
3.25199151,-9.432768822,1,-1.612099767,1,-6.54266119,1,-0.105807647,1,-3.967529297,1,1.087456942,1,0.28943187,1,-1.228810787,1,-0.220295265,1
3.255993366,-9.50211525,1,-1.582791448,1,-6.429504395,1,-0.132286832,1,-3.919080019,1,1.07525754,1,0.289994895,1,-1.245168805,1,-0.221403286,1
3.259990931,-8.724726677,1,-1.852781892,1,-5.959694862,1,-0.167469516,1,-3.881414413,1,1.073364496,1,0.290477216,1,-1.261347055,1,-0.222546756,1
3.263990879,-7.864389896,1,-1.861976743,1,-5.427180767,1,-0.219599113,1,-3.863758802,1,1.082550287,1,0.290707469,1,-1.277426839,1,-0.223582774,1
3.267992258,-6.955060959,1,-1.937205434,1,-4.906836033,1,-0.273193747,1,-3.862728357,1,1.103965282,1,0.290563524,1,-1.29348433,1,-0.224456787,1
3.271996021,-6.189317703,1,-2.01953125,1,-4.361162663,1,-0.337709069,1,-3.890313625,1,1.1234653,1,0.289982468,1,-1.309612751,1,-0.225121468,1
3.275995731,-5.66291666,1,-2.029913902,1,-3.87036109,1,-0.399376333,1,-3.925704956,1,1.145560741,1,0.288963258,1,-1.325888157,1,-0.225603163,1
3.27999711,-5.115127563,1,-2.441614866,1,-3.379828453,1,-0.465364575,1,-3.949932814,1,1.167518616,1,0.28736937,1,-1.342312574,1,-0.225750044,1
3.283994913,-4.599392414,1,-3.11478138,1,-4.313831329,1,-0.550682306,1,-3.915861845,1,1.153285503,1,0.285241663,1,-1.358716369,1,-0.225678176,1
3.287994385,-5.30741024,1,-4.243677616,1,-6.113640308,1,-0.665662825,1,-3.772474527,1,1.100736022,1,0.282733798,1,-1.374771357,1,-0.225583196,1
3.291996002,-5.49705267,1,-4.914922714,1,-7.631096363,1,-0.83071053,1,-3.538686275,1,1.015717268,1,0.279690206,1,-1.390002966,1,-0.225527465,1
3.295993567,-5.894565105,1,-4.983675003,1,-8.818941116,1,-0.996439099,1,-3.257699251,1,0.919492483,1,0.276068985,1,-1.404144406,1,-0.225570917,1
3.299993038,-9.087278366,1,-4.794697285,1,-8.645525932,1,-1.093105674,1,-2.97846961,1,0.798781693,1,0.272245616,1,-1.417105794,1,-0.225954011,1
3.303994894,-12.84691238,1,-4.683818817,1,-10.66409683,1,-1.187121153,1,-2.472744703,1,0.63632977,1,0.268773735,1,-1.428441763,1,-0.227036923,1
3.307992458,-11.96360779,1,-4.303004742,1,-11.09877682,1,-1.316895247,1,-1.866361737,1,0.480064869,1,0.264780551,1,-1.4373734,1,-0.228070423,1
3.311992168,-10.69890213,1,-2.978946209,1,-10.68729687,1,-1.376784801,1,-1.353436589,1,0.329735845,1,0.26008147,1,-1.444002271,1,-0.228800014,1
3.315993786,-10.2738905,1,-2.137744427,1,-10.8092432,1,-1.361856461,1,-0.868265867,1,0.16365622,1,0.256118804,1,-1.44855237,1,-0.230324328,1
3.319991827,-9.360776901,1,-1.559752107,1,-10.88575745,1,-1.332571983,1,-0.402624935,1,-0.008079246,1,0.253507227,1,-1.451079011,1,-0.233126909,1
3.323991537,-8.403972626,1,-1.0578866,1,-10.53008461,1,-1.265073657,1,0.015752435,1,-0.172506735,1,0.252854764,1,-1.451721072,1,-0.237716854,1
3.327993393,-7.18054533,1,-0.567279458,1,-10.16431427,1,-1.153688908,1,0.374041975,1,-0.326039791,1,0.25449422,1,-1.450703382,1,-0.244236737,1
3.331990957,-6.161570549,1,-0.638460457,1,-9.688506126,1,-1.039254665,1,0.674908698,1,-0.453680634,1,0.258168519,1,-1.448255539,1,-0.252356946,1
3.335990667,-5.012419224,1,-0.812805533,1,-9.146434784,1,-0.928676307,1,0.930844784,1,-0.555719256,1,0.263220131,1,-1.444624066,1,-0.261410803,1
3.339992523,-4.200780392,1,-0.903153539,1,-8.629131317,1,-0.837434709,1,1.137907743,1,-0.637030065,1,0.269032121,1,-1.439996481,1,-0.270832419,1
3.343990326,-3.501945257,1,-0.954154313,1,-8.193909645,1,-0.759375632,1,1.319249272,1,-0.694361091,1,0.27510494,1,-1.43454504,1,-0.280176878,1
3.347990036,-2.993325472,1,-0.933899343,1,-7.904078484,1,-0.692233741,1,1.471571207,1,-0.737817109,1,0.28096962,1,-1.428388834,1,-0.289028108,1
3.351991892,-2.78722167,1,-0.952938616,1,-7.700404644,1,-0.626506209,1,1.609275579,1,-0.766373694,1,0.286225379,1,-1.421643496,1,-0.297011852,1
3.355989695,-2.757334709,1,-1.056255937,1,-7.448308945,1,-0.574979961,1,1.737425447,1,-0.778217673,1,0.290643543,1,-1.414350986,1,-0.303918779,1
3.359989405,-2.655026913,1,-1.147463083,1,-7.262582779,1,-0.5386886,1,1.862894654,1,-0.777496696,1,0.294059217,1,-1.406558037,1,-0.309636027,1
3.363991261,-2.646028042,1,-1.257727265,1,-7.145701408,1,-0.5042485,1,1.985363007,1,-0.772346795,1,0.296237409,1,-1.398292303,1,-0.313956708,1
3.367989302,-2.453162909,1,-1.383534431,1,-7.021309376,1,-0.487571716,1,2.101491928,1,-0.746261418,1,0.297115535,1,-1.389576554,1,-0.316865981,1
3.371988773,-2.337693214,1,-1.461233735,1,-6.913430691,1,-0.480793238,1,2.208798409,1,-0.726109028,1,0.29674685,1,-1.380465865,1,-0.318458825,1
3.375990391,-2.267830849,1,-1.483578801,1,-6.843932629,1,-0.480687737,1,2.307647467,1,-0.690720141,1,0.295186698,1,-1.371003866,1,-0.318832546,1
3.379987955,-2.213818789,1,-1.455032229,1,-6.857515335,1,-0.492027611,1,2.401631355,1,-0.654830813,1,0.292448044,1,-1.36120677,1,-0.318032801,1
3.383987427,-2.349426508,1,-1.318173885,1,-6.974400043,1,-0.495234966,1,2.492722273,1,-0.616539061,1,0.288795024,1,-1.351101279,1,-0.316314816,1
3.387989283,-2.661159992,1,-1.061297774,1,-7.134759426,1,-0.485103548,1,2.575924158,1,-0.577415287,1,0.284343421,1,-1.340707421,1,-0.313759923,1
3.391992807,-3.101301432,1,-0.837147236,1,-7.315200806,1,-0.455250889,1,2.67636323,1,-0.552375317,1,0.279330909,1,-1.329990268,1,-0.310545564,1
3.395992279,-3.607513666,1,-0.654242516,1,-7.453913212,1,-0.413498193,1,2.785834789,1,-0.531127989,1,0.274019003,1,-1.31889677,1,-0.306861877,1
3.399994135,-3.946821928,1,-0.602693498,1,-7.570498943,1,-0.363201499,1,2.91301322,1,-0.510629356,1,0.268502682,1,-1.307365179,1,-0.302756369,1
3.403991699,-4.170443058,1,-0.7267887,1,-7.557384491,1,-0.31932807,1,3.04537487,1,-0.501644194,1,0.262920082,1,-1.295338511,1,-0.298379004,1
3.407991409,-4.151062012,1,-0.84409672,1,-7.534608364,1,-0.281521171,1,3.180789232,1,-0.492435604,1,0.257283777,1,-1.282798648,1,-0.293759823,1
3.411993027,-4.030297756,1,-0.999770641,1,-7.508615017,1,-0.252231807,1,3.299018145,1,-0.48405236,1,0.251702428,1,-1.269760013,1,-0.289033413,1
3.415990829,-3.863047838,1,-1.249230623,1,-7.441617012,1,-0.233621553,1,3.406985044,1,-0.481683493,1,0.246200025,1,-1.256285906,1,-0.284279943,1
3.41999054,-3.653583765,1,-1.548215985,1,-7.395435333,1,-0.231172442,1,3.486822367,1,-0.472459644,1,0.24085407,1,-1.242442012,1,-0.279613346,1
3.423992395,-3.591982365,1,-1.822018743,1,-7.277680874,1,-0.234942436,1,3.549995899,1,-0.472961694,1,0.235648721,1,-1.228314996,1,-0.275081694,1
3.42798996,-3.599550962,1,-2.116468906,1,-7.148736954,1,-0.267549753,1,3.592015028,1,-0.464653224,1,0.230586201,1,-1.213983536,1,-0.270772219,1
3.43198967,-3.585103273,1,-2.376663923,1,-7.087954044,1,-0.314713746,1,3.622681141,1,-0.464376032,1,0.225598678,1,-1.19949472,1,-0.266687721,1
3.435991526,-3.704797268,1,-2.549094915,1,-7.065779209,1,-0.380040199,1,3.648692131,1,-0.46273458,1,0.220663905,1,-1.1848979,1,-0.262874216,1
3.439989328,-3.754131794,1,-2.524062157,1,-7.153298378,1,-0.442642063,1,3.65164566,1,-0.471279055,1,0.215794995,1,-1.170241117,1,-0.259387672,1
3.443989038,-4.054775715,1,-2.567315578,1,-7.047812462,1,-0.498954952,1,3.658119202,1,-0.462475836,1,0.210947931,1,-1.155555725,1,-0.256170154,1
3.447990894,-4.248801708,1,-2.309367657,1,-7.195053577,1,-0.537809134,1,3.664041996,1,-0.46463719,1,0.206145123,1,-1.140843153,1,-0.253190666,1
3.451988697,-4.55720377,1,-2.119609356,1,-7.265941143,1,-0.56313175,1,3.663197517,1,-0.467331827,1,0.201480612,1,-1.126115918,1,-0.250486404,1
3.455988407,-4.929100037,1,-1.893666387,1,-7.307139397,1,-0.565257072,1,3.674543858,1,-0.467988521,1,0.197019011,1,-1.111358523,1,-0.248042047,1
3.459990025,-5.134297848,1,-1.653475642,1,-7.49027586,1,-0.545517921,1,3.681668758,1,-0.479243994,1,0.192816868,1,-1.096555591,1,-0.245837823,1
3.463988066,-5.344454765,1,-1.474262953,1,-7.541949749,1,-0.505090237,1,3.686272144,1,-0.484054357,1,0.188977629,1,-1.081720352,1,-0.243881211,1
3.467987537,-5.583077431,1,-1.421589494,1,-7.684284687,1,-0.453588933,1,3.686828136,1,-0.491249233,1,0.185526326,1,-1.066865444,1,-0.242129654,1
3.471988916,-5.821434021,1,-1.369727373,1,-7.817756176,1,-0.381892502,1,3.691105843,1,-0.496681958,1,0.182484329,1,-1.051994801,1,-0.24056451,1
3.475986719,-6.192480087,1,-1.335890293,1,-8.125897408,1,-0.311206132,1,3.686796665,1,-0.508898497,1,0.179907531,1,-1.03712213,1,-0.239194006,1
3.479986429,-6.706486702,1,-1.400162101,1,-8.313966751,1,-0.23323074,1,3.692453623,1,-0.518709004,1,0.177807033,1,-1.022234797,1,-0.238013744,1
3.483988285,-7.228453159,1,-1.589181662,1,-8.501434326,1,-0.165984273,1,3.712152243,1,-0.529917598,1,0.176131546,1,-1.007291198,1,-0.236982062,1
3.487985849,-7.538173676,1,-1.94796598,1,-8.6164217,1,-0.112283543,1,3.746634245,1,-0.531176507,1,0.17478174,1,-0.992232263,1,-0.23603107,1
3.491985559,-7.772005081,1,-2.261222363,1,-8.756456375,1,-0.084476016,1,3.783557177,1,-0.53973949,1,0.173635483,1,-0.977029324,1,-0.235122398,1
3.495987415,-7.926922798,1,-2.42633152,1,-8.884333611,1,-0.070404388,1,3.823626995,1,-0.530523598,1,0.172582731,1,-0.961666882,1,-0.234229058,1
3.499985218,-8.024105072,1,-2.435074091,1,-8.987185478,1,-0.066458985,1,3.860021591,1,-0.533523679,1,0.171559393,1,-0.946166813,1,-0.233312994,1
3.50398469,-8.037572861,1,-2.383917093,1,-9.0479002,1,-0.065659896,1,3.881084442,1,-0.527354777,1,0.170560017,1,-0.930547774,1,-0.232398614,1
3.507986546,-8.091986656,1,-2.299975872,1,-9.063696861,1,-0.053508814,1,3.894541979,1,-0.526481271,1,0.169586137,1,-0.914861917,1,-0.231476873,1
3.51199007,-8.03102684,1,-2.193716526,1,-9.11119175,1,-0.032615289,1,3.898509979,1,-0.514711678,1,0.168691382,1,-0.899141252,1,-0.23055622,1
3.51598978,-8.046266556,1,-2.108115673,1,-9.181588173,1,-0.01183262,1,3.886831522,1,-0.501328945,1,0.167849317,1,-0.883441627,1,-0.229600012,1
3.519991636,-7.994998932,1,-1.964344263,1,-9.276515961,1,0.021342123,1,3.875334024,1,-0.493886054,1,0.16713053,1,-0.867791653,1,-0.228637099,1
3.523989201,-7.991645813,1,-1.854949236,1,-9.34048748,1,0.053424537,1,3.845388889,1,-0.477046251,1,0.166528612,1,-0.852237105,1,-0.227642387,1
3.527988911,-8.065297127,1,-1.768952131,1,-9.41390419,1,0.10292767,1,3.819060564,1,-0.465419352,1,0.166074038,1,-0.836797833,1,-0.226605043,1
3.531990767,-8.171918869,1,-1.749442458,1,-9.50467205,1,0.148629576,1,3.785048962,1,-0.446386993,1,0.165802628,1,-0.821500003,1,-0.225550979,1
3.535988569,-8.237996101,1,-1.719697356,1,-9.606678963,1,0.201430812,1,3.748656988,1,-0.432402223,1,0.165685862,1,-0.806302369,1,-0.22440362,1
3.539988279,-8.29476738,1,-1.676048279,1,-9.705270767,1,0.244474486,1,3.712877989,1,-0.413481981,1,0.165762797,1,-0.791303039,1,-0.22327216,1
3.543990135,-8.304871559,1,-1.730571032,1,-9.765095711,1,0.285405666,1,3.671064615,1,-0.396873564,1,0.165982097,1,-0.776466846,1,-0.222085476,1
3.547987938,-8.358445168,1,-1.77435267,1,-9.842575073,1,0.329111218,1,3.627689838,1,-0.377273709,1,0.166357994,1,-0.761808872,1,-0.220843226,1
3.55198741,-8.395614624,1,-1.767145038,1,-9.92660141,1,0.36335057,1,3.581610441,1,-0.354912579,1,0.166842744,1,-0.747338593,1,-0.21953018,1
3.555989027,-8.323755264,1,-1.837202549,1,-9.868610382,1,0.395268261,1,3.532444715,1,-0.322424293,1,0.167438537,1,-0.733085871,1,-0.218146905,1
3.559986591,-8.257000923,1,-1.882048965,1,-9.887655258,1,0.427149683,1,3.471130133,1,-0.285324693,1,0.168074787,1,-0.719067991,1,-0.216619775,1
3.563986063,-8.179634094,1,-1.892025828,1,-9.851802826,1,0.458221793,1,3.41869545,1,-0.240888685,1,0.168751329,1,-0.705302358,1,-0.214946195,1
3.56798768,-8.077342033,1,-1.795749187,1,-9.838587761,1,0.490041018,1,3.351098776,1,-0.183188498,1,0.16942279,1,-0.691816628,1,-0.213050053,1
3.571985483,-8.014835358,1,-1.605358243,1,-9.739041328,1,0.529323697,1,3.274513721,1,-0.124907807,1,0.170124352,1,-0.678651035,1,-0.210943431,1
3.575984955,-7.929804325,1,-1.410160542,1,-9.581179619,1,0.577116966,1,3.19043541,1,-0.06722755,1,0.170875639,1,-0.665832043,1,-0.208614752,1
3.579986572,-7.889169693,1,-1.263178706,1,-9.457624435,1,0.640316486,1,3.105919838,1,-0.001688201,1,0.171745762,1,-0.653391778,1,-0.206068978,1
3.583984375,-7.877305508,1,-1.092727423,1,-9.266496658,1,0.710784793,1,3.0041821,1,0.060692977,1,0.172777966,1,-0.641383946,1,-0.203297526,1
3.587983847,-7.939498425,1,-1.178223133,1,-9.003102303,1,0.782214344,1,2.883607864,1,0.126307189,1,0.173990458,1,-0.629840016,1,-0.200313672,1
3.591985703,-7.866876602,1,-1.268754125,1,-8.616896629,1,0.846454144,1,2.761610031,1,0.193195015,1,0.175381064,1,-0.61882025,1,-0.197126463,1
3.595983505,-7.951841354,1,-1.285266638,1,-8.417463303,1,0.890886307,1,2.622742176,1,0.260221541,1,0.176901639,1,-0.608372211,1,-0.193718001,1
3.599983215,-8.122107506,1,-1.279836416,1,-8.273845673,1,0.932322741,1,2.473813772,1,0.31806919,1,0.178531915,1,-0.598542511,1,-0.190153256,1
3.603984833,-8.51036644,1,-1.439184308,1,-8.407725334,1,0.957834125,1,2.329967976,1,0.359507263,1,0.180247709,1,-0.58933568,1,-0.186470821,1
3.607982635,-9.298383713,1,-1.551047206,1,-8.480120659,1,0.96970576,1,2.222598791,1,0.40087679,1,0.182025909,1,-0.580655575,1,-0.182706743,1
3.611982346,-10.02661228,1,-1.58760798,1,-8.680495262,1,0.970687449,1,2.130932331,1,0.43016848,1,0.183811992,1,-0.572398961,1,-0.178875268,1
3.615983963,-10.71135807,1,-1.593729496,1,-8.803800583,1,0.965366602,1,2.060957909,1,0.458288342,1,0.185577452,1,-0.564483643,1,-0.174973741,1
3.619981289,-11.22986889,1,-1.5758214,1,-8.951861382,1,0.953763127,1,2.029085398,1,0.486134708,1,0.187292233,1,-0.556803942,1,-0.170996055,1
3.623980999,-11.93606377,1,-1.403973818,1,-9.237355232,1,0.943465412,1,2.01687336,1,0.495699883,1,0.188974187,1,-0.549232066,1,-0.166957155,1
3.627982616,-12.28725338,1,-1.134108663,1,-9.370820045,1,0.94121629,1,2.028449059,1,0.508661211,1,0.190616339,1,-0.541664422,1,-0.162855953,1
3.631986141,-12.51176453,1,-0.772021174,1,-9.457155228,1,0.96270597,1,2.044878483,1,0.517417789,1,0.192282274,1,-0.534049869,1,-0.15870063,1
3.635985851,-12.77224445,1,-0.347045541,1,-9.563940048,1,0.994084477,1,2.076473951,1,0.51596868,1,0.19407697,1,-0.526361883,1,-0.154514804,1
3.639987469,-13.11148357,1,0.015189256,1,-9.602131844,1,1.055881739,1,2.115623713,1,0.502218544,1,0.19608064,1,-0.518531978,1,-0.150325671,1
3.64398551,-13.08076096,1,0.454032987,1,-9.531890869,1,1.119202256,1,2.15963912,1,0.483099371,1,0.198380813,1,-0.510529876,1,-0.146174222,1
3.647984982,-12.99253559,1,0.614731193,1,-9.395713806,1,1.200262666,1,2.184777975,1,0.454059511,1,0.20104903,1,-0.502382815,1,-0.142105326,1
3.651986361,-13.16294765,1,0.827058136,1,-9.244548798,1,1.281600595,1,2.216687441,1,0.424206495,1,0.204108581,1,-0.494113564,1,-0.138128862,1
3.655984163,-13.28491211,1,0.871624589,1,-9.006858826,1,1.356818438,1,2.246258736,1,0.388303995,1,0.207560971,1,-0.485707343,1,-0.134266898,1
3.659983635,-13.45794868,1,0.785567403,1,-8.668130875,1,1.416263461,1,2.276131868,1,0.351305395,1,0.211372554,1,-0.477162421,1,-0.130513623,1
3.663985252,-13.42487144,1,0.664670289,1,-8.296532631,1,1.451909065,1,2.30716753,1,0.316402227,1,0.215456486,1,-0.468488157,1,-0.126867622,1
3.667982817,-13.52021313,1,0.381195784,1,-7.921142101,1,1.461885333,1,2.330282927,1,0.289330512,1,0.219686881,1,-0.459688246,1,-0.123302437,1
3.671982288,-13.6212759,1,0.146889165,1,-7.514573574,1,1.444999456,1,2.358497858,1,0.264751673,1,0.22396183,1,-0.450778127,1,-0.119799845,1
3.675984144,-13.68436527,1,-0.202149242,1,-7.116757393,1,1.400126338,1,2.37943697,1,0.240438551,1,0.228171915,1,-0.44177416,1,-0.116350703,1
3.679981709,-13.70533943,1,-0.510376751,1,-6.690762997,1,1.335438728,1,2.390854836,1,0.218354806,1,0.232216135,1,-0.432693839,1,-0.112963244,1
3.683981419,-13.8390131,1,-0.722148001,1,-6.139180183,1,1.252388477,1,2.400835752,1,0.194310233,1,0.236010894,1,-0.423562884,1,-0.109636329,1
3.687983036,-13.87128353,1,-0.913621247,1,-5.586487293,1,1.150980234,1,2.409786463,1,0.170878679,1,0.239485592,1,-0.414384425,1,-0.1063741,1
3.691980839,-13.78801632,1,-0.986190021,1,-5.046422482,1,1.048383832,1,2.4017694,1,0.150688216,1,0.242615595,1,-0.40518558,1,-0.103189893,1
3.69598031,-13.81049728,1,-0.850528121,1,-4.547356606,1,0.953903913,1,2.387610912,1,0.118128464,1,0.245412484,1,-0.396014214,1,-0.100105807,1
3.699981928,-13.9026947,1,-0.678034663,1,-4.109060764,1,0.863207817,1,2.365287542,1,0.084369615,1,0.24791418,1,-0.386900276,1,-0.097167037,1
3.703979492,-13.88282681,1,-0.440655231,1,-3.652148008,1,0.793370962,1,2.333281755,1,0.053653821,1,0.250181377,1,-0.377862364,1,-0.094376646,1
3.707979202,-13.72587109,1,-0.188699082,1,-3.182976723,1,0.740853786,1,2.29562664,1,0.016192999,1,0.252282739,1,-0.368921816,1,-0.091749877,1
3.711981058,-13.60656452,1,0.09071143,1,-2.794090271,1,0.697172582,1,2.247747898,1,-0.010108944,1,0.254286528,1,-0.360121846,1,-0.089300312,1
3.715978861,-13.55360794,1,0.478591323,1,-2.548063755,1,0.677729905,1,2.192054749,1,-0.047691744,1,0.25624603,1,-0.351493955,1,-0.087029144,1
3.719978571,-13.74971867,1,0.937269509,1,-2.270900011,1,0.677822173,1,2.130683661,1,-0.075665452,1,0.258228093,1,-0.34307909,1,-0.084946394,1
3.723980188,-13.9538908,1,1.275991201,1,-1.955043912,1,0.698525548,1,2.0694139,1,-0.101012267,1,0.260334074,1,-0.334870696,1,-0.083023548,1
3.727977991,-14.18116283,1,1.5834167,1,-1.670897245,1,0.727238595,1,2.017953873,1,-0.117408693,1,0.262605608,1,-0.326862097,1,-0.081233718,1
3.731977701,-14.61265659,1,1.700619936,1,-1.261987329,1,0.776619136,1,1.974780321,1,-0.131142586,1,0.265074134,1,-0.319023073,1,-0.079544343,1
3.735979319,-14.93562794,1,1.798875809,1,-0.840994835,1,0.812352061,1,1.94632864,1,-0.128493875,1,0.267742813,1,-0.311315596,1,-0.077894531,1
3.739976883,-15.03828621,1,1.844972134,1,-0.455290169,1,0.848501682,1,1.922744751,1,-0.127782211,1,0.27057457,1,-0.303708851,1,-0.076250985,1
3.743976355,-14.67882633,1,1.848545909,1,-0.049888112,1,0.865178049,1,1.89697516,1,-0.122809447,1,0.273520947,1,-0.296212167,1,-0.074604444,1
3.747977972,-14.11217213,1,1.697043538,1,0.396211773,1,0.862512171,1,1.84209609,1,-0.114639543,1,0.276512027,1,-0.288874149,1,-0.072963387,1
3.751981497,-13.50510502,1,1.479077578,1,0.888227403,1,0.844376802,1,1.764080763,1,-0.099466018,1,0.27946955,1,-0.281820416,1,-0.071335815,1
3.755980968,-12.96645355,1,1.158727407,1,1.382363319,1,0.781215072,1,1.652043223,1,-0.073705062,1,0.282285094,1,-0.275164962,1,-0.069714628,1
3.759982586,-12.34060764,1,0.882827699,1,1.78918159,1,0.696728528,1,1.511134982,1,-0.035592016,1,0.284823954,1,-0.269022703,1,-0.06808944,1
3.763980389,-11.88305664,1,0.763755322,1,2.161894798,1,0.591309547,1,1.336521149,1,0.00274965,1,0.286988616,1,-0.263533205,1,-0.066494025,1
3.76797986,-11.49167156,1,0.690162361,1,2.337456465,1,0.481311381,1,1.140723467,1,0.049569018,1,0.28872925,1,-0.258806884,1,-0.064928159,1
3.771981478,-11.13406277,1,0.751292706,1,2.412030697,1,0.365186691,1,0.925967515,1,0.091592021,1,0.290045917,1,-0.254919529,1,-0.063427523,1
3.77597928,-10.90757179,1,0.834109008,1,2.396315336,1,0.263949424,1,0.698965013,1,0.12814489,1,0.290943921,1,-0.251925915,1,-0.062022179,1
3.779978991,-10.8206234,1,0.989455462,1,2.21337533,1,0.172782734,1,0.466041774,1,0.15945752,1,0.291497111,1,-0.249860644,1,-0.060758613,1
3.783980846,-11.10427284,1,1.03131783,1,1.842478156,1,0.104061417,1,0.229994431,1,0.181337953,1,0.291781604,1,-0.24869962,1,-0.059409901,1
3.787978411,-11.867383,1,0.953000903,1,1.40525353,1,0.054441195,1,0.018913046,1,0.192470089,1,0.291875005,1,-0.248452842,1,-0.058528211,1
3.791977882,-12.97596359,1,0.728651285,1,0.897193193,1,0.017228603,1,-0.13835299,1,0.195082679,1,0.291835874,1,-0.248917639,1,-0.05783296,1
3.7959795,-14.00342655,1,0.374535888,1,0.258516103,1,-0.014372751,1,-0.24612923,1,0.19750315,1,0.291704446,1,-0.249894664,1,-0.057286713,1
3.799977303,-14.84723663,1,-0.084618263,1,-0.317388147,1,-0.042769335,1,-0.289937228,1,0.194927245,1,0.291484594,1,-0.251158834,1,-0.056836069,1
3.803977013,-8.702880859,1,-1.661692142,1,-6.873020649,1,-0.183627427,1,-0.608793199,1,0.235850886,1,0.291021407,1,-0.25290814,1,-0.056483567,1
3.807978868,-7.029270649,1,-2.049948215,1,-3.242274761,1,-0.229963288,1,-1.129851341,1,0.308860213,1,0.29005152,1,-0.256567299,1,-0.056488257,1
3.811976433,4.6315732,1,-3.886030912,1,-4.183602333,1,-0.202780947,1,-1.729025006,1,0.499108464,1,0.289278358,1,-0.262565434,1,-0.056570981,1
3.815976143,-1.202855706,1,-3.608735085,1,-9.817361832,1,-0.310535342,1,-1.740467668,1,0.597406566,1,0.288227618,1,-0.270004094,1,-0.056472249,1
3.819978237,2.804518938,1,-1.833365202,1,-16.17470169,1,-0.324189574,1,-1.605013609,1,0.630182266,1,0.286780238,1,-0.277078778,1,-0.055977322,1
3.823976517,3.577114582,1,-4.366416931,1,-19.22413063,1,-0.275243938,1,-1.606302738,1,0.624959588,1,0.285446584,1,-0.283945203,1,-0.055333246,1
3.827976227,2.927652597,1,-8.188744545,1,-18.56693268,1,-0.408216119,1,-1.519035101,1,0.673614204,1,0.283909738,1,-0.290700972,1,-0.054634195,1
3.831977844,3.363975048,1,-6.832837105,1,-14.55784321,1,-0.543659627,1,-1.407332063,1,0.81357348,1,0.281611174,1,-0.297140211,1,-0.053348318,1
3.835975409,2.930067062,1,-2.693943024,1,-10.03890133,1,-0.545359075,1,-1.493044972,1,0.895510197,1,0.278864443,1,-0.303593695,1,-0.051551141,1
3.83997488,0.233170092,1,-0.552620351,1,-6.075394154,1,-0.501227081,1,-1.751421213,1,0.964006245,1,0.276209742,1,-0.310853273,1,-0.049646229,1
3.843976498,-2.723254442,1,0.038960155,1,-4.372522354,1,-0.471531987,1,-2.011467934,1,0.978081763,1,0.273699999,1,-0.319164872,1,-0.047848634,1
3.8479743,-6.795939445,1,1.056647658,1,-4.998082638,1,-0.390581876,1,-2.166561365,1,0.914919913,1,0.271482885,1,-0.328274876,1,-0.0463637,1
3.851973772,-10.94566345,1,2.415438652,1,-8.287913322,1,-0.199793294,1,-2.148821592,1,0.715596557,1,0.269993484,1,-0.337518036,1,-0.045450356,1
3.855975389,-13.80449009,1,1.552785873,1,-11.36599255,1,-0.044613685,1,-1.92709744,1,0.449929595,1,0.269503444,1,-0.346049458,1,-0.045384701,1
3.859973192,-13.85483742,1,-0.286457181,1,-13.2241497,1,0.04589998,1,-1.62097156,1,0.220489219,1,0.269744843,1,-0.35323602,1,-0.046048671,1
3.863972664,-12.07548904,1,-2.711063385,1,-12.8694706,1,0.069656402,1,-1.398630023,1,0.104911238,1,0.270378917,1,-0.359203309,1,-0.047134433,1
3.867974281,-8.513303757,1,-3.038395643,1,-11.28702927,1,0.070705593,1,-1.249150276,1,0.103574239,1,0.271047086,1,-0.364376187,1,-0.048226908,1
3.871978283,-5.250355244,1,-1.871647954,1,-10.03868198,1,0.081482679,1,-1.255662322,1,0.156191796,1,0.271676332,1,-0.369304895,1,-0.049126804,1
3.875977993,-3.450041294,1,-0.505759656,1,-9.956700325,1,0.113604032,1,-1.376787305,1,0.19176653,1,0.272346348,1,-0.374559432,1,-0.049916659,1
3.879979849,-3.419512987,1,-0.286462873,1,-10.81653118,1,0.159308746,1,-1.491963625,1,0.201598138,1,0.27321136,1,-0.38030684,1,-0.050766632,1
3.883977413,-4.896736145,1,-0.708502829,1,-11.48420525,1,0.195045754,1,-1.539452434,1,0.200470224,1,0.274260551,1,-0.386384457,1,-0.051703136,1
3.887976885,-6.893649101,1,-1.48864603,1,-11.69744682,1,0.247455493,1,-1.4809618,1,0.203928962,1,0.275496602,1,-0.392431796,1,-0.052635785,1
3.891978502,-8.169018745,1,-2.228799582,1,-11.05290222,1,0.275772482,1,-1.377178192,1,0.206943974,1,0.276872784,1,-0.398162276,1,-0.053466335,1
3.895976305,-9.015537262,1,-3.498754501,1,-10.15366173,1,0.251716465,1,-1.280459404,1,0.216769904,1,0.278210968,1,-0.403494179,1,-0.054161731,1
3.899976015,-9.289845467,1,-3.835708141,1,-9.496192932,1,0.212127551,1,-1.19190383,1,0.228609234,1,0.279339999,1,-0.408490181,1,-0.054692034,1
3.903977633,-9.153158188,1,-4.010601521,1,-9.457789421,1,0.188389778,1,-1.102111578,1,0.19569546,1,0.280340612,1,-0.413129687,1,-0.055191111,1
3.907975435,-8.640733719,1,-4.117127419,1,-9.678092957,1,0.164572552,1,-1.022994399,1,0.13221021,1,0.281288028,1,-0.41739291,1,-0.055789609,1
3.911975145,-8.388173103,1,-4.880264759,1,-9.856492996,1,0.118499935,1,-0.962744057,1,0.063159555,1,0.282198429,1,-0.421313941,1,-0.056591481,1
3.915976763,-7.88687706,1,-4.673074722,1,-9.618478775,1,0.081918754,1,-0.8897084,1,0.013112167,1,0.282993406,1,-0.424917281,1,-0.057563487,1
3.919974327,-7.241640091,1,-4.215103149,1,-9.45943737,1,0.061038092,1,-0.82737869,1,-0.044410832,1,0.283758938,1,-0.428192645,1,-0.058698837,1
3.923973799,-6.681238174,1,-4.565340996,1,-9.406846046,1,0.020559989,1,-0.795439363,1,-0.086016327,1,0.284471065,1,-0.431228608,1,-0.059977967,1
3.927975416,-6.450084209,1,-4.058352947,1,-9.060464859,1,-0.037138332,1,-0.752244294,1,-0.08280246,1,0.28496778,1,-0.434115946,1,-0.061290745,1
3.931973219,-6.210332394,1,-3.437897921,1,-9.198282242,1,-0.044146925,1,-0.704335809,1,-0.089350089,1,0.285340071,1,-0.436817586,1,-0.062561862,1
3.935972691,-6.017186165,1,-3.534689903,1,-8.824513435,1,-0.090976164,1,-0.659126937,1,-0.068629779,1,0.285568178,1,-0.43934983,1,-0.06374535,1
3.93997407,-6.019556999,1,-2.997199059,1,-8.662994385,1,-0.100569032,1,-0.609563112,1,-0.051822416,1,0.285627663,1,-0.441709757,1,-0.064781629,1
3.943971872,-5.643046379,1,-2.660866976,1,-8.533122063,1,-0.104499005,1,-0.569658399,1,-0.036596756,1,0.285618424,1,-0.443910897,1,-0.065699063,1
3.947971344,-5.497727871,1,-2.999148369,1,-8.415783882,1,-0.122678809,1,-0.537839949,1,-0.039289426,1,0.285535544,1,-0.445988566,1,-0.066549875,1
3.951972961,-5.823559284,1,-3.292514086,1,-8.37341404,1,-0.16115047,1,-0.485156208,1,-0.019659471,1,0.285298169,1,-0.447918057,1,-0.067313299,1
3.955970526,-5.748333454,1,-2.846538305,1,-8.349399567,1,-0.163657844,1,-0.431168079,1,-0.011775399,1,0.284916908,1,-0.449664205,1,-0.067942031,1
3.959969997,-5.797110081,1,-3.074018002,1,-8.210407257,1,-0.199465156,1,-0.383035392,1,0.000712585,1,0.284425676,1,-0.451209784,1,-0.068485402,1
3.963971853,-5.449616432,1,-2.307089806,1,-8.207631111,1,-0.195999205,1,-0.340339959,1,-0.00144519,1,0.283812523,1,-0.452592164,1,-0.068923883,1
3.967969418,-5.01377821,1,-2.080238104,1,-8.322110176,1,-0.194196001,1,-0.320708901,1,-0.005419232,1,0.283219904,1,-0.453848869,1,-0.069339134,1
3.971969128,-4.771229744,1,-1.944638252,1,-8.357854843,1,-0.187572122,1,-0.290068209,1,-0.003684537,1,0.282632172,1,-0.455019325,1,-0.069744021,1
3.975970745,-4.625462532,1,-1.710116744,1,-8.557661057,1,-0.167726487,1,-0.280091912,1,-7.93E-05,1,0.282079846,1,-0.456115723,1,-0.070105724,1
3.979968548,-4.377834797,1,-1.394077301,1,-8.571819305,1,-0.152004033,1,-0.265569538,1,0.010086704,1,0.281575084,1,-0.457172811,1,-0.070420496,1
3.983968019,-4.715790749,1,-1.120205402,1,-8.873373032,1,-0.139916644,1,-0.244956091,1,0.019219115,1,0.281105369,1,-0.458182156,1,-0.070673533,1
3.987969637,-4.885223866,1,-0.719048202,1,-9.017077446,1,-0.099314682,1,-0.233669057,1,0.020625044,1,0.280723572,1,-0.459126651,1,-0.070887297,1
3.991967201,-5.143820763,1,-0.976567924,1,-9.046237946,1,-0.057763401,1,-0.21817188,1,0.005409759,1,0.280522704,1,-0.460004985,1,-0.071121782,1
3.99597311,-5.331193924,1,-0.909040213,1,-9.054519653,1,-0.02168455,1,-0.190095186,1,-0.009001809,1,0.280461192,1,-0.460795879,1,-0.071374625,1
3.999974966,-5.266005993,1,-1.287106156,1,-8.910726547,1,0.017898373,1,-0.1814114,1,-0.026070273,1,0.280596018,1,-0.461482584,1,-0.071682088,1
4.003973007,-5.366193771,1,-1.793474436,1,-8.956347466,1,0.039143704,1,-0.163852647,1,-0.047753189,1,0.280869663,1,-0.462106675,1,-0.072045274,1
4.007972717,-5.342741966,1,-2.152045488,1,-8.826117516,1,0.056612469,1,-0.136796683,1,-0.060132001,1,0.281251729,1,-0.462628901,1,-0.072464228,1
4.011974335,-5.045945644,1,-2.420078754,1,-8.639043808,1,0.062138304,1,-0.127841458,1,-0.077233411,1,0.28169626,1,-0.46305269,1,-0.072926819,1
4.015971661,-4.52528429,1,-2.534904718,1,-8.522302628,1,0.064408109,1,-0.125531554,1,-0.080069266,1,0.282171309,1,-0.463444561,1,-0.073424324,1
4.019971371,-4.157650471,1,-2.452393055,1,-8.532031059,1,0.062453076,1,-0.133885697,1,-0.077011056,1,0.282650143,1,-0.463857055,1,-0.073926687,1
4.023972988,-4.060486317,1,-2.482227802,1,-8.634511948,1,0.059498217,1,-0.148477376,1,-0.067991719,1,0.283113301,1,-0.464314669,1,-0.074410833,1
4.027970791,-4.071620941,1,-2.55056119,1,-8.601421356,1,0.062637925,1,-0.16510269,1,-0.054707337,1,0.283563107,1,-0.464843869,1,-0.07488367,1
4.031970024,-4.194237232,1,-2.6559484,1,-8.452122688,1,0.055135436,1,-0.16453661,1,-0.041335262,1,0.283189952,1,-0.468530953,1,-0.070156746,1
4.035971642,-4.360060692,1,-2.773073912,1,-8.457484245,1,0.05441764,1,-0.172238439,1,-0.034939557,1,0.283550084,1,-0.469108462,1,-0.070243843,1
4.039969444,-4.605019093,1,-2.826768637,1,-8.445890427,1,0.040798254,1,-0.170155019,1,-0.032645341,1,0.283902347,1,-0.469735801,1,-0.070601776,1
4.043968678,-4.869310856,1,-2.96773982,1,-8.430006027,1,0.035287738,1,-0.163352832,1,-0.03651863,1,0.284214348,1,-0.470335901,1,-0.070957981,1
4.047970295,-4.900675297,1,-2.940469265,1,-8.477602959,1,0.022228459,1,-0.156502292,1,-0.029662348,1,0.284483284,1,-0.470921963,1,-0.071297102,1
4.051968098,-4.885696888,1,-2.924206018,1,-8.492403984,1,0.019502288,1,-0.148077264,1,-0.019675095,1,0.284707993,1,-0.471487403,1,-0.071604624,1
4.055967808,-4.836810112,1,-2.859575748,1,-8.53646183,1,0.008838781,1,-0.139510766,1,-0.00894006,1,0.284873724,1,-0.472024441,1,-0.071843415,1
4.059969425,-4.831181526,1,-2.945383072,1,-8.496185303,1,-0.001642161,1,-0.13707906,1,0.001973891,1,0.284990549,1,-0.472551554,1,-0.072047204,1
4.063967228,-4.728857517,1,-2.913609743,1,-8.459561348,1,-0.010006206,1,-0.13053672,1,0.00582869,1,0.285037577,1,-0.473060936,1,-0.072190307,1
4.067966938,-4.722504139,1,-3.137931585,1,-8.504175186,1,-0.02998586,1,-0.127060339,1,0.013499038,1,0.28500095,1,-0.473566622,1,-0.072298884,1
4.071968555,-5.06869936,1,-3.242177248,1,-8.519227028,1,-0.049101461,1,-0.110440902,1,0.02067128,1,0.284867823,1,-0.474036455,1,-0.072373927,1
4.075966358,-4.835463524,1,-3.074852228,1,-8.469976425,1,-0.065787956,1,-0.105124123,1,0.025728488,1,0.284650207,1,-0.474473894,1,-0.072404124,1
4.079965591,-4.553606033,1,-3.012239695,1,-8.413369179,1,-0.086934045,1,-0.106011808,1,0.045360409,1,0.284326494,1,-0.474927068,1,-0.072370671,1
4.083967209,-4.287168026,1,-3.035625458,1,-8.463533401,1,-0.095937476,1,-0.116008654,1,0.064659543,1,0.283919841,1,-0.47542125,1,-0.072272465,1
4.087965012,-4.232119083,1,-3.085744858,1,-8.530474663,1,-0.112608619,1,-0.126029417,1,0.076168329,1,0.283440292,1,-0.475964338,1,-0.072123282,1
4.091964722,-4.330912113,1,-3.293569565,1,-8.35221386,1,-0.128007442,1,-0.131196052,1,0.087384634,1,0.282886714,1,-0.47656244,1,-0.071942858,1
4.095966339,-4.466959,1,-3.358972549,1,-8.244952202,1,-0.147067681,1,-0.136854753,1,0.104927041,1,0.28222546,1,-0.477182627,1,-0.071698084,1
4.099964142,-4.518518925,1,-3.293039322,1,-8.171637535,1,-0.16360648,1,-0.131362662,1,0.114931531,1,0.281460226,1,-0.477825403,1,-0.071389772,1
4.103963852,-4.489628792,1,-3.294864893,1,-8.16903019,1,-0.184894979,1,-0.13629128,1,0.129144296,1,0.280598074,1,-0.478480428,1,-0.071022756,1
4.107965469,-4.324631214,1,-3.126276493,1,-8.218151093,1,-0.201991692,1,-0.140519291,1,0.144886002,1,0.27962476,1,-0.479154617,1,-0.070597954,1
4.111963272,-4.175051212,1,-3.078070164,1,-8.254055977,1,-0.221189573,1,-0.143054053,1,0.156440511,1,0.278558075,1,-0.479870737,1,-0.070118681,1
4.115968704,-4.181268692,1,-3.109652519,1,-8.238409042,1,-0.231225535,1,-0.153828323,1,0.175774559,1,0.277397305,1,-0.480621785,1,-0.069578566,1
4.119970322,-4.343631744,1,-3.106987476,1,-8.24347496,1,-0.251425505,1,-0.157578871,1,0.178733945,1,0.276156306,1,-0.481403112,1,-0.069003657,1
4.123968601,-4.40068388,1,-3.05243516,1,-8.182779312,1,-0.275954098,1,-0.155602291,1,0.190923482,1,0.274814546,1,-0.482209384,1,-0.068387732,1
4.127967834,-4.425098896,1,-3.038785934,1,-8.14258194,1,-0.295058519,1,-0.161955491,1,0.201763302,1,0.273366421,1,-0.48302874,1,-0.067730747,1
4.131969452,-4.386306763,1,-2.802918196,1,-8.187259674,1,-0.313690484,1,-0.166152984,1,0.210668743,1,0.271827191,1,-0.483871549,1,-0.067029677,1
4.135967255,-4.381947517,1,-2.686524391,1,-8.237698555,1,-0.325056791,1,-0.165337056,1,0.217065096,1,0.270216703,1,-0.484738588,1,-0.066299751,1
4.139966488,-4.581366062,1,-2.512007475,1,-8.314412117,1,-0.335541457,1,-0.166059226,1,0.22356382,1,0.268533021,1,-0.485610753,1,-0.06554091,1
4.143968105,-4.439101219,1,-2.402243614,1,-8.18943882,1,-0.338160306,1,-0.170306206,1,0.225519165,1,0.266826481,1,-0.486488789,1,-0.064769857,1
4.147965908,-4.455585957,1,-2.341329336,1,-8.250932693,1,-0.347081989,1,-0.17840904,1,0.221723676,1,0.265097678,1,-0.487388402,1,-0.06399864,1
4.151965618,-4.41808939,1,-2.43061018,1,-8.22734642,1,-0.349338144,1,-0.177958757,1,0.224069312,1,0.263345212,1,-0.488318115,1,-0.0632305,1
4.155967236,-4.513348579,1,-2.359027386,1,-8.30739975,1,-0.355567902,1,-0.177735895,1,0.232364893,1,0.261566848,1,-0.489243925,1,-0.062440272,1
4.159965038,-4.72317028,1,-2.147670031,1,-8.449682236,1,-0.354111165,1,-0.178518429,1,0.223028064,1,0.259789318,1,-0.490165383,1,-0.06165801,1
4.163964748,-4.651329517,1,-2.200381994,1,-8.180829048,1,-0.35396868,1,-0.178709313,1,0.225732759,1,0.258001924,1,-0.491091669,1,-0.060889851,1
4.167966366,-4.771329403,1,-1.993483305,1,-8.292094231,1,-0.351189911,1,-0.164821073,1,0.229970172,1,0.256212622,1,-0.491985977,1,-0.060080681,1
4.171963692,-4.965751171,1,-1.678973436,1,-8.520967484,1,-0.340881407,1,-0.169390172,1,0.218818784,1,0.25445196,1,-0.492869049,1,-0.059274595,1
4.175963402,-5.201360226,1,-1.660212159,1,-8.523748398,1,-0.319516778,1,-0.149801493,1,0.223231137,1,0.252765715,1,-0.493717909,1,-0.058489971,1
4.179965019,-5.155478477,1,-1.399791002,1,-8.432710648,1,-0.288121611,1,-0.141080454,1,0.216335028,1,0.251167119,1,-0.494503021,1,-0.057688911,1
4.183962822,-5.197440147,1,-1.414300919,1,-8.526981354,1,-0.270180821,1,-0.131836429,1,0.205312684,1,0.249687359,1,-0.495242953,1,-0.056918155,1
4.187962532,-4.923261166,1,-1.507236004,1,-8.420799255,1,-0.24626945,1,-0.126304671,1,0.192289159,1,0.24831523,1,-0.495936304,1,-0.056185022,1
4.191964626,-4.702836037,1,-1.650436401,1,-8.355499268,1,-0.23176077,1,-0.127215326,1,0.182776168,1,0.247029245,1,-0.496611565,1,-0.05550592,1
4.195961952,-4.579551697,1,-1.821308136,1,-8.431206703,1,-0.219693214,1,-0.126338333,1,0.178324699,1,0.245814741,1,-0.497276872,1,-0.054840699,1
4.199961662,-4.601822853,1,-1.894796371,1,-8.431111336,1,-0.207005128,1,-0.131951362,1,0.171676323,1,0.244664103,1,-0.497942388,1,-0.054210354,1
4.203963757,-4.595903873,1,-1.936977506,1,-8.364426613,1,-0.205102473,1,-0.133106768,1,0.170632482,1,0.243538573,1,-0.498625904,1,-0.053592585,1
4.207961559,-4.737729073,1,-1.897868156,1,-8.372835159,1,-0.197568908,1,-0.140148416,1,0.161759123,1,0.242455095,1,-0.499321342,1,-0.053003658,1
4.211960793,-4.874211311,1,-1.847609401,1,-8.358963013,1,-0.194313154,1,-0.135937318,1,0.156811669,1,0.241412058,1,-0.500007629,1,-0.052449919,1
4.21596241,-4.931478024,1,-1.725696683,1,-8.361310005,1,-0.185628533,1,-0.130305305,1,0.148701638,1,0.240390018,1,-0.500665843,1,-0.051917523,1
4.219960213,-4.937571526,1,-1.651286244,1,-8.374278069,1,-0.18175897,1,-0.122127056,1,0.14436245,1,0.239407122,1,-0.50129205,1,-0.051400274,1
4.223959923,-4.987022877,1,-1.73293829,1,-8.365947723,1,-0.172829643,1,-0.118109435,1,0.13559787,1,0.238468021,1,-0.50189054,1,-0.050923262,1
4.22796154,-4.942591667,1,-1.744953752,1,-8.32130909,1,-0.155698195,1,-0.11013487,1,0.133412153,1,0.237582281,1,-0.50245595,1,-0.050457597,1
4.231958866,-4.941393852,1,-1.806786776,1,-8.378596306,1,-0.149082229,1,-0.1059504,1,0.125859901,1,0.23674117,1,-0.503000379,1,-0.049991675,1
4.235964775,-4.911859035,1,-1.86338377,1,-8.43163681,1,-0.144567609,1,-0.108471289,1,0.124238998,1,0.235941038,1,-0.503541172,1,-0.04955063,1
4.239966869,-4.913516045,1,-1.92557168,1,-8.411062241,1,-0.134799629,1,-0.113287337,1,0.119160429,1,0.235187039,1,-0.504085541,1,-0.04912724,1
4.243965149,-4.842343807,1,-1.876178861,1,-8.400747299,1,-0.135044023,1,-0.1066062,1,0.116724901,1,0.234444708,1,-0.504634261,1,-0.048720777,1
4.247964859,-4.904778957,1,-1.926730514,1,-8.455637932,1,-0.126355499,1,-0.103154913,1,0.112656519,1,0.233726025,1,-0.505164027,1,-0.048319884,1
4.251966476,-4.838417053,1,-1.88303256,1,-8.36831665,1,-0.124869183,1,-0.114805207,1,0.113596722,1,0.233031273,1,-0.505696893,1,-0.047930762,1
4.255964279,-4.788417816,1,-2.013733864,1,-8.441808701,1,-0.12540254,1,-0.115718074,1,0.111902289,1,0.232349142,1,-0.506245077,1,-0.047556192,1
4.259963989,-4.773610115,1,-2.067761183,1,-8.381502151,1,-0.123480253,1,-0.113138765,1,0.111241058,1,0.231668621,1,-0.506786108,1,-0.047179006,1
4.263965607,-4.705124378,1,-2.060617685,1,-8.404667854,1,-0.121912248,1,-0.118356943,1,0.115399621,1,0.230993792,1,-0.507337987,1,-0.046802334,1
4.267963409,-4.723280907,1,-2.057067156,1,-8.415168762,1,-0.128230974,1,-0.118766598,1,0.121117666,1,0.230301589,1,-0.507905006,1,-0.046404239,1
4.271962643,-4.7588377,1,-2.08467865,1,-8.369713783,1,-0.128291503,1,-0.121913999,1,0.122935012,1,0.229585081,1,-0.508480012,1,-0.04598267,1
4.275964737,-4.689663887,1,-2.002695322,1,-8.380785942,1,-0.134106964,1,-0.118088156,1,0.132544577,1,0.22884126,1,-0.509067357,1,-0.045534484,1
4.27996254,-4.664278984,1,-1.951260924,1,-8.446583748,1,-0.131897405,1,-0.127413794,1,0.137873501,1,0.228083655,1,-0.509667516,1,-0.045064442,1
4.28396225,-4.722299099,1,-1.905546308,1,-8.497668266,1,-0.135019198,1,-0.132567704,1,0.136976972,1,0.227610558,1,-0.510345221,1,-0.045266032,1
4.287963867,-4.776413918,1,-1.782793641,1,-8.517684937,1,-0.126195997,1,-0.141628563,1,0.135677606,1,0.22686033,1,-0.511008263,1,-0.04479586,1
4.291961193,-4.709615707,1,-1.725162029,1,-8.508589745,1,-0.12389864,1,-0.147982314,1,0.14264743,1,0.226126909,1,-0.511688709,1,-0.044322763,1
4.295960903,-4.746466637,1,-1.849423528,1,-8.550039291,1,-0.122865334,1,-0.145921499,1,0.147611797,1,0.225392848,1,-0.512387812,1,-0.043829873,1
4.299962521,-4.723428249,1,-1.946398854,1,-8.544809341,1,-0.114549205,1,-0.154204875,1,0.152215764,1,0.224666238,1,-0.513100863,1,-0.043314505,1
4.303959846,-4.761844635,1,-2.103646517,1,-8.559082985,1,-0.117772885,1,-0.152687564,1,0.15895772,1,0.223938495,1,-0.513828099,1,-0.04277521,1
4.307960033,-4.797176361,1,-2.094382048,1,-8.512824059,1,-0.120757639,1,-0.153106451,1,0.166772187,1,0.223191649,1,-0.514568269,1,-0.042214889,1
4.311961174,-4.899493694,1,-2.031778574,1,-8.467207909,1,-0.126032948,1,-0.161731094,1,0.173874572,1,0.222397998,1,-0.515346944,1,-0.041612811,1
4.315958977,-4.999577999,1,-1.923063397,1,-8.436203003,1,-0.129381835,1,-0.162143037,1,0.175389841,1,0.221585944,1,-0.516131461,1,-0.041005664,1
4.31995821,-4.986593723,1,-1.794765949,1,-8.423648834,1,-0.131227702,1,-0.164122,1,0.164945781,1,0.220772013,1,-0.516917109,1,-0.040398493,1
4.323959827,-4.981250286,1,-1.792833328,1,-8.432219505,1,-0.127791151,1,-0.163102359,1,0.166274115,1,0.219965279,1,-0.517694414,1,-0.039810076,1
4.32795763,-4.971307755,1,-1.744908452,1,-8.39115715,1,-0.131674096,1,-0.1702784,1,0.162747413,1,0.219158009,1,-0.518487632,1,-0.039229851,1
4.33195734,-4.90170908,1,-1.809986115,1,-8.375647545,1,-0.129172429,1,-0.164375111,1,0.162311673,1,0.218363523,1,-0.519288123,1,-0.038660474,1
4.335958958,-4.93444252,1,-1.923300505,1,-8.350144386,1,-0.134816006,1,-0.17074728,1,0.16705744,1,0.217557892,1,-0.52007556,1,-0.038089029,1
4.33995676,-4.893348694,1,-2.004922628,1,-8.372362137,1,-0.137084901,1,-0.168979615,1,0.164799958,1,0.216734633,1,-0.52088064,1,-0.037515908,1
4.34395647,-4.923259258,1,-2.04416728,1,-8.295087814,1,-0.140093416,1,-0.171583608,1,0.169648901,1,0.215887651,1,-0.521683156,1,-0.036931805,1
4.347958088,-4.985555172,1,-2.045099258,1,-8.296769142,1,-0.149583504,1,-0.166322336,1,0.175618529,1,0.214999959,1,-0.522499025,1,-0.036319401,1
4.351955891,-4.971867085,1,-2.077310801,1,-8.243003845,1,-0.152488187,1,-0.164021701,1,0.174981952,1,0.214082584,1,-0.523302257,1,-0.035693508,1
4.355961323,-5.0714221,1,-2.023525953,1,-8.233024597,1,-0.158433288,1,-0.166678458,1,0.18217051,1,0.213130385,1,-0.524102151,1,-0.035050165,1
4.35996294,-5.099961758,1,-1.906098604,1,-8.235804558,1,-0.161553741,1,-0.161673754,1,0.178691894,1,0.212166846,1,-0.524892211,1,-0.034398641,1
4.363960743,-5.084178925,1,-1.784447432,1,-8.192648888,1,-0.163158208,1,-0.15345633,1,0.182539016,1,0.211185932,1,-0.525653839,1,-0.033739567,1
4.367959976,-5.046364784,1,-1.736147046,1,-8.211386681,1,-0.15757516,1,-0.148186937,1,0.187233165,1,0.210194364,1,-0.526399136,1,-0.033042666,1
4.37196207,-4.99895668,1,-1.767847061,1,-8.167819023,1,-0.158814386,1,-0.141885892,1,0.189292401,1,0.209203944,1,-0.527125895,1,-0.032338545,1
4.375959396,-4.970304966,1,-1.825179338,1,-8.186253548,1,-0.154349193,1,-0.14389421,1,0.183461994,1,0.208221555,1,-0.527852774,1,-0.031631526,1
4.379959106,-4.928434849,1,-1.87450552,1,-8.208481789,1,-0.158173531,1,-0.14128913,1,0.188368082,1,0.207244486,1,-0.528565645,1,-0.030927161,1
4.383961201,-4.929704666,1,-1.844727993,1,-8.241353989,1,-0.153333753,1,-0.14054732,1,0.188967496,1,0.206275478,1,-0.529272854,1,-0.030218299,1
4.387959003,-5.105535984,1,-1.868064523,1,-8.274327278,1,-0.157978073,1,-0.135459602,1,0.192425579,1,0.205285266,1,-0.529969394,1,-0.029486002,1
4.391958714,-4.857438564,1,-1.829557776,1,-8.269049644,1,-0.15304096,1,-0.134187758,1,0.186376259,1,0.204285353,1,-0.530650556,1,-0.028754257,1
4.395960331,-4.780136585,1,-1.71606636,1,-8.200723648,1,-0.151838258,1,-0.145952761,1,0.190773964,1,0.203303143,1,-0.531354308,1,-0.028027544,1
4.399958134,-4.90836525,1,-1.701501369,1,-8.280535698,1,-0.143891439,1,-0.150385976,1,0.193608835,1,0.202346593,1,-0.53208679,1,-0.027302235,1
4.403957844,-4.850826263,1,-1.661464691,1,-8.225355148,1,-0.14259629,1,-0.14773789,1,0.190109789,1,0.201401338,1,-0.532820106,1,-0.026586337,1
4.407958984,-4.959046841,1,-1.645605683,1,-8.354593277,1,-0.138079658,1,-0.14996399,1,0.183525309,1,0.200470567,1,-0.533559859,1,-0.025877422,1
4.411956787,-4.968022346,1,-1.562411666,1,-8.324271202,1,-0.129758239,1,-0.147951066,1,0.180776268,1,0.199573725,1,-0.534284592,1,-0.02518327,1
4.41595602,-4.98167944,1,-1.545763969,1,-8.360404015,1,-0.128292009,1,-0.157011449,1,0.179828241,1,0.198698148,1,-0.535022676,1,-0.024493309,1
4.419957638,-5.133030891,1,-1.578597069,1,-8.341554642,1,-0.123257697,1,-0.150010735,1,0.175706595,1,0.197845876,1,-0.535765111,1,-0.023821345,1
4.423955441,-4.786489487,1,-1.628293753,1,-8.297944069,1,-0.115714543,1,-0.154343724,1,0.175235793,1,0.197032303,1,-0.53649509,1,-0.023160147,1
4.427955151,-4.89936924,1,-1.64406395,1,-8.398645401,1,-0.108502895,1,-0.166538149,1,0.17162402,1,0.196266174,1,-0.537259459,1,-0.022531696,1
4.431956768,-5.049789906,1,-1.608076215,1,-8.347398758,1,-0.103405796,1,-0.172910303,1,0.165142238,1,0.195536077,1,-0.538051128,1,-0.021926258,1
4.435954571,-5.018780708,1,-1.701185107,1,-8.317277908,1,-0.101888433,1,-0.177504718,1,0.165158138,1,0.194819108,1,-0.538864791,1,-0.021329403,1
4.439953804,-5.014000416,1,-1.743414164,1,-8.279193878,1,-0.099741414,1,-0.178946108,1,0.160653144,1,0.194112644,1,-0.539694428,1,-0.020738645,1
4.443955898,-4.988354206,1,-1.808651686,1,-8.320457458,1,-0.104340397,1,-0.183964372,1,0.165789485,1,0.193399042,1,-0.540527523,1,-0.020153534,1
4.447953224,-4.993251324,1,-1.847554326,1,-8.292354584,1,-0.101872049,1,-0.186202094,1,0.173100457,1,0.192681313,1,-0.541370988,1,-0.019553492,1
4.451952457,-4.7473979,1,-1.940704346,1,-8.323455811,1,-0.105816729,1,-0.189078003,1,0.175482154,1,0.191940174,1,-0.542237699,1,-0.018922206,1
4.455954552,-4.810571194,1,-2.00331831,1,-8.29166317,1,-0.108314484,1,-0.195923269,1,0.177263498,1,0.191177368,1,-0.543131232,1,-0.018269056,1
4.459952354,-4.751766682,1,-2.023166418,1,-8.337856293,1,-0.108435579,1,-0.201093629,1,0.186340049,1,0.190396816,1,-0.544056356,1,-0.01760624,1
4.463952065,-4.823291302,1,-2.106358767,1,-8.351986885,1,-0.119167395,1,-0.207477257,1,0.197785854,1,0.189583123,1,-0.544994235,1,-0.016917139,1
4.467953682,-4.89433527,1,-2.199120998,1,-8.403606415,1,-0.129275411,1,-0.20603326,1,0.211510465,1,0.188697308,1,-0.545954943,1,-0.016162664,1
4.471951485,-4.709098816,1,-2.232907534,1,-8.338801384,1,-0.130186334,1,-0.216682553,1,0.219057292,1,0.187760353,1,-0.546935678,1,-0.015359716,1
4.475957394,-4.415557861,1,-2.137821436,1,-8.450751305,1,-0.135691881,1,-0.227483869,1,0.232530877,1,0.186789319,1,-0.547972918,1,-0.014507105,1
4.479959011,-4.646677017,1,-2.052069426,1,-8.521951675,1,-0.137090474,1,-0.244739398,1,0.242355987,1,0.185787037,1,-0.549079895,1,-0.013624848,1
4.483956814,-4.397864819,1,-2.33873415,1,-8.765222549,1,-0.150780469,1,-0.266344786,1,0.248800814,1,0.1847381,1,-0.550249577,1,-0.012716903,1
4.487956524,-4.60862112,1,-2.107670546,1,-8.792878151,1,-0.156174123,1,-0.285854012,1,0.264827132,1,0.183618605,1,-0.551536798,1,-0.011768828,1
4.491958141,-4.585040569,1,-1.823057771,1,-8.831459045,1,-0.131962508,1,-0.301362574,1,0.287399501,1,0.182503864,1,-0.552893996,1,-0.01074793,1
4.495955944,-4.445584774,1,-1.753176689,1,-8.959172249,1,-0.084509045,1,-0.312062293,1,0.315547317,1,0.181469277,1,-0.554319382,1,-0.009602662,1
4.499955654,-4.50663662,1,-2.593548775,1,-8.787453651,1,-0.070307158,1,-0.352859288,1,0.356170863,1,0.180489942,1,-0.555871844,1,-0.008324471,1
4.503956795,-4.581635952,1,-2.974175453,1,-8.609600067,1,-0.074091882,1,-0.375931323,1,0.393643856,1,0.179452926,1,-0.557568133,1,-0.006890112,1
4.507954597,-4.754506111,1,-2.963367462,1,-8.83357811,1,-0.060938399,1,-0.385063469,1,0.438843697,1,0.178334683,1,-0.559373558,1,-0.005276144,1
4.511954308,-4.278632641,1,-3.405489206,1,-9.01053524,1,-0.107959397,1,-0.467629343,1,0.483085364,1,0.177066937,1,-0.561358511,1,-0.003493177,1
4.515955925,-4.69752121,1,-2.853498459,1,-9.277686119,1,-0.194196686,1,-0.519537807,1,0.496540815,1,0.175457925,1,-0.563644528,1,-0.001614061,1
4.519953728,-4.856264114,1,-0.894571304,1,-9.300030708,1,-0.203373015,1,-0.556651294,1,0.497477263,1,0.173646778,1,-0.566128671,1,0.000262638,1
4.523952961,-4.717461109,1,0.329788327,1,-9.922516823,1,-0.168778986,1,-0.614688575,1,0.493673742,1,0.171859339,1,-0.568762541,1,0.002116431,1
4.527955055,-4.663556576,1,-0.646593094,1,-10.11628342,1,-0.110958196,1,-0.68662703,1,0.454365522,1,0.170414701,1,-0.571646571,1,0.003817627,1
4.531952858,-4.33266449,1,-1.292226195,1,-9.703537941,1,-0.138318419,1,-0.772369146,1,0.423365027,1,0.16910468,1,-0.574825048,1,0.00528995,1
4.535952568,-4.609381676,1,-0.906980038,1,-9.961950302,1,-0.125003621,1,-0.836055815,1,0.401124895,1,0.167858452,1,-0.578237951,1,0.006805619,1
4.539954185,-4.145771027,1,-0.440704018,1,-10.38699341,1,-0.084123388,1,-0.927982867,1,0.40368095,1,0.166774929,1,-0.581980288,1,0.007991633,1
4.543951988,-4.036725044,1,-0.966966808,1,-10.32731438,1,-0.044187464,1,-1.021742821,1,0.400607437,1,0.165922135,1,-0.586089551,1,0.009115604,1
4.547951698,-4.904356956,1,-0.974635065,1,-10.27804089,1,-0.006618471,1,-1.112911701,1,0.387255996,1,0.165258914,1,-0.59056288,1,0.010137946,1
4.551953316,-5.230823517,1,-0.280738235,1,-10.47975922,1,0.043726895,1,-1.208974481,1,0.373825938,1,0.164831147,1,-0.595392644,1,0.0110193,1
4.555951118,-4.183233261,1,-0.479828417,1,-10.48343468,1,0.087948494,1,-1.285094738,1,0.354952782,1,0.164668754,1,-0.600543082,1,0.011785347,1
4.559950829,-4.451577187,1,-1.061003685,1,-10.87894154,1,0.104882583,1,-1.422622919,1,0.331204891,1,0.164731741,1,-0.606124282,1,0.012354269,1
4.563951969,-4.340834141,1,-0.709386468,1,-10.96646786,1,0.112677999,1,-1.533390999,1,0.323411524,1,0.164928615,1,-0.61216861,1,0.012748045,1
4.567949772,-3.900128365,1,-0.291494638,1,-11.03818512,1,0.154021278,1,-1.660632014,1,0.334735483,1,0.165289819,1,-0.618685663,1,0.01305018,1
4.571949959,-4.291173935,1,-0.515725553,1,-11.34696484,1,0.195418462,1,-1.777594686,1,0.338107139,1,0.165856794,1,-0.625684619,1,0.013283202,1
4.575951576,-4.054981232,1,-0.202555284,1,-11.19287968,1,0.246112064,1,-1.92046237,1,0.339437127,1,0.16664651,1,-0.633205891,1,0.013429334,1
4.579948902,-4.462881088,1,-0.455043256,1,-11.49359894,1,0.308379441,1,-2.050152063,1,0.33425194,1,0.167750537,1,-0.641259193,1,0.013433379,1
4.583948135,-4.866505146,1,-0.850806177,1,-11.23870468,1,0.326390326,1,-2.196818352,1,0.348141283,1,0.169074178,1,-0.649850309,1,0.013341771,1
4.58795023,-4.919778347,1,-0.306129217,1,-11.42763805,1,0.376035571,1,-2.333297729,1,0.348627806,1,0.17059651,1,-0.659015536,1,0.01314006,1
4.591947556,-4.629231453,1,-0.258614153,1,-11.69854832,1,0.420672596,1,-2.493027687,1,0.3634727,1,0.172394127,1,-0.66878134,1,0.012821673,1
4.595953465,-5.014503479,1,-1.076053619,1,-12.39157486,1,0.45607838,1,-2.621389151,1,0.389357239,1,0.174388662,1,-0.679120183,1,0.012459525,1
4.599955559,-3.506519794,1,-1.518489361,1,-11.49189949,1,0.481862903,1,-2.816223621,1,0.392365575,1,0.176554278,1,-0.690101624,1,0.011998584,1
4.603953362,-4.591255665,1,-2.030356169,1,-11.98410702,1,0.505414963,1,-2.989013672,1,0.397967786,1,0.178958401,1,-0.701823413,1,0.011333006,1
4.607953072,-4.602816105,1,-3.053299904,1,-11.70249367,1,0.485295743,1,-3.127908468,1,0.422951281,1,0.181448638,1,-0.714139223,1,0.010571856,1
4.611954212,-4.163259506,1,-3.258719206,1,-11.11815453,1,0.456295043,1,-3.289833307,1,0.445186585,1,0.183884919,1,-0.727074921,1,0.009736519,1
4.615952492,-4.962095737,1,-3.140491247,1,-11.7990303,1,0.428000659,1,-3.42444253,1,0.472903222,1,0.186260819,1,-0.740629733,1,0.00883414,1
4.619951725,-4.064229488,1,-3.339978456,1,-11.45654106,1,0.397779226,1,-3.555585861,1,0.520685196,1,0.188519225,1,-0.754706383,1,0.007944889,1
4.623953342,-4.760560513,1,-3.642138243,1,-12.00393295,1,0.328258067,1,-3.695342779,1,0.574712992,1,0.190545216,1,-0.769364774,1,0.007137144,1
4.627951145,-3.94697094,1,-3.372009039,1,-11.3904295,1,0.262888342,1,-3.845762253,1,0.622516155,1,0.192226887,1,-0.784614265,1,0.006422992,1
4.631950378,-4.108029366,1,-3.07597208,1,-11.37674809,1,0.210726142,1,-4.021424294,1,0.667831063,1,0.193675026,1,-0.800557017,1,0.005720066,1
4.635951996,-5.250715733,1,-3.164854765,1,-12.10566998,1,0.169338942,1,-4.174414158,1,0.723022521,1,0.194891632,1,-0.817176461,1,0.005072215,1
4.639949799,-5.066474438,1,-3.478986502,1,-11.37026024,1,0.106057532,1,-4.32505703,1,0.78209424,1,0.195814699,1,-0.834433556,1,0.004548645,1
4.643949509,-4.58893919,1,-3.539833069,1,-10.76917171,1,0.047474705,1,-4.536350727,1,0.816543698,1,0.196489483,1,-0.8524369,1,0.00406265,1
4.647951126,-5.373613834,1,-3.617608547,1,-11.34968758,1,-0.011815399,1,-4.689352512,1,0.859604836,1,0.196943074,1,-0.871200442,1,0.003552899,1
4.651948929,-7.384192944,1,-3.672470093,1,-12.0764389,1,-0.044117805,1,-4.751000404,1,0.900839508,1,0.197145134,1,-0.890427172,1,0.003158057,1
4.655948639,-7.87543726,1,-4.797825336,1,-11.52237797,1,-0.112839624,1,-4.750455856,1,0.970336914,1,0.196925431,1,-0.90978694,1,0.003055342,1
4.659950733,-5.786882401,1,-4.871659756,1,-9.658135414,1,-0.201870278,1,-4.827144623,1,1.046869755,1,0.196009651,1,-0.929336309,1,0.003431614,1
4.663948059,-5.020334721,1,-4.556037903,1,-8.784054756,1,-0.269516081,1,-4.961024284,1,1.125727534,1,0.19439517,1,-0.949377954,1,0.004240228,1
4.667948246,-7.419960499,1,-3.751727343,1,-10.09801388,1,-0.359723806,1,-5.012727737,1,1.227037072,1,0.191965178,1,-0.969907045,1,0.005622386,1
4.671949387,-10.00609398,1,-2.572061062,1,-10.91687965,1,-0.355717242,1,-4.915015697,1,1.265518904,1,0.188796401,1,-0.990359008,1,0.007698096,1
4.675946712,-8.472716331,1,-2.010225534,1,-9.826068878,1,-0.346447766,1,-4.887320995,1,1.324127793,1,0.185116559,1,-1.01055479,1,0.010387692,1
4.679946423,-10.86910725,1,-1.76069808,1,-9.6590271,1,-0.311971843,1,-4.853198528,1,1.342533469,1,0.181012437,1,-1.030714869,1,0.013649141,1
4.68394804,-11.31532478,1,-2.385653257,1,-9.112090111,1,-0.317809284,1,-4.737294197,1,1.349409461,1,0.176558182,1,-1.050544262,1,0.017382372,1
4.687945843,-11.88258934,1,-1.772338629,1,-9.291660309,1,-0.340313077,1,-4.632350922,1,1.365402699,1,0.171469003,1,-1.069944382,1,0.021706086,1
4.691945553,-9.428480148,1,-2.516279221,1,-8.302941322,1,-0.387937635,1,-4.561945915,1,1.402603984,1,0.165611401,1,-1.088972569,1,0.026698746,1
4.695946693,-8.435064316,1,-2.709528685,1,-7.841420174,1,-0.452407509,1,-4.571378231,1,1.463043213,1,0.158633053,1,-1.107911468,1,0.032654405,1
4.699944496,-10.6379652,1,-1.952793241,1,-8.374278069,1,-0.47622776,1,-4.482403755,1,1.455563903,1,0.150616601,1,-1.126746297,1,0.039494388,1
4.703944206,-9.723725319,1,-2.614550114,1,-7.852012634,1,-0.50931567,1,-4.366322517,1,1.469046354,1,0.141782761,1,-1.145087004,1,0.047072779,1
4.707945347,-8.577134132,1,-2.399953365,1,-7.336111069,1,-0.549409568,1,-4.306258678,1,1.514052868,1,0.131625086,1,-1.163083076,1,0.055858709,1
4.71194315,-8.449046135,1,-2.547410011,1,-6.873783588,1,-0.592930436,1,-4.261564732,1,1.550791502,1,0.120023884,1,-1.180851221,1,0.065978594,1
4.715949059,-8.108561516,1,-2.379895926,1,-6.448123455,1,-0.627058029,1,-4.207368374,1,1.55144465,1,0.106971502,1,-1.198387861,1,0.077405691,1
4.719951153,-6.603308678,1,-2.749114752,1,-5.713486671,1,-0.672122359,1,-4.199832439,1,1.567037702,1,0.092479527,1,-1.215720415,1,0.090131372,1
4.723949432,-5.337735176,1,-2.757369757,1,-5.305205345,1,-0.72947067,1,-4.215466976,1,1.60273087,1,0.076078519,1,-1.233008146,1,0.10459099,1
4.727948666,-4.121817589,1,-2.691176176,1,-5.538767815,1,-0.78125006,1,-4.195266247,1,1.630746007,1,0.057437159,1,-1.250252843,1,0.121079773,1
4.73195076,-4.247386932,1,-2.196257353,1,-6.883829594,1,-0.78009361,1,-4.088334084,1,1.634331942,1,0.036523134,1,-1.267127633,1,0.139770955,1
4.735948086,-3.470182419,1,-1.92701745,1,-7.994513512,1,-0.740477264,1,-3.894400597,1,1.626145959,1,0.01339946,1,-1.283262014,1,0.160753116,1
4.739947319,-2.746425629,1,-1.547996521,1,-9.141745567,1,-0.677202642,1,-3.686787367,1,1.629143,1,-0.012034396,1,-1.298435688,1,0.184265837,1
4.743949413,-4.814280987,1,-0.739281714,1,-8.78356266,1,-0.577475369,1,-3.500919104,1,1.646886706,1,-0.040078193,1,-1.312622547,1,0.210713297,1
4.747947216,-9.006581306,1,-0.335656494,1,-10.51549435,1,-0.419036299,1,-3.154590607,1,1.568261385,1,-0.070009515,1,-1.325627208,1,0.239553288,1
4.751946926,-10.51658154,1,-1.504181623,1,-12.20914078,1,-0.319984406,1,-2.59104681,1,1.460559368,1,-0.10014905,1,-1.336578846,1,0.269085795,1
4.755948544,-9.08170414,1,-1.315128684,1,-11.74263573,1,-0.248177275,1,-2.083750963,1,1.386884809,1,-0.130080476,1,-1.34518075,1,0.298641324,1
4.759946346,-8.702052116,1,-0.924056292,1,-11.76423264,1,-0.122485243,1,-1.6111238,1,1.28336668,1,-0.158959746,1,-1.351724625,1,0.327478111,1
4.763946056,-8.369594574,1,-1.270054936,1,-11.75764561,1,-0.014552073,1,-1.142321706,1,1.162166834,1,-0.185396731,1,-1.356312513,1,0.354280174,1
4.767947674,-7.499951363,1,-1.528224587,1,-11.27145195,1,0.060778804,1,-0.703678608,1,1.032289028,1,-0.208549559,1,-1.359066725,1,0.378076017,1
4.771945477,-6.54853487,1,-1.760876894,1,-10.70325375,1,0.127675027,1,-0.316166073,1,0.891737998,1,-0.22773543,1,-1.360215664,1,0.398084074,1
4.77594471,-5.610577106,1,-2.246613503,1,-10.02108002,1,0.178573772,1,0.029950293,1,0.75286442,1,-0.242637619,1,-1.359995008,1,0.413957953,1
4.77994585,-4.586991787,1,-2.646978855,1,-9.352747917,1,0.198872283,1,0.319820076,1,0.612247348,1,-0.25335452,1,-1.35863173,1,0.42569685,1
4.783943653,-3.593788862,1,-3.023947477,1,-8.559502602,1,0.196890205,1,0.555992723,1,0.474327534,1,-0.260207534,1,-1.356330872,1,0.433639169,1
4.787943363,-2.823400736,1,-3.380082369,1,-7.772268772,1,0.170230165,1,0.745028853,1,0.345662266,1,-0.263586164,1,-1.353390813,1,0.437863171,1
4.791944981,-2.174022913,1,-3.696802378,1,-7.194851398,1,0.127949759,1,0.906833708,1,0.223992437,1,-0.264028668,1,-1.349897027,1,0.438933432,1
4.795942783,-1.77190268,1,-3.988077164,1,-6.611485481,1,0.050124895,1,1.029485703,1,0.096073776,1,-0.261943609,1,-1.345991611,1,0.437158316,1
4.799942493,-1.483936429,1,-4.15240097,1,-6.287689209,1,-0.039170638,1,1.145168185,1,-0.021736082,1,-0.257717073,1,-1.341742277,1,0.432853848,1
4.803944588,-1.136687398,1,-4.110668182,1,-6.104874134,1,-0.139339238,1,1.245432973,1,-0.13918902,1,-0.251653194,1,-1.33718574,1,0.426255137,1
4.807941914,-1.246030807,1,-4.009613514,1,-5.901314259,1,-0.236409262,1,1.326988578,1,-0.2636213,1,-0.243898883,1,-1.33240819,1,0.417498529,1
4.811942101,-1.338862896,1,-3.818197966,1,-5.828094482,1,-0.32226789,1,1.411528111,1,-0.390717775,1,-0.234563917,1,-1.327404857,1,0.406739295,1
4.815943718,-1.517963767,1,-3.635656357,1,-5.797176838,1,-0.398258895,1,1.503193736,1,-0.518659055,1,-0.223699883,1,-1.322137237,1,0.394047618,1
4.819941521,-1.772492886,1,-3.413072824,1,-5.938412189,1,-0.470748603,1,1.600877047,1,-0.651688099,1,-0.211309075,1,-1.316576958,1,0.379455566,1
4.823940754,-2.084986925,1,-3.197507143,1,-6.090356827,1,-0.530981839,1,1.697610617,1,-0.791554034,1,-0.197481558,1,-1.310701966,1,0.363084614,1
4.827942371,-2.452355146,1,-3.152558327,1,-6.204728603,1,-0.585007727,1,1.803569555,1,-0.927825868,1,-0.182266265,1,-1.304473877,1,0.345015168,1
4.831940174,-2.795473099,1,-3.094240665,1,-6.335411072,1,-0.640759766,1,1.92047894,1,-1.060208797,1,-0.165872172,1,-1.297823191,1,0.325460374,1
4.835945606,-3.082766771,1,-3.024839401,1,-6.424997807,1,-0.702843904,1,2.046419859,1,-1.188889861,1,-0.148508608,1,-1.29069078,1,0.304617405,1
4.839947701,-3.326750278,1,-2.957450151,1,-6.522638798,1,-0.765391529,1,2.178248644,1,-1.310564518,1,-0.130434424,1,-1.283022642,1,0.282729566,1
4.84394598,-3.634202719,1,-2.724288464,1,-6.722329617,1,-0.832602143,1,2.309919357,1,-1.418153763,1,-0.111998864,1,-1.27477181,1,0.260136127,1
4.84794569,-3.967177391,1,-2.398774624,1,-6.796260357,1,-0.887644947,1,2.44625783,1,-1.516262293,1,-0.093420707,1,-1.265915394,1,0.237084523,1
4.851947308,-4.238896847,1,-2.016235828,1,-6.972703457,1,-0.924406826,1,2.580073357,1,-1.601238966,1,-0.074962594,1,-1.256427169,1,0.213887781,1
4.85594511,-4.47392416,1,-1.605322957,1,-7.070764542,1,-0.941563845,1,2.716543674,1,-1.667251348,1,-0.056865044,1,-1.246299624,1,0.190891013,1
4.85994482,-4.583406448,1,-1.163334012,1,-7.165513515,1,-0.929092467,1,2.855617046,1,-1.715906858,1,-0.039296154,1,-1.235499501,1,0.168357551,1
4.863946438,-4.727017403,1,-0.633001268,1,-7.290042877,1,-0.888540208,1,2.997491598,1,-1.748272896,1,-0.022390909,1,-1.224013686,1,0.146560654,1
4.867943764,-4.801724434,1,-0.243284509,1,-7.384175301,1,-0.817611575,1,3.126064301,1,-1.76374948,1,-0.006233701,1,-1.211866856,1,0.125709146,1
4.871943474,-4.836127758,1,0.041358095,1,-7.510728836,1,-0.732303262,1,3.257794142,1,-1.766089439,1,0.009083964,1,-1.199084401,1,0.10598585,1
4.875945091,-4.929171085,1,0.24217388,1,-7.527039528,1,-0.623621941,1,3.3759408,1,-1.750879049,1,0.023519505,1,-1.185692668,1,0.087539934,1
4.879942894,-4.914203644,1,0.286968052,1,-7.514513016,1,-0.515449882,1,3.48808217,1,-1.718282819,1,0.037015356,1,-1.171755314,1,0.070469238,1
4.883942604,-4.80978632,1,0.233505607,1,-7.433429718,1,-0.411538213,1,3.589385271,1,-1.669103265,1,0.049475651,1,-1.157312512,1,0.054885544,1
4.887944221,-4.617362499,1,0.174025744,1,-7.355799198,1,-0.315701097,1,3.678436995,1,-1.60345602,1,0.060824372,1,-1.142434478,1,0.040846832,1
4.891942024,-4.370206833,1,0.075269915,1,-7.251837254,1,-0.235154793,1,3.749333143,1,-1.525864482,1,0.07103534,1,-1.127203465,1,0.028364731,1
4.895941734,-4.122656345,1,-0.062191259,1,-7.124927044,1,-0.16429317,1,3.789428949,1,-1.437423229,1,0.080098808,1,-1.111722112,1,0.017414581,1
4.899943352,-3.917964935,1,-0.207659245,1,-7.094076633,1,-0.10240604,1,3.812492132,1,-1.339650273,1,0.088033892,1,-1.096096873,1,0.007940447,1
4.903941154,-3.77797842,1,-0.356808871,1,-7.046627522,1,-0.051858652,1,3.823301554,1,-1.240343928,1,0.094870359,1,-1.080409527,1,-0.000119423,1
4.907940388,-3.722921133,1,-0.514969945,1,-7.054571629,1,-0.009860259,1,3.806377411,1,-1.133178711,1,0.100680567,1,-1.064754486,1,-0.0068773,1
4.911942005,-3.75122571,1,-0.630586505,1,-7.150792599,1,0.023666546,1,3.78881979,1,-1.027644038,1,0.105538875,1,-1.049197912,1,-0.012422917,1
4.915939808,-3.933256388,1,-0.792523623,1,-7.284452438,1,0.049396288,1,3.751650095,1,-0.923769414,1,0.109556407,1,-1.033791184,1,-0.01691339,1
4.919939041,-4.288572788,1,-0.911242843,1,-7.464146137,1,0.070514791,1,3.71359849,1,-0.833711863,1,0.112836845,1,-1.018559694,1,-0.020468799,1
4.923940659,-4.783091068,1,-1.093032718,1,-7.705936432,1,0.08982902,1,3.677975893,1,-0.747191727,1,0.115477696,1,-1.003513217,1,-0.023211727,1
4.927938461,-5.313486099,1,-1.250987053,1,-7.910452366,1,0.094186179,1,3.660972118,1,-0.668659091,1,0.117554121,1,-0.988599598,1,-0.025241416,1
4.931938171,-5.752630234,1,-1.389231205,1,-8.146418571,1,0.095998682,1,3.657851696,1,-0.59657681,1,0.119114123,1,-0.973773479,1,-0.026657604,1
4.935940266,-6.166243076,1,-1.472693682,1,-8.429423332,1,0.095653981,1,3.657182932,1,-0.536728263,1,0.12022604,1,-0.958984733,1,-0.027552629,1
4.939937592,-6.600879192,1,-1.462907076,1,-8.698325157,1,0.091793083,1,3.665004015,1,-0.488449752,1,0.120977111,1,-0.944208026,1,-0.0280222,1
4.943937302,-7.000102043,1,-1.458035111,1,-8.964143753,1,0.099022068,1,3.678816557,1,-0.455656081,1,0.121480405,1,-0.929400146,1,-0.028183388,1
4.947939396,-7.298490047,1,-1.47957778,1,-9.168515205,1,0.110698916,1,3.693574667,1,-0.435479879,1,0.121867679,1,-0.914547086,1,-0.028149564,1
4.951937199,-7.523274422,1,-1.535089374,1,-9.353732109,1,0.13164331,1,3.715628386,1,-0.420626849,1,0.122206166,1,-0.899638295,1,-0.027966984,1
4.955942631,-7.739200592,1,-1.60295856,1,-9.475885391,1,0.146582052,1,3.733124256,1,-0.419511855,1,0.122583613,1,-0.884651601,1,-0.027730804,1
4.959944248,-7.825768948,1,-1.648725271,1,-9.636767387,1,0.171230868,1,3.737729788,1,-0.423647523,1,0.123034276,1,-0.869606853,1,-0.027486358,1
4.963942051,-7.820221424,1,-1.694969773,1,-9.721297264,1,0.190741092,1,3.746645451,1,-0.437572032,1,0.123598151,1,-0.854535341,1,-0.027274864,1
4.967941284,-7.833921909,1,-1.787476659,1,-9.787610054,1,0.219768107,1,3.738349199,1,-0.452276886,1,0.12432424,1,-0.839460373,1,-0.027143218,1
4.971942902,-7.826453686,1,-1.845475674,1,-9.891906738,1,0.246802494,1,3.726794243,1,-0.468119234,1,0.125233427,1,-0.82440871,1,-0.02709643,1
4.975940704,-7.802697182,1,-1.942017674,1,-10.01829433,1,0.273163974,1,3.7010355,1,-0.48764053,1,0.126319498,1,-0.809423804,1,-0.027159285,1
4.979940414,-7.849062443,1,-2.049176216,1,-10.03402328,1,0.300599873,1,3.668917894,1,-0.507626116,1,0.127582788,1,-0.794540286,1,-0.027315181,1
4.983942032,-7.763602734,1,-2.105328321,1,-10.098773,1,0.320783228,1,3.629909039,1,-0.523163021,1,0.12900652,1,-0.779793024,1,-0.027560266,1
4.987939835,-7.813384533,1,-2.225409508,1,-10.12527275,1,0.347913444,1,3.585875273,1,-0.529731035,1,0.130565062,1,-0.765210152,1,-0.027874246,1
4.991939545,-7.805333614,1,-2.301223278,1,-10.1000061,1,0.361985624,1,3.537172556,1,-0.540883541,1,0.132229358,1,-0.75080812,1,-0.028236894,1
4.995941162,-7.725265503,1,-2.395932198,1,-10.12880516,1,0.376824558,1,3.485075712,1,-0.539303541,1,0.133963257,1,-0.736605585,1,-0.028607655,1
4.999938965,-7.63903141,1,-2.345626354,1,-10.24107552,1,0.397870123,1,3.420385838,1,-0.526419342,1,0.135743022,1,-0.722633779,1,-0.028952904,1
5.003938198,-7.45797205,1,-2.34683466,1,-10.23412704,1,0.412791163,1,3.345584393,1,-0.506046414,1,0.13753821,1,-0.708948135,1,-0.029227171,1
5.007940292,-7.285709858,1,-2.360634565,1,-10.26501083,1,0.422307253,1,3.256195068,1,-0.478481114,1,0.13931644,1,-0.695599198,1,-0.029397156,1
5.011937618,-7.100426674,1,-2.27554822,1,-10.2857151,1,0.434944451,1,3.156284809,1,-0.439471811,1,0.141056284,1,-0.682636023,1,-0.029425252,1
5.015936852,-6.955818653,1,-2.145956278,1,-10.31680775,1,0.450908333,1,3.049194336,1,-0.389351845,1,0.142728463,1,-0.670106947,1,-0.029283872,1
5.019938946,-6.848497391,1,-1.850819826,1,-10.25613499,1,0.472255588,1,2.932605743,1,-0.338657767,1,0.144369736,1,-0.658047915,1,-0.028952751,1
5.023936749,-6.908294201,1,-1.683334947,1,-10.31805325,1,0.52020067,1,2.805644274,1,-0.283442974,1,0.14602299,1,-0.646514893,1,-0.028409885,1
5.027936459,-7.028182983,1,-1.502277732,1,-10.21808434,1,0.570515513,1,2.664550304,1,-0.225551873,1,0.147755936,1,-0.635535479,1,-0.02766474,1
5.031938076,-7.149474144,1,-1.452468634,1,-10.11945152,1,0.62860626,1,2.51990509,1,-0.171648845,1,0.149614498,1,-0.625168622,1,-0.026749767,1
5.035935879,-7.35715723,1,-1.474866986,1,-10.12508202,1,0.682187915,1,2.36986804,1,-0.120462023,1,0.15160799,1,-0.615371823,1,-0.025608791,1
5.039935589,-7.832082748,1,-1.519086599,1,-10.17780781,1,0.742031157,1,2.227022409,1,-0.079070486,1,0.153760269,1,-0.606224775,1,-0.024383005,1
5.043937206,-8.280641556,1,-1.509325385,1,-10.22850895,1,0.793780863,1,2.104058743,1,-0.043502815,1,0.156091779,1,-0.597635806,1,-0.023049856,1
5.047935009,-8.850858688,1,-1.467045665,1,-10.36585236,1,0.84580034,1,1.982866526,1,-0.020720229,1,0.15859583,1,-0.589543283,1,-0.021651233,1
5.051934719,-9.375012398,1,-1.500297904,1,-10.35824108,1,0.887274325,1,1.874625921,1,-0.014024417,1,0.16129379,1,-0.581919074,1,-0.020258008,1
5.055936337,-10.03084373,1,-1.433749318,1,-10.43404198,1,0.936055064,1,1.768048882,1,-0.022392157,1,0.16422075,1,-0.574735224,1,-0.018931711,1
5.059933662,-11.06166744,1,-1.526542068,1,-10.53184319,1,0.979478776,1,1.696347713,1,-0.043030653,1,0.167399257,1,-0.567895114,1,-0.017727081,1
5.063932896,-12.17694759,1,-1.782310963,1,-10.57072926,1,1.01459229,1,1.671247482,1,-0.064176753,1,0.17080918,1,-0.561233878,1,-0.016639788,1
5.067934513,-12.96521759,1,-1.998169899,1,-10.672472,1,1.025055528,1,1.665067554,1,-0.0919936,1,0.174360365,1,-0.554610133,1,-0.015644167,1
5.071932793,-14.43592739,1,-2.188196421,1,-10.46268559,1,1.020476103,1,1.712564707,1,-0.095828459,1,0.177951738,1,-0.547927499,1,-0.0146993,1
5.075932503,-14.68598175,1,-2.254800081,1,-10.54586506,1,1.00074029,1,1.79431951,1,-0.097826727,1,0.181465507,1,-0.540956557,1,-0.013675237,1
5.079940319,-15.43378258,1,-2.038630724,1,-10.51928234,1,0.998570323,1,1.892154098,1,-0.109801501,1,0.184907779,1,-0.533631563,1,-0.012589715,1
5.083944321,-15.92064571,1,-1.619226933,1,-10.42113304,1,0.998908043,1,2.012691975,1,-0.119891897,1,0.188309819,1,-0.525881231,1,-0.01143055,1
5.087944508,-16.24330521,1,-1.042941213,1,-10.28139687,1,1.030816436,1,2.138014078,1,-0.139925703,1,0.19174625,1,-0.517633498,1,-0.010206004,1
5.091946125,-16.49383926,1,-0.378917158,1,-10.03345776,1,1.078647494,1,2.277843237,1,-0.161878616,1,0.195328653,1,-0.508846641,1,-0.00894176,1
5.095943451,-16.48496437,1,0.382081032,1,-9.789865494,1,1.159028769,1,2.411682129,1,-0.199680075,1,0.199177667,1,-0.499511659,1,-0.007650746,1
5.099942684,-16.51344109,1,1.062640667,1,-9.479767799,1,1.25984323,1,2.537984371,1,-0.234160647,1,0.203396156,1,-0.489633948,1,-0.006361633,1
5.103944778,-16.57269287,1,1.545726776,1,-9.047585487,1,1.379550219,1,2.659480333,1,-0.273085475,1,0.208082631,1,-0.479247928,1,-0.005077277,1
5.107942581,-16.52826691,1,1.805095196,1,-8.490368843,1,1.504203916,1,2.772236586,1,-0.309929132,1,0.213271886,1,-0.4683716,1,-0.00380631,1
5.111942291,-16.22084999,1,1.77167964,1,-7.861853123,1,1.614756584,1,2.878468275,1,-0.330813318,1,0.218931481,1,-0.457050383,1,-0.00249422,1
5.115943909,-15.90778065,1,1.612429619,1,-7.253246784,1,1.694589496,1,2.969722033,1,-0.344866246,1,0.224951863,1,-0.445327401,1,-0.001107169,1
5.119941711,-15.44709301,1,1.427587509,1,-6.711961269,1,1.748500824,1,3.032450676,1,-0.34190318,1,0.231193453,1,-0.433317721,1,0.000427035,1
5.123941422,-14.98839569,1,1.274899721,1,-6.17856741,1,1.772555828,1,3.079563856,1,-0.330446184,1,0.237547055,1,-0.421108127,1,0.002110098,1
5.127943039,-14.67446518,1,1.208268642,1,-5.642506599,1,1.77473259,1,3.101215601,1,-0.306017816,1,0.243886173,1,-0.408797085,1,0.003986424,1
5.131940842,-14.59870052,1,1.114388943,1,-5.194426537,1,1.763854384,1,3.111238956,1,-0.275289625,1,0.250152677,1,-0.396463633,1,0.006055718,1
5.135940552,-14.66255856,1,1.071558714,1,-4.619635582,1,1.744411469,1,3.114951849,1,-0.245083109,1,0.256303966,1,-0.384149283,1,0.008343804,1
5.139941692,-14.52381897,1,0.974748611,1,-4.083571911,1,1.710296154,1,3.112472296,1,-0.208520934,1,0.262292147,1,-0.371882081,1,0.010840726,1
5.143939495,-14.37560463,1,0.895007014,1,-3.486899137,1,1.673580527,1,3.100135803,1,-0.172862291,1,0.26810351,1,-0.359689802,1,0.013531375,1
5.147938728,-14.05152512,1,0.912025154,1,-2.909187078,1,1.630207419,1,3.072120667,1,-0.141601086,1,0.273720682,1,-0.347619057,1,0.016401732,1
5.151940823,-13.73046303,1,0.891635299,1,-2.338950634,1,1.576909423,1,3.022761822,1,-0.112484775,1,0.279122204,1,-0.335743248,1,0.019417914,1
5.155938148,-13.39344311,1,0.94802624,1,-1.812365055,1,1.518460155,1,2.951828718,1,-0.082480222,1,0.284306765,1,-0.324140519,1,0.022537587,1
5.159937382,-13.06905079,1,1.124230385,1,-1.401457191,1,1.464186668,1,2.862023115,1,-0.065639973,1,0.289283812,1,-0.312901974,1,0.025705434,1
5.163938999,-12.79119873,1,1.356304646,1,-0.934937894,1,1.420616984,1,2.750362158,1,-0.046039522,1,0.294089139,1,-0.302087605,1,0.028878354,1
5.167936325,-12.64317322,1,1.574915171,1,-0.558059275,1,1.399390221,1,2.624503613,1,-0.029323548,1,0.298801303,1,-0.291763693,1,0.032012671,1
5.171936035,-12.6755743,1,1.662864685,1,-0.223246142,1,1.37397027,1,2.48612833,1,-0.020541456,1,0.303477883,1,-0.281973988,1,0.035075445,1
5.175938129,-12.70029068,1,1.764371395,1,0.106697187,1,1.35142529,1,2.340940714,1,-0.008073888,1,0.308112144,1,-0.272743195,1,0.038051162,1
5.179936409,-12.70354176,1,1.591826558,1,0.514340639,1,1.312523603,1,2.202873468,1,0.014147147,1,0.312677979,1,-0.264092773,1,0.040937778,1
5.183935642,-12.56826973,1,1.305247903,1,0.9387995,1,1.253083825,1,2.061762571,1,0.03891011,1,0.31708473,1,-0.256019115,1,0.043786038,1
5.18793726,-12.27663326,1,0.927671194,1,1.344213843,1,1.152705431,1,1.914271474,1,0.09275236,1,0.321192384,1,-0.248554111,1,0.046625935,1
5.191935062,-11.83946037,1,0.630799174,1,1.632333994,1,1.023318887,1,1.739896536,1,0.145668954,1,0.324863017,1,-0.241762251,1,0.049485106,1
5.195934772,-11.28961277,1,0.582897067,1,1.841443419,1,0.857925236,1,1.555502892,1,0.217010781,1,0.327944368,1,-0.235742688,1,0.052369911,1
5.199942589,-10.90894985,1,0.586266398,1,1.991916537,1,0.688667119,1,1.346032619,1,0.288264155,1,0.33036387,1,-0.230575278,1,0.05528089,1
5.203946114,-10.68256187,1,0.759688973,1,2.009706736,1,0.521646321,1,1.128302813,1,0.361461103,1,0.332120359,1,-0.226324037,1,0.058193259,1
5.207945824,-10.66325188,1,0.90949446,1,1.994089842,1,0.368704706,1,0.901088238,1,0.429406315,1,0.333262146,1,-0.223009631,1,0.061094277,1
5.211947441,-10.86720276,1,1.242257118,1,1.711038351,1,0.234644845,1,0.687332869,1,0.495232731,1,0.333841562,1,-0.220604226,1,0.063950934,1
5.215945244,-11.25218391,1,1.557106614,1,1.342421174,1,0.137170777,1,0.48277998,1,0.53580153,1,0.333981007,1,-0.219080344,1,0.066725627,1
5.219944477,-11.9490757,1,1.790642381,1,0.852058291,1,0.066576436,1,0.307278305,1,0.560646474,1,0.333797961,1,-0.218319431,1,0.069372743,1
5.223946095,-12.70530415,1,1.759755015,1,0.36002934,1,0.021618968,1,0.1756749,1,0.577923357,1,0.33342433,1,-0.21816808,1,0.071897686,1
5.227943897,-13.3998909,1,1.550862312,1,-0.150619999,1,-0.012232693,1,0.080285929,1,0.58384186,1,0.332921237,1,-0.218444914,1,0.074304864,1
5.231943607,-13.53908443,1,1.243995786,1,-0.496860325,1,-0.046630017,1,0.026362389,1,0.578309,1,0.332296014,1,-0.219011307,1,0.076629795,1
5.235945702,-13.42474747,1,0.828126609,1,-0.837932229,1,-0.097362645,1,-0.027376186,1,0.585803092,1,0.331523418,1,-0.219780758,1,0.078887187,1
5.239943027,-12.95632267,1,0.380644798,1,-1.169609189,1,-0.151310667,1,-0.074205928,1,0.58692652,1,0.330555916,1,-0.220731571,1,0.081092529,1
5.243942738,-12.36850166,1,0.072074331,1,-1.423788428,1,-0.218046904,1,-0.13771899,1,0.592804551,1,0.32934612,1,-0.22190477,1,0.083239615,1
5.247944832,-11.70242596,1,-0.108395383,1,-1.70998764,1,-0.283500969,1,-0.218160123,1,0.603952229,1,0.32787919,1,-0.22334373,1,0.085333198,1
5.251942635,-10.94368839,1,-0.186576724,1,-2.035210371,1,-0.342633396,1,-0.316965103,1,0.613546789,1,0.326172709,1,-0.225135282,1,0.08734946,1
5.255941868,4.004416466,1,-11.01248074,1,-11.00850296,1,-0.858444035,1,-0.69233042,1,0.610516369,1,0.323729217,1,-0.227578983,1,0.08910758,1
5.259943008,-0.142739072,1,-3.229604244,1,-11.3882494,1,-1.023083329,1,-1.195074201,1,0.9184708,1,0.319187015,1,-0.232348531,1,0.09082742,1
5.263941288,7.398614883,1,-5.31253624,1,-13.55385303,1,-0.949660897,1,-1.646502018,1,1.117843151,1,0.31483233,1,-0.239086777,1,0.093011297,1
5.267940998,6.088947773,1,-4.750237942,1,-14.07960701,1,-1.054285884,1,-1.594402313,1,1.192104459,1,0.310240924,1,-0.246793419,1,0.095449321,1
5.271942616,10.64101601,1,-3.245521069,1,-16.86055946,1,-1.11903739,1,-1.471214533,1,1.27741003,1,0.305132389,1,-0.254065305,1,0.098437726,1
5.275940895,8.823450089,1,-4.716041088,1,-19.19141769,1,-1.129591584,1,-1.517413139,1,1.279028893,1,0.299835145,1,-0.261301965,1,0.101640515,1
5.279940128,6.775015831,1,-5.074147701,1,-18.618433,1,-1.1334517,1,-1.496164918,1,1.30190289,1,0.294436216,1,-0.268571258,1,0.104932651,1
5.283941269,5.490944386,1,-2.873479843,1,-13.45730495,1,-1.095395565,1,-1.540071249,1,1.270851016,1,0.289097399,1,-0.275776923,1,0.107742153,1
5.287939072,3.571475029,1,-0.321426392,1,-7.618376732,1,-0.975154459,1,-1.723764777,1,1.244658709,1,0.284099877,1,-0.283426553,1,0.110857137,1
5.291938782,-0.531855166,1,0.196672633,1,-3.795431852,1,-0.895754993,1,-1.982025027,1,1.209182262,1,0.279587865,1,-0.291901529,1,0.113631308,1
5.295940399,-4.368381023,1,-0.29330188,1,-2.581096888,1,-0.864901602,1,-2.246466398,1,1.123077273,1,0.275404066,1,-0.301318079,1,0.115907602,1
5.299938202,-7.221868515,1,-0.282075286,1,-3.517960072,1,-0.804563761,1,-2.430789471,1,0.987836361,1,0.271575034,1,-0.31150949,1,0.117521562,1
5.303937912,-9.525069237,1,0.054335501,1,-6.780928135,1,-0.719467819,1,-2.45421648,1,0.774449885,1,0.268259317,1,-0.321905226,1,0.11835821,1
5.307940006,-10.85979366,1,0.098669097,1,-10.69002914,1,-0.610121965,1,-2.339363575,1,0.51910156,1,0.265606999,1,-0.331859857,1,0.118315876,1
5.311937332,-10.75700188,1,-0.65086937,1,-12.61806393,1,-0.519221604,1,-2.138154268,1,0.259017557,1,0.26366511,1,-0.340924025,1,0.117411084,1
5.315937042,-9.375283241,1,-0.575020134,1,-12.5287075,1,-0.448640496,1,-1.909687996,1,0.092051767,1,0.262246162,1,-0.348901927,1,0.115877904,1
5.319944859,-7.425112247,1,-0.028859293,1,-11.69172001,1,-0.370300263,1,-1.797086,1,0.020047041,1,0.261231035,1,-0.356077462,1,0.114053026,1
5.323947906,-5.488269329,1,-0.415407538,1,-10.53996658,1,-0.336610466,1,-1.814584136,1,0.062996298,1,0.260475874,1,-0.363052815,1,0.112205148,1
5.327947617,-3.695557594,1,0.78401494,1,-9.594135284,1,-0.290110171,1,-1.870061398,1,0.180540428,1,0.259759963,1,-0.370298803,1,0.110679641,1
5.331949711,-4.176746845,1,2.176780462,1,-9.956721306,1,-0.197043762,1,-1.90772748,1,0.292730123,1,0.25917995,1,-0.377849102,1,0.10957288,1
5.335947037,-4.791602135,1,2.705599308,1,-10.68227482,1,-0.089576535,1,-1.938461065,1,0.362062782,1,0.258885503,1,-0.385633886,1,0.108823813,1
5.339947224,-5.84346056,1,2.050024509,1,-10.99035645,1,0.013031106,1,-1.916035771,1,0.409370482,1,0.258938134,1,-0.393492609,1,0.108305998,1
5.343948364,-6.902240276,1,0.470288754,1,-11.14456654,1,0.080874979,1,-1.863948703,1,0.444482803,1,0.259266794,1,-0.401235163,1,0.107997254,1
5.34794569,-8.033046722,1,-0.732972026,1,-10.6543293,1,0.109885991,1,-1.784462452,1,0.467170924,1,0.259699076,1,-0.408754468,1,0.107887492,1
5.3519454,-9.144233704,1,-2.804959297,1,-10.55792046,1,0.105151258,1,-1.696648836,1,0.45590955,1,0.260166824,1,-0.415958405,1,0.107876249,1
5.355947018,-10.1115303,1,-3.725338459,1,-10.3247261,1,0.078060806,1,-1.599423528,1,0.440558344,1,0.260514468,1,-0.422798932,1,0.107942075,1
5.35994482,-10.75085163,1,-4.479722977,1,-10.19301128,1,0.059794396,1,-1.476478815,1,0.359916449,1,0.260816991,1,-0.429160684,1,0.107899077,1
5.36394453,-10.86781311,1,-5.452712536,1,-9.773342133,1,-0.02062141,1,-1.360606909,1,0.2867589,1,0.260999292,1,-0.434966624,1,0.107677579,1
5.367946148,-11.30156803,1,-6.886973381,1,-9.895328522,1,-0.114835963,1,-1.226870894,1,0.19791469,1,0.260944843,1,-0.440203935,1,0.107214719,1
5.371943951,-11.50014973,1,-7.206341267,1,-9.77704525,1,-0.247193351,1,-1.073478103,1,0.149019554,1,0.260460317,1,-0.444828212,1,0.106624492,1
5.375943184,-11.24187279,1,-6.019484997,1,-9.703151703,1,-0.316795647,1,-0.907749355,1,0.09214858,1,0.259573042,1,-0.448781163,1,0.106024742,1
5.379944324,-10.46598148,1,-5.541318893,1,-9.821376801,1,-0.385059476,1,-0.771812797,1,0.057726182,1,0.258473754,1,-0.452095896,1,0.105373628,1
5.383942127,-9.521517754,1,-3.558164597,1,-9.401885986,1,-0.445904702,1,-0.633330822,1,0.062915564,1,0.257013142,1,-0.454871207,1,0.104834884,1
5.387941837,-7.670657635,1,-1.769888401,1,-9.660639763,1,-0.406298548,1,-0.557005703,1,0.05923041,1,0.255493134,1,-0.457221806,1,0.10442546,1
5.391943455,-6.701694489,1,-1.277028203,1,-9.794645309,1,-0.390554965,1,-0.506246269,1,0.08319059,1,0.254020482,1,-0.459344536,1,0.104126252,1
5.395941257,-5.862012863,1,-0.450843573,1,-9.65766716,1,-0.338209897,1,-0.449269116,1,0.101739958,1,0.252611339,1,-0.461282134,1,0.103998691,1
5.399940968,-5.296306133,1,-0.588847399,1,-9.315766335,1,-0.296746999,1,-0.427702636,1,0.105507948,1,0.251363009,1,-0.463073701,1,0.103952453,1
5.403943062,-5.248621464,1,-0.945068061,1,-8.976429939,1,-0.263962686,1,-0.404937387,1,0.097547136,1,0.250249386,1,-0.464785188,1,0.103931084,1
5.407940388,-6.402368546,1,-1.835878611,1,-9.008827209,1,-0.247905642,1,-0.360996395,1,0.071452059,1,0.249261767,1,-0.466369241,1,0.103860736,1
5.411939621,-7.088777542,1,-1.770783186,1,-8.795791626,1,-0.230471775,1,-0.276278377,1,0.048452329,1,0.248332217,1,-0.467659175,1,0.103771128,1
5.415941238,-6.530330181,1,-1.576148868,1,-8.405076981,1,-0.21340394,1,-0.211254537,1,0.026238482,1,0.247509986,1,-0.468632281,1,0.103666164,1
5.419939041,-5.718811989,1,-1.08716464,1,-8.459349632,1,-0.197291955,1,-0.185607046,1,0.017947039,1,0.246735007,1,-0.469423771,1,0.103558831,1
5.423938751,-5.090731144,1,-0.85380733,1,-8.832612991,1,-0.179691762,1,-0.164763212,1,0.00720881,1,0.246046424,1,-0.470115185,1,0.103427336,1
5.427940369,-4.761304855,1,-0.940549433,1,-8.944245338,1,-0.148078308,1,-0.148298562,1,0.004139092,1,0.24545832,1,-0.470734507,1,0.103281476,1
5.431938171,-4.686658382,1,-1.056918383,1,-8.751795769,1,-0.12418583,1,-0.1377289,1,0.015836135,1,0.244969949,1,-0.471304506,1,0.10317421,1
5.435937881,-4.994689941,1,-1.188382745,1,-8.937973022,1,-0.103635348,1,-0.127157867,1,0.022840487,1,0.244544119,1,-0.471836448,1,0.103117958,1
5.439945221,-5.290597439,1,-1.529825568,1,-8.810288429,1,-0.087927692,1,-0.111967847,1,0.010102421,1,0.244209558,1,-0.47231552,1,0.103049465,1
5.443948746,-5.374797821,1,-1.596567154,1,-8.699497223,1,-0.070724569,1,-0.092838414,1,-0.009189304,1,0.243943587,1,-0.47271201,1,0.102947868,1
5.447948456,-5.232047558,1,-1.52650106,1,-8.788115501,1,-0.060487721,1,-0.078097455,1,-0.025432652,1,0.243752241,1,-0.473024338,1,0.102782488,1
5.451950073,-5.095025063,1,-1.475718021,1,-8.835652351,1,-0.035755277,1,-0.068813309,1,-0.030597206,1,0.243644059,1,-0.473285735,1,0.10258472,1
5.455948353,-4.98576498,1,-1.384918451,1,-8.920799255,1,-0.025236066,1,-0.058511514,1,-0.032057934,1,0.243611157,1,-0.473500729,1,0.102372736,1
5.459947586,-4.830390453,1,-1.428824425,1,-8.917464256,1,-0.006117431,1,-0.057862878,1,-0.037106697,1,0.243650585,1,-0.473693728,1,0.102161556,1
5.463949203,-4.786587238,1,-1.505616784,1,-8.870973587,1,0.006211554,1,-0.055275783,1,-0.036466565,1,0.243752375,1,-0.473877281,1,0.101946563,1
5.467947483,-4.808973789,1,-1.675497413,1,-8.851675987,1,0.022225762,1,-0.059443232,1,-0.042648368,1,0.243918955,1,-0.4740614,1,0.101712652,1
5.471947193,-4.85704422,1,-1.626536369,1,-8.827722549,1,0.030873628,1,-0.057358053,1,-0.060498986,1,0.244151622,1,-0.474238098,1,0.101438195,1
5.475948334,-4.587594986,1,-2.179394007,1,-8.433227539,1,0.041711692,1,-0.058950119,1,-0.057765737,1,0.244438887,1,-0.474411488,1,0.101086631,1
5.479946136,-4.597523212,1,-1.981848717,1,-8.622923851,1,0.04953216,1,-0.056625288,1,-0.058673728,1,0.244762287,1,-0.474573761,1,0.100780368,1
5.483945847,-4.634957314,1,-2.100073814,1,-8.56692028,1,0.055056386,1,-0.058459729,1,-0.060086776,1,0.245111287,1,-0.474746913,1,0.100464664,1
5.487947941,-4.64209938,1,-2.199706316,1,-8.543604851,1,0.054052781,1,-0.055898737,1,-0.060426135,1,0.245476112,1,-0.474905223,1,0.100147374,1
5.491945267,-4.591252327,1,-2.359046936,1,-8.500284195,1,0.051432468,1,-0.054791361,1,-0.053730205,1,0.245840073,1,-0.475055456,1,0.099822365,1
5.495945454,-4.518855095,1,-2.550777674,1,-8.453414917,1,0.04366976,1,-0.053479277,1,-0.047073703,1,0.246155515,1,-0.475222737,1,0.099550113,1
5.499947071,-4.450508118,1,-2.638058186,1,-8.509300232,1,0.032447521,1,-0.052718055,1,-0.034556273,1,0.246415809,1,-0.475387752,1,0.099304974,1
5.503944874,-4.372046947,1,-2.727701187,1,-8.395967484,1,0.019245466,1,-0.058985196,1,-0.021410452,1,0.246608987,1,-0.475580394,1,0.099118404,1
5.507944107,-4.389285088,1,-2.532353878,1,-8.439631462,1,0.000178949,1,-0.06777285,1,-0.016310588,1,0.246716037,1,-0.475808352,1,0.098972127,1
5.511945248,-4.348770142,1,-2.830130816,1,-8.369225502,1,-0.008522425,1,-0.074865215,1,-0.001979202,1,0.246745452,1,-0.476083308,1,0.098860241,1
5.51594305,-4.51621151,1,-2.887908697,1,-8.437297821,1,-0.023397548,1,-0.078432173,1,0.011380514,1,0.246711716,1,-0.476391673,1,0.098804429,1
5.51994276,-4.701599121,1,-2.94938302,1,-8.358283997,1,-0.041499525,1,-0.071320005,1,0.020127654,1,0.24658002,1,-0.476708412,1,0.098795004,1
5.523944378,-4.824844837,1,-2.957224846,1,-8.270263672,1,-0.05938134,1,-0.063305467,1,0.031254664,1,0.246348977,1,-0.476997703,1,0.098842606,1
5.527942181,-4.860924244,1,-2.853440046,1,-8.332201004,1,-0.077426359,1,-0.054265097,1,0.037443079,1,0.246029213,1,-0.477260232,1,0.098939896,1
5.531941414,-4.6092453,1,-3.108414412,1,-8.168232918,1,-0.100823335,1,-0.053565059,1,0.040046234,1,0.244446144,1,-0.47972095,1,0.105287127,1
5.535942554,-4.759388924,1,-2.773043394,1,-8.394364357,1,-0.110724531,1,-0.037254099,1,0.060287647,1,0.243975461,1,-0.479887605,1,0.10498742,1
5.539940357,-4.738314152,1,-2.681442261,1,-8.505496025,1,-0.123388864,1,-0.037244193,1,0.07066521,1,0.243396416,1,-0.480093241,1,0.105236068,1
5.543940067,-4.777916908,1,-2.415220022,1,-8.613101006,1,-0.128657699,1,-0.030306511,1,0.074954927,1,0.24274756,1,-0.480291754,1,0.105527848,1
5.547941685,-4.901464939,1,-2.435299873,1,-8.603654861,1,-0.128267735,1,-0.026635995,1,0.068573989,1,0.242089495,1,-0.480466783,1,0.10580346,1
5.551939487,-5.189816475,1,-1.985150814,1,-8.639451981,1,-0.125057444,1,-0.002665186,1,0.069138557,1,0.241441786,1,-0.480592012,1,0.10610424,1
5.555939198,-4.953130245,1,-1.912477136,1,-8.576974869,1,-0.11891444,1,-0.000143814,1,0.070643194,1,0.24081549,1,-0.480657309,1,0.106408916,1
5.55994606,-4.539155006,1,-1.895758986,1,-8.56447506,1,-0.117108986,1,0.004925704,1,0.069644719,1,0.24020882,1,-0.480715364,1,0.106718272,1
5.563950062,-4.312763214,1,-1.903035402,1,-8.640472412,1,-0.107054099,1,-0.00166616,1,0.072626866,1,0.239614263,1,-0.48077631,1,0.10703174,1
5.567949772,-4.207047462,1,-1.921760917,1,-8.634269714,1,-0.10389559,1,-0.011131601,1,0.070882998,1,0.239049569,1,-0.480871111,1,0.107329719,1
5.571951389,-4.322459698,1,-1.705546856,1,-8.697911263,1,-0.110192925,1,-0.029296163,1,0.059039734,1,0.23849456,1,-0.481014371,1,0.107604459,1
5.575949192,-4.359974861,1,-2.005698681,1,-8.514868736,1,-0.098627232,1,-0.036776591,1,0.067231953,1,0.237967461,1,-0.481206238,1,0.107832998,1
5.579948902,-4.484933853,1,-1.763680816,1,-8.573670387,1,-0.090116143,1,-0.039812505,1,0.065177843,1,0.237468198,1,-0.481417537,1,0.108088188,1
5.583950996,-4.584402084,1,-1.704402924,1,-8.553595543,1,-0.083364956,1,-0.039156582,1,0.056868244,1,0.237021908,1,-0.481628597,1,0.10830842,1
5.587948322,-4.571116924,1,-1.664352894,1,-8.547354698,1,-0.074160896,1,-0.041879077,1,0.053156581,1,0.236607715,1,-0.481842995,1,0.108517267,1
5.591948509,-4.517222404,1,-1.714209557,1,-8.547076225,1,-0.066448569,1,-0.050784785,1,0.047951601,1,0.236245289,1,-0.482068449,1,0.108692385,1
5.595950127,-4.399185658,1,-1.759805799,1,-8.52394104,1,-0.062653609,1,-0.056665044,1,0.051559296,1,0.235907182,1,-0.482321352,1,0.108859897,1
5.599947929,-4.422272682,1,-1.813599944,1,-8.525360107,1,-0.056249831,1,-0.060623847,1,0.043946389,1,0.235610947,1,-0.482593864,1,0.109001592,1
5.603947639,-4.717341423,1,-1.687627196,1,-8.61313343,1,-0.0608874,1,-0.069684282,1,0.032752458,1,0.235326305,1,-0.482895672,1,0.109118432,1
5.607949257,-4.73255682,1,-2.160690546,1,-8.32584095,1,-0.055703722,1,-0.065434933,1,0.03568539,1,0.235057786,1,-0.483191311,1,0.109174937,1
5.61194706,-4.681341171,1,-1.995707273,1,-8.339928627,1,-0.051921107,1,-0.061220869,1,0.039744612,1,0.234795645,1,-0.483462632,1,0.109273903,1
5.61594677,-4.560323238,1,-2.151939392,1,-8.317755699,1,-0.056159571,1,-0.053664144,1,0.040604506,1,0.234525383,1,-0.483718097,1,0.109390505,1
5.61994791,-4.412322998,1,-2.151217699,1,-8.291535378,1,-0.061097294,1,-0.053136896,1,0.047000322,1,0.234226212,1,-0.4839755,1,0.109529629,1
5.623945713,-4.256883621,1,-2.193703175,1,-8.265442848,1,-0.068295628,1,-0.058957603,1,0.047130607,1,0.233894914,1,-0.48423323,1,0.109675661,1
5.627944946,-4.335017681,1,-2.243078709,1,-8.274048805,1,-0.076206863,1,-0.055121161,1,0.055069759,1,0.233530402,1,-0.484505683,1,0.10983853,1
5.631946564,-4.614770889,1,-1.900969625,1,-8.500537872,1,-0.097772554,1,-0.067438804,1,0.035074838,1,0.233129054,1,-0.484792352,1,0.109981835,1
5.635944366,-4.806640625,1,-2.311902285,1,-8.258248329,1,-0.094157994,1,-0.052305851,1,0.049924452,1,0.232684538,1,-0.485068947,1,0.110113211,1
5.639944077,-4.781087875,1,-2.177659035,1,-8.218306541,1,-0.096950546,1,-0.047684614,1,0.056024965,1,0.232219994,1,-0.485313416,1,0.110296905,1
5.643946171,-4.727283001,1,-2.129922867,1,-8.208844185,1,-0.103151321,1,-0.037593272,1,0.057740048,1,0.231730551,1,-0.485528708,1,0.110500723,1
5.647943497,-4.577856541,1,-2.126577616,1,-8.294712067,1,-0.100195847,1,-0.033538513,1,0.05937691,1,0.231224269,1,-0.485722512,1,0.110712335,1
5.651943207,-4.673057079,1,-1.70827055,1,-8.521440506,1,-0.121473342,1,-0.035180211,1,0.040193349,1,0.2306979,1,-0.485910177,1,0.110904902,1
5.655944824,-4.589124203,1,-2.266267061,1,-8.243293762,1,-0.108070552,1,-0.036954716,1,0.060432538,1,0.230147377,1,-0.486102909,1,0.111067735,1
5.659942627,-4.664452076,1,-2.008061171,1,-8.366129875,1,-0.109169751,1,-0.0288436,1,0.061330855,1,0.229602456,1,-0.486277163,1,0.111301221,1
5.66394186,-4.656041145,1,-1.917671442,1,-8.374380112,1,-0.110132672,1,-0.029278792,1,0.060126498,1,0.229055345,1,-0.486438453,1,0.111540422,1
5.667943478,-4.554877281,1,-1.824177384,1,-8.418359756,1,-0.109682061,1,-0.027664417,1,0.063244857,1,0.228500664,1,-0.48659572,1,0.1117879,1
5.67194128,-4.469614983,1,-1.672243714,1,-8.484388351,1,-0.109742299,1,-0.026375378,1,0.059394941,1,0.227961466,1,-0.486755967,1,0.112028077,1
5.67594099,-4.451495647,1,-1.340156794,1,-8.619213104,1,-0.117577083,1,-0.038503293,1,0.048033856,1,0.227428377,1,-0.486931503,1,0.112241037,1
5.67994833,-4.370371819,1,-1.860111237,1,-8.464904785,1,-0.094914429,1,-0.035604808,1,0.06643369,1,0.226909906,1,-0.487135619,1,0.112446278,1
5.683951378,-4.372214317,1,-1.898335814,1,-8.542232513,1,-0.085282832,1,-0.046617512,1,0.0633047,1,0.22643654,1,-0.487352937,1,0.112685069,1
5.687951565,-4.389023781,1,-1.958035111,1,-8.512799263,1,-0.08519759,1,-0.052403875,1,0.060512632,1,0.225975633,1,-0.48760125,1,0.112907924,1
5.691953182,-4.544640064,1,-1.960156202,1,-8.479348183,1,-0.086943999,1,-0.05293062,1,0.05684346,1,0.225529313,1,-0.48785466,1,0.113123916,1
5.695950985,-4.630320072,1,-1.947545886,1,-8.499796867,1,-0.085856095,1,-0.058759555,1,0.061150774,1,0.22508356,1,-0.48812443,1,0.113333642,1
5.699950695,-4.64880228,1,-1.861986756,1,-8.518511772,1,-0.085102506,1,-0.055006385,1,0.060893089,1,0.224632919,1,-0.488396972,1,0.113549933,1
5.703952312,-4.625232697,1,-1.829322815,1,-8.492643356,1,-0.086804152,1,-0.053822324,1,0.061583325,1,0.224183485,1,-0.488667667,1,0.113773666,1
5.707950115,-4.723944187,1,-1.835390329,1,-8.594899178,1,-0.095119163,1,-0.061382353,1,0.047037978,1,0.223734453,1,-0.488940477,1,0.113954224,1
5.711949825,-4.777900219,1,-2.011623144,1,-8.502405167,1,-0.08188346,1,-0.050453369,1,0.061958589,1,0.223299161,1,-0.489203542,1,0.114143796,1
5.715950966,-4.757413864,1,-1.985557556,1,-8.493319511,1,-0.080104642,1,-0.049373947,1,0.062416367,1,0.222867906,1,-0.489449739,1,0.114362873,1
5.719948769,-4.669047356,1,-1.970407009,1,-8.486771584,1,-0.077856325,1,-0.052646447,1,0.059605978,1,0.222448215,1,-0.489694297,1,0.114573061,1
5.723948479,-4.600477219,1,-2.004740477,1,-8.507340431,1,-0.078640968,1,-0.051952269,1,0.059785485,1,0.222032428,1,-0.489940256,1,0.114789717,1
5.727950573,-4.522053719,1,-2.030454874,1,-8.457473755,1,-0.084848575,1,-0.055285577,1,0.067722306,1,0.221601918,1,-0.490208179,1,0.115013033,1
5.731947899,-4.471479893,1,-2.108789206,1,-8.45357132,1,-0.087127931,1,-0.061275147,1,0.072194524,1,0.221154556,1,-0.490490437,1,0.115262084,1
5.735947609,-4.421644211,1,-2.090443611,1,-8.449556351,1,-0.08714857,1,-0.063751668,1,0.077276722,1,0.220678359,1,-0.490790635,1,0.11553099,1
5.739949703,-4.415452003,1,-2.121856213,1,-8.478425026,1,-0.094178565,1,-0.069399349,1,0.078717776,1,0.220178053,1,-0.491107911,1,0.115812339,1
5.743947983,-4.381219864,1,-2.006330729,1,-8.486782074,1,-0.096291557,1,-0.079044715,1,0.089129113,1,0.219660223,1,-0.491465479,1,0.11611896,1
5.747947216,-4.434309959,1,-1.971780419,1,-8.482704163,1,-0.095994204,1,-0.088215157,1,0.095361434,1,0.21911788,1,-0.491867065,1,0.116438001,1
5.751948357,-4.540323734,1,-1.900401235,1,-8.592900276,1,-0.095374532,1,-0.088743761,1,0.096579239,1,0.21857968,1,-0.492291987,1,0.116772018,1
5.755946159,-4.625403881,1,-1.844187498,1,-8.58190155,1,-0.092786573,1,-0.09342064,1,0.095512055,1,0.218042463,1,-0.492732167,1,0.117110766,1
5.759945869,-4.695252419,1,-1.819805264,1,-8.516514778,1,-0.090910003,1,-0.095010184,1,0.100141779,1,0.217507392,1,-0.493196458,1,0.117456354,1
5.763947487,-4.712235928,1,-1.811425686,1,-8.498990059,1,-0.090643123,1,-0.100134723,1,0.095093064,1,0.216977134,1,-0.493666589,1,0.11779812,1
5.76794529,-4.611433029,1,-1.767110467,1,-8.485669136,1,-0.086860381,1,-0.098644689,1,0.100994751,1,0.216464102,1,-0.494133174,1,0.118136704,1
5.771944523,-4.597298622,1,-1.718077898,1,-8.521439552,1,-0.08245109,1,-0.107511178,1,0.100169539,1,0.215949103,1,-0.494620442,1,0.118480906,1
5.77594614,-4.578386784,1,-1.764087796,1,-8.54196167,1,-0.084052235,1,-0.111963086,1,0.102792412,1,0.215457663,1,-0.495133847,1,0.118822835,1
5.779943943,-4.629890442,1,-1.744654059,1,-8.57477951,1,-0.079449855,1,-0.111488737,1,0.098909296,1,0.214983121,1,-0.495648712,1,0.119150348,1
5.783943176,-4.687784672,1,-1.737222791,1,-8.489589691,1,-0.074668191,1,-0.115938827,1,0.101042464,1,0.214573845,1,-0.496094555,1,0.118907079,1
5.787944794,-4.701121807,1,-1.758606076,1,-8.483652115,1,-0.070211068,1,-0.116112545,1,0.104760997,1,0.214123949,1,-0.496634185,1,0.11924804,1
5.791942596,-4.710175991,1,-1.725969672,1,-8.470114708,1,-0.068836249,1,-0.116757438,1,0.101989605,1,0.213677049,1,-0.49718079,1,0.119593516,1
5.795942307,-4.656517029,1,-1.711392164,1,-8.478746414,1,-0.067552671,1,-0.115114152,1,0.110788107,1,0.213234738,1,-0.49772352,1,0.119941674,1
5.799950123,-4.648058414,1,-1.692809463,1,-8.454776764,1,-0.063080013,1,-0.118037239,1,0.105504602,1,0.212801397,1,-0.498278111,1,0.120300181,1
5.803953648,-4.625003338,1,-1.72279191,1,-8.434287071,1,-0.060957607,1,-0.118403301,1,0.107173018,1,0.212379277,1,-0.498830944,1,0.12066415,1
5.807953358,-4.639467716,1,-1.654033065,1,-8.498931885,1,-0.062880673,1,-0.124201164,1,0.106879681,1,0.211959183,1,-0.499393821,1,0.121028081,1
5.811954498,-4.783943653,1,-1.613562703,1,-8.591111183,1,-0.058170527,1,-0.126495048,1,0.097454026,1,0.21156618,1,-0.499969542,1,0.121355802,1
5.815952301,-4.948195934,1,-1.609165311,1,-8.517481804,1,-0.052802019,1,-0.12936525,1,0.086408429,1,0.211198509,1,-0.500538766,1,0.121650688,1
5.819952011,-4.843976498,1,-1.647632718,1,-8.37492466,1,-0.046975814,1,-0.128184572,1,0.08393269,1,0.210875407,1,-0.501109481,1,0.121906944,1
5.823954105,-4.736171722,1,-1.773783684,1,-8.400681496,1,-0.050618492,1,-0.126853481,1,0.086723253,1,0.210558996,1,-0.501671553,1,0.122164212,1
5.827951431,-4.670937538,1,-1.865200043,1,-8.429058075,1,-0.055200193,1,-0.122825012,1,0.085161716,1,0.210225463,1,-0.502233505,1,0.122426137,1
5.831951141,-4.734332561,1,-1.919874191,1,-8.459225655,1,-0.055010062,1,-0.128933191,1,0.092125177,1,0.209885687,1,-0.502797425,1,0.122686587,1
