Time,inertial-6253.76535:estCompensatedAccelX,inertial-6253.76535:estCompensatedAccelX:valid,inertial-6253.76535:estCompensatedAccelY,inertial-6253.76535:estCompensatedAccelY:valid,inertial-6253.76535:estCompensatedAccelZ,inertial-6253.76535:estCompensatedAccelZ:valid,inertial-6253.76535:estAngularRateX,inertial-6253.76535:estAngularRateX:valid,inertial-6253.76535:estAngularRateY,inertial-6253.76535:estAngularRateY:valid,inertial-6253.76535:estAngularRateZ,inertial-6253.76535:estAngularRateZ:valid,inertial-6253.76535:estRoll,inertial-6253.76535:estRoll:valid,inertial-6253.76535:estPitch,inertial-6253.76535:estPitch:valid,inertial-6253.76535:estYaw,inertial-6253.76535:estYaw:valid,inertial-6253.76535:estLinearAccelX,inertial-6253.76535:estLinearAccelX:valid,inertial-6253.76535:estLinearAccelY,inertial-6253.76535:estLinearAccelY:valid,inertial-6253.76535:estLinearAccelZ,inertial-6253.76535:estLinearAccelZ:valid
0,-4.990292072,1,-0.819489658,1,-8.417926788,1,-0.011210838,1,0.019376729,1,0.011971673,1,0.091617249,1,-0.530212879,1,-0.642828166,1,-0.044296265,1,-0.047564209,1,-0.015967369,1
0.004001536,-4.985670567,1,-0.819254518,1,-8.390298843,1,-0.007812331,1,0.021529114,1,0.00986997,1,0.091550402,1,-0.530135274,1,-0.642768979,1,-0.040329933,1,-0.047855616,1,0.012094498,1
0.007999232,-4.978499889,1,-0.83381772,1,-8.385850906,1,-0.008376892,1,0.023578562,1,0.007375908,1,0.091482654,1,-0.530049324,1,-0.642710745,1,-0.033884525,1,-0.0629493,1,0.017018318,1
0.011998464,-5.014482498,1,-0.824078619,1,-8.360144615,1,-0.005846548,1,0.020730603,1,0.008739491,1,0.09142632,1,-0.529962718,1,-0.642656803,1,-0.070597172,1,-0.053644359,1,0.043195724,1
0.016000256,-4.986008644,1,-0.813138783,1,-8.390873909,1,-0.007678754,1,0.027163509,1,0.005608259,1,0.091376953,1,-0.52987206,1,-0.642618239,1,-0.042889118,1,-0.043078542,1,0.012949944,1
0.019997953,-4.987157345,1,-0.825269163,1,-8.410271645,1,-0.003775512,1,0.024792604,1,0.010175316,1,0.091326319,1,-0.529782832,1,-0.642565787,1,-0.044790745,1,-0.055594206,1,-0.005970001,1
0.023997184,-4.975021362,1,-0.798690319,1,-8.384203911,1,-0.006740875,1,0.025771875,1,0.007264847,1,0.091291144,1,-0.529689968,1,-0.642523825,1,-0.033438683,1,-0.02926898,1,0.020583153,1
0.027998719,-4.940446854,1,-0.835128069,1,-8.417921066,1,-0.003520151,1,0.023212584,1,0.003464471,1,0.091252692,1,-0.529587567,1,-0.642485499,1,0.000271797,1,-0.065983891,1,-0.012600899,1
0.031996418,-4.907158852,1,-0.797335148,1,-8.436365128,1,-0.00220108,1,0.024716184,1,0.006097858,1,0.091219649,1,-0.529490471,1,-0.642451763,1,0.032740116,1,-0.028425157,1,-0.030542374,1
0.035995647,-4.919138908,1,-0.816107333,1,-8.416110992,1,-0.002727725,1,0.019664088,1,0.008122103,1,0.09119001,1,-0.529401839,1,-0.642413139,1,0.020011425,1,-0.047406554,1,-0.009829521,1
0.03999744,-4.963459969,1,-0.826940477,1,-8.436506271,1,0.001224026,1,0.020229252,1,0.001685059,1,0.091171958,1,-0.529322147,1,-0.642385006,1,-0.024981499,1,-0.058355749,1,-0.029820442,1
0.043995135,-4.959599972,1,-0.834512711,1,-8.413354874,1,-0.001066405,1,0.01805648,1,-0.000291722,1,0.091162175,1,-0.529240489,1,-0.642368436,1,-0.021811485,1,-0.065973401,1,-0.006258965,1
0.047994625,-4.966795921,1,-0.833617091,1,-8.435383797,1,-0.003478425,1,0.021184072,1,0.004359681,1,0.091150708,1,-0.529171467,1,-0.642352462,1,-0.02959013,1,-0.065143168,1,-0.027939796,1
0.05199616,-4.955635071,1,-0.879091203,1,-8.440303802,1,0.005499436,1,0.01802068,1,-0.001266556,1,0.09114974,1,-0.529107571,1,-0.64234668,1,-0.018968582,1,-0.110597074,1,-0.032548904,1
0.055993855,-4.935993195,1,-0.892567754,1,-8.471487999,1,-0.001354858,1,0.014580716,1,0.003342855,1,0.09114822,1,-0.529046774,1,-0.642329812,1,0.00015974,1,-0.124058902,1,-0.063430786,1
0.059993345,-4.952439308,1,-0.847039998,1,-8.434048653,1,-0.003598956,1,0.013020101,1,-0.000315538,1,0.091142446,1,-0.528995812,1,-0.642322063,1,-0.016716003,1,-0.078556776,1,-0.025736809,1
0.063994877,-4.952113628,1,-0.851703286,1,-8.458815575,1,-0.002982242,1,0.012195112,1,0.0022098,1,0.091119744,1,-0.528943539,1,-0.642305255,1,-0.016832352,1,-0.083387494,1,-0.050229073,1
0.067992575,-4.964215755,1,-0.889827371,1,-8.4249897,1,-0.002468043,1,0.010206359,1,0.001642758,1,0.091105781,1,-0.528901637,1,-0.642287016,1,-0.029287338,1,-0.121610045,1,-0.016184807,1
0.071992062,-4.970239639,1,-0.860980272,1,-8.422700882,1,-0.001378687,1,0.010930319,1,0.003448541,1,0.091088943,1,-0.528853774,1,-0.642271578,1,-0.035716057,1,-0.09288311,1,-0.013648033,1
0.075993598,-5.019994259,1,-0.869772196,1,-8.426460266,1,-0.001428797,1,0.012409149,1,0.005367542,1,0.091068462,1,-0.528814673,1,-0.642252207,1,-0.085800648,1,-0.101829708,1,-0.01720047,1
0.079991296,-4.9627738,1,-0.847556651,1,-8.399188042,1,-0.003789276,1,0.012258066,1,0.003738152,1,0.091042444,1,-0.528773785,1,-0.642222226,1,-0.028925419,1,-0.079814613,1,0.010293007,1
0.083990529,-4.965367794,1,-0.875273228,1,-8.392130852,1,-0.005318279,1,0.008397697,1,0.004081234,1,0.091018341,1,-0.528734684,1,-0.642202854,1,-0.031849861,1,-0.107716382,1,0.017560005,1
0.087997951,-4.988881111,1,-0.838599324,1,-8.417007446,1,-0.001594461,1,0.014578685,1,0.006580387,1,0.090985641,1,-0.528696716,1,-0.642176211,1,-0.055683613,1,-0.071300507,1,-0.007104874,1
0.092001788,-4.993049622,1,-0.864417434,1,-8.40674305,1,-0.003485183,1,0.009533636,1,0.002743239,1,0.090959281,1,-0.528659463,1,-0.642142057,1,-0.060166359,1,-0.097323775,1,0.003360748,1
0.096001536,-4.985944271,1,-0.882746577,1,-8.412779808,1,-0.00511512,1,0.008811145,1,0.002509997,1,0.090935208,1,-0.528628826,1,-0.642121792,1,-0.053319931,1,-0.115841329,1,-0.002503395,1
0.100003324,-4.969224453,1,-0.873671293,1,-8.405050278,1,-0.004648717,1,0.008392747,1,0.007300202,1,0.090904862,1,-0.528589785,1,-0.642093837,1,-0.036930084,1,-0.107003748,1,0.005440712,1
0.104001023,-4.973807335,1,-0.860935926,1,-8.429390907,1,-0.004279237,1,0.010645203,1,0.007650874,1,0.090873256,1,-0.528555095,1,-0.642072082,1,-0.041806221,1,-0.0945189,1,-0.018707275,1
0.108000256,-4.956810951,1,-0.851518691,1,-8.413410187,1,-0.003886391,1,0.010738038,1,0.004591354,1,0.090844296,1,-0.528527319,1,-0.642043769,1,-0.025043964,1,-0.08533287,1,-0.002568245,1
0.112001792,-4.939121246,1,-0.832914531,1,-8.401595116,1,-0.003728771,1,0.010248862,1,0.005143149,1,0.090819575,1,-0.528491795,1,-0.642022371,1,-0.007654667,1,-0.066920698,1,0.009440422,1
0.11599949,-4.957646847,1,-0.797409117,1,-8.425200462,1,-0.001651198,1,0.010017061,1,0.002664519,1,0.090800717,1,-0.52846241,1,-0.642004013,1,-0.026427746,1,-0.031560481,1,-0.014003754,1
0.119998723,-4.968023777,1,-0.802445114,1,-8.403040886,1,-0.001273913,1,0.006196752,1,0.002837488,1,0.09078721,1,-0.528438687,1,-0.641995013,1,-0.037005424,1,-0.036699533,1,0.008282661,1
0.124000259,-4.952176094,1,-0.792198241,1,-8.441390991,1,0.003022685,1,0.007952659,1,-0.004432968,1,0.09077315,1,-0.528414607,1,-0.641983032,1,-0.021361351,1,-0.026560128,1,-0.029938698,1
0.12799795,-4.954418659,1,-0.803981245,1,-8.411307335,1,0.001952663,1,0.00727026,1,-0.001867971,1,0.09078148,1,-0.528386712,1,-0.641986907,1,-0.023838997,1,-0.038260579,1,0.000276566,1
0.131997436,-4.94689846,1,-0.82058543,1,-8.418735504,1,0.003394971,1,0.004757366,1,-0.000750259,1,0.090798356,1,-0.528361082,1,-0.641995132,1,-0.016535759,1,-0.054711401,1,-0.00703907,1
0.135998979,-4.957697392,1,-0.806957543,1,-8.426056862,1,0.007244526,1,0.005755783,1,-0.005653162,1,0.090819277,1,-0.528340042,1,-0.642006516,1,-0.02751255,1,-0.040898025,1,-0.014273643,1
0.139996678,-4.973761082,1,-0.819182098,1,-8.41407299,1,0.004464569,1,0.002624901,1,-0.005176139,1,0.090853378,1,-0.528317869,1,-0.642026424,1,-0.043763638,1,-0.052825987,1,-0.002206802,1
0.143996164,-4.958108902,1,-0.813187003,1,-8.440581322,1,0.006077013,1,0.003757433,1,-0.006715148,1,0.090891659,1,-0.528299689,1,-0.642062426,1,-0.028264523,1,-0.046500981,1,-0.028659821,1
0.147997692,-4.980587482,1,-0.869565308,1,-8.417460442,1,0.008676188,1,0.009381756,1,-0.007995547,1,0.090930618,1,-0.528273404,1,-0.64208138,1,-0.050965309,1,-0.102539659,1,-0.005436897,1
0.151995137,-4.967178822,1,-0.884757936,1,-8.404480934,1,0.00575366,1,0.004029001,1,-0.004806527,1,0.090974666,1,-0.528244376,1,-0.642109692,1,-0.037802219,1,-0.117348671,1,0.007653236,1
0.155994624,-4.967345238,1,-0.858322442,1,-8.38120079,1,0.005894606,1,0.005616694,1,-0.005747992,1,0.09101171,1,-0.528224945,1,-0.642136395,1,-0.038132668,1,-0.090592682,1,0.031000137,1
0.159996167,-5.03862524,1,-0.861366808,1,-8.414401054,1,0.010523982,1,0.006568255,1,-0.007366317,1,0.091054797,1,-0.52820152,1,-0.642163515,1,-0.109610558,1,-0.093264043,1,-0.002118111,1
0.163994119,-4.98452282,1,-0.906363368,1,-8.428378105,1,0.002289467,1,0.007146739,1,-0.00619446,1,0.091242597,1,-0.52822113,1,-0.64202255,1,-0.055342674,1,-0.136689723,1,-0.016335487,1
0.167999744,-4.986148834,1,-0.897235155,1,-8.418494225,1,0.007252371,1,0.006616143,1,-0.00067902,1,0.091271862,1,-0.528196692,1,-0.642039061,1,-0.057174683,1,-0.127304614,1,-0.006358147,1
0.172001541,-4.986327171,1,-0.929252625,1,-8.393320084,1,0.008389613,1,0.003765796,1,-0.003846386,1,0.091296069,1,-0.528173745,1,-0.642045438,1,-0.057546616,1,-0.159108043,1,0.018911362,1
0.175999492,-4.950149059,1,-0.885434389,1,-8.435834885,1,0.002213883,1,0.005894903,1,-0.001722768,1,0.091309227,1,-0.528154492,1,-0.642054319,1,-0.021531105,1,-0.115170538,1,-0.02352047,1
0.179998726,-4.969120026,1,-0.900956511,1,-8.370391846,1,-0.002069345,1,0.00507793,1,0.001028752,1,0.091311879,1,-0.528132498,1,-0.642053783,1,-0.040687561,1,-0.130660415,1,0.042030334,1
0.184000254,-4.949793339,1,-0.893830359,1,-8.437483788,1,-0.002083683,1,0.009479182,1,-0.005949814,1,0.091301307,1,-0.52810818,1,-0.642051339,1,-0.021567345,1,-0.123612165,1,-0.024933815,1
0.187997952,-4.951285362,1,-0.881671011,1,-8.422147751,1,-0.00285715,1,0.001241068,1,0.003592393,1,0.091291055,1,-0.528087914,1,-0.642050803,1,-0.023230076,1,-0.111530125,1,-0.00949192,1
0.191997439,-4.942848682,1,-0.860368967,1,-8.449879646,1,-0.001396362,1,0.002103825,1,0.00211793,1,0.091279313,1,-0.528079093,1,-0.642033756,1,-0.014867783,1,-0.090322852,1,-0.037171364,1
0.195998982,-4.966268063,1,-0.835477829,1,-8.405808449,1,-0.002855795,1,0.006425571,1,-0.003978334,1,0.091276228,1,-0.528059483,1,-0.642036915,1,-0.038453102,1,-0.065448701,1,0.006999016,1
0.199996665,-4.947506428,1,-0.840228796,1,-8.425290108,1,0.000801891,1,0.003032788,1,0.003308387,1,0.091256142,1,-0.528045893,1,-0.642019093,1,-0.019806862,1,-0.070362628,1,-0.012399673,1
0.203995898,-4.997952938,1,-0.852930367,1,-8.450001717,1,-0.000393613,1,0.004563499,1,-0.000211703,1,0.091246791,1,-0.528031468,1,-0.642003894,1,-0.070374489,1,-0.08313638,1,-0.037034035,1
0.207997441,-4.971149921,1,-0.82989198,1,-8.412686348,1,0.002754485,1,0.001072621,1,-0.00086916,1,0.091259435,1,-0.528015494,1,-0.642015934,1,-0.04370594,1,-0.059984565,1,0.000349998,1
0.21199514,-4.999072075,1,-0.829663157,1,-8.402007103,1,0.00681207,1,0.002488519,1,-0.000311603,1,0.091267884,1,-0.528006554,1,-0.642012119,1,-0.071703911,1,-0.059680521,1,0.01106739,1
0.215994373,-4.948851585,1,-0.85743469,1,-8.379329681,1,0.001955421,1,0.002450766,1,0.000357939,1,0.09128844,1,-0.527993381,1,-0.642022252,1,-0.021595001,1,-0.08727318,1,0.033793449,1
0.219995901,-4.946416378,1,-0.892347455,1,-8.389945984,1,0.003542597,1,0.003130302,1,-0.003624745,1,0.091297984,1,-0.52797538,1,-0.64202553,1,-0.019311905,1,-0.122097433,1,0.023260117,1
0.223993599,-4.954547405,1,-0.876193643,1,-8.407278061,1,0.003288842,1,0.006245183,1,-0.004555893,1,0.091322713,1,-0.527956784,1,-0.642035961,1,-0.027600288,1,-0.105727255,1,0.006000519,1
0.227993086,-4.946977615,1,-0.834019005,1,-8.405531883,1,0.002308659,1,0.002323205,1,-0.003235282,1,0.091341458,1,-0.527937949,1,-0.642047405,1,-0.020189285,1,-0.063386559,1,0.00782299,1
0.231994629,-4.968527794,1,-0.85743916,1,-8.405960083,1,0.006276559,1,0.001348155,1,-0.001231361,1,0.091357462,1,-0.52792263,1,-0.642053604,1,-0.041868687,1,-0.086665213,1,0.007457733,1
0.235992327,-4.938202381,1,-0.858154535,1,-8.396285057,1,0.005456659,1,0.006534232,1,-0.004369126,1,0.091389753,1,-0.527904093,1,-0.642060161,1,-0.011700153,1,-0.087100506,1,0.017198563,1
0.239991814,-4.968722343,1,-0.849177122,1,-8.415575027,1,0.006710572,1,0.006618158,1,-0.002943908,1,0.09141776,1,-0.527884007,1,-0.642071366,1,-0.04238987,1,-0.077878475,1,-0.002015114,1
0.243993089,-5.004848957,1,-0.857019305,1,-8.387552261,1,0.005171838,1,0.006284243,1,-0.004549306,1,0.091456585,1,-0.527864993,1,-0.642090559,1,-0.078677177,1,-0.085385561,1,0.026069641,1
0.247996673,-4.952043056,1,-0.866796196,1,-8.416445732,1,0.00508544,1,0.006510339,1,-0.005435036,1,0.091496475,1,-0.527839065,1,-0.642116785,1,-0.026089668,1,-0.094815016,1,-0.002726555,1
0.251996428,-4.977244854,1,-0.903861582,1,-8.396877289,1,0.005660391,1,0.00591102,1,0.000175273,1,0.091517687,1,-0.527808309,1,-0.64212656,1,-0.051551819,1,-0.131688237,1,0.016975403,1
0.255997956,-5.003170967,1,-0.882391095,1,-8.394709587,1,0.005310412,1,0.007688593,1,-0.004471927,1,0.091549821,1,-0.527779996,1,-0.642143488,1,-0.077717304,1,-0.109934628,1,0.019258499,1
0.259995908,-4.990345001,1,-0.843967676,1,-8.411622047,1,0.003522148,1,0.006755874,1,0.000262131,1,0.091570616,1,-0.527749896,1,-0.642147183,1,-0.065145493,1,-0.07132268,1,0.002477646,1
0.263995141,-5.010803223,1,-0.867916822,1,-8.42109108,1,0.004066674,1,0.007839857,1,-0.004342208,1,0.091594957,1,-0.527716815,1,-0.642154157,1,-0.085883141,1,-0.095052004,1,-0.006847382,1
0.267996669,-4.998594284,1,-0.859428465,1,-8.407999039,1,0.003317798,1,0.005847204,1,-0.00489202,1,0.091614425,1,-0.527693629,1,-0.642161548,1,-0.073869705,1,-0.086389303,1,0.006343842,1
0.271994382,-4.988463879,1,-0.873466849,1,-8.394454002,1,0.004099562,1,0.005305858,1,-0.000788986,1,0.091638915,1,-0.527665257,1,-0.642171443,1,-0.063979626,1,-0.100208938,1,0.020007133,1
0.275993586,-4.990054131,1,-0.873162329,1,-8.417814255,1,0.001971633,1,0.008549888,1,-0.003789765,1,0.091652319,1,-0.527634561,1,-0.642166197,1,-0.0658288,1,-0.099777937,1,-0.003212929,1
0.279995143,-4.981015682,1,-0.896895826,1,-8.413388252,1,0.003412068,1,0.00679935,1,1.82E-05,1,0.091669738,1,-0.52759546,1,-0.642172694,1,-0.0571208,1,-0.123347163,1,0.001392365,1
0.283992827,-4.987478256,1,-0.918821633,1,-8.416214943,1,-0.001108216,1,0.006097514,1,0.001327273,1,0.091678463,1,-0.527561605,1,-0.642174125,1,-0.063869476,1,-0.1451841,1,-0.001273155,1
0.287992328,-4.957942009,1,-0.888100743,1,-8.391091347,1,0.003087794,1,0.006507853,1,-0.000783819,1,0.091689438,1,-0.527536273,1,-0.642172933,1,-0.034547329,1,-0.114359498,1,0.023964882,1
0.291994125,-4.956343651,1,-0.901046455,1,-8.40079689,1,0.002367181,1,0.00663871,1,0.001033413,1,0.091697417,1,-0.527505815,1,-0.642172873,1,-0.033206463,1,-0.127224207,1,0.014404297,1
0.295991808,-4.999718666,1,-0.8696419,1,-8.428389549,1,0.001769165,1,0.00313597,1,0.000429374,1,0.09170264,1,-0.527482927,1,-0.642171025,1,-0.076775074,1,-0.095765352,1,-0.013080597,1
0.299991041,-4.959009647,1,-0.872690439,1,-8.458018303,1,-0.000352602,1,0.00863773,1,-0.000492044,1,0.091704398,1,-0.527457595,1,-0.642168105,1,-0.036280155,1,-0.098787785,1,-0.04258728,1
0.303992569,-4.950746059,1,-0.860910475,1,-8.410357475,1,0.000731784,1,0.006609983,1,0.000140196,1,0.091710016,1,-0.527423143,1,-0.642171264,1,-0.028307915,1,-0.086944818,1,0.005239487,1
0.307990283,-4.996992588,1,-0.839912176,1,-8.416923523,1,0.000505196,1,0.006758284,1,-0.003276307,1,0.091709092,1,-0.527395904,1,-0.642162263,1,-0.074784756,1,-0.065942466,1,-0.001195908,1
0.311989516,-4.971818924,1,-0.884936392,1,-8.403741837,1,0.001509064,1,0.007867019,1,-0.00282046,1,0.091728643,1,-0.527368426,1,-0.642167568,1,-0.049843311,1,-0.110789597,1,0.012106895,1
0.315991044,-4.957074165,1,-0.865390122,1,-8.428377151,1,0.003400972,1,0.008656189,1,0.002095054,1,0.09174154,1,-0.527336836,1,-0.64217329,1,-0.035364628,1,-0.091120481,1,-0.012383461,1
0.319988489,-4.945384502,1,-0.850334287,1,-8.389303207,1,0.005528289,1,0.008792277,1,-0.00220009,1,0.091758735,1,-0.527305484,1,-0.642170012,1,-0.023940563,1,-0.0759058,1,0.026830673,1
0.3239941,-4.972997189,1,-0.839200079,1,-8.42261982,1,0.005900994,1,0.006679374,1,-0.000949684,1,0.091781951,1,-0.527268827,1,-0.642176449,1,-0.051862717,1,-0.064560056,1,-0.006328583,1
0.327995896,-4.963197708,1,-0.856335402,1,-8.400446892,1,0.003943502,1,0.008342294,1,-0.003207493,1,0.091799125,1,-0.527243018,1,-0.642186046,1,-0.042281628,1,-0.081539035,1,0.015958786,1
0.33199361,-4.984810829,1,-0.883329868,1,-8.411559105,1,0.001701126,1,0.008065943,1,-0.001908864,1,0.091821685,1,-0.527211308,1,-0.642199993,1,-0.064162254,1,-0.108329296,1,0.004985809,1
0.335993081,-4.985392094,1,-0.89501971,1,-8.403179169,1,0.003362589,1,0.006117437,1,-0.00153966,1,0.091832094,1,-0.527175784,1,-0.642196715,1,-0.065043926,1,-0.119915426,1,0.013531685,1
0.339994609,-4.963523388,1,-0.886870801,1,-8.40484333,1,0.002037622,1,0.00742525,1,-0.005306765,1,0.09184663,1,-0.527145028,1,-0.642206311,1,-0.043435574,1,-0.11163038,1,0.012005806,1
0.343992054,-4.967612267,1,-0.881721616,1,-8.440281868,1,0.002077657,1,0.00865831,1,0.000869892,1,0.091862723,1,-0.527109146,1,-0.642214298,1,-0.047827721,1,-0.106329501,1,-0.0232687,1
0.347991288,-4.975222111,1,-0.856252015,1,-8.409264565,1,0.006369644,1,0.00921577,1,-0.006963683,1,0.091885582,1,-0.527074754,1,-0.642235398,1,-0.055728436,1,-0.080651999,1,0.007899284,1
0.351992846,-4.959222317,1,-0.828671098,1,-8.39662075,1,0.00515103,1,0.007478527,1,-0.003276023,1,0.091909803,1,-0.527045727,1,-0.642241955,1,-0.039974213,1,-0.052854002,1,0.020667076,1
0.355990529,-4.986574173,1,-0.879203796,1,-8.394257545,1,0.002755586,1,0.008325523,1,-0.000726949,1,0.091929473,1,-0.527011395,1,-0.642249942,1,-0.067615509,1,-0.1032058,1,0.023182869,1
0.359989762,-4.943965912,1,-0.860288203,1,-8.425751686,1,-0.000924573,1,0.007325008,1,-0.002433917,1,0.091946788,1,-0.526974857,1,-0.642254949,1,-0.025317192,1,-0.084127843,1,-0.008145332,1
0.36399129,-4.970384121,1,-0.941266119,1,-8.40764904,1,0.003366578,1,0.008645704,1,-0.003805847,1,0.091965944,1,-0.526941299,1,-0.642268062,1,-0.052018642,1,-0.164929271,1,0.01010704,1
0.367989004,-4.970272064,1,-0.867283583,1,-8.382500648,1,0.00575479,1,0.008825379,1,-0.00321974,1,0.091983967,1,-0.526908875,1,-0.642278612,1,-0.05218029,1,-0.090780258,1,0.035402298,1
0.371988237,-4.963690758,1,-0.850077569,1,-8.390359879,1,-0.000940792,1,0.006542001,1,-0.001840714,1,0.091997147,1,-0.52687341,1,-0.642271042,1,-0.045899391,1,-0.073447287,1,0.027706146,1
0.375990272,-4.968771458,1,-0.825241625,1,-8.428523064,1,0.004025261,1,0.011737476,1,-0.001296814,1,0.092011251,1,-0.526834369,1,-0.642278075,1,-0.051310062,1,-0.048474848,1,-0.010276794,1
0.379988492,-4.934056759,1,-0.879995108,1,-8.385483742,1,0.003742574,1,0.008155555,1,0.001427043,1,0.092023507,1,-0.526797295,1,-0.64227736,1,-0.016908169,1,-0.103108764,1,0.032931328,1
0.383987725,-4.943640709,1,-0.896651983,1,-8.410654068,1,0.005853654,1,0.009377919,1,-0.002283528,1,0.092037633,1,-0.52675724,1,-0.642284036,1,-0.026831627,1,-0.119628489,1,0.007947922,1
0.387989491,-4.95980978,1,-0.886740565,1,-8.435171127,1,0.001394451,1,0.00867046,1,0.000113538,1,0.092043906,1,-0.526723266,1,-0.642278671,1,-0.043287277,1,-0.109648883,1,-0.016407013,1
0.391987205,-4.971321106,1,-0.902118504,1,-8.405639648,1,0.002933558,1,0.010604697,1,0.00212952,1,0.092047714,1,-0.526689112,1,-0.642272115,1,-0.055087566,1,-0.124979317,1,0.013288498,1
0.395986438,-4.913496017,1,-0.894887447,1,-8.441008568,1,-9.25E-05,1,0.009537349,1,0.002665528,1,0.092044331,1,-0.526647985,1,-0.642262638,1,0.002389908,1,-0.117758214,1,-0.021877289,1
0.399987966,-4.915983677,1,-0.892079055,1,-8.427747726,1,7.15E-05,1,0.006802346,1,0.002890415,1,0.092030942,1,-0.52661413,1,-0.64224726,1,-0.000384331,1,-0.115047097,1,-0.008439064,1
0.40399155,-4.870107174,1,-0.845923126,1,-8.446173668,1,-0.001783167,1,0.009045905,1,0.000792196,1,0.092022114,1,-0.526591122,1,-0.642231941,1,0.0452981,1,-0.068955183,1,-0.026744843,1
0.407991052,-4.916906357,1,-0.914614618,1,-8.467517853,1,-0.002013753,1,0.007252058,1,0.002330832,1,0.092002176,1,-0.526566684,1,-0.642218947,1,-0.001708031,1,-0.137803316,1,-0.047953606,1
0.41199258,-4.913567543,1,-0.909587979,1,-8.482935905,1,0.001977758,1,0.001501932,1,0.002768018,1,0.092171378,1,-0.526609004,1,-0.642305374,1,0.001988411,1,-0.1313712,1,-0.063708305,1
0.415990025,-4.96247673,1,-0.869376063,1,-8.430081367,1,-0.003098943,1,-0.00029555,1,0.002846776,1,0.092155449,1,-0.526595771,1,-0.642046392,1,-0.047032356,1,-0.091287673,1,-0.010780334,1
0.419989496,-4.970779896,1,-0.890889943,1,-8.438565254,1,-0.004063282,1,0.001791361,1,0.000329966,1,0.092140257,1,-0.526601195,1,-0.642035127,1,-0.055289268,1,-0.112931848,1,-0.019278526,1
0.423991054,-4.943568707,1,-0.862065494,1,-8.454325676,1,-0.000830614,1,0.002799644,1,0.006782763,1,0.092122711,1,-0.526588798,1,-0.642023325,1,-0.028182983,1,-0.084249616,1,-0.034965515,1
0.427988738,-4.959433556,1,-0.865015209,1,-8.424788475,1,-0.002245521,1,-0.000940988,1,0.002180074,1,0.092112303,1,-0.526588619,1,-0.642012298,1,-0.04404974,1,-0.08728689,1,-0.005418777,1
0.431988209,-4.978676319,1,-0.868497252,1,-8.402338982,1,-0.004025424,1,0.001626595,1,0.001926263,1,0.092090599,1,-0.526592672,1,-0.642007411,1,-0.063258171,1,-0.090953469,1,0.017027855,1
0.435989767,-4.982767582,1,-0.820849895,1,-8.418834686,1,0.001554963,1,-0.00174949,1,-0.002093593,1,0.092084512,1,-0.526594698,1,-0.642002583,1,-0.067332268,1,-0.043358207,1,0.000527382,1
0.439987212,-4.982346535,1,-0.859847069,1,-8.411598206,1,-0.004905811,1,0.001165031,1,0.001786568,1,0.092075005,1,-0.526598036,1,-0.641996861,1,-0.066883564,1,-0.082437098,1,0.007753372,1
0.443986684,-4.982894897,1,-0.85640192,1,-8.412190437,1,0.000707335,1,-0.00118914,1,0.001856162,1,0.092073224,1,-0.526595116,1,-0.641997099,1,-0.067455769,1,-0.07900548,1,0.007177353,1
0.447988212,-4.946398258,1,-0.849646151,1,-8.412650108,1,0.001152735,1,0.000962251,1,0.000808669,1,0.092075907,1,-0.526592135,1,-0.641999722,1,-0.030983925,1,-0.072225928,1,0.00673008,1
0.451986164,-4.957221985,1,-0.847525418,1,-8.409973145,1,0.002282627,1,0.001977457,1,-0.001420361,1,0.092077062,1,-0.5265854,1,-0.642003059,1,-0.041864872,1,-0.070092499,1,0.009438515,1
0.455985665,-4.96372509,1,-0.889857113,1,-8.419146538,1,0.001860929,1,-0.003595199,1,-0.001285522,1,0.092090391,1,-0.526585758,1,-0.642010212,1,-0.048365116,1,-0.112312019,1,0.00025177,1
0.459987193,-4.987716198,1,-0.889041841,1,-8.413239479,1,0.002499199,1,0.004747454,1,-0.002397061,1,0.09210737,1,-0.526572227,1,-0.642023802,1,-0.072470665,1,-0.111347735,1,0.006213188,1
0.463984907,-4.975702763,1,-0.897451699,1,-8.420763969,1,-0.000953704,1,0.002628915,1,0.001301543,1,0.092110299,1,-0.526566923,1,-0.642022252,1,-0.060502529,1,-0.119730592,1,-0.00128746,1
0.467984378,-4.979667664,1,-0.902364552,1,-8.388653755,1,0.002013622,1,0.000638537,1,0.002095832,1,0.092105642,1,-0.526561022,1,-0.642014205,1,-0.064517021,1,-0.124679863,1,0.030855179,1
0.471986175,-4.943836689,1,-0.887438178,1,-8.419662476,1,-0.000258227,1,0.004881246,1,0.002917981,1,0.092103936,1,-0.526555121,1,-0.642008424,1,-0.028735638,1,-0.109765232,1,-0.000123024,1
0.475983858,-4.948649406,1,-0.920327425,1,-8.407636642,1,-0.003677918,1,0.004621687,1,0.004744926,1,0.092088491,1,-0.52655375,1,-0.641995072,1,-0.033560753,1,-0.142783761,1,0.011922836,1
0.479983091,-4.943665981,1,-0.915526748,1,-8.417196274,1,-0.003712069,1,-7.60E-05,1,0.005043071,1,0.092071444,1,-0.52654618,1,-0.641979158,1,-0.028640747,1,-0.138123274,1,0.00241375,1
0.483991027,-4.921709538,1,-0.89381963,1,-8.418985367,1,-0.001531691,1,-0.000403651,1,0.000234613,1,0.092054792,1,-0.526546061,1,-0.641959906,1,-0.006685257,1,-0.116556168,1,0.000638008,1
0.487994879,-4.937956333,1,-0.873324871,1,-8.419906616,1,-0.004409789,1,0.002736185,1,0.004883373,1,0.092032172,1,-0.526546359,1,-0.641940773,1,-0.022929668,1,-0.096252084,1,-0.000267029,1
0.491994888,-4.950105667,1,-0.855427742,1,-8.439090729,1,-0.006668219,1,-0.000574273,1,0.0036752,1,0.092008322,1,-0.526546896,1,-0.641922116,1,-0.035074711,1,-0.078555822,1,-0.019434929,1
0.495996684,-4.925251007,1,-0.82324487,1,-8.436758041,1,-0.004894631,1,0.000701296,1,0.004822468,1,0.091985181,1,-0.52654475,1,-0.641907632,1,-0.010237217,1,-0.046566904,1,-0.017073631,1
0.499994367,-4.974421501,1,-0.868569195,1,-8.430245399,1,-0.002306434,1,-0.002379273,1,0.004298592,1,0.091966555,1,-0.526551604,1,-0.64189291,1,-0.059350014,1,-0.092051029,1,-0.010579109,1
0.503993571,-4.966468334,1,-0.855241835,1,-8.427647591,1,-0.00296752,1,-0.000632841,1,0.003910207,1,0.091944881,1,-0.526556969,1,-0.641880035,1,-0.051352024,1,-0.078908503,1,-0.007989883,1
0.507995129,-4.925578594,1,-0.876531303,1,-8.397015572,1,0.000874129,1,0.003420968,1,0.001668608,1,0.091931753,1,-0.526554525,1,-0.641869307,1,-0.010482788,1,-0.100307345,1,0.022665024,1
0.511992812,-4.949558735,1,-0.907092631,1,-8.419244766,1,-0.003157795,1,0.001604029,1,0.001286027,1,0.091922387,1,-0.526552677,1,-0.641866088,1,-0.034478664,1,-0.130946755,1,0.000451088,1
0.515992045,-4.968828678,1,-0.882503033,1,-8.396040916,1,-0.004439886,1,-0.001506438,1,0.003454394,1,0.091907538,1,-0.526548088,1,-0.641861796,1,-0.053787708,1,-0.1064803,1,0.023687363,1
0.519993603,-4.974395752,1,-0.85102582,1,-8.424314499,1,-0.001749161,1,0.001465489,1,0.00339758,1,0.091890767,1,-0.52655077,1,-0.641846418,1,-0.059331417,1,-0.075145483,1,-0.00458622,1
0.523991048,-4.956449509,1,-0.901589036,1,-8.406839371,1,-0.004922359,1,0.0029253,1,0.00501602,1,0.091870502,1,-0.526552022,1,-0.641832829,1,-0.04137516,1,-0.125879884,1,0.012898445,1
0.52799052,-5.040927887,1,-0.752839684,1,-8.421086311,1,-0.000458948,1,0.000799986,1,2.95E-06,1,0.091864161,1,-0.526548028,1,-0.64182657,1,-0.125887394,1,0.02281791,1,-0.001324654,1
0.531992078,-4.953299999,1,-0.82883966,1,-8.365756989,1,0.001377097,1,0.004956958,1,-0.000381554,1,0.091855638,1,-0.526538551,1,-0.641811013,1,-0.038339138,1,-0.053249717,1,0.054058075,1
0.535989761,-4.905729771,1,-0.968969762,1,-8.450558662,1,-0.002139257,1,0.005834586,1,0.004450547,1,0.091854319,1,-0.526521325,1,-0.641795337,1,0.009085178,1,-0.193382919,1,-0.030657768,1
0.539989233,-4.930893421,1,-1.039369941,1,-8.408034325,1,-0.004309361,1,0.000880923,1,0.002853635,1,0.091840774,1,-0.526509166,1,-0.641777754,1,-0.016180992,1,-0.263891757,1,0.011935234,1
0.543990791,-5.007330418,1,-0.931589603,1,-8.408916473,1,-0.002621334,1,-0.00119825,1,0.006748984,1,0.091799922,1,-0.52651,1,-0.641750336,1,-0.092611313,1,-0.156455815,1,0.011080742,1
0.547988474,-4.943698406,1,-0.798702955,1,-8.443924904,1,-0.007862351,1,0.003972774,1,0.009518151,1,0.091758788,1,-0.526509523,1,-0.641712487,1,-0.028983116,1,-0.02391541,1,-0.02389431,1
0.551987708,-4.937056065,1,-0.737136662,1,-8.463011742,1,-0.000874271,1,0.002169838,1,0.004007019,1,0.091729201,1,-0.526502252,1,-0.641682148,1,-0.022402287,1,0.037405133,1,-0.042921066,1
0.555989265,-4.878079891,1,-0.825648308,1,-8.44597435,1,-0.000644469,1,-0.004530128,1,0.005111934,1,0.091714799,1,-0.526511312,1,-0.641661525,1,0.036650658,1,-0.051231861,1,-0.025918007,1
0.559998989,-4.94444418,1,-0.865208387,1,-8.434839249,1,-0.001320674,1,-0.001829813,1,0.00133609,1,0.091703519,1,-0.526523948,1,-0.641652763,1,-0.029607296,1,-0.090892673,1,-0.014836311,1
0.5640046,-4.957950115,1,-0.845279336,1,-8.438944817,1,-0.00077391,1,-0.009347992,1,0.002836003,1,0.091697492,1,-0.526550353,1,-0.641644239,1,-0.042889595,1,-0.071026444,1,-0.019066811,1
0.568006158,-4.960334301,1,-0.857113481,1,-8.398803711,1,0.002476508,1,-0.001766116,1,0.003923162,1,0.091693841,1,-0.526567876,1,-0.641633153,1,-0.045125484,1,-0.082899153,1,0.020992279,1
0.57200408,-4.958984852,1,-0.830371737,1,-8.440888405,1,0.002734463,1,-0.004380289,1,0.002907053,1,0.091698341,1,-0.526580811,1,-0.641623437,1,-0.04366684,1,-0.056125224,1,-0.021160126,1
0.576003313,-4.967006683,1,-0.812593877,1,-8.438488007,1,0.002848362,1,-0.007098219,1,-0.003701138,1,0.091710918,1,-0.526601315,1,-0.641631544,1,-0.051515102,1,-0.038250744,1,-0.018870354,1
0.580005109,-4.937526703,1,-0.823436201,1,-8.428077698,1,0.000256636,1,-0.004088551,1,0.001391245,1,0.0917193,1,-0.526619136,1,-0.641635954,1,-0.021884441,1,-0.049030423,1,-0.008551598,1
0.584002793,-4.955306053,1,-0.868368387,1,-8.445269585,1,0.000488851,1,-0.005447065,1,-0.001457492,1,0.091733441,1,-0.526637375,1,-0.641644061,1,-0.039509296,1,-0.093851805,1,-0.025844574,1
0.588002026,-4.956856728,1,-0.869000673,1,-8.431612968,1,0.003826306,1,-0.008473668,1,0.002814372,1,0.091748588,1,-0.526666224,1,-0.641648889,1,-0.040816307,1,-0.094369531,1,-0.012340546,1
0.592003822,-4.996970654,1,-0.867790937,1,-8.376839638,1,0.006060204,1,-0.004218875,1,0.002365472,1,0.091767967,1,-0.526692688,1,-0.641655028,1,-0.080706596,1,-0.093008697,1,0.042286873,1
0.596001804,-4.977931976,1,-0.878481746,1,-8.431757927,1,0.004918018,1,-0.001369377,1,-0.005737176,1,0.091791958,1,-0.526704133,1,-0.641662896,1,-0.061571121,1,-0.10350281,1,-0.01270771,1
0.600001037,-4.988329887,1,-0.858557343,1,-8.437628746,1,0.004516575,1,-0.007236258,1,-0.004583708,1,0.091815591,1,-0.526719093,1,-0.641685963,1,-0.07184267,1,-0.083385944,1,-0.018667221,1
0.604002833,-4.971892834,1,-0.850019097,1,-8.436951637,1,0.002369894,1,-0.003653361,1,-0.000859803,1,0.091835521,1,-0.526736796,1,-0.641696274,1,-0.055256367,1,-0.074687839,1,-0.018092155,1
0.608000517,-4.991541862,1,-0.880441189,1,-8.370997429,1,0.003025457,1,-0.002456482,1,0.002190114,1,0.091848686,1,-0.526751399,1,-0.641702056,1,-0.074781895,1,-0.105005562,1,0.047780991,1
0.611999989,-4.955875397,1,-0.912834167,1,-8.411720276,1,0.001133646,1,-0.003899876,1,-0.001177039,1,0.091863595,1,-0.526769996,1,-0.641709924,1,-0.038957596,1,-0.137281835,1,0.006952286,1
0.616001785,-4.965716839,1,-0.900164902,1,-8.419031143,1,-1.51E-05,1,-0.00556328,1,-0.00236909,1,0.091868304,1,-0.526791334,1,-0.641712606,1,-0.04861927,1,-0.124582291,1,-0.000464439,1
0.619999468,-4.933666706,1,-0.90991354,1,-8.43956089,1,0.001966385,1,-0.002270518,1,0.000923059,1,0.091866784,1,-0.526805699,1,-0.641712964,1,-0.016447067,1,-0.134350181,1,-0.021062851,1
0.623999,-4.962998867,1,-0.866241753,1,-8.405328751,1,-0.001066692,1,-0.008029293,1,0.000780844,1,0.091861166,1,-0.526827753,1,-0.641713262,1,-0.045592785,1,-0.090735674,1,0.013065338,1
0.628000498,-4.983567715,1,-0.887684643,1,-8.419611931,1,-6.91E-05,1,-0.007469284,1,0.003717082,1,0.091858648,1,-0.526853442,1,-0.641711473,1,-0.065944672,1,-0.112211466,1,-0.001342773,1
0.631997943,-4.910695076,1,-0.878216922,1,-8.453958511,1,-0.001625662,1,-0.007257442,1,5.29E-05,1,0.091852404,1,-0.526892483,1,-0.641701043,1,0.007257938,1,-0.102813721,1,-0.035874367,1
0.635997176,-4.935790062,1,-0.912513912,1,-8.413849831,1,-0.002313923,1,-0.010921882,1,0.000200778,1,0.091839023,1,-0.526922107,1,-0.641705096,1,-0.017586708,1,-0.137236655,1,0.004101753,1
0.640004873,-4.927959442,1,-0.852908969,1,-8.381831169,1,-0.001284227,1,-0.010349771,1,0.00109579,1,0.091836244,1,-0.526967049,1,-0.641702533,1,-0.009376526,1,-0.077675164,1,0.035902977,1
0.644008696,-4.963905334,1,-0.8543396,1,-8.41754818,1,-0.00686602,1,-0.011724425,1,-0.000464824,1,0.091819912,1,-0.527013063,1,-0.641697109,1,-0.044932842,1,-0.079264581,1,-3.24E-05,1
0.648008466,-4.941381931,1,-0.853600323,1,-8.428095818,1,-0.00456111,1,-0.009379359,1,0.002422711,1,0.091804445,1,-0.52705723,1,-0.641694546,1,-0.022036552,1,-0.07867527,1,-0.010783195,1
0.652009964,-4.963958263,1,-0.837902188,1,-8.379635811,1,0.000995325,1,-0.011948689,1,0.00113702,1,0.091795512,1,-0.527101576,1,-0.64169538,1,-0.044238091,1,-0.063072264,1,0.037467957,1
0.656007946,-4.942649841,1,-0.881712019,1,-8.419212341,1,-0.004697809,1,-0.012900929,1,0.00283988,1,0.091788389,1,-0.527153134,1,-0.641696334,1,-0.022493362,1,-0.106965482,1,-0.002357483,1
0.660007179,-4.970102787,1,-0.887170613,1,-8.416808128,1,-0.00104316,1,-0.010977429,1,-0.001037256,1,0.091785289,1,-0.527204812,1,-0.641701937,1,-0.049509525,1,-0.112473428,1,-0.000204086,1
0.664008677,-4.970330715,1,-0.860883057,1,-8.402585983,1,-0.004481603,1,-0.009276542,1,0.000203787,1,0.091945834,1,-0.52730149,1,-0.641578138,1,-0.048920631,1,-0.084878027,1,0.013422966,1
0.668006659,-4.96165657,1,-0.823174477,1,-8.426198959,1,-2.18E-05,1,-0.01530298,1,0.000242222,1,0.091942936,1,-0.52734977,1,-0.641584516,1,-0.039838314,1,-0.047215641,1,-0.01042366,1
0.672005892,-4.973853111,1,-0.822702229,1,-8.436224937,1,0.000287549,1,-0.014329998,1,0.002357437,1,0.091942959,1,-0.527406216,1,-0.641590536,1,-0.051558018,1,-0.046768725,1,-0.020726204,1
0.676007688,-4.918729305,1,-0.854917705,1,-8.407869339,1,-0.001326198,1,-0.013232734,1,-0.000768007,1,0.091944367,1,-0.527462125,1,-0.641600907,1,0.004038811,1,-0.078997433,1,0.00735569,1
0.680005372,-4.922828674,1,-0.839868426,1,-8.397783279,1,0.006304447,1,-0.011960289,1,-0.004768636,1,0.09195929,1,-0.52750963,1,-0.641611755,1,0.000340462,1,-0.063844562,1,0.017191887,1
0.684004605,-4.9939785,1,-0.815229535,1,-8.427815437,1,0.003151202,1,-0.011560753,1,-0.004466179,1,0.091982603,1,-0.527563632,1,-0.641635895,1,-0.070353031,1,-0.03903383,1,-0.013122559,1
0.688006163,-4.987105846,1,-0.834204555,1,-8.417964935,1,0.003069472,1,-0.011420934,1,-0.002002838,1,0.092002533,1,-0.527612388,1,-0.641652405,1,-0.06306839,1,-0.057863116,1,-0.003525734,1
0.692003846,-4.979970932,1,-0.892488778,1,-8.416773796,1,0.002850028,1,-0.013673733,1,-0.005591907,1,0.092015669,1,-0.527662098,1,-0.641668081,1,-0.055512905,1,-0.116059244,1,-0.002587318,1
0.696003079,-4.974179745,1,-0.834754467,1,-8.432271004,1,0.002670931,1,-0.011225246,1,-0.00646165,1,0.092038393,1,-0.527700603,1,-0.641689003,1,-0.049396515,1,-0.058151126,1,-0.01829052,1
0.700004637,-4.972521305,1,-0.874431074,1,-8.403697014,1,0.001512841,1,-0.012426932,1,-0.002903467,1,0.092057243,1,-0.527753472,1,-0.641710937,1,-0.047291756,1,-0.097693026,1,0.010008812,1
0.704002321,-4.961222649,1,-0.86534524,1,-8.39423275,1,0.004245199,1,-0.011168474,1,-0.006744633,1,0.092084184,1,-0.527804196,1,-0.641739964,1,-0.035563946,1,-0.088403702,1,0.019202232,1
0.708001792,-4.93570137,1,-0.883959413,1,-8.393576622,1,0.00020332,1,-0.009100263,1,-0.001796496,1,0.092100017,1,-0.527849257,1,-0.641761661,1,-0.009662628,1,-0.106905103,1,0.019625664,1
0.712003589,-4.983474255,1,-0.857797086,1,-8.399130821,1,0.003849112,1,-0.012209675,1,-0.005089274,1,0.092128478,1,-0.527904093,1,-0.64179194,1,-0.056972027,1,-0.080528021,1,0.013780594,1
0.716001272,-4.965474606,1,-0.876010299,1,-8.357934952,1,0.004185744,1,-0.011005508,1,-0.004414151,1,0.092147186,1,-0.527949572,1,-0.64181447,1,-0.038588047,1,-0.0986045,1,0.054738998,1
0.720006883,-4.959527493,1,-0.832199454,1,-8.41716671,1,0.002640323,1,-0.011008384,1,-0.005573086,1,0.092178382,1,-0.527995408,1,-0.641846597,1,-0.032253265,1,-0.054551899,1,-0.004741669,1
0.724008679,-4.964147568,1,-0.825701118,1,-8.414782524,1,0.004420661,1,-0.012383194,1,-0.003890973,1,0.092210189,1,-0.528043866,1,-0.641866922,1,-0.036464691,1,-0.047807932,1,-0.002619743,1
0.728006661,-4.949299812,1,-0.865904331,1,-8.405538559,1,0.002604746,1,-0.013658217,1,-0.005370652,1,0.092238277,1,-0.528094471,1,-0.641891003,1,-0.021189213,1,-0.08779794,1,0.006354332,1
0.732006133,-4.963815212,1,-0.872669876,1,-8.418651581,1,0.00809725,1,-0.016474692,1,-0.00262077,1,0.092266314,1,-0.528144538,1,-0.641914606,1,-0.035281181,1,-0.094350338,1,-0.007025719,1
0.73600769,-4.996212959,1,-0.883044481,1,-8.423183441,1,0.002973461,1,-0.014109856,1,-0.002910021,1,0.092296705,1,-0.528200686,1,-0.641939104,1,-0.067204952,1,-0.10449475,1,-0.011857033,1
0.740005374,-4.959290504,1,-0.858614802,1,-8.405033112,1,0.003354877,1,-0.015155347,1,-0.005423655,1,0.092325404,1,-0.52824682,1,-0.64196384,1,-0.029892921,1,-0.079844832,1,0.006043434,1
0.744004607,-4.984817982,1,-0.850613415,1,-8.423452377,1,0.004728202,1,-0.012289713,1,-0.003534025,1,0.092353657,1,-0.528299868,1,-0.641986966,1,-0.054971695,1,-0.071629763,1,-0.012658119,1
0.748006165,-4.96044445,1,-0.84234786,1,-8.370961189,1,0.007867957,1,-0.013919096,1,-0.006728841,1,0.092393324,1,-0.528354883,1,-0.642017841,1,-0.030133724,1,-0.063055575,1,0.039532661,1
0.752003849,-4.977583885,1,-0.864962637,1,-8.423229218,1,0.004628779,1,-0.011469586,1,-0.003395244,1,0.092430733,1,-0.528405428,1,-0.642050862,1,-0.04684639,1,-0.085378945,1,-0.01301384,1
0.756003082,-4.98443079,1,-0.893113077,1,-8.40195179,1,0.003242131,1,-0.011127853,1,-0.005838014,1,0.092468448,1,-0.528448701,1,-0.642077684,1,-0.053328037,1,-0.113231957,1,0.008021355,1
0.76000458,-4.980208397,1,-0.913974524,1,-8.436810493,1,0.006030385,1,-0.008326469,1,-0.00318976,1,0.092502207,1,-0.528488874,1,-0.642103791,1,-0.048766136,1,-0.133827746,1,-0.027062416,1
0.764002323,-4.960569859,1,-0.893909633,1,-8.412283897,1,0.004068291,1,-0.010768338,1,0.000267997,1,0.092526667,1,-0.528523862,1,-0.642118335,1,-0.028831959,1,-0.113573194,1,-0.002726555,1
0.768001556,-4.980731487,1,-0.88428688,1,-8.41392231,1,0.003019493,1,-0.010075293,1,-0.003968003,1,0.092550211,1,-0.528564811,1,-0.642135918,1,-0.048647881,1,-0.103770912,1,-0.004582405,1
0.772003591,-4.982011795,1,-0.847600281,1,-8.456593513,1,0.003722407,1,-0.01186883,1,-0.002913723,1,0.092570864,1,-0.528605282,1,-0.642152369,1,-0.049586773,1,-0.066929162,1,-0.047469139,1
0.776001811,-4.99287653,1,-0.878721058,1,-8.411847115,1,0.005406704,1,-0.010143696,1,-0.006621621,1,0.092590302,1,-0.528641641,1,-0.642166317,1,-0.060143948,1,-0.097903132,1,-0.00291729,1
0.780001044,-4.967879295,1,-0.89604044,1,-8.400931358,1,0.007644167,1,-0.009265456,1,-0.000461973,1,0.092624038,1,-0.528677464,1,-0.642185509,1,-0.034843922,1,-0.114955246,1,0.007796288,1
0.784002542,-4.977252007,1,-0.870954216,1,-8.408571243,1,0.001562983,1,-0.009041058,1,-0.003344307,1,0.092637546,1,-0.528715074,1,-0.642196178,1,-0.043899536,1,-0.089772463,1,-3.72E-05,1
0.788000286,-4.977043629,1,-0.907034516,1,-8.412384033,1,0.003614552,1,-0.009414234,1,-0.000744412,1,0.092649922,1,-0.528749168,1,-0.642204404,1,-0.043403149,1,-0.125764191,1,-0.004027367,1
0.791999459,-4.981724739,1,-0.916691482,1,-8.385746002,1,0.003342105,1,-0.008885716,1,-0.000763356,1,0.092671514,1,-0.528792381,1,-0.642212629,1,-0.047719479,1,-0.135259211,1,0.022382736,1
0.796000779,-4.985741138,1,-0.928231001,1,-8.40698719,1,0.000218244,1,-0.010189867,1,0.001922229,1,0.092675045,1,-0.528823555,1,-0.642218351,1,-0.051472187,1,-0.146783352,1,0.000986099,1
0.800004363,-5.014671326,1,-0.883091927,1,-8.399903297,1,-0.001340658,1,-0.00581434,1,-0.002310926,1,0.092680722,1,-0.528859794,1,-0.642218947,1,-0.080096245,1,-0.101613104,1,0.007885933,1
0.804004073,-4.994891167,1,-0.883883357,1,-8.408080101,1,0.002980933,1,-0.010634827,1,0.000243199,1,0.092691533,1,-0.528893948,1,-0.642233014,1,-0.060028076,1,-0.102328956,1,-0.000464439,1
0.808005631,-4.967698574,1,-0.850684285,1,-8.379958153,1,0.000944816,1,-0.009774005,1,0.001794801,1,0.092693247,1,-0.528937519,1,-0.642230272,1,-0.032467842,1,-0.069135606,1,0.027440071,1
0.812003314,-4.964511395,1,-0.862669945,1,-8.39245224,1,0.003379895,1,-0.0103113,1,-0.000419067,1,0.092699252,1,-0.528976023,1,-0.642238379,1,-0.02895546,1,-0.081088424,1,0.014751434,1
0.816002846,-4.99721384,1,-0.854273677,1,-8.407752037,1,-0.001959966,1,-0.008686503,1,-0.004241549,1,0.092711732,1,-0.529013991,1,-0.642252684,1,-0.061336994,1,-0.072604597,1,-0.000745773,1
0.820004344,-4.98869133,1,-0.867188871,1,-8.389192581,1,0.005362034,1,-0.006271559,1,-0.002977413,1,0.092729345,1,-0.52904284,1,-0.642270744,1,-0.052571774,1,-0.085384965,1,0.017658234,1
0.824001789,-4.954429626,1,-0.831744909,1,-8.39596653,1,0.005323254,1,-0.013158519,1,-0.005091427,1,0.09275981,1,-0.529081702,1,-0.642281234,1,-0.017981052,1,-0.049702704,1,0.010668755,1
0.828001261,-5.018417358,1,-0.844795167,1,-8.377412796,1,0.002063003,1,-0.00807387,1,0.000436001,1,0.092782602,1,-0.529105246,1,-0.642297804,1,-0.081769943,1,-0.062572122,1,0.029088974,1
0.832002819,-4.999106884,1,-0.867913961,1,-8.348903656,1,0.005557208,1,-0.002556702,1,-0.002172565,1,0.092805892,1,-0.52912724,1,-0.642310023,1,-0.062274456,1,-0.085505188,1,0.057473183,1
0.836000741,-4.987892151,1,-0.863176286,1,-8.389361382,1,0.004904329,1,-0.00404406,1,-0.001209861,1,0.092833437,1,-0.529147863,1,-0.64232707,1,-0.050885201,1,-0.080545306,1,0.016893387,1
0.839999974,-4.986535072,1,-0.870360613,1,-8.406482697,1,0.004340397,1,-0.002938734,1,-0.005818581,1,0.09286081,1,-0.5291664,1,-0.642339349,1,-0.049371719,1,-0.087507904,1,-0.000340462,1
0.844001532,-4.953727245,1,-0.893902779,1,-8.378388405,1,0.005167682,1,-0.005956627,1,-0.00053555,1,0.092885852,1,-0.529178083,1,-0.642363369,1,-0.016465664,1,-0.110844731,1,0.02767849,1
0.847999215,-4.925896645,1,-0.905728638,1,-8.441843033,1,0.007944837,1,-0.000168076,1,-0.006384183,1,0.092918471,1,-0.529183149,1,-0.642380297,1,0.011408329,1,-0.122398853,1,-0.035827637,1
0.851998448,-4.931385517,1,-0.888204634,1,-8.387301445,1,0.001627939,1,-0.007352429,1,-0.002732653,1,0.09294039,1,-0.529199958,1,-0.642396092,1,0.006061554,1,-0.104698479,1,0.018612862,1
0.856000006,-4.935491562,1,-0.905489624,1,-8.444792747,1,0.004553335,1,-0.007019213,1,-0.007400444,1,0.092967622,1,-0.529229343,1,-0.642419577,1,0.002203465,1,-0.121767998,1,-0.039043427,1
0.85999769,-4.930383682,1,-0.837622821,1,-8.421415329,1,0.005100715,1,-0.008210342,1,0.000401285,1,0.092998371,1,-0.529253006,1,-0.642435193,1,0.007511139,1,-0.053653479,1,-0.015806198,1
0.863996923,-4.974274158,1,-0.866425157,1,-8.399048805,1,0.002998233,1,-0.007393824,1,-0.005944573,1,0.093014188,1,-0.529289126,1,-0.642447591,1,-0.036075115,1,-0.082339406,1,0.006370544,1
0.867998719,-4.964353085,1,-0.876466513,1,-8.422905922,1,0.006126224,1,-0.01000688,1,-0.000805703,1,0.093039595,1,-0.529326856,1,-0.642470658,1,-0.025835037,1,-0.092184424,1,-0.017691612,1
0.871996403,-4.968694687,1,-0.887221754,1,-8.407333374,1,0.001945413,1,-0.010761363,1,-0.00462015,1,0.09305355,1,-0.529369473,1,-0.642482162,1,-0.029817104,1,-0.102842152,1,-0.00234127,1
0.876007676,-4.9654212,1,-0.896318614,1,-8.424838066,1,0.000347973,1,-0.014490554,1,-0.004209794,1,0.09307009,1,-0.529414475,1,-0.642504275,1,-0.026163578,1,-0.111820698,1,-0.020080566,1
0.880015075,-4.938992977,1,-0.890748143,1,-8.409351349,1,-0.00222875,1,-0.015677204,1,-0.000678484,1,0.093073487,1,-0.529476762,1,-0.64251852,1,0.000790596,1,-0.106250226,1,-0.00490284,1
0.884018421,-4.957954884,1,-0.892929912,1,-8.45972538,1,-0.000659043,1,-0.015783178,1,-0.003645768,1,0.093078718,1,-0.529541969,1,-0.642533779,1,-0.01762104,1,-0.108417809,1,-0.055600166,1
0.888017893,-4.920166492,1,-0.900555849,1,-8.449177742,1,-0.000825052,1,-0.024289249,1,0.000683384,1,0.093075775,1,-0.529610872,1,-0.642541051,1,0.020748615,1,-0.116100073,1,-0.045388222,1
0.892019451,-4.949370861,1,-0.86465627,1,-8.467498779,1,0.000622166,1,-0.019319715,1,0.000703302,1,0.093076237,1,-0.529696345,1,-0.642553329,1,-0.007734299,1,-0.080236018,1,-0.064131737,1
0.896017134,-5.011101723,1,-0.865794301,1,-8.426114082,1,-0.003363672,1,-0.020076571,1,0.001814253,1,0.093068525,1,-0.529774606,1,-0.642551422,1,-0.068804741,1,-0.0814749,1,-0.023127556,1
0.900016665,-4.965154648,1,-0.868975401,1,-8.431124687,1,-0.00416222,1,-0.023653394,1,0.005667225,1,0.093061805,1,-0.529861629,1,-0.642548323,1,-0.02212286,1,-0.08475244,1,-0.028559685,1
0.904018462,-4.968176842,1,-0.876441121,1,-8.425374031,1,-0.003428698,1,-0.018949522,1,-0.000906548,1,0.093052931,1,-0.529942632,1,-0.642545879,1,-0.024461269,1,-0.0923298,1,-0.023200989,1
0.908016384,-4.995539188,1,-0.887459457,1,-8.418369293,1,-0.007306779,1,-0.023107769,1,0.000114278,1,0.093033291,1,-0.530026138,1,-0.642541587,1,-0.051119328,1,-0.103551567,1,-0.016592026,1
0.912015617,-4.976969719,1,-0.886108041,1,-8.3947649,1,0.000427417,1,-0.023488227,1,0.001224917,1,0.093186565,1,-0.530159235,1,-0.642654121,1,-0.031426907,1,-0.100973427,1,0.006237984,1
0.916017413,-5.018813133,1,-0.86970222,1,-8.401294708,1,-0.001258142,1,-0.023705665,1,0.001927096,1,0.093191259,1,-0.530250549,1,-0.642432094,1,-0.072500229,1,-0.084570527,1,-0.000746727,1
0.920015335,-5.020120621,1,-0.851451814,1,-8.382703781,1,0.001681404,1,-0.021804018,1,-0.000754242,1,0.093194067,1,-0.530335188,1,-0.64244163,1,-0.073093414,1,-0.066335499,1,0.017424583,1
0.924014866,-5.003760815,1,-0.888557673,1,-8.383281708,1,-0.001574113,1,-0.019843649,1,0.002509149,1,0.093186513,1,-0.530416489,1,-0.642444313,1,-0.05604744,1,-0.103542209,1,0.016451836,1
0.928016365,-5.00577116,1,-0.861194372,1,-8.392416,1,0.001268768,1,-0.019550242,1,-0.003313065,1,0.093195796,1,-0.53049618,1,-0.642462134,1,-0.057385921,1,-0.076137543,1,0.006917953,1
0.932014108,-4.976846218,1,-0.882447422,1,-8.401585579,1,-0.002331977,1,-0.019098608,1,0.001735547,1,0.093198605,1,-0.53057754,1,-0.642466486,1,-0.027774811,1,-0.097404599,1,-0.002655983,1
0.936013341,-4.963440418,1,-0.854884923,1,-8.382939339,1,-0.000840166,1,-0.023697982,1,-0.001643057,1,0.093203053,1,-0.530663371,1,-0.642484903,1,-0.013644218,1,-0.069844127,1,0.015564919,1
0.940014839,-4.967632771,1,-0.827664793,1,-8.441799164,1,0.003513675,1,-0.021591365,1,-0.003940783,1,0.09322159,1,-0.530750096,1,-0.64250952,1,-0.017105103,1,-0.042508304,1,-0.043736458,1
0.944012821,-4.979447842,1,-0.830121934,1,-8.398721695,1,0.001545296,1,-0.022394778,1,-0.002955456,1,0.093247093,1,-0.530835986,1,-0.642534554,1,-0.028195858,1,-0.044790983,1,-0.001103401,1
0.948012054,-4.963779449,1,-0.789684534,1,-8.397679329,1,0.003408373,1,-0.023029225,1,-0.005837175,1,0.093287095,1,-0.530923963,1,-0.642569721,1,-0.011785507,1,-0.004058242,1,-0.000526428,1
0.952019453,-4.965384007,1,-0.8043167,1,-8.413273811,1,0.008721568,1,-0.022292532,1,-0.00636784,1,0.093329847,1,-0.531015337,1,-0.642601013,1,-0.012619495,1,-0.01837343,1,-0.016604424,1
0.956023276,-5.02816391,1,-0.830633223,1,-8.377072334,1,0.008574485,1,-0.022218574,1,-0.008119632,1,0.093387201,1,-0.531111419,1,-0.642645717,1,-0.074589252,1,-0.044252992,1,0.019076347,1
0.960023046,-5.027490616,1,-0.833148181,1,-8.371440887,1,0.010015887,1,-0.023222903,1,-0.010074299,1,0.093440041,1,-0.531201899,1,-0.642697215,1,-0.073152542,1,-0.046365917,1,0.024222374,1
0.964024305,-5.033468246,1,-0.855933607,1,-8.395186424,1,0.013208514,1,-0.024370309,1,-0.011845853,1,0.093508087,1,-0.531286597,1,-0.642753661,1,-0.078416348,1,-0.068619132,1,6.68E-06,1
0.968021989,-5.013427734,1,-0.887705266,1,-8.39467907,1,0.009823131,1,-0.023040924,1,-0.007633416,1,0.093574628,1,-0.531372368,1,-0.642801285,1,-0.057652473,1,-0.099872053,1,3.62E-05,1
0.972021222,-5.01679039,1,-0.886258662,1,-8.374798775,1,0.013207993,1,-0.020565955,1,-0.007958123,1,0.093645602,1,-0.531446576,1,-0.642847538,1,-0.060389519,1,-0.097863972,1,0.01949501,1
0.97602278,-5.0016222,1,-0.885316253,1,-8.383034706,1,0.008608458,1,-0.018490732,1,-0.006273243,1,0.093706787,1,-0.531523883,1,-0.642891407,1,-0.044569492,1,-0.096443892,1,0.010828972,1
0.980020463,-4.987002373,1,-0.882963598,1,-8.406357765,1,0.008786333,1,-0.017719651,1,-0.008086335,1,0.093763478,1,-0.531590223,1,-0.642926931,1,-0.029390812,1,-0.093646228,1,-0.01286602,1
0.984019697,-4.996095181,1,-0.928111911,1,-8.383994102,1,0.004828337,1,-0.020745805,1,-0.003131128,1,0.093808219,1,-0.5316661,1,-0.642956734,1,-0.037843227,1,-0.138454318,1,0.009087563,1
0.988021255,-4.970984936,1,-0.924366772,1,-8.425673485,1,0.004411719,1,-0.016471053,1,-0.005075585,1,0.093851954,1,-0.531736493,1,-0.642994583,1,-0.012139797,1,-0.134374857,1,-0.032975197,1
0.992018938,-5.000249863,1,-0.927180231,1,-8.416640282,1,0.005421524,1,-0.016640028,1,-0.003010412,1,0.093886562,1,-0.53180933,1,-0.643023908,1,-0.040791035,1,-0.136931539,1,-0.024326324,1
0.996018171,-5.002956867,1,-0.882069468,1,-8.382633209,1,0.00353361,1,-0.016753143,1,0.001951349,1,0.093907885,1,-0.531880617,1,-0.643049479,1,-0.042897224,1,-0.091674805,1,0.00931263,1
1.00001967,-5.002815723,1,-0.85946846,1,-8.395987511,1,0.004083357,1,-0.014875524,1,-0.001271807,1,0.09393128,1,-0.531952322,1,-0.643073142,1,-0.042150974,1,-0.068911076,1,-0.004416466,1
1.004017353,-5.024535656,1,-0.883067548,1,-8.357388496,1,0.002199313,1,-0.012414819,1,-0.002614061,1,0.093961127,1,-0.532017767,1,-0.643085003,1,-0.063319683,1,-0.092290044,1,0.033835411,1
1.008016586,-5.022472858,1,-0.900312841,1,-8.388033867,1,0.005659647,1,-0.019275477,1,-0.004293497,1,0.093987443,1,-0.532082975,1,-0.64310658,1,-0.060707092,1,-0.109345078,1,0.002846718,1
1.012018204,-4.945322037,1,-0.913909376,1,-8.354439735,1,0.005121457,1,-0.01323497,1,-0.004228179,1,0.09401089,1,-0.532142341,1,-0.643135786,1,0.016943932,1,-0.122772336,1,0.036130905,1
1.016015649,-5.071179867,1,-0.935763001,1,-8.449868202,1,-0.000527208,1,-0.010220089,1,-0.0032947,1,0.094038434,1,-0.532191217,1,-0.643153071,1,-0.108502388,1,-0.144417405,1,-0.059558868,1
1.020014882,-5.003549576,1,-0.871589422,1,-8.376951218,1,0.003618665,1,-0.013443643,1,-0.000464285,1,0.09405195,1,-0.532244682,1,-0.643164992,1,-0.040421486,1,-0.080155313,1,0.013083458,1
1.02401638,-5.076188087,1,-0.893751025,1,-8.364201546,1,-0.002597432,1,-0.012098374,1,-0.001519999,1,0.094064616,1,-0.532300591,1,-0.643175542,1,-0.112588882,1,-0.102236688,1,0.025547028,1
1.028014064,-5.044621468,1,-0.924052536,1,-8.360103607,1,-0.000891673,1,-0.014923526,1,0.000684169,1,0.094064921,1,-0.532354057,1,-0.643197358,1,-0.080571175,1,-0.13256067,1,0.029379845,1
1.032013535,-5.029230118,1,-0.974877894,1,-8.366603851,1,-0.00286741,1,-0.008348363,1,0.003121379,1,0.09405192,1,-0.532395661,1,-0.643201888,1,-0.06482935,1,-0.183514595,1,0.022683144,1
1.036015153,-5.015678406,1,-0.929991126,1,-8.336796761,1,-0.002147237,1,-0.010572189,1,-0.0021722,1,0.094036654,1,-0.532445371,1,-0.64320308,1,-0.050859451,1,-0.138779104,1,0.05225563,1
1.040012836,-5.042031765,1,-0.915394545,1,-8.375512123,1,-0.006293632,1,-0.007668412,1,0.004089959,1,0.094011955,1,-0.532482624,1,-0.64319545,1,-0.076898575,1,-0.124407113,1,0.013376236,1
1.044012308,-5.01560688,1,-0.888290644,1,-8.390690804,1,-0.007414702,1,-0.010947356,1,0.001532635,1,0.093982726,1,-0.532525778,1,-0.643182874,1,-0.05011034,1,-0.097568452,1,-0.001993179,1
1.048013806,-4.998670101,1,-0.847635865,1,-8.397474289,1,-0.00573972,1,-0.012430368,1,0.002348854,1,0.093949914,1,-0.53257376,1,-0.64317584,1,-0.032769203,1,-0.057211459,1,-0.008989334,1
1.05201149,-4.980951309,1,-0.836648643,1,-8.390931129,1,-0.003354977,1,-0.010429273,1,-0.000400842,1,0.09392143,1,-0.532621384,1,-0.643172145,1,-0.014648438,1,-0.046485245,1,-0.00265789,1
1.056010723,-4.991648674,1,-0.836898208,1,-8.371164322,1,-0.002301723,1,-0.010800162,1,-0.001730894,1,0.093901724,1,-0.532669604,1,-0.643174648,1,-0.024939537,1,-0.046922624,1,0.016885757,1
1.060012579,-4.969036102,1,-0.882695496,1,-8.395038605,1,-0.004040773,1,-0.008933665,1,0.000140117,1,0.093886681,1,-0.53270781,1,-0.643184066,1,-0.0020051,1,-0.092863917,1,-0.007166862,1
1.064010262,-4.982021809,1,-0.865393043,1,-8.409812927,1,-0.000889987,1,-0.013682319,1,-0.002323613,1,0.093879141,1,-0.532750964,1,-0.643188477,1,-0.01462698,1,-0.075644732,1,-0.022147179,1
1.068009496,-4.98750782,1,-0.863434017,1,-8.376076698,1,-0.004406876,1,-0.013029533,1,-0.000867299,1,0.093865559,1,-0.53279382,1,-0.643199503,1,-0.019752502,1,-0.073819518,1,0.011387825,1
1.072011232,-5.023594379,1,-0.843946338,1,-8.392371178,1,-0.00302988,1,-0.011510964,1,-0.000673844,1,0.093865432,1,-0.532843232,1,-0.643209994,1,-0.055422783,1,-0.054355919,1,-0.005149841,1
1.076008916,-5.007296562,1,-0.841170788,1,-8.384683609,1,0.002853914,1,-0.012796501,1,0.000225109,1,0.093871549,1,-0.532888949,1,-0.643229425,1,-0.038740158,1,-0.051550329,1,0.002306938,1
1.080008149,-5.024982929,1,-0.858311713,1,-8.382609367,1,0.001021273,1,-0.01118085,1,-0.004650169,1,0.093884237,1,-0.532942653,1,-0.643245876,1,-0.05597353,1,-0.068610072,1,0.004102707,1
1.084010005,-5.011816502,1,-0.868058145,1,-8.350288391,1,0.003242322,1,-0.010522733,1,-0.002906803,1,0.09390083,1,-0.532984257,1,-0.643265307,1,-0.042457581,1,-0.078236639,1,0.036205292,1
1.088007689,-5.003470898,1,-0.857394636,1,-8.38974762,1,0.006189829,1,-0.008637474,1,0.001066956,1,0.093925491,1,-0.533020258,1,-0.643293798,1,-0.033808231,1,-0.06738323,1,-0.003452301,1
1.09200716,-5.008033276,1,-0.897257507,1,-8.39827919,1,0.002783445,1,-0.004939029,1,-0.004176219,1,0.093942031,1,-0.533054411,1,-0.643304348,1,-0.0380826,1,-0.107122958,1,-0.012163162,1
1.096008658,-4.996315956,1,-0.88708055,1,-8.377334595,1,0.004271092,1,-0.007563813,1,0.000978976,1,0.09395808,1,-0.533079863,1,-0.643315673,1,-0.02615118,1,-0.096823514,1,0.008641243,1
1.100006342,-5.027320862,1,-0.914346695,1,-8.365242958,1,0.000824596,1,-0.008187434,1,-0.003607652,1,0.093970902,1,-0.53311801,1,-0.643324018,1,-0.056834698,1,-0.123999953,1,0.020532608,1
1.104005933,-5.038971901,1,-0.896925688,1,-8.405949593,1,0.000571912,1,-0.010521892,1,-0.001030512,1,0.093979292,1,-0.533157468,1,-0.643340111,1,-0.068153858,1,-0.106526852,1,-0.020374298,1
1.108007431,-5.056561947,1,-0.873883784,1,-8.379310608,1,0.001737601,1,-0.00766948,1,-0.001448872,1,0.093991108,1,-0.53319484,1,-0.643347502,1,-0.085428715,1,-0.083403349,1,0.006070137,1
1.112010717,-5.034358501,1,-0.910923004,1,-8.357273102,1,0.00203116,1,-0.007860718,1,0.001878121,1,0.094001547,1,-0.533225119,1,-0.643354833,1,-0.062970161,1,-0.120369136,1,0.027951241,1
1.116010547,-5.046896458,1,-0.903639555,1,-8.353787422,1,-0.000481337,1,-0.006277105,1,-0.000116058,1,0.094005868,1,-0.533250988,1,-0.6433599,1,-0.07529068,1,-0.113061488,1,0.031305313,1
1.120012045,-5.053730011,1,-0.903835714,1,-8.388486862,1,0.001742012,1,-0.005390919,1,0.000808466,1,0.094009824,1,-0.533277154,1,-0.643357575,1,-0.081903458,1,-0.113236725,1,-0.003527641,1
1.124009728,-5.043647289,1,-0.904168665,1,-8.365413666,1,0.003217291,1,-0.00672071,1,0.001380696,1,0.094018213,1,-0.533304453,1,-0.643360674,1,-0.0715909,1,-0.11351186,1,0.019405365,1
1.128008962,-5.066633224,1,-0.888731897,1,-8.342311859,1,-0.003956157,1,-0.003169943,1,0.000337723,1,0.094006419,1,-0.533323586,1,-0.643351257,1,-0.094415188,1,-0.098183095,1,0.042420387,1
1.13201046,-5.011837006,1,-0.866410613,1,-8.375026703,1,0.000226233,1,-0.003360139,1,0.005875716,1,0.094006538,1,-0.53333801,1,-0.643345356,1,-0.039497852,1,-0.075867653,1,0.009634018,1
1.136008143,-5.013254166,1,-0.884854376,1,-8.392045975,1,0.000989733,1,-0.008084353,1,-0.001654819,1,0.09400475,1,-0.533362329,1,-0.643347025,1,-0.040710449,1,-0.094337702,1,-0.007505417,1
1.140007734,-5.041620255,1,-0.87212497,1,-8.398608208,1,-0.00104338,1,-0.005554066,1,-0.00017882,1,0.093998961,1,-0.533380449,1,-0.643335938,1,-0.06892395,1,-0.081665218,1,-0.01415062,1
1.144009233,-5.011926174,1,-0.829656482,1,-8.393133163,1,-0.00146624,1,-0.008088032,1,0.00166411,1,0.093993552,1,-0.533403695,1,-0.643335581,1,-0.03903389,1,-0.039252996,1,-0.008787155,1
1.148006916,-5.02408123,1,-0.869961381,1,-8.383464813,1,0.001022856,1,-0.008770402,1,-0.002214038,1,0.094001897,1,-0.533438742,1,-0.643341482,1,-0.050893784,1,-0.079504251,1,0.000700951,1
1.152006149,-5.029375076,1,-0.84100467,1,-8.40490818,1,0.002726573,1,-0.001440574,1,-0.001510797,1,0.094009481,1,-0.533459127,1,-0.643352628,1,-0.056015968,1,-0.050493479,1,-0.020849228,1
1.156007886,-4.993658066,1,-0.852733493,1,-8.372685432,1,-0.001370766,1,-0.006815695,1,-0.002408017,1,0.094020523,1,-0.533479333,1,-0.643366098,1,-0.020128727,1,-0.062139094,1,0.011265755,1
1.160005927,-5.010200024,1,-0.862191617,1,-8.37980938,1,0.000887205,1,-0.005443237,1,-0.000858943,1,0.094036728,1,-0.533496797,1,-0.643379927,1,-0.036523819,1,-0.071469486,1,0.004042625,1
1.16400516,-5.002556324,1,-0.861418545,1,-8.387946129,1,0.005993625,1,-0.005168996,1,-0.006896285,1,0.094216667,1,-0.53358531,1,-0.6432482,1,-0.028134823,1,-0.069229424,1,-0.004676819,1
1.168006659,-5.050299644,1,-0.897063196,1,-8.36909008,1,0.00301349,1,-0.003351192,1,-0.00494121,1,0.094248667,1,-0.533605218,1,-0.643280268,1,-0.075710297,1,-0.104615271,1,0.014054298,1
1.172004342,-5.016008377,1,-0.85487777,1,-8.388500214,1,0.005130301,1,-0.0068309,1,-0.007332806,1,0.094275929,1,-0.533624291,1,-0.64330256,1,-0.041258812,1,-0.062210202,1,-0.005472183,1
1.176003575,-5.011438847,1,-0.829881668,1,-8.386692047,1,0.005609764,1,-0.004352613,1,-0.003297595,1,0.094306163,1,-0.533638716,1,-0.643332899,1,-0.036567211,1,-0.036967456,1,-0.003759384,1
1.180005074,-5.021402836,1,-0.842342019,1,-8.369597435,1,0.009674123,1,-0.003874351,1,-0.005985837,1,0.094344363,1,-0.533657432,1,-0.643365562,1,-0.046373844,1,-0.049116194,1,0.013213158,1
1.184002757,-5.028199673,1,-0.847864032,1,-8.368715286,1,0.006856647,1,-0.002674649,1,-0.00802814,1,0.094388008,1,-0.533670425,1,-0.64340204,1,-0.053061008,1,-0.054278612,1,0.013995171,1
1.188002348,-5.024717808,1,-0.881285667,1,-8.371060371,1,0.004834738,1,-0.002902876,1,-0.006639447,1,0.094425008,1,-0.533671141,1,-0.64342761,1,-0.049573421,1,-0.087390125,1,0.011619568,1
1.192009926,-5.059258461,1,-0.897188604,1,-8.376457214,1,0.0090892,1,-0.000154876,1,-0.008511638,1,0.094473317,1,-0.533678651,1,-0.643467426,1,-0.084050655,1,-0.102891803,1,0.006145477,1
1.19601357,-5.054408073,1,-0.865873396,1,-8.378030777,1,0.002444186,1,-0.001078706,1,-0.011115866,1,0.094528452,1,-0.533675194,1,-0.643515229,1,-0.079229355,1,-0.071112871,1,0.004545212,1
1.20001328,-5.060933113,1,-0.885473073,1,-8.34865284,1,0.009937808,1,-0.000874574,1,-0.008047954,1,0.094581842,1,-0.533670843,1,-0.643557727,1,-0.085790634,1,-0.09026283,1,0.033902168,1
1.204014897,-5.030526638,1,-0.857453644,1,-8.358738899,1,0.00602347,1,0.001440336,1,-0.010573775,1,0.094623052,1,-0.533667743,1,-0.643590569,1,-0.055410862,1,-0.061896443,1,0.023799896,1
1.208012342,-5.064949036,1,-0.939766943,1,-8.375157356,1,0.011306341,1,0.001199174,1,-0.01148873,1,0.09468773,1,-0.533652306,1,-0.64364171,1,-0.089963436,1,-0.143660247,1,0.007408142,1
1.212011814,-5.054198742,1,-0.881816089,1,-8.359402657,1,0.00769823,1,-2.16E-05,1,-0.009669008,1,0.094746217,1,-0.53364718,1,-0.643690288,1,-0.079256058,1,-0.085216701,1,0.023140907,1
1.216013312,-5.041595936,1,-0.863473535,1,-8.369587898,1,0.009944345,1,0.004626691,1,-0.00507952,1,0.094801657,1,-0.533628166,1,-0.643729329,1,-0.066813469,1,-0.066400528,1,0.013005257,1
1.220011234,-5.038021088,1,-0.885875523,1,-8.400442123,1,0.010890388,1,0.000361724,1,-0.01063115,1,0.094859265,1,-0.533608437,1,-0.643767476,1,-0.063405037,1,-0.088310182,1,-0.017796516,1
1.224010468,-5.04325819,1,-0.895084381,1,-8.348257065,1,0.011998561,1,0.006984283,1,-0.009047659,1,0.094921038,1,-0.533588767,1,-0.643800378,1,-0.068807125,1,-0.096991956,1,0.03443718,1
1.228012085,-5.090067863,1,-0.879218876,1,-8.398518562,1,0.009297329,1,0.006817034,1,-0.009036832,1,0.094988622,1,-0.533564627,1,-0.643847883,1,-0.115820885,1,-0.080548584,1,-0.015759468,1
1.232009768,-5.047315598,1,-0.860767663,1,-8.372873306,1,0.011341876,1,0.006618485,1,-0.009740655,1,0.095054932,1,-0.533533335,1,-0.643888414,1,-0.073331356,1,-0.061526835,1,0.009986877,1
1.236009002,-5.056867599,1,-0.873536885,1,-8.371465683,1,0.012941437,1,0.006205631,1,-0.009538226,1,0.095128499,1,-0.533493757,1,-0.643927097,1,-0.08321619,1,-0.073660493,1,0.011533737,1
1.240010262,-5.06684494,1,-0.885245442,1,-8.352759361,1,0.018583741,1,0.01262179,1,-0.009847097,1,0.095203616,1,-0.533464491,1,-0.643966019,1,-0.093440533,1,-0.084725618,1,0.030323982,1
1.244007945,-5.056172848,1,-0.907175303,1,-8.367414474,1,0.015173894,1,0.010796381,1,-0.010361648,1,0.095278256,1,-0.533419728,1,-0.644007683,1,-0.083145142,1,-0.10600847,1,0.015830994,1
1.248007178,-5.05453825,1,-0.883767128,1,-8.349963188,1,0.011094149,1,0.014963834,1,-0.006973751,1,0.095354371,1,-0.533364952,1,-0.64405036,1,-0.081972122,1,-0.081936479,1,0.033491135,1
1.252008915,-5.073814869,1,-0.865281224,1,-8.369244576,1,0.018493365,1,0.013271159,1,-0.010885735,1,0.095434442,1,-0.533309042,1,-0.644090891,1,-0.101719379,1,-0.062752783,1,0.014421463,1
1.256006598,-5.015138626,1,-0.872255623,1,-8.348948479,1,0.016272619,1,0.018714709,1,-0.009788872,1,0.095518291,1,-0.533239365,1,-0.644133985,1,-0.043630123,1,-0.068991184,1,0.034996033,1
1.260005832,-5.020089626,1,-0.869612813,1,-8.379382133,1,0.013781368,1,0.01311381,1,-0.012123832,1,0.095596857,1,-0.533173025,1,-0.644172311,1,-0.049139977,1,-0.065658033,1,0.004828453,1
1.264007449,-5.034846783,1,-0.902187586,1,-8.386606216,1,0.014766448,1,0.012986053,1,-0.00952599,1,0.095679581,1,-0.533115566,1,-0.644218206,1,-0.064381123,1,-0.097511888,1,-0.002176285,1
1.268005133,-5.012799263,1,-0.922507882,1,-8.386610985,1,0.019875634,1,0.015403319,1,-0.009023826,1,0.095761642,1,-0.533055604,1,-0.644252539,1,-0.042838573,1,-0.117115617,1,-0.001950264,1
1.272010803,-5.023527622,1,-0.922641993,1,-8.391588211,1,0.015224502,1,0.011526074,1,-0.013217542,1,0.095840067,1,-0.532994807,1,-0.644295514,1,-0.054079056,1,-0.11656332,1,-0.006690979,1
1.27601254,-5.048339844,1,-0.875203729,1,-8.388459206,1,0.016304396,1,0.019378247,1,-0.008985712,1,0.095928125,1,-0.532929361,1,-0.644339681,1,-0.079442978,1,-0.068355978,1,-0.003313065,1
1.280010223,-5.020263672,1,-0.83180517,1,-8.377367973,1,0.017072685,1,0.016436724,1,-0.009381014,1,0.096013837,1,-0.532854319,1,-0.644376278,1,-0.051998615,1,-0.024202943,1,0.008079529,1
1.284009457,-5.047941685,1,-0.843820035,1,-8.402365685,1,0.0203587,1,0.018473541,1,-0.014856018,1,0.096110076,1,-0.532789052,1,-0.644420981,1,-0.080226421,1,-0.035379469,1,-0.016671181,1
1.288011312,-5.068831444,1,-0.838748813,1,-8.409467697,1,0.020444207,1,0.017549697,1,-0.016393315,1,0.096221574,1,-0.532705903,1,-0.644483447,1,-0.101817131,1,-0.029333651,1,-0.023451805,1
1.292008996,-5.073924541,1,-0.944665849,1,-8.383358002,1,0.02202829,1,0.022165485,1,-0.016308943,1,0.096336626,1,-0.532621384,1,-0.644547284,1,-0.10762167,1,-0.134245574,1,0.00298214,1
1.296008468,-5.054235458,1,-0.936719596,1,-8.340790749,1,0.023263808,1,0.02009069,1,-0.014767062,1,0.096452035,1,-0.532531679,1,-0.644606054,1,-0.08868885,1,-0.125288546,1,0.045898438,1
1.300009966,-5.040727615,1,-0.959950209,1,-8.324633598,1,0.019981559,1,0.022586673,1,-0.015692405,1,0.096568353,1,-0.532443881,1,-0.644670844,1,-0.075920582,1,-0.147501469,1,0.062396049,1
1.304007649,-5.041311741,1,-0.938730836,1,-8.368787766,1,0.018622797,1,0.024623107,1,-0.014861844,1,0.096674673,1,-0.532344759,1,-0.64472425,1,-0.077340126,1,-0.125342965,1,0.018645287,1
1.308006883,-4.965652943,1,-0.891504169,1,-8.352187157,1,0.02064497,1,0.024693144,1,-0.011992043,1,0.096779563,1,-0.532244802,1,-0.644770086,1,-0.002522945,1,-0.077188611,1,0.035654068,1
1.3120085,-4.938109875,1,-0.8527233,1,-8.413759232,1,0.018255439,1,0.019535629,1,-0.017539958,1,0.096888892,1,-0.53214705,1,-0.64482975,1,0.024195671,1,-0.037443519,1,-0.025522232,1
1.316006422,-4.878288269,1,-0.824831605,1,-8.458043098,1,0.016023468,1,0.020282861,1,-0.016256131,1,0.096984349,1,-0.532064617,1,-0.644890249,1,0.083322525,1,-0.008711636,1,-0.069478035,1
1.320005655,-4.9288311,1,-0.809483528,1,-8.477171898,1,0.020054586,1,0.01027658,1,-0.01828941,1,0.097093128,1,-0.531992614,1,-0.644952238,1,0.032173157,1,0.007583559,1,-0.088340759,1
1.324007154,-4.920115948,1,-0.756704152,1,-8.456241608,1,0.020007696,1,0.010880696,1,-0.019106178,1,0.097223975,1,-0.531942487,1,-0.645031214,1,0.040465832,1,0.061484754,1,-0.067268372,1
1.328004837,-4.965884209,1,-0.804349661,1,-8.44587326,1,0.023965221,1,0.009469839,1,-0.022429541,1,0.097360268,1,-0.531897128,1,-0.645118058,1,-0.005685329,1,0.015004635,1,-0.056787491,1
1.33200407,-4.982684135,1,-0.860274434,1,-8.40174675,1,0.028893743,1,0.007285279,1,-0.023248268,1,0.097514205,1,-0.531855822,1,-0.645217061,1,-0.02283287,1,-0.039609075,1,-0.012584686,1
1.336005688,-5.014424801,1,-0.905184567,1,-8.413700104,1,0.028318185,1,0.011057286,1,-0.023533581,1,0.097675718,1,-0.531808913,1,-0.645313501,1,-0.054969311,1,-0.083141387,1,-0.024437904,1
1.340003371,-5.010168552,1,-0.975841165,1,-8.378614426,1,0.028052244,1,0.01069089,1,-0.022738554,1,0.09783078,1,-0.531760871,1,-0.645409107,1,-0.051118374,1,-0.152473986,1,0.010756493,1
1.344002604,-5.010877132,1,-1.000084519,1,-8.380166054,1,0.029347416,1,0.01041168,1,-0.019807914,1,0.098002411,1,-0.53171885,1,-0.64550674,1,-0.052180767,1,-0.175257206,1,0.009268761,1
1.348010182,-5.006537437,1,-1.00089395,1,-8.373672485,1,0.022844318,1,0.008485642,1,-0.017937822,1,0.098141178,1,-0.531683922,1,-0.645587444,1,-0.048135757,1,-0.174885392,1,0.015822411,1
1.352014065,-4.994719028,1,-0.970801651,1,-8.404729843,1,0.021969121,1,0.008342497,1,-0.015656747,1,0.098267518,1,-0.531643808,1,-0.64565897,1,-0.036655426,1,-0.143713772,1,-0.015142441,1
1.356013775,-5.006465912,1,-0.946614206,1,-8.381824493,1,0.022977754,1,0.008239854,1,-0.013524028,1,0.09839537,1,-0.531602442,1,-0.645726383,1,-0.048750877,1,-0.118433595,1,0.007861137,1
1.360015392,-4.980658054,1,-0.967867076,1,-8.388824463,1,0.019796688,1,0.010953352,1,-0.013205185,1,0.09850537,1,-0.53156203,1,-0.645786047,1,-0.023283482,1,-0.138743818,1,0.000969887,1
1.364013076,-5.010333538,1,-0.99533397,1,-8.375505447,1,0.01790721,1,0.009758977,1,-0.013575944,1,0.098611146,1,-0.531518817,1,-0.645840228,1,-0.053323269,1,-0.165302217,1,0.014413834,1
1.368012309,-5.057618618,1,-0.978608787,1,-8.365609169,1,0.017627314,1,0.006810863,1,-0.012644988,1,0.098705068,1,-0.531471848,1,-0.645896196,1,-0.101004601,1,-0.147766232,1,0.0244627,1
1.372013807,-5.028010845,1,-0.978802621,1,-8.345685005,1,0.017557822,1,0.014148757,1,-0.012036503,1,0.098794214,1,-0.53143245,1,-0.645945251,1,-0.071728706,1,-0.147192776,1,0.04450798,1
1.376011252,-5.029425144,1,-0.962488949,1,-8.401345253,1,0.018395014,1,0.014002649,1,-0.010747598,1,0.098884657,1,-0.531377673,1,-0.645980716,1,-0.073605537,1,-0.130093336,1,-0.010956764,1
1.380010724,-4.976151466,1,-0.988443434,1,-8.402956009,1,0.019886944,1,0.013995718,1,-0.008013928,1,0.098974489,1,-0.531317472,1,-0.646007359,1,-0.020838737,1,-0.155264616,1,-0.012345314,1
1.384012341,-4.947697639,1,-0.99358505,1,-8.38548851,1,0.016185112,1,0.015830405,1,-0.003843116,1,0.09905874,1,-0.531261444,1,-0.6460374,1,0.007142067,1,-0.159671783,1,0.005329132,1
1.388009787,-4.984485626,1,-0.979025006,1,-8.409258842,1,0.012432706,1,0.010699682,1,-0.007399056,1,0.099131167,1,-0.531211197,1,-0.646060705,1,-0.030069828,1,-0.144479692,1,-0.018257141,1
1.392008901,-4.938323975,1,-0.921979129,1,-8.389190674,1,0.009465795,1,0.009492569,1,-0.009326996,1,0.099190466,1,-0.531166792,1,-0.646091878,1,0.015717983,1,-0.086914361,1,0.001980782,1
1.396010518,-4.99369812,1,-0.78241545,1,-8.419584274,1,0.014580856,1,0.009210367,1,-0.003919413,1,0.099269614,1,-0.531121016,1,-0.64613378,1,-0.0400424,1,0.053335905,1,-0.028251648,1
1.400007963,-4.998997688,1,-0.786246002,1,-8.374210358,1,0.021657705,1,0.010203056,1,-0.01145111,1,0.099355824,1,-0.53107965,1,-0.64616555,1,-0.045690536,1,0.050249159,1,0.017253876,1
1.404007435,-4.963508606,1,-0.895951033,1,-8.382761955,1,0.021405935,1,0.011135658,1,-0.012000505,1,0.099461026,1,-0.531027555,1,-0.646218479,1,-0.010641098,1,-0.058547378,1,0.008872032,1
1.408008933,-4.963126659,1,-1.017359495,1,-8.355652809,1,0.019628987,1,0.009159617,1,-0.019031279,1,0.0995709,1,-0.530977249,1,-0.646284103,1,-0.010683537,1,-0.179008901,1,0.036137581,1
1.412006617,-4.967812061,1,-0.925687611,1,-8.351396561,1,0.017357953,1,0.010515084,1,-0.011798965,1,0.099826209,1,-0.53099519,1,-0.646424532,1,-0.015217304,1,-0.085203588,1,0.040089607,1
1.41600585,-4.986100674,1,-0.885273635,1,-8.402937889,1,0.017712226,1,0.014260649,1,-0.011747688,1,0.099916808,1,-0.530950129,1,-0.646263182,1,-0.033885956,1,-0.044007123,1,-0.011305809,1
1.420007467,-5.02237463,1,-0.884338021,1,-8.374064445,1,0.02108641,1,0.014000109,1,-0.012291674,1,0.100010566,1,-0.530902207,1,-0.646314561,1,-0.070563793,1,-0.042260885,1,0.017724991,1
1.424005151,-4.978544712,1,-0.861528158,1,-8.381576538,1,0.017323136,1,0.009175239,1,-0.018597132,1,0.100116,1,-0.53085357,1,-0.646381497,1,-0.027144432,1,-0.018542469,1,0.010362625,1
1.428010464,-4.922426701,1,-0.890999079,1,-8.367876053,1,0.016461102,1,0.006793686,1,-0.017796714,1,0.100228071,1,-0.530807376,1,-0.646456242,1,0.02858448,1,-0.047049999,1,0.024195671,1
1.432012081,-4.877323627,1,-0.939887583,1,-8.441555977,1,0.021523105,1,0.008419299,1,-0.019075202,1,0.100348264,1,-0.530780137,1,-0.646541834,1,0.073457241,1,-0.094916105,1,-0.049448967,1
1.436009765,-4.824012756,1,-0.916912556,1,-8.450947762,1,0.015167404,1,0.002569822,1,-0.019207764,1,0.100456379,1,-0.530756712,1,-0.646631241,1,0.126570225,1,-0.071022272,1,-0.058817863,1
1.440008998,-4.820008278,1,-0.88148886,1,-8.472628593,1,0.018186536,1,-0.005401094,1,-0.022915518,1,0.100570083,1,-0.530759931,1,-0.646720111,1,0.13060236,1,-0.034645975,1,-0.080611229,1
1.444010735,-4.879813671,1,-0.80118531,1,-8.489120483,1,0.017071497,1,-0.008811316,1,-0.018264294,1,0.100687563,1,-0.53078109,1,-0.64680779,1,0.070975304,1,0.046632826,1,-0.097307205,1
1.448008418,-4.900554657,1,-0.821985066,1,-8.477650642,1,0.021544548,1,-0.017211234,1,-0.019529693,1,0.100825407,1,-0.53082186,1,-0.646903992,1,0.050578117,1,0.026969552,1,-0.086155891,1
1.452007651,-4.899353504,1,-0.88989383,1,-8.456877708,1,0.025376281,1,-0.014498333,1,-0.020871209,1,0.100963674,1,-0.53087461,1,-0.647005618,1,0.052224159,1,-0.039805233,1,-0.065759659,1
1.456009269,-4.923609734,1,-0.949453056,1,-8.445871353,1,0.025907183,1,-0.021356385,1,-0.021984588,1,0.101119004,1,-0.530933499,1,-0.647111654,1,0.028464794,1,-0.098090529,1,-0.055175781,1
1.460006714,-4.940539837,1,-1.005415797,1,-8.392493248,1,0.02475645,1,-0.019734824,1,-0.021711135,1,0.101282157,1,-0.531003773,1,-0.64722681,1,0.012127399,1,-0.152719378,1,-0.002281189,1
1.464005947,-5.019217014,1,-1.051659346,1,-8.413155556,1,0.024427151,1,-0.020932792,1,-0.019768607,1,0.101431705,1,-0.531079829,1,-0.647343099,1,-0.065908432,1,-0.197746575,1,-0.023448944,1
1.468007445,-4.989609718,1,-1.088253736,1,-8.409722328,1,0.020856334,1,-0.023016019,1,-0.018598828,1,0.101570725,1,-0.531156301,1,-0.647438884,1,-0.035655975,1,-0.233213007,1,-0.020510674,1
1.472005129,-4.981232643,1,-1.159151554,1,-8.366332054,1,0.017132813,1,-0.023344142,1,-0.013800781,1,0.101693779,1,-0.531232834,1,-0.647531688,1,-0.026634216,1,-0.303116918,1,0.022397995,1
1.476004601,-5.037378311,1,-1.158212781,1,-8.363690376,1,0.013269947,1,-0.02338643,1,-0.012617053,1,0.101797946,1,-0.53132242,1,-0.647606015,1,-0.082023621,1,-0.301349401,1,0.02450943,1
1.480006099,-4.983886719,1,-1.099668264,1,-8.383348465,1,0.010211426,1,-0.023498677,1,-0.008214341,1,0.101861976,1,-0.531411767,1,-0.647655845,1,-0.027779579,1,-0.242313027,1,0.004354477,1
1.484003544,-5.026222706,1,-1.102228522,1,-8.41775322,1,0.007207646,1,-0.023124745,1,-0.002831872,1,0.101909555,1,-0.531500518,1,-0.647688508,1,-0.069366932,1,-0.244518697,1,-0.030527115,1
1.488003016,-4.976029873,1,-1.12734592,1,-8.351802826,1,0.005116392,1,-0.020046802,1,-0.003970661,1,0.101940937,1,-0.531587064,1,-0.647719622,1,-0.018445015,1,-0.269416571,1,0.03496933,1
1.492004633,-5.000627995,1,-1.054937959,1,-8.419956207,1,-0.00409849,1,-0.021137599,1,0.001512177,1,0.101939261,1,-0.531676769,1,-0.647722125,1,-0.042285919,1,-0.197067916,1,-0.033623695,1
1.496002078,-5.020948887,1,-1.017217875,1,-8.384824753,1,-0.003452416,1,-0.026572652,1,0.004779556,1,0.101928107,1,-0.531769514,1,-0.647719443,1,-0.061825752,1,-0.159488082,1,0.001059532,1
1.50000155,-5.029993534,1,-1.030078888,1,-8.364901543,1,-0.006384443,1,-0.023354117,1,0.010938456,1,0.101894543,1,-0.531870246,1,-0.647697508,1,-0.070021152,1,-0.172681153,1,0.020516396,1
1.50400281,-5.015926361,1,-1.029683948,1,-8.377378464,1,-0.009600476,1,-0.018694514,1,0.009407869,1,0.101853214,1,-0.531959474,1,-0.647669554,1,-0.055202007,1,-0.172677755,1,0.007635117,1
1.508006454,-4.937574863,1,-1.011314511,1,-8.400128365,1,-0.008811472,1,-0.022922143,1,0.012107994,1,0.101797618,1,-0.532049716,1,-0.64764154,1,0.023910522,1,-0.154820204,1,-0.015515327,1
1.512006164,-4.951631546,1,-0.977141261,1,-8.426898003,1,-0.014905685,1,-0.023815129,1,0.010016592,1,0.10172759,1,-0.532153547,1,-0.647602558,1,0.010728836,1,-0.121286571,1,-0.042738914,1
1.516007662,-4.929920197,1,-0.907739282,1,-8.417565346,1,-0.014051278,1,-0.02758928,1,0.004001571,1,0.101661034,1,-0.532253802,1,-0.647579014,1,0.033284664,1,-0.052493215,1,-0.033843994,1
1.520005345,-4.968151093,1,-0.787050307,1,-8.387465477,1,-0.006930543,1,-0.025066078,1,0.001206311,1,0.101618044,1,-0.532360077,1,-0.647571445,1,-0.004050255,1,0.067781866,1,-0.004232407,1
1.524004579,-4.98063612,1,-0.757643521,1,-8.377821922,1,-0.003270113,1,-0.023610663,1,-0.002607163,1,0.101597689,1,-0.532460511,1,-0.647577167,1,-0.015689373,1,0.096967459,1,0.004932404,1
1.528006196,-4.908491611,1,-0.838998079,1,-8.429166794,1,-0.002610334,1,-0.026392341,1,-0.007793799,1,0.101605475,1,-0.532557189,1,-0.647607684,1,0.05727005,1,0.01562953,1,-0.046895981,1
1.53200388,-4.849850655,1,-0.946933806,1,-8.464748383,1,0.002512066,1,-0.031553064,1,-0.005129558,1,0.101632908,1,-0.532673717,1,-0.647646904,1,0.116892815,1,-0.092134953,1,-0.083075523,1
1.536003113,-4.854122162,1,-1.039334416,1,-8.476966858,1,0.003501502,1,-0.029109923,1,-0.00486259,1,0.101664066,1,-0.532793999,1,-0.647678971,1,0.113635063,1,-0.184334934,1,-0.095914841,1
1.540004611,-4.943662167,1,-1.019298077,1,-8.450140953,1,0.001727597,1,-0.032888323,1,-0.000504532,1,0.101697735,1,-0.532928288,1,-0.647711158,1,0.025226116,1,-0.164084077,1,-0.069781303,1
1.544002295,-5.008868217,1,-0.968965232,1,-8.426229477,1,0.003646526,1,-0.033961769,1,0.003465601,1,0.101719894,1,-0.53306371,1,-0.647724211,1,-0.03883934,1,-0.113634229,1,-0.046561241,1
1.548001528,-5.034795761,1,-0.969097793,1,-8.420351982,1,0.005087913,1,-0.039854839,1,0.004137294,1,0.101731092,1,-0.533212304,1,-0.647728384,1,-0.063515186,1,-0.113747954,1,-0.041427612,1
1.552003026,-4.91757679,1,-0.892943025,1,-8.451704979,1,0.006264856,1,-0.034444492,1,0.003982159,1,0.101755306,1,-0.533359706,1,-0.647732019,1,0.054945469,1,-0.037464559,1,-0.07352829,1
1.55600071,-4.808154583,1,-0.886290252,1,-8.52176857,1,0.006088848,1,-0.042735696,1,0.005695284,1,0.101782314,1,-0.533517897,1,-0.647738099,1,0.165699482,1,-0.030665398,1,-0.144397736,1
1.559999943,-4.807410717,1,-0.784785151,1,-8.54213047,1,0.013868777,1,-0.041308641,1,0.002361913,1,0.101822004,1,-0.53369385,1,-0.647734165,1,0.167924881,1,0.071083367,1,-0.165663719,1
1.56400156,-4.838454723,1,-0.724388063,1,-8.569795609,1,0.022455096,1,-0.0556885,1,-0.000374932,1,0.101902671,1,-0.533887446,1,-0.647747457,1,0.138511181,1,0.132058024,1,-0.194356918,1
1.567999005,-4.895623684,1,-0.785916269,1,-8.483006477,1,0.02985323,1,-0.053284794,1,-0.000840558,1,0.102021232,1,-0.534099281,1,-0.647777319,1,0.083125591,1,0.071415424,1,-0.108717918,1
1.571998477,-5.023363113,1,-0.946313262,1,-8.440793991,1,0.039773818,1,-0.051189531,1,-0.008087635,1,0.102183186,1,-0.534305811,1,-0.647816539,1,-0.042875767,1,-0.08773011,1,-0.067667007,1
1.575999975,-5.003647327,1,-1.041785836,1,-8.338028908,1,0.034260042,1,-0.052743651,1,-0.005479626,1,0.102352254,1,-0.534514964,1,-0.647867024,1,-0.021399498,1,-0.181893587,1,0.03391552,1
1.57999742,-5.034207344,1,-1.075128317,1,-8.333003044,1,0.033871327,1,-0.049790896,1,-0.005747932,1,0.102517962,1,-0.534718513,1,-0.647921145,1,-0.050246239,1,-0.213952601,1,0.037789345,1
1.584003091,-4.941272259,1,-1.11667335,1,-8.337162971,1,0.029111253,1,-0.055989921,1,-0.005100449,1,0.102671087,1,-0.534922063,1,-0.647967398,1,0.044401169,1,-0.254319727,1,0.032489777,1
1.588004589,-4.902638912,1,-1.057127357,1,-8.436294556,1,0.021189963,1,-0.059587758,1,-0.007684203,1,0.102800786,1,-0.535153747,1,-0.648029625,1,0.084983826,1,-0.193806827,1,-0.067903519,1
1.592002273,-4.880865097,1,-1.074736595,1,-8.483567238,1,0.019729214,1,-0.06218512,1,-0.006355618,1,0.102915123,1,-0.535394132,1,-0.648092031,1,0.108779907,1,-0.210582376,1,-0.116466522,1
1.596001744,-4.914950848,1,-1.002245784,1,-8.522075653,1,0.016176643,1,-0.069855675,1,-0.008598884,1,0.103026897,1,-0.535656691,1,-0.648158729,1,0.076902866,1,-0.137291551,1,-0.1563797,1
1.600003362,-4.932327271,1,-0.905947804,1,-8.437495232,1,0.014854994,1,-0.0751478,1,-0.002519797,1,0.103119358,1,-0.535942912,1,-0.648223877,1,0.061933041,1,-0.040367067,1,-0.073299408,1
1.604001045,-4.979633808,1,-1.014382839,1,-8.413995743,1,0.011835672,1,-0.075758234,1,-0.000183911,1,0.103199393,1,-0.536237657,1,-0.648259819,1,0.017105103,1,-0.148284256,1,-0.051333427,1
1.608000278,-5.018734455,1,-1.067035198,1,-8.319262505,1,0.014625054,1,-0.078745291,1,0.006792264,1,0.103264555,1,-0.536545455,1,-0.648283124,1,-0.019408703,1,-0.200550258,1,0.041812897,1
1.612001777,-5.137245655,1,-1.152694345,1,-8.215149879,1,0.008256803,1,-0.073235214,1,0.008451495,1,0.103317119,1,-0.536842167,1,-0.648295045,1,-0.135426044,1,-0.285922885,1,0.144405365,1
1.615999699,-5.196490765,1,-1.173476458,1,-8.140440941,1,0.002923242,1,-0.065907896,1,0.011259045,1,0.103338026,1,-0.537123382,1,-0.648290396,1,-0.192307949,1,-0.306675315,1,0.217697144,1
1.619998932,-5.296034813,1,-1.210070014,1,-8.086499214,1,-0.004243836,1,-0.064692795,1,0.010088691,1,0.103327014,1,-0.537392318,1,-0.64828074,1,-0.289591789,1,-0.343499959,1,0.270308495,1
1.624000311,-5.226173878,1,-1.250818968,1,-8.081121445,1,-0.0134211,1,-0.050048221,1,0.014954897,1,0.103273571,1,-0.537630737,1,-0.648245454,1,-0.217727661,1,-0.384818435,1,0.274544716,1
1.627997994,-5.211213112,1,-1.324333072,1,-8.135231972,1,-0.022482144,1,-0.047873124,1,0.021703996,1,0.10317339,1,-0.537837625,1,-0.648188651,1,-0.201029301,1,-0.459276438,1,0.219490051,1
1.631997228,-5.228818893,1,-1.26953125,1,-8.160928726,1,-0.031784087,1,-0.039821781,1,0.027342109,1,0.103014812,1,-0.538017035,1,-0.648100853,1,-0.217128277,1,-0.405892015,1,0.193036079,1
1.635998964,-5.296708584,1,-1.219689608,1,-8.232424736,1,-0.049735643,1,-0.041080486,1,0.03425578,1,0.102793224,1,-0.538193762,1,-0.647970736,1,-0.283533573,1,-0.35799247,1,0.120848656,1
1.639996648,-5.205278397,1,-1.127170801,1,-8.112145424,1,-0.052972347,1,-0.034777097,1,0.036863759,1,0.102509581,1,-0.538351953,1,-0.647816896,1,-0.190775394,1,-0.26792419,1,0.24058342,1
1.643995881,-5.317495823,1,-1.081495285,1,-8.200778008,1,-0.061064035,1,-0.026979253,1,0.044567633,1,0.102184825,1,-0.538494229,1,-0.647633076,1,-0.301797867,1,-0.2250337,1,0.15152359,1
1.647997499,-5.255394459,1,-0.992566764,1,-8.188765526,1,-0.06034252,1,-0.022155965,1,0.047933035,1,0.101834901,1,-0.538617492,1,-0.647431076,1,-0.238661766,1,-0.139091372,1,0.163214684,1
1.651994824,-5.229949951,1,-0.883317888,1,-8.247368813,1,-0.061010897,1,-0.016296724,1,0.051944204,1,0.101479232,1,-0.538710713,1,-0.647210717,1,-0.212434292,1,-0.032860398,1,0.104449272,1
1.655994058,-5.126406193,1,-0.857305527,1,-8.28883934,1,-0.067062341,1,-0.014373467,1,0.04397298,1,0.101102613,1,-0.538789034,1,-0.646993518,1,-0.108233929,1,-0.010033071,1,0.06291008,1
1.659995675,-5.088163853,1,-0.717834532,1,-8.325773239,1,-0.058304831,1,-0.014253533,1,0.046977796,1,0.100739993,1,-0.538851619,1,-0.646780074,1,-0.069465637,1,0.126377821,1,0.025970459,1
1.6639992,-5.174630165,1,-0.663062811,1,-8.376978874,1,-0.050993294,1,-0.007413753,1,0.044856213,1,0.100652732,1,-0.538950384,1,-0.646582961,1,-0.15510273,1,0.180370808,1,-0.025655746,1
1.667999029,-5.116961002,1,-0.722272754,1,-8.336461067,1,-0.037412126,1,-0.004429252,1,0.043108985,1,0.100370221,1,-0.538990319,1,-0.646391332,1,-0.097099304,1,0.118781507,1,0.014901161,1
1.672000527,-5.185153484,1,-0.841011882,1,-8.300029755,1,-0.024925092,1,-0.002557781,1,0.045142323,1,0.100147031,1,-0.539019585,1,-0.64618969,1,-0.165045261,1,-0.0018363,1,0.051373482,1
1.675998211,-5.169417858,1,-0.922156513,1,-8.236274719,1,-0.005813427,1,0.001250306,1,0.055377539,1,0.099966906,1,-0.53904438,1,-0.645952523,1,-0.149101257,1,-0.084497392,1,0.115158081,1
1.679997683,-5.167116165,1,-0.842881382,1,-8.240639687,1,0.008244143,1,0.007948737,1,0.055721547,1,0.099837191,1,-0.539049327,1,-0.645693779,1,-0.14675808,1,-0.0063079,1,0.110877991,1
1.683999181,-5.213806152,1,-0.752837718,1,-8.225914001,1,0.010008205,1,0.008471082,1,0.060234789,1,0.099739797,1,-0.539047897,1,-0.645417213,1,-0.193460464,1,0.082922518,1,0.125687599,1
1.687996626,-5.289296627,1,-0.716468394,1,-8.190150261,1,0.015319059,1,0.022314534,1,0.055653054,1,0.099650286,1,-0.539007843,1,-0.645146072,1,-0.269287109,1,0.118564546,1,0.161728859,1
1.691995859,-5.254347801,1,-0.745731831,1,-8.206318855,1,0.020442031,1,0.02483996,1,0.045396693,1,0.099586792,1,-0.538926482,1,-0.644893587,1,-0.235021114,1,0.088811219,1,0.146017075,1
1.695997477,-5.236721516,1,-0.866788983,1,-8.225040436,1,0.01277607,1,0.030132256,1,0.04161457,1,0.099536858,1,-0.53883034,1,-0.644676685,1,-0.218202114,1,-0.032615006,1,0.127818108,1
1.69999516,-5.218485355,1,-0.965090811,1,-8.208824158,1,0.011617362,1,0.033208907,1,0.04016874,1,0.09949062,1,-0.5387218,1,-0.644473851,1,-0.20087719,1,-0.131248713,1,0.144617081,1
1.703994393,-5.134599686,1,-0.994021356,1,-8.248653412,1,0.006039615,1,0.040667061,1,0.038739588,1,0.099425942,1,-0.538586259,1,-0.644281924,1,-0.118128777,1,-0.160651982,1,0.105519295,1
1.707995653,-5.127864838,1,-0.937321067,1,-8.249258995,1,0.001414421,1,0.043101452,1,0.03217392,1,0.099342965,1,-0.538443863,1,-0.644084692,1,-0.112590313,1,-0.104574025,1,0.105693817,1
1.711993337,-5.097343445,1,-0.91033709,1,-8.241041183,1,-0.008920857,1,0.046366863,1,0.034534182,1,0.099237964,1,-0.538287163,1,-0.64390409,1,-0.083384514,1,-0.078389406,1,0.11478138,1
1.71599257,-5.085426807,1,-0.820113599,1,-8.265733719,1,-0.004937625,1,0.047751058,1,0.032628618,1,0.099120788,1,-0.538113654,1,-0.643727839,1,-0.072924614,1,0.010940909,1,0.091051102,1
1.71999383,-5.099871159,1,-0.842928588,1,-8.236685753,1,-0.012808536,1,0.046480358,1,0.027998861,1,0.099012829,1,-0.537938118,1,-0.643565953,1,-0.088843346,1,-0.01268965,1,0.121060371,1
1.723991513,-5.110340595,1,-0.889483452,1,-8.239901543,1,-0.00870284,1,0.049434375,1,0.024486063,1,0.09890265,1,-0.537761331,1,-0.643423021,1,-0.100797653,1,-0.060077727,1,0.118819237,1
1.727990746,-5.092549801,1,-0.950961828,1,-8.257288933,1,-0.012117801,1,0.046522759,1,0.023210064,1,0.098780461,1,-0.537572324,1,-0.643281162,1,-0.084594727,1,-0.122484148,1,0.102475166,1
1.731992364,-5.094502449,1,-0.907694817,1,-8.276799202,1,-0.021598633,1,0.050358348,1,0.026176101,1,0.098642625,1,-0.537392974,1,-0.643148422,1,-0.08805418,1,-0.0802809,1,0.083971977,1
1.735990047,-5.072087288,1,-0.874528587,1,-8.238280296,1,-0.023123054,1,0.052427191,1,0.020795183,1,0.098495468,1,-0.53719008,1,-0.643025041,1,-0.067343712,1,-0.048245251,1,0.123623848,1
1.739989281,-5.043404579,1,-0.877946258,1,-8.263050079,1,-0.025925683,1,0.056188472,1,0.014534442,1,0.098344564,1,-0.536987245,1,-0.64291805,1,-0.040365219,1,-0.052824795,1,0.099990845,1
1.743996978,-5.087883472,1,-0.91303426,1,-8.283376694,1,-0.031611614,1,0.05934602,1,0.009944866,1,0.098188236,1,-0.53676796,1,-0.642828465,1,-0.086687088,1,-0.089113116,1,0.080881119,1
1.748000741,-5.111446857,1,-0.924024403,1,-8.245335579,1,-0.037188161,1,0.055903871,1,0.007968958,1,0.098012604,1,-0.536543369,1,-0.642755091,1,-0.112138271,1,-0.101462245,1,0.120184898,1
1.752000809,-5.093763351,1,-1.041693926,1,-8.293611526,1,-0.039032608,1,0.063042857,1,0.013450583,1,0.097817704,1,-0.53630352,1,-0.642675459,1,-0.096470833,1,-0.22064513,1,0.073263168,1
1.756002307,-5.065848351,1,-1.026679635,1,-8.337406158,1,-0.050143793,1,0.068679668,1,0.01076683,1,0.097593777,1,-0.536046386,1,-0.64260149,1,-0.070717812,1,-0.207379162,1,0.030931473,1
1.75999999,-5.000924587,1,-0.928063869,1,-8.397126198,1,-0.053951874,1,0.063514814,1,0.009184807,1,0.097350091,1,-0.5357849,1,-0.642524838,1,-0.007992744,1,-0.110675812,1,-0.027289391,1
1.763999462,-5.006504059,1,-0.794248462,1,-8.419412613,1,-0.055535886,1,0.069348507,1,0.010486502,1,0.097098857,1,-0.53552556,1,-0.64245069,1,-0.015753746,1,0.02116251,1,-0.048080444,1
1.76800108,-4.962388039,1,-0.704767764,1,-8.430583,1,-0.048936706,1,0.065948255,1,0.002765063,1,0.096865311,1,-0.535260856,1,-0.642401457,1,0.026135921,1,0.108815789,1,-0.057746887,1
1.771998405,-4.907222748,1,-0.652535081,1,-8.448842049,1,-0.043135572,1,0.062058795,1,-0.004053152,1,0.096668094,1,-0.534995139,1,-0.642378509,1,0.079066277,1,0.159525037,1,-0.074526787,1
1.775997996,-4.854599953,1,-0.633281946,1,-8.478989601,1,-0.033979915,1,0.061782122,1,-0.00797025,1,0.096504182,1,-0.534751892,1,-0.642379045,1,0.129641533,1,0.177522361,1,-0.103334427,1
1.779999495,-4.798623085,1,-0.606576264,1,-8.470821381,1,-0.026938301,1,0.052559361,1,-0.019127006,1,0.096399665,1,-0.534521759,1,-0.642419755,1,0.183681488,1,0.203463137,1,-0.093938828,1
1.78399694,-4.841619492,1,-0.668880999,1,-8.512400627,1,-0.013208218,1,0.048042502,1,-0.023569778,1,0.096353501,1,-0.534312069,1,-0.642485321,1,0.138920307,1,0.140872061,1,-0.134443283,1
1.787996173,-4.93129921,1,-0.671442688,1,-8.47262001,1,-0.003211922,1,0.043119427,1,-0.025233142,1,0.096367233,1,-0.534120262,1,-0.642578065,1,0.047626495,1,0.138517261,1,-0.093723297,1
1.791997671,-4.983653069,1,-0.820152879,1,-8.410782814,1,0.019100316,1,0.045741722,1,-0.013974351,1,0.096426897,1,-0.533932209,1,-0.642645538,1,-0.006310463,1,-0.009603024,1,-0.031003952,1
1.795995355,-5.026692867,1,-1.018805742,1,-8.374844551,1,0.027673712,1,0.047919221,1,-0.002015092,1,0.0965323,1,-0.533755302,1,-0.642662346,1,-0.050839901,1,-0.20728761,1,0.005726814,1
1.799994588,-5.001856327,1,-1.066425681,1,-8.339344978,1,0.03711202,1,0.055838451,1,0.005264907,1,0.09664809,1,-0.533560038,1,-0.642631769,1,-0.027647018,1,-0.253843546,1,0.042098999,1
1.803995848,-5.010133743,1,-1.102408051,1,-8.396994591,1,0.032197949,1,0.048845641,1,0.015423181,1,0.09675654,1,-0.533363223,1,-0.642566085,1,-0.037581921,1,-0.288822174,1,-0.014663696,1
1.80799365,-5.039451122,1,-1.10142374,1,-8.423150063,1,0.032123126,1,0.048047703,1,0.014618356,1,0.096844867,1,-0.533178806,1,-0.642485976,1,-0.068452835,1,-0.28700906,1,-0.039979935,1
1.811992884,-5.012557983,1,-1.039224982,1,-8.46911335,1,0.030846585,1,0.042554714,1,0.020962335,1,0.096917249,1,-0.533013999,1,-0.642381549,1,-0.042948246,1,-0.224124014,1,-0.085184097,1
1.815999985,-4.974813938,1,-0.947377026,1,-8.492030144,1,0.035023246,1,0.038640417,1,0.031686235,1,0.09698046,1,-0.532863557,1,-0.642232776,1,-0.00647068,1,-0.131673753,1,-0.107409477,1
1.820003271,-4.88127327,1,-1.027156591,1,-8.569019318,1,0.028512524,1,0.021433596,1,0.0400992,1,0.097015806,1,-0.532751203,1,-0.64205116,1,0.08612299,1,-0.211102843,1,-0.183871269,1
1.824002862,-4.843667507,1,-1.002122164,1,-8.638977051,1,0.021918418,1,-0.002771434,1,0.038698915,1,0.097020105,1,-0.532719016,1,-0.641864717,1,0.123457909,1,-0.186016917,1,-0.253673553,1
1.828004599,-4.935301781,1,-0.854250789,1,-8.584524155,1,0.006502624,1,-0.017834954,1,0.029658992,1,0.096991785,1,-0.532761872,1,-0.641706467,1,0.032183647,1,-0.038403571,1,-0.199409485,1
1.832002282,-5.010528564,1,-0.850514889,1,-8.513730049,1,0.007560729,1,-0.022321332,1,0.024328178,1,0.096960947,1,-0.532855332,1,-0.641584158,1,-0.042254925,1,-0.034971297,1,-0.129053116,1
1.836001515,-5.031293392,1,-0.861858785,1,-8.482694626,1,0.003393131,1,-0.028397743,1,0.013708726,1,0.09694735,1,-0.53295815,1,-0.641507983,1,-0.062153816,1,-0.04647857,1,-0.098513603,1
1.840003014,-5.017860413,1,-0.781056523,1,-8.455512047,1,0.003493083,1,-0.026173005,1,0.002788242,1,0.096939087,1,-0.533072233,1,-0.641473413,1,-0.047759533,1,0.034199595,1,-0.071888924,1
1.844000816,-5.017130852,1,-0.764359236,1,-8.512747765,1,0.004277986,1,-0.030492533,1,-0.001632915,1,0.096964411,1,-0.533186972,1,-0.641472042,1,-0.0460639,1,0.051053524,1,-0.129716873,1
1.84800005,-5.019534111,1,-0.827850699,1,-8.453775406,1,0.013079158,1,-0.027372839,1,-0.01304724,1,0.097028486,1,-0.533295393,1,-0.641520083,1,-0.047554016,1,-0.011952758,1,-0.071331024,1
1.852001548,-5.013017178,1,-0.958945513,1,-8.482363701,1,0.017889975,1,-0.030109785,1,-0.007326531,1,0.097126462,1,-0.533401191,1,-0.641588807,1,-0.040145874,1,-0.14227736,1,-0.100522995,1
1.855998993,-5.079653263,1,-0.934046268,1,-8.490802765,1,0.020321248,1,-0.02400328,1,-0.015481221,1,0.09724436,1,-0.53350085,1,-0.64166379,1,-0.105942249,1,-0.116438031,1,-0.109552383,1
1.859998465,-5.015035152,1,-0.902048707,1,-8.477656364,1,0.026201986,1,-0.020246021,1,-0.01698444,1,0.097379133,1,-0.533582687,1,-0.641747057,1,-0.040636063,1,-0.083350301,1,-0.09691906,1
1.863999963,-4.979168415,1,-0.880058527,1,-8.508221626,1,0.027362993,1,-0.023429995,1,-0.023836657,1,0.097536169,1,-0.533665478,1,-0.641848803,1,-0.004071712,1,-0.060084105,1,-0.128022194,1
1.867997646,-4.97102499,1,-0.855167449,1,-8.527087212,1,0.030890267,1,-0.024318917,1,-0.030530307,1,0.097718492,1,-0.533759356,1,-0.641985655,1,0.004861832,1,-0.033711255,1,-0.147506714,1
1.871997237,-5.010940552,1,-0.82060051,1,-8.498683929,1,0.032148983,1,-0.02920505,1,-0.035198294,1,0.097924031,1,-0.533851981,1,-0.642152369,1,-0.034273148,1,0.002533197,1,-0.119729042,1
1.875998735,-4.930130959,1,-0.7483145,1,-8.534586906,1,0.036137126,1,-0.029841363,1,-0.041710086,1,0.098152682,1,-0.533948779,1,-0.64233458,1,0.047350883,1,0.076687813,1,-0.156299591,1
1.879996181,-4.988188267,1,-0.821309149,1,-8.444853783,1,0.035833072,1,-0.032992925,1,-0.044063855,1,0.098399602,1,-0.534053624,1,-0.64254421,1,-0.009823799,1,0.005710661,1,-0.067290306,1
1.883995891,-5.025083065,1,-0.93136847,1,-8.448783875,1,0.034088813,1,-0.034012318,1,-0.050999079,1,0.098662518,1,-0.534169674,1,-0.642780244,1,-0.045742035,1,-0.102202833,1,-0.072010994,1
1.887997389,-5.017663956,1,-1.068272948,1,-8.421660423,1,0.036721535,1,-0.034861691,1,-0.052392956,1,0.098934576,1,-0.534281909,1,-0.643028259,1,-0.037377357,1,-0.236883581,1,-0.045670509,1
1.89199543,-4.975474834,1,-1.131005049,1,-8.392442703,1,0.030020762,1,-0.038548663,1,-0.046920594,1,0.099186666,1,-0.534411907,1,-0.643275857,1,0.005905628,1,-0.297568381,1,-0.017307281,1
1.895994663,-4.926573753,1,-1.040410399,1,-8.481402397,1,0.029648453,1,-0.042111717,1,-0.043997757,1,0.099418566,1,-0.534558356,1,-0.64350915,1,0.056039333,1,-0.205104172,1,-0.107188225,1
1.900008202,-4.857216358,1,-0.860677779,1,-8.53196907,1,0.020569613,1,-0.047294203,1,-0.046109661,1,0.099637933,1,-0.534712076,1,-0.643737495,1,0.126689911,1,-0.023610771,1,-0.158700943,1
1.904017925,-4.91210413,1,-0.708507776,1,-8.604333878,1,0.03261368,1,-0.049936563,1,-0.0422922,1,0.099857353,1,-0.534880221,1,-0.643955708,1,0.073217392,1,0.130313098,1,-0.232082367,1
1.908023834,-4.969538689,1,-0.660337567,1,-8.531235695,1,0.039287724,1,-0.045582447,1,-0.04030589,1,0.100120388,1,-0.535055637,1,-0.644168913,1,0.017258644,1,0.18059808,1,-0.160075188,1
1.912025571,-4.991926193,1,-0.793053091,1,-8.440328598,1,0.050590876,1,-0.044917755,1,-0.037754364,1,0.100481436,1,-0.535270274,1,-0.644402981,1,-0.003323555,1,0.050797462,1,-0.070536613,1
1.916023493,-5.00823307,1,-0.9737764,1,-8.378362656,1,0.054825306,1,-0.042373162,1,-0.035545707,1,0.100794546,1,-0.535430729,1,-0.644387484,1,-0.018280506,1,-0.127385795,1,-0.009632111,1
1.920023322,-5.012130737,1,-1.032923102,1,-8.307516098,1,0.053223521,1,-0.050228227,1,-0.033479925,1,0.101104937,1,-0.535596073,1,-0.644570529,1,-0.020787239,1,-0.184018075,1,0.060132027,1
1.92402482,-5.033424377,1,-1.0338974,1,-8.369782448,1,0.046845883,1,-0.058015749,1,-0.033426613,1,0.101397038,1,-0.535787284,1,-0.644744515,1,-0.040472507,1,-0.182644844,1,-0.003333092,1
1.928022504,-4.992861748,1,-0.993664205,1,-8.383286476,1,0.038912274,1,-0.066760145,1,-0.042571381,1,0.101684913,1,-0.536028922,1,-0.644960046,1,0.002121925,1,-0.14012605,1,-0.018286705,1
1.932021976,-4.940492153,1,-0.940503955,1,-8.35409832,1,0.030752318,1,-0.090783373,1,-0.053846721,1,0.10195072,1,-0.536322892,1,-0.64520824,1,0.056962967,1,-0.084891558,1,0.009216309,1
1.936023831,-5.03866291,1,-0.876970947,1,-8.311263084,1,0.026559949,1,-0.099230461,1,-0.054899942,1,0.10221073,1,-0.536677539,1,-0.645491421,1,-0.038226604,1,-0.019365251,1,0.05006218,1
1.940021515,-5.086921692,1,-0.798873246,1,-8.273083687,1,0.024506956,1,-0.105681583,1,-0.06243052,1,0.102483407,1,-0.537064672,1,-0.645817459,1,-0.083231926,1,0.060814261,1,0.086081505,1
1.944020987,-5.104275703,1,-0.801867485,1,-8.193669319,1,0.026975116,1,-0.104628049,1,-0.070245191,1,0.102770105,1,-0.537449956,1,-0.646166742,1,-0.097348213,1,0.060018957,1,0.163332939,1
1.948022485,-5.171268463,1,-0.827021956,1,-8.199367523,1,0.030060621,1,-0.098183632,1,-0.073048584,1,0.103073299,1,-0.537819922,1,-0.646541357,1,-0.161233425,1,0.037207723,1,0.15553093,1
1.952020168,-5.089080811,1,-0.886172473,1,-8.228319168,1,0.038139366,1,-0.092121944,1,-0.076412894,1,0.103415743,1,-0.538153231,1,-0.646933079,1,-0.076246262,1,-0.019254208,1,0.124621391,1
1.956019759,-5.224252701,1,-0.817806482,1,-8.171487808,1,0.035712488,1,-0.081057914,1,-0.078314751,1,0.103775345,1,-0.538479328,1,-0.647332907,1,-0.20868063,1,0.051946104,1,0.179514885,1
1.960021257,-5.15184927,1,-0.658685148,1,-8.268600464,1,0.038935065,1,-0.075101674,1,-0.080899209,1,0.104139775,1,-0.538766921,1,-0.647749126,1,-0.133862019,1,0.213960648,1,0.080648422,1
1.964018941,-5.107988358,1,-0.594508469,1,-8.21935463,1,0.054017805,1,-0.066594526,1,-0.085684955,1,0.104544885,1,-0.539013922,1,-0.64817065,1,-0.087927818,1,0.281390369,1,0.128308296,1
1.968018651,-5.12512064,1,-0.728171825,1,-8.213479042,1,0.058218166,1,-0.056423582,1,-0.093891762,1,0.105006285,1,-0.539219737,1,-0.648624301,1,-0.10333252,1,0.151470065,1,0.132749557,1
1.972020268,-5.152227879,1,-0.814393163,1,-8.217142105,1,0.065221548,1,-0.048660781,1,-0.102815896,1,0.105505422,1,-0.539389551,1,-0.64910233,1,-0.129015446,1,0.069324851,1,0.127799034,1
1.976017952,-5.198360443,1,-0.962153554,1,-8.198871613,1,0.070677385,1,-0.031560924,1,-0.100541174,1,0.106020279,1,-0.539508283,1,-0.649586797,1,-0.174150944,1,-0.07420224,1,0.145021439,1
1.980023861,-5.14375782,1,-1.073692441,1,-8.196304321,1,0.068218097,1,-0.026813392,1,-0.10299965,1,0.106547281,1,-0.539591134,1,-0.65007484,1,-0.118853569,1,-0.181388259,1,0.146705627,1
1.984025598,-5.132406235,1,-1.124625683,1,-8.217144966,1,0.060040124,1,-0.017868008,1,-0.094200894,1,0.107038103,1,-0.539637864,1,-0.650541425,1,-0.107109547,1,-0.228252232,1,0.125188828,1
1.988023281,-5.117866993,1,-1.120834947,1,-8.301823616,1,0.057555035,1,-0.012315213,1,-0.093636662,1,0.107506171,1,-0.539661586,1,-0.650994539,1,-0.092371464,1,-0.220569253,1,0.039974213,1
1.992022514,-5.079575062,1,-1.120800138,1,-8.336496353,1,0.048068471,1,-0.01161647,1,-0.090826295,1,0.107942186,1,-0.539660573,1,-0.651431799,1,-0.054087639,1,-0.216897249,1,0.004909515,1
1.996024013,-5.084464073,1,-1.099459887,1,-8.322165489,1,0.047505923,1,-0.004452652,1,-0.08877898,1,0.108351357,1,-0.539655268,1,-0.651843131,1,-0.059020996,1,-0.192140698,1,0.018899918,1
2.000021696,-5.063967228,1,-1.156624317,1,-8.324403763,1,0.047550395,1,-0.002875793,1,-0.088212945,1,0.10875158,1,-0.539637029,1,-0.652248323,1,-0.038677692,1,-0.245957017,1,0.016388893,1
2.004021168,-5.091277122,1,-1.186244011,1,-8.302412033,1,0.04662022,1,-0.003775078,1,-0.082321703,1,0.109130733,1,-0.539616704,1,-0.65263921,1,-0.066158295,1,-0.272403538,1,0.038133621,1
2.008022785,-5.021836758,1,-1.106735826,1,-8.322137833,1,0.033455022,1,-0.002681092,1,-0.076415926,1,0.109475441,1,-0.539593995,1,-0.653005242,1,0.003091335,1,-0.190007567,1,0.018208504,1
2.012020588,-5.090919018,1,-1.117383242,1,-8.364201546,1,0.037415095,1,0.00498616,1,-0.075813301,1,0.109804124,1,-0.539562762,1,-0.653357267,1,-0.066252708,1,-0.1978966,1,-0.024002075,1
2.01602006,-5.079755783,1,-1.119591355,1,-8.309535027,1,0.036933616,1,0.004483486,1,-0.067743488,1,0.110117443,1,-0.539521694,1,-0.653691411,1,-0.05543375,1,-0.197468758,1,0.030582428,1
2.0200212,-5.157434464,1,-1.066208005,1,-8.315756798,1,0.031996496,1,0.003708732,1,-0.066946559,1,0.110411093,1,-0.539467931,1,-0.653997898,1,-0.133563519,1,-0.14160651,1,0.024358749,1
2.024019003,-5.245713234,1,-1.076829791,1,-8.269363403,1,0.03078728,1,0.012048934,1,-0.066711821,1,0.110693723,1,-0.539401174,1,-0.654306173,1,-0.222402573,1,-0.149834275,1,0.070822716,1
2.028018475,-5.241182804,1,-1.05654645,1,-8.240016937,1,0.032324724,1,0.023034792,1,-0.064007968,1,0.110970102,1,-0.539293408,1,-0.65459609,1,-0.21877718,1,-0.127185881,1,0.100451469,1
2.03202033,-5.106796741,1,-1.103442073,1,-8.232163429,1,0.030330291,1,0.026438523,1,-0.063346975,1,0.11123956,1,-0.53916657,1,-0.654874325,1,-0.085455418,1,-0.17176348,1,0.108687401,1
2.036017895,-4.902975082,1,-1.130486131,1,-8.350991249,1,0.024338713,1,0.033530027,1,-0.053156208,1,0.111476444,1,-0.539022326,1,-0.655129135,1,0.117156029,1,-0.196751773,1,-0.009647369,1
2.040017128,-4.89478159,1,-1.030868053,1,-8.421154976,1,0.021610431,1,0.025654871,1,-0.051737864,1,0.111685343,1,-0.538893759,1,-0.655355453,1,0.124270439,1,-0.095318973,1,-0.079362869,1
2.044018984,-5.041223049,1,-0.808177531,1,-8.479120255,1,0.024124844,1,0.023330357,1,-0.048528742,1,0.111881286,1,-0.538773954,1,-0.655562937,1,-0.023177147,1,0.129073441,1,-0.136912346,1
2.048016548,-4.973331451,1,-0.7058599,1,-8.475002289,1,0.028946878,1,0.023467995,1,-0.051194903,1,0.112106219,1,-0.538654864,1,-0.655785501,1,0.043715,1,0.233334303,1,-0.132411003,1
2.052016497,-5.011721611,1,-0.759231389,1,-8.511036873,1,0.042835928,1,0.024700277,1,-0.052776583,1,0.112373143,1,-0.538540125,1,-0.656017303,1,0.004361629,1,0.182254136,1,-0.168124199,1
2.056017876,-4.972866058,1,-0.914150774,1,-8.411146164,1,0.04734762,1,0.017422032,1,-0.05538708,1,0.11268048,1,-0.538438976,1,-0.656263292,1,0.042367935,1,0.029955804,1,-0.068019867,1
2.0600214,-4.994741917,1,-1.081761122,1,-8.33148098,1,0.044784404,1,0.015144764,1,-0.051797189,1,0.112998545,1,-0.538339972,1,-0.656507313,1,0.019660473,1,-0.134944975,1,0.011837006,1
2.064021349,-5.053913116,1,-1.091591597,1,-8.351471901,1,0.048536569,1,0.012369726,1,-0.050983455,1,0.113316044,1,-0.538259923,1,-0.656746984,1,-0.04018259,1,-0.142080963,1,-0.00805378,1
2.068022728,-5.017789841,1,-1.017616153,1,-8.430841446,1,0.043291934,1,0.013283106,1,-0.058383059,1,0.113630146,1,-0.538176239,1,-0.656999469,1,-0.00476265,1,-0.065437257,1,-0.087305069,1
2.072020531,-4.978566647,1,-0.899047732,1,-8.491415024,1,0.04892429,1,0.011153215,1,-0.05837832,1,0.113959126,1,-0.538097739,1,-0.657256126,1,0.033801556,1,0.05592072,1,-0.147801399,1
2.076020002,-4.955738544,1,-0.876547217,1,-8.540267944,1,0.053661741,1,0.00744326,1,-0.065509491,1,0.114303455,1,-0.538041115,1,-0.657533765,1,0.056153774,1,0.081326187,1,-0.196704865,1
2.08002162,-4.903059483,1,-0.943800688,1,-8.532052994,1,0.059271887,1,0.001866232,1,-0.066040248,1,0.114678323,1,-0.537998497,1,-0.657831192,1,0.108475685,1,0.017224848,1,-0.18863678,1
2.084018946,-4.951249599,1,-1.075457692,1,-8.443710327,1,0.059056655,1,-0.003649113,1,-0.067301422,1,0.115069471,1,-0.537969768,1,-0.65813458,1,0.060044289,1,-0.111152232,1,-0.100527763,1
2.088018179,-5.003324986,1,-1.173055768,1,-8.445973396,1,0.059170492,1,-0.005154997,1,-0.060546115,1,0.115459628,1,-0.537957251,1,-0.658435225,1,0.007863045,1,-0.205488026,1,-0.103105545,1
2.092019796,-5.053447723,1,-1.189720154,1,-8.441127777,1,0.056260392,1,-0.01164176,1,-0.061203342,1,0.115846775,1,-0.537961364,1,-0.658732414,1,-0.042224884,1,-0.21892494,1,-0.098655701,1
2.096017361,-5.066657543,1,-1.117030978,1,-8.456005096,1,0.05383011,1,-0.011730278,1,-0.062366109,1,0.116217703,1,-0.537971616,1,-0.659028053,1,-0.055348873,1,-0.143147469,1,-0.113945961,1
2.100017071,-5.049909115,1,-0.924859047,1,-8.435815811,1,0.062067375,1,-0.016358465,1,-0.067273118,1,0.11660777,1,-0.53800416,1,-0.659336329,1,-0.038326263,1,0.052259326,1,-0.094299316,1
2.10401845,-4.978417873,1,-0.746780992,1,-8.461010933,1,0.065178603,1,-0.024481338,1,-0.071248412,1,0.117031679,1,-0.538054943,1,-0.65966773,1,0.03359127,1,0.233843923,1,-0.120160103,1
2.108016014,-4.863338947,1,-0.627234519,1,-8.458557129,1,0.073607646,1,-0.02794309,1,-0.077210568,1,0.117489524,1,-0.538123131,1,-0.660023749,1,0.149242401,1,0.357169032,1,-0.118494987,1
2.112015724,-4.863829136,1,-0.659034908,1,-8.397977829,1,0.090859279,1,-0.033758987,1,-0.090567745,1,0.118012376,1,-0.538201809,1,-0.660421789,1,0.149412632,1,0.329682589,1,-0.058823586,1
2.116017342,-4.933560371,1,-0.755979955,1,-8.365674019,1,0.094768196,1,-0.040106285,1,-0.10233511,1,0.118611246,1,-0.538299739,1,-0.660871327,1,0.080503941,1,0.237673461,1,-0.027600288,1
2.120015144,-5.024796009,1,-0.876264036,1,-8.228779793,1,0.10780485,1,-0.033742551,1,-0.109340347,1,0.119270682,1,-0.538393676,1,-0.661370695,1,-0.009943008,1,0.122831583,1,0.108170509,1
2.124014616,-5.082681656,1,-1.076263905,1,-8.180376053,1,0.109087199,1,-0.031938285,1,-0.112672135,1,0.119977795,1,-0.538469553,1,-0.661910117,1,-0.067190647,1,-0.071318984,1,0.155487061,1
2.128016233,-5.162684441,1,-1.303874969,1,-8.134846687,1,0.106288373,1,-0.02819556,1,-0.119576164,1,0.120684877,1,-0.538533628,1,-0.662461996,1,-0.146656036,1,-0.293074727,1,0.19998455,1
2.132013798,-5.146857262,1,-1.461665988,1,-8.138302803,1,0.09784583,1,-0.021278609,1,-0.114719599,1,0.121387906,1,-0.538573027,1,-0.663017809,1,-0.130497932,1,-0.445030212,1,0.195619583,1
2.13601923,-5.12985754,1,-1.614689589,1,-8.181548119,1,0.086690992,1,-0.01652253,1,-0.111530885,1,0.122042932,1,-0.538585901,1,-0.663555622,1,-0.113389969,1,-0.592603326,1,0.151639938,1
2.140021086,-5.108323097,1,-1.690576911,1,-8.183873177,1,0.075222999,1,-0.007723153,1,-0.104608722,1,0.122629471,1,-0.538575649,1,-0.664066374,1,-0.091941833,1,-0.66359663,1,0.148767471,1
2.144018888,-5.191445827,1,-1.723844528,1,-8.1980896,1,0.059022754,1,-0.002932338,1,-0.094871186,1,0.123143308,1,-0.53854984,1,-0.66452843,1,-0.175281048,1,-0.692566872,1,0.134150505,1
2.148018122,-5.222587109,1,-1.772498012,1,-8.226753235,1,0.043511815,1,0.00020822,1,-0.081926711,1,0.123566754,1,-0.538508177,1,-0.664939404,1,-0.206772804,1,-0.737666249,1,0.105257988,1
2.152019739,-5.206403255,1,-1.771097064,1,-8.251870155,1,0.0285076,1,0.008266678,1,-0.071051724,1,0.123888679,1,-0.538448691,1,-0.665287614,1,-0.191087723,1,-0.733546138,1,0.080102921,1
2.156017065,-5.191591263,1,-1.794473171,1,-8.327036858,1,0.011152562,1,0.019062702,1,-0.049849819,1,0.124113716,1,-0.538365662,1,-0.665566921,1,-0.176972866,1,-0.754995704,1,0.005116463,1
2.160016537,-5.206476688,1,-1.846021056,1,-8.280042648,1,-0.002354651,1,0.025521304,1,-0.037849177,1,0.12423896,1,-0.53826046,1,-0.665765584,1,-0.192742348,1,-0.805434585,1,0.052504539,1
2.164018154,-5.217636585,1,-1.938346982,1,-8.29598999,1,-0.025562217,1,0.031144043,1,-0.016530849,1,0.12445619,1,-0.538202047,1,-0.665869117,1,-0.204392433,1,-0.895914555,1,0.036617279,1
2.168015957,-5.266765594,1,-1.891157269,1,-8.305070877,1,-0.046114385,1,0.04454802,1,0.004080123,1,0.12431924,1,-0.538043618,1,-0.665879428,1,-0.254851818,1,-0.849767804,1,0.028466225,1
2.172015429,-5.240415096,1,-1.798323512,1,-8.326529503,1,-0.069127686,1,0.046255756,1,0.018362761,1,0.124052845,1,-0.537863016,1,-0.665803552,1,-0.230018139,1,-0.759041905,1,0.008183479,1
2.176016808,-5.189279556,1,-1.553704619,1,-8.355066299,1,-0.080942094,1,0.044989146,1,0.025587229,1,0.12367823,1,-0.537684798,1,-0.665671766,1,-0.180379391,1,-0.517434955,1,-0.019075394,1
2.18001461,-5.097779751,1,-1.157041788,1,-8.414608002,1,-0.084844895,1,0.039679628,1,0.02548934,1,0.123264514,1,-0.537527263,1,-0.665523529,1,-0.090202808,1,-0.12412405,1,-0.077406883,1
2.184013844,-4.991641045,1,-0.793533802,1,-8.460645676,1,-0.077044934,1,0.034532376,1,0.012635285,1,0.122885324,1,-0.537386358,1,-0.66540885,1,0.014751911,1,0.236309052,1,-0.1223526,1
2.188015461,-4.90388298,1,-0.362263083,1,-8.607566833,1,-0.056970015,1,0.021712877,1,-0.003136805,1,0.122585364,1,-0.537276685,1,-0.665367961,1,0.101588249,1,0.665145874,1,-0.268420219,1
2.192013025,-4.808958054,1,0.015443606,1,-8.739592552,1,-0.025074804,1,0.005075372,1,-0.024152158,1,0.122448362,1,-0.537215233,1,-0.665415049,1,0.195996761,1,1.041747451,1,-0.399999619,1
2.196012497,-4.741436481,1,0.24127008,1,-8.803011894,1,0.010229724,1,-0.009916904,1,-0.044166539,1,0.122500025,1,-0.537203729,1,-0.66558063,1,0.263422012,1,1.268011332,1,-0.463418961,1
2.200014114,-4.776066303,1,0.1201322,1,-8.849219322,1,0.04533226,1,-0.023855574,1,-0.070074633,1,0.122751527,1,-0.537241936,1,-0.665856421,1,0.229113102,1,1.148947597,1,-0.510074615,1
2.204011917,-4.823505878,1,-0.207205504,1,-8.819268227,1,0.076361567,1,-0.037293877,1,-0.08570087,1,0.123198479,1,-0.537323892,1,-0.666231871,1,0.182361603,1,0.825286627,1,-0.480989456,1
2.208011627,-4.921355724,1,-0.291467994,1,-8.743030548,1,0.104343779,1,-0.046213988,1,-0.09708941,1,0.123795561,1,-0.537451029,1,-0.666687906,1,0.085580349,1,0.745924234,1,-0.406000137,1
2.212013006,-4.914636135,1,-0.399879992,1,-8.762234688,1,0.123818047,1,-0.051527109,1,-0.10870491,1,0.12451259,1,-0.537587643,1,-0.667197764,1,0.093448162,1,0.64340502,1,-0.426628113,1
2.216016531,-4.895279884,1,-0.389374077,1,-8.65467453,1,0.141841128,1,-0.060824703,1,-0.113743916,1,0.125328407,1,-0.537758887,1,-0.667749703,1,0.114242077,1,0.660603225,1,-0.320775986,1
2.220016241,-4.833437443,1,-0.537688434,1,-8.595066071,1,0.160536483,1,-0.078229621,1,-0.12256676,1,0.126239643,1,-0.537976682,1,-0.668338358,1,0.177914143,1,0.519745529,1,-0.263209343,1
2.22401762,-4.894691467,1,-0.811783731,1,-8.586749077,1,0.175490707,1,-0.084494792,1,-0.128259644,1,0.127241939,1,-0.538232267,1,-0.668968201,1,0.118806362,1,0.253837645,1,-0.257228851,1
2.228015423,-4.962968349,1,-1.2453444,1,-8.455057144,1,0.186306551,1,-0.092713714,1,-0.122646406,1,0.128286138,1,-0.538511038,1,-0.669602931,1,0.05287075,1,-0.171204686,1,-0.128040314,1
2.232014656,-5.092564583,1,-1.732254028,1,-8.347048759,1,0.173402667,1,-0.09200412,1,-0.110996753,1,0.129322708,1,-0.538809359,1,-0.670208573,1,-0.074221134,1,-0.649676085,1,-0.022632599,1
2.236016273,-5.1679039,1,-2.093852758,1,-8.282664299,1,0.150092065,1,-0.09443263,1,-0.098143294,1,0.130243093,1,-0.539128184,1,-0.670741618,1,-0.146884918,1,-1.003821731,1,0.039162636,1
2.240014076,-5.118837833,1,-2.151353121,1,-8.233201027,1,0.126186952,1,-0.102278039,1,-0.074307248,1,0.131025612,1,-0.539471328,1,-0.671191752,1,-0.094938755,1,-1.055035353,1,0.086064339,1
2.244013548,-5.05954361,1,-1.929293513,1,-8.302791595,1,0.103418373,1,-0.108781882,1,-0.066495359,1,0.131683975,1,-0.539851367,1,-0.671583056,1,-0.032456398,1,-0.827749252,1,0.013859749,1
2.248015165,-5.023912907,1,-1.589094639,1,-8.337263107,1,0.089008279,1,-0.117404379,1,-0.054853193,1,0.132246032,1,-0.540274739,1,-0.671926439,1,0.006726265,1,-0.483157396,1,-0.023346901,1
2.25201273,-5.060994148,1,-1.298401952,1,-8.393135071,1,0.081282355,1,-0.130127862,1,-0.048807714,1,0.132754356,1,-0.540743172,1,-0.672254086,1,-0.026426792,1,-0.188550591,1,-0.082117081,1
2.256012201,-5.049715042,1,-1.371219754,1,-8.310685158,1,0.083015442,1,-0.135110959,1,-0.042803656,1,0.133233175,1,-0.541244626,1,-0.672547281,1,-0.01094389,1,-0.257724404,1,-0.002701759,1
2.260013819,-5.211809635,1,-1.480430841,1,-8.243925095,1,0.073385671,1,-0.13341172,1,-0.044268016,1,0.133691877,1,-0.541751623,1,-0.672831357,1,-0.168789387,1,-0.363466024,1,0.061009407,1
2.264011383,-5.268248558,1,-1.672402501,1,-8.198477745,1,0.064418234,1,-0.122581013,1,-0.033173949,1,0.134108424,1,-0.542249739,1,-0.673092127,1,-0.221055031,1,-0.552313805,1,0.103504181,1
2.268010855,-5.260894299,1,-1.656028748,1,-8.193056107,1,0.055130269,1,-0.116388708,1,-0.017921543,1,0.134438664,1,-0.542716682,1,-0.673279762,1,-0.209789753,1,-0.53351438,1,0.106220245,1
2.272012234,-5.206161022,1,-1.820379853,1,-8.169246674,1,0.045027655,1,-0.105835184,1,-0.009295325,1,0.134718403,1,-0.543154895,1,-0.673412681,1,-0.151386738,1,-0.695841789,1,0.127516747,1
2.276010036,-5.205926418,1,-1.766813159,1,-8.189065933,1,0.028424168,1,-0.101620674,1,0.002566377,1,0.13489747,1,-0.543563724,1,-0.673490226,1,-0.14772892,1,-0.641067147,1,0.105449677,1
2.28000927,-5.225759506,1,-1.62195158,1,-8.193989754,1,0.011831843,1,-0.089623377,1,0.011401537,1,0.134988353,1,-0.54395014,1,-0.673522174,1,-0.164328575,1,-0.495714903,1,0.098485947,1
2.284010649,-5.23901701,1,-1.530153036,1,-8.210775375,1,0.004596063,1,-0.082808748,1,0.022783514,1,0.135001466,1,-0.544299245,1,-0.673492074,1,-0.174664974,1,-0.404045582,1,0.07993412,1
2.288008451,-5.226424217,1,-1.570517659,1,-8.205789566,1,-0.010197231,1,-0.077482104,1,0.033372961,1,0.134945378,1,-0.544626594,1,-0.673408985,1,-0.159332752,1,-0.445098042,1,0.083340645,1
2.292007923,-5.21905756,1,-1.561000824,1,-8.204227448,1,-0.015562871,1,-0.070256844,1,0.038265292,1,0.134833679,1,-0.544940531,1,-0.673296988,1,-0.149341106,1,-0.436720848,1,0.083452225,1
2.296015978,-5.132436752,1,-1.561973691,1,-8.260968208,1,-0.024098091,1,-0.076208569,1,0.047773812,1,0.134679154,1,-0.545251191,1,-0.673154116,1,-0.060121536,1,-0.439185977,1,0.025324821,1
2.300019979,-5.126004219,1,-1.623340607,1,-8.374079704,1,-0.042303741,1,-0.074849963,1,0.059009667,1,0.134453952,1,-0.545571327,1,-0.672958553,1,-0.051012993,1,-0.502637148,1,-0.089146614,1
2.304020166,-5.059896469,1,-1.633167982,1,-8.402787209,1,-0.049082518,1,-0.075801246,1,0.060619693,1,0.134160608,1,-0.545902908,1,-0.6727314,1,0.017866611,1,-0.515119672,1,-0.11919117,1
2.308021545,-4.744270325,1,-1.532648325,1,-8.516343117,1,-0.080080248,1,-0.103966109,1,0.052424919,1,0.133789957,1,-0.546282828,1,-0.672509968,1,0.336668015,1,-0.417927742,1,-0.234244347,1
2.31201911,-4.687945843,1,-0.884643197,1,-8.512637138,1,-0.071347497,1,-0.135911271,1,0.025201872,1,0.133415297,1,-0.546782076,1,-0.672410071,1,0.397164822,1,0.226636648,1,-0.232637405,1
2.316018343,-4.44087553,1,-0.587484419,1,-8.761079788,1,-0.072696313,1,-0.171688199,1,-0.01419899,1,0.133177251,1,-0.547391355,1,-0.672486484,1,0.649323463,1,0.521412671,1,-0.48388958,1
2.32001996,-4.162844658,1,-0.527304769,1,-9.122241974,1,-0.088326238,1,-0.211201176,1,-0.047732916,1,0.132992238,1,-0.548122466,1,-0.67274797,1,0.933458328,1,0.579566836,1,-0.848539352,1
2.324017763,-4.261093616,1,-0.327842414,1,-9.148281097,1,-0.083898075,1,-0.240177631,1,-0.076613843,1,0.132872447,1,-0.548985362,1,-0.673181832,1,0.842411041,1,0.777455628,1,-0.878805161,1
2.328017235,-4.307993889,1,-0.352026075,1,-9.25067234,1,-0.110458001,1,-0.263751924,1,-0.115793809,1,0.132794961,1,-0.549928904,1,-0.673783123,1,0.803380489,1,0.751992941,1,-0.985887527,1
2.332018852,-4.160450459,1,-0.114334725,1,-9.456954956,1,-0.103688903,1,-0.300349265,1,-0.134584114,1,0.132768497,1,-0.550975263,1,-0.674531937,1,0.959645748,1,0.988756776,1,-1.19744873,1
2.336016655,-4.455551147,1,0.011589018,1,-9.302853584,1,-0.099647582,1,-0.339461029,1,-0.155487373,1,0.132815912,1,-0.552166402,1,-0.675408065,1,0.67446661,1,1.114263892,1,-1.049448013,1
2.340016127,-4.535908222,1,-0.113732576,1,-9.483909607,1,-0.067548737,1,-0.381047934,1,-0.163240969,1,0.132981017,1,-0.553505182,1,-0.676376164,1,0.60525322,1,0.989393711,1,-1.237499237,1
2.344017982,-4.558573723,1,-0.389220059,1,-9.491558075,1,-0.005513924,1,-0.418454528,1,-0.159431279,1,0.133370027,1,-0.555000007,1,-0.677382588,1,0.595018387,1,0.716090143,1,-1.253209114,1
2.348015547,-4.535689354,1,-0.525211811,1,-9.42599678,1,0.038816124,1,-0.455985487,1,-0.155398369,1,0.133956835,1,-0.556652904,1,-0.678392768,1,0.631635189,1,0.58379364,1,-1.19674778,1
2.352015018,-4.407565594,1,-1.507894993,1,-9.46335125,1,0.050210323,1,-0.500023663,1,-0.144678637,1,0.134703219,1,-0.558466494,1,-0.679395437,1,0.774809837,1,-0.39400816,1,-1.244234085,1
2.356016874,-4.556048393,1,-1.872571349,1,-9.665779114,1,-0.010936888,1,-0.556563795,1,-0.133602008,1,0.135301366,1,-0.560485303,1,-0.680389285,1,0.643061161,1,-0.755181789,1,-1.457712173,1
2.360014677,-4.544020653,1,-0.662553608,1,-9.537909508,1,0.02418405,1,-0.591013074,1,-0.126072854,1,0.135806426,1,-0.562690794,1,-0.681357265,1,0.673345089,1,0.457426012,1,-1.341790199,1
2.364014149,-4.170503616,1,-1.104175687,1,-9.50392437,1,0.065905437,1,-0.648527145,1,-0.108110145,1,0.136510864,1,-0.56507504,1,-0.682299435,1,1.066571712,1,0.019881248,1,-1.320942879,1
2.368015528,-4.629018307,1,-1.959643722,1,-9.618587494,1,0.037144445,1,-0.703076243,1,-0.082682431,1,0.137199819,1,-0.56771034,1,-0.68318218,1,0.629805565,1,-0.831840873,1,-1.450082779,1
2.372019291,-4.581112862,1,-2.199604988,1,-9.838510513,1,-0.012515986,1,-0.761778653,1,-0.068119675,1,0.137691155,1,-0.570567071,1,-0.684007347,1,0.701245785,1,-1.069855452,1,-1.685474396,1
2.376018763,-4.606845379,1,-1.698428392,1,-9.785243034,1,-0.020755144,1,-0.81844008,1,-0.042343576,1,0.138031662,1,-0.573675275,1,-0.684792995,1,0.701070786,1,-0.568167806,1,-1.648896217,1
2.380020142,-4.588286877,1,-1.570653319,1,-10.0424099,1,-0.008913456,1,-0.89618665,1,-0.015297122,1,0.138345003,1,-0.577043772,1,-0.685489655,1,0.74726963,1,-0.440315247,1,-1.924173355,1
2.384017944,-4.296188831,1,-1.800596356,1,-9.925111771,1,0.000381409,1,-0.986889422,1,0.011356344,1,0.138689935,1,-0.580764949,1,-0.686126888,1,1.069831848,1,-0.670210481,1,-1.826983452,1
2.388017416,-4.283585548,1,-2.024240732,1,-10.13620567,1,-0.019003291,1,-1.088583231,1,0.04243841,1,0.138961732,1,-0.584889412,1,-0.686677992,1,1.116113186,1,-0.894729137,1,-2.060372353,1
2.392019033,-4.326259613,1,-1.788422942,1,-10.25763226,1,-0.030167883,1,-1.183573604,1,0.071339175,1,0.13912341,1,-0.589430869,1,-0.687170923,1,1.110416412,1,-0.661017895,1,-2.206350327,1
2.396016598,-4.253148556,1,-1.597120881,1,-10.49781036,1,-0.004295297,1,-1.290723562,1,0.081427902,1,0.139304116,1,-0.594358146,1,-0.687627316,1,1.223519325,1,-0.4719944,1,-2.473359108,1
2.400016069,-4.618299961,1,-1.965496778,1,-10.65277195,1,0.033149082,1,-1.41442728,1,0.086754113,1,0.139661744,1,-0.5997563,1,-0.688131809,1,0.902029037,1,-0.841632247,1,-2.658113956,1
2.404017925,-4.003561497,1,-1.898407578,1,-10.48930931,1,0.023274805,1,-1.525347471,1,0.100899592,1,0.14008078,1,-0.605617166,1,-0.688681841,1,1.563989162,1,-0.775729895,1,-2.527298927,1
2.408015728,-3.624698877,1,-1.576785922,1,-10.5943718,1,0.020268066,1,-1.652346134,1,0.122605219,1,0.140474021,1,-0.611965775,1,-0.689223289,1,1.993786097,1,-0.455948949,1,-2.667961121,1
2.4120152,-4.060036182,1,-1.241319418,1,-11.15471172,1,0.024678165,1,-1.784073234,1,0.115685776,1,0.140916541,1,-0.618835807,1,-0.689824939,1,1.613312721,1,-0.122422576,1,-3.267199993,1
2.416016579,-3.63155818,1,-1.273749113,1,-11.2231245,1,0.040816072,1,-1.929266214,1,0.112948269,1,0.141462103,1,-0.626241803,1,-0.6903584,1,2.100634813,1,-0.156504631,1,-3.378041744,1
2.420014381,-3.764247894,1,-1.150703311,1,-10.89721298,1,0.059214581,1,-2.079211235,1,0.116526835,1,0.14216578,1,-0.63425374,1,-0.691203713,1,2.031248569,1,-0.034481168,1,-3.098626614,1
2.424013853,-5.067875385,1,-1.316645265,1,-11.11671925,1,0.07009007,1,-2.202496767,1,0.112044722,1,0.143011749,1,-0.642816186,1,-0.692186236,1,0.794862747,1,-0.200939775,1,-3.36848259,1
2.428015471,-6.422609806,1,-1.695108891,1,-11.55326939,1,0.089882612,1,-2.226472616,1,0.119593948,1,0.143955782,1,-0.651665986,1,-0.693200588,1,-0.490824223,1,-0.579576015,1,-3.857737541,1
2.432013035,-5.609012127,1,-1.209771633,1,-11.36434841,1,0.108290434,1,-2.274228096,1,0.128627762,1,0.144971594,1,-0.660617828,1,-0.694202304,1,0.392143726,1,-0.094138026,1,-3.72280407,1
2.436012506,-4.789384842,1,-0.866800904,1,-11.8094368,1,0.156981036,1,-2.379535913,1,0.155914858,1,0.146141812,1,-0.669898272,1,-0.695204377,1,1.283180237,1,0.249615192,1,-4.224634171,1
2.440014124,-5.097161293,1,-1.396958351,1,-12.16551304,1,0.211343259,1,-2.501671791,1,0.207967609,1,0.147456154,1,-0.679683745,1,-0.69611901,1,1.050133228,1,-0.279358864,1,-4.641325951,1
2.44401145,-6.53073597,1,-1.778909445,1,-12.33651924,1,0.237358406,1,-2.55459547,1,0.279261857,1,0.148779273,1,-0.689846575,1,-0.696804106,1,-0.306454659,1,-0.660674214,1,-4.875989437,1
2.448010921,-8.478000641,1,-1.629170299,1,-12.7845335,1,0.277641326,1,-2.521025419,1,0.328237891,1,0.150061309,1,-0.700084209,1,-0.697205365,1,-2.17681551,1,-0.510956049,1,-5.388834953,1
2.452018738,-9.720478058,1,-1.178870678,1,-13.23150826,1,0.350299239,1,-2.416613579,1,0.363811791,1,0.151412383,1,-0.710075617,1,-0.697367787,1,-3.344875813,1,-0.060218334,1,-5.899937153,1
2.456022263,-9.10547924,1,-0.833948135,1,-13.46037102,1,0.428298682,1,-2.315962791,1,0.384288132,1,0.152924702,1,-0.71963644,1,-0.697281241,1,-2.65926218,1,0.286453724,1,-6.191078663,1
2.460021973,-7.646956921,1,-0.415403336,1,-12.97159004,1,0.51509124,1,-2.299846172,1,0.37169838,1,0.154743582,1,-0.72898066,1,-0.697170675,1,-1.132294655,1,0.708886027,1,-5.764176369,1
2.46402359,-7.03331852,1,-0.215640604,1,-13.56660557,1,0.600528121,1,-2.292192459,1,0.386022806,1,0.156855896,1,-0.738279343,1,-0.69707042,1,-0.451107979,1,0.91435796,1,-6.421729088,1
2.468020916,-7.615652084,1,-0.128859311,1,-13.85353184,1,0.719627857,1,-2.278561592,1,0.399550647,1,0.15941827,1,-0.747576952,1,-0.696920156,1,-0.966471672,1,1.009678602,1,-6.772307396,1
2.472020388,-8.162297249,1,0.164496839,1,-14.6043396,1,0.844455063,1,-2.241525412,1,0.377117544,1,0.162423745,1,-0.756741107,1,-0.696763277,1,-1.447669983,1,1.31441021,1,-7.586994648,1
2.476022005,-7.395195961,1,0.014045918,1,-14.59260082,1,1.014715672,1,-2.221180439,1,0.341214657,1,0.166183218,1,-0.765774608,1,-0.696832538,1,-0.616607189,1,1.180250764,1,-7.639736652,1
2.480019808,-5.876030445,1,-0.769437671,1,-13.91337585,1,1.155004382,1,-2.21479702,1,0.329676598,1,0.170700192,1,-0.774749637,1,-0.69706732,1,0.965558052,1,0.417778254,1,-7.026082039,1
2.484019279,-3.098129272,1,-0.444856256,1,-12.89540672,1,1.254976273,1,-2.271300793,1,0.343596041,1,0.175729886,1,-0.783794522,1,-0.697360933,1,3.80639267,1,0.766117215,1,-6.075380802,1
2.48802042,-3.095567942,1,-0.238291889,1,-12.38051796,1,1.457092762,1,-2.308668852,1,0.426085919,1,0.181482196,1,-0.793179929,1,-0.697631478,1,3.873658419,1,1.000141859,1,-5.631605148,1
2.492018223,-3.687280655,1,-0.432318121,1,-11.70322609,1,1.453094006,1,-2.408964157,1,0.483079344,1,0.18710272,1,-0.80272615,1,-0.697470725,1,3.347129345,1,0.831594944,1,-5.027055264,1
2.496017456,-3.369862318,1,-3.206204414,1,-12.52847767,1,1.457348585,1,-2.441146135,1,0.404818088,1,0.193028137,1,-0.812673509,1,-0.697570801,1,3.731788397,1,-1.916242242,1,-5.928916454,1
2.500019312,-4.167992592,1,-7.023581982,1,-15.48211193,1,1.232472539,1,-2.068703413,1,0.350589633,1,0.198807508,1,-0.821884334,1,-0.698017299,1,2.995293617,1,-5.70847559,1,-8.954519272,1
2.504016876,-13.57565308,1,-8.366977692,1,-18.01387787,1,0.779029071,1,-1.589299202,1,0.257733107,1,0.203257561,1,-0.829370022,1,-0.698415577,1,-6.362722397,1,-7.033697128,1,-11.54489899,1
2.508016109,-8.378181458,1,-6.681635857,1,-20.57143211,1,0.13547726,1,-1.083868861,1,0.138415724,1,0.205277219,1,-0.834680974,1,-0.698805571,1,-1.130274296,1,-5.343120575,1,-14.14275265,1
2.512017727,-3.748028278,1,-2.941884995,1,-18.96619034,1,-0.10236036,1,-0.769137859,1,-0.026839977,1,0.20586431,1,-0.838360965,1,-0.699610472,1,3.523994446,1,-1.605057359,1,-12.56445408,1
2.516015291,1.194235563,1,0.474051446,1,-17.06783485,1,-0.018894635,1,-0.505777895,1,-0.170990333,1,0.2065714,1,-0.840735674,1,-0.700969994,1,8.481768608,1,1.81185925,1,-10.68396664,1
2.520014524,4.014719963,1,1.308418512,1,-15.80763912,1,0.166742668,1,-0.385748535,1,-0.270106971,1,0.208258256,1,-0.842270911,1,-0.702826142,1,11.31225777,1,2.654677868,1,-9.436992645,1
2.524016142,5.730119705,1,0.77527976,1,-14.73041534,1,0.311560422,1,-0.381441921,1,-0.355136901,1,0.210950121,1,-0.843478024,1,-0.705139101,1,13.03551197,1,2.136838436,1,-8.372030258,1
2.528013706,6.255723,1,-0.61129725,1,-13.72188091,1,0.398234814,1,-0.442918062,1,-0.45102188,1,0.214568585,1,-0.844758928,1,-0.708037257,1,13.56943893,1,0.771265745,1,-7.377615929,1
2.532019615,5.807079315,1,-2.137140751,1,-13.394207,1,0.38432461,1,-0.48224628,1,-0.547795296,1,0.218812481,1,-0.84615016,1,-0.711585402,1,13.12982178,1,-0.729874969,1,-7.065800667,1
2.536021471,5.205515862,1,-3.049543858,1,-13.15725517,1,0.253751785,1,-0.452978343,1,-0.639451861,1,0.223197982,1,-0.847473681,1,-0.715707779,1,12.5368309,1,-1.616685629,1,-6.844541073,1
2.540019274,4.515183926,1,-3.12214303,1,-13.5958004,1,0.108664714,1,-0.385344952,1,-0.726796389,1,0.227369189,1,-0.84849602,1,-0.720302165,1,11.85311317,1,-1.664655805,1,-7.296422958,1
