Time,inertial-6253.76535:estCompensatedAccelX,inertial-6253.76535:estCompensatedAccelX:valid,inertial-6253.76535:estCompensatedAccelY,inertial-6253.76535:estCompensatedAccelY:valid,inertial-6253.76535:estCompensatedAccelZ,inertial-6253.76535:estCompensatedAccelZ:valid,inertial-6253.76535:estAngularRateX,inertial-6253.76535:estAngularRateX:valid,inertial-6253.76535:estAngularRateY,inertial-6253.76535:estAngularRateY:valid,inertial-6253.76535:estAngularRateZ,inertial-6253.76535:estAngularRateZ:valid,inertial-6253.76535:estRoll,inertial-6253.76535:estRoll:valid,inertial-6253.76535:estPitch,inertial-6253.76535:estPitch:valid,inertial-6253.76535:estYaw,inertial-6253.76535:estYaw:valid,inertial-6253.76535:estLinearAccelX,inertial-6253.76535:estLinearAccelX:valid,inertial-6253.76535:estLinearAccelY,inertial-6253.76535:estLinearAccelY:valid,inertial-6253.76535:estLinearAccelZ,inertial-6253.76535:estLinearAccelZ:valid
0,-4.251779079,1,-3.892171621,1,-7.922079086,1,-0.015334543,1,-0.006047352,1,0.001546441,1,0.462196082,1,-0.438316226,1,0.314268112,1,-0.100926399,1,0.056681871,1,0.004371166,1
0.00399744,-4.254652977,1,-3.865661144,1,-7.911711693,1,-0.015211397,1,-0.006346622,1,-7.44E-05,1,0.462139517,1,-0.438333511,1,0.314249694,1,-0.103646278,1,0.082712173,1,0.0148983,1
0.007996672,-4.237373829,1,-3.918096781,1,-7.943147182,1,-0.019439735,1,-0.012714751,1,0.000928339,1,0.46207884,1,-0.438367486,1,0.314241409,1,-0.086066723,1,0.029733658,1,-0.016422749,1
0.011998976,-4.224813461,1,-3.919086218,1,-7.945189953,1,-0.018499333,1,-0.009103865,1,-0.00066131,1,0.462013304,1,-0.438396811,1,0.314223528,1,-0.073246956,1,0.028169155,1,-0.018318176,1
0.01599744,-4.25679493,1,-3.917696714,1,-7.933355331,1,-0.016710976,1,-0.007968998,1,-0.001910972,1,0.46195066,1,-0.438428581,1,0.314208388,1,-0.10494709,1,0.02900362,1,-0.006353378,1
0.019997695,-4.308210373,1,-3.904288054,1,-7.946471214,1,-0.018446673,1,-0.009341886,1,-0.001594064,1,0.461873621,1,-0.438456118,1,0.314200312,1,-0.156118393,1,0.041750908,1,-0.019267559,1
0.024000255,-4.320743084,1,-3.850365162,1,-7.949772835,1,-0.018842302,1,-0.008378718,1,-0.000324467,1,0.461801112,1,-0.438487113,1,0.31417793,1,-0.168376923,1,0.095041275,1,-0.022398949,1
0.027998976,-4.30463171,1,-3.846952677,1,-7.914921761,1,-0.01688044,1,-0.006163649,1,0.000786087,1,0.461730659,1,-0.438514441,1,0.314162493,1,-0.152023315,1,0.097844124,1,0.012627125,1
0.03199821,-4.257948875,1,-3.847864628,1,-7.916088581,1,-0.021406777,1,-0.006759871,1,-0.000898472,1,0.461660981,1,-0.438543469,1,0.314150393,1,-0.105083466,1,0.096326351,1,0.011627674,1
0.035999488,-4.270871639,1,-3.855954409,1,-7.933213711,1,-0.017620752,1,-0.007990911,1,0.002433763,1,0.461589456,1,-0.438567638,1,0.314134747,1,-0.11779213,1,0.087625265,1,-0.005304337,1
0.039996929,-4.241931438,1,-3.841561317,1,-7.927499294,1,-0.01598946,1,-0.006994555,1,-0.002344696,1,0.461528033,1,-0.438584208,1,0.314114749,1,-0.08870554,1,0.101500511,1,0.000590801,1
0.043996416,-4.26876688,1,-3.896633863,1,-7.936224937,1,-0.018477622,1,-0.005117664,1,-0.001208557,1,0.461463243,1,-0.438613057,1,0.314091235,1,-0.115285873,1,0.045861483,1,-0.007986546,1
0.047997952,-4.248608589,1,-3.860766172,1,-7.90053463,1,-0.020758532,1,-0.009689586,1,-0.003579702,1,0.461402923,1,-0.438642234,1,0.314071596,1,-0.09486866,1,0.081196785,1,0.027833462,1
0.051995393,-4.243102551,1,-3.895631552,1,-7.923585892,1,-0.018193396,1,-0.009620107,1,0.001310184,1,0.461342573,1,-0.438668519,1,0.314046085,1,-0.089129925,1,0.045804501,1,0.00492239,1
0.056001537,-4.253554821,1,-3.872544527,1,-7.951172829,1,-0.020187447,1,-0.009233633,1,0.000285693,1,0.461265743,1,-0.438699454,1,0.314020425,1,-0.099308491,1,0.068225622,1,-0.022476196,1
0.060003582,-4.22619915,1,-3.912294149,1,-7.926057816,1,-0.020229034,1,-0.009862452,1,0.00119028,1,0.461193889,1,-0.43873921,1,0.314003646,1,-0.071600437,1,0.02783227,1,0.002773762,1
0.064001538,-4.23558569,1,-3.901503086,1,-7.939209938,1,-0.022565151,1,-0.013342936,1,-0.001550002,1,0.461127192,1,-0.438781947,1,0.313976884,1,-0.080608845,1,0.038016319,1,-0.010273457,1
0.068001539,-4.29713726,1,-3.895209074,1,-7.934597969,1,-0.020126455,1,-0.007930986,1,-0.001457202,1,0.461057246,1,-0.438815147,1,0.313964903,1,-0.141866684,1,0.043694496,1,-0.0055089,1
0.072003074,-4.234111786,1,-3.873193502,1,-7.948694229,1,-0.024002444,1,-0.010307866,1,-0.000689582,1,0.460984409,1,-0.438858211,1,0.313937515,1,-0.078459263,1,0.065052986,1,-0.019477844,1
0.076001026,-4.285506248,1,-3.820383072,1,-7.9324193,1,-0.017732695,1,-0.010448177,1,-9.13E-05,1,0.460912824,1,-0.438895822,1,0.313919127,1,-0.129520893,1,0.117224216,1,-0.003065586,1
0.080000259,-4.27573204,1,-3.843118906,1,-7.938041687,1,-0.018633505,1,-0.009806279,1,0.001085726,1,0.460838914,1,-0.438943326,1,0.313901842,1,-0.119326115,1,0.093815327,1,-0.008572102,1
0.084001794,-4.305137634,1,-3.859634638,1,-7.979589939,1,-0.016110286,1,-0.00946349,1,0.000919571,1,0.460768253,1,-0.438983351,1,0.313890219,1,-0.148377419,1,0.076665163,1,-0.049992085,1
0.087999485,-4.233674049,1,-3.902532816,1,-7.925102234,1,-0.017518369,1,-0.00725392,1,0.002328283,1,0.460707366,1,-0.439019531,1,0.313877255,1,-0.076593876,1,0.033217192,1,0.004600525,1
0.091998719,-4.284271717,1,-3.864583015,1,-7.916948318,1,-0.018304687,1,-0.01423945,1,-0.000587078,1,0.460646093,1,-0.43906486,1,0.313862205,1,-0.126790047,1,0.07059741,1,0.01282692,1
0.096000001,-4.269190788,1,-3.890033722,1,-7.957925797,1,-0.014574709,1,-0.007579237,1,0.003667579,1,0.46059531,1,-0.439102292,1,0.313843966,1,-0.111377716,1,0.044675589,1,-0.02808857,1
0.099997438,-4.286791801,1,-3.840626955,1,-7.932345867,1,-0.015857244,1,-0.011250007,1,-0.000867164,1,0.460539401,1,-0.43914938,1,0.313828945,1,-0.128561974,1,0.093551874,1,-0.002464771,1
0.103996925,-4.27733469,1,-3.840719223,1,-7.9597826,1,-0.014506856,1,-0.013767983,1,0.000761171,1,0.460482419,1,-0.439201206,1,0.313811302,1,-0.118646145,1,0.09291172,1,-0.02987051,1
0.107998461,-4.312279701,1,-3.83724761,1,-7.982586861,1,-0.015097716,1,-0.012287318,1,0.000326404,1,0.460432559,1,-0.439258158,1,0.313792646,1,-0.153087139,1,0.095882416,1,-0.052690983,1
0.111995906,-4.276535034,1,-3.84579277,1,-7.977507591,1,-0.016673943,1,-0.016691351,1,0.002240157,1,0.46038565,1,-0.439314574,1,0.313775241,1,-0.116842747,1,0.086861372,1,-0.047637463,1
0.115995139,-4.273803234,1,-3.843821287,1,-7.95190382,1,-0.011502184,1,-0.012228316,1,0.00308978,1,0.460346997,1,-0.43936801,1,0.313747585,1,-0.113638401,1,0.088427305,1,-0.022081375,1
0.119996674,-4.277032375,1,-3.858406782,1,-7.975370407,1,-0.011966704,1,-0.016718233,1,0.000726333,1,0.460314333,1,-0.439429343,1,0.313732654,1,-0.116324425,1,0.073468447,1,-0.045649529,1
0.123994112,-4.273020744,1,-3.853098392,1,-7.970451832,1,-0.007056442,1,-0.016624175,1,0.002075844,1,0.460284859,1,-0.439483404,1,0.313709319,1,-0.111834526,1,0.078444242,1,-0.040814877,1
0.127993345,-4.290841103,1,-3.844549179,1,-7.947518349,1,-0.0055787,1,-0.009348835,1,-0.000371944,1,0.460275948,1,-0.439540774,1,0.313684702,1,-0.129147053,1,0.086816549,1,-0.018060207,1
0.131994873,-4.285237312,1,-3.864896297,1,-7.970891476,1,-0.006104803,1,-0.014264722,1,0.005224273,1,0.460261464,1,-0.43959552,1,0.313661963,1,-0.123058796,1,0.066253185,1,-0.041580677,1
0.135999233,-4.268323898,1,-3.81490612,1,-7.971590042,1,-0.004284312,1,-0.015301689,1,-0.001187248,1,0.460251302,1,-0.439659983,1,0.313641638,1,-0.105575085,1,0.116043329,1,-0.042480469,1
0.140000001,-4.245271206,1,-3.860123158,1,-7.958435059,1,-0.004155334,1,-0.016972192,1,0.007229818,1,0.460245073,1,-0.439724445,1,0.313620687,1,-0.081951618,1,0.070657969,1,-0.029540539,1
0.144002303,-4.251478672,1,-3.866788626,1,-7.958958626,1,-0.003266739,1,-0.019833555,1,0.005038707,1,0.460232615,1,-0.439794183,1,0.313605368,1,-0.087542057,1,0.063765287,1,-0.030274868,1
0.148000509,-4.203785419,1,-3.858476162,1,-7.931892395,1,-0.001264521,1,-0.018071242,1,0.003816001,1,0.460229874,1,-0.43986696,1,0.313590646,1,-0.039204597,1,0.071921349,1,-0.00346899,1
0.151999995,-4.213035583,1,-3.833344698,1,-7.948384285,1,-0.007126667,1,-0.021519104,1,0.009449167,1,0.46021229,1,-0.43994841,1,0.313576102,1,-0.047734261,1,0.096762419,1,-0.020196438,1
0.156001285,-4.241850376,1,-3.874702454,1,-7.988246918,1,-0.001546224,1,-0.020008635,1,0.00684053,1,0.460205168,1,-0.440038681,1,0.313567758,1,-0.075749874,1,0.05518055,1,-0.060369968,1
0.159998715,-4.16762352,1,-3.912377357,1,-7.908743382,1,-0.003015464,1,-0.027231086,1,0.011683784,1,0.460208058,1,-0.440145433,1,0.313556135,1,-0.00057888,1,0.017331839,1,0.018726349,1
0.163998201,-4.171329021,1,-3.978398323,1,-7.921627522,1,-0.002283548,1,-0.027981497,1,0.013211614,1,0.460195959,1,-0.440273255,1,0.313546389,1,-0.003153324,1,-0.049022198,1,0.005411148,1
0.167999491,-4.241946697,1,-3.965594053,1,-7.954334259,1,-0.005144513,1,-0.02660276,1,0.014653156,1,0.460170507,1,-0.440397829,1,0.313545793,1,-0.072668552,1,-0.036650419,1,-0.027661324,1
0.17199719,-4.281623363,1,-3.88004756,1,-7.920214653,1,-0.008233175,1,-0.026789984,1,0.016614765,1,0.460141778,1,-0.440519989,1,0.31355679,1,-0.111264706,1,0.048442602,1,0.006115437,1
0.175997183,-4.322117329,1,-3.851061583,1,-7.962071896,1,-0.0128718,1,-0.029665891,1,0.020192433,1,0.460097671,1,-0.440650195,1,0.313576847,1,-0.150607109,1,0.076838017,1,-0.036055088,1
0.179999232,-4.32151413,1,-3.83129859,1,-7.941231728,1,-0.006621986,1,-0.025096606,1,0.018119525,1,0.460056543,1,-0.440784097,1,0.313600212,1,-0.148819447,1,0.096026421,1,-0.015554428,1
0.183997691,-4.285464287,1,-3.858615875,1,-7.925583839,1,-0.008937534,1,-0.029254654,1,0.01708284,1,0.460011661,1,-0.440906674,1,0.313619912,1,-0.111685276,1,0.06812644,1,-0.000188351,1
0.187997177,-4.293989658,1,-3.896152496,1,-7.939388752,1,-0.009672673,1,-0.029139014,1,0.017524527,1,0.459964961,1,-0.44103834,1,0.313639611,1,-0.119045734,1,0.029976368,1,-0.014301777,1
0.191998467,-4.279303551,1,-3.909281731,1,-7.879495144,1,-0.009873883,1,-0.026420603,1,0.019939095,1,0.459916919,1,-0.441174388,1,0.313651741,1,-0.103156567,1,0.016214132,1,0.045271397,1
0.195995897,-4.249438286,1,-3.903100491,1,-7.915462971,1,-0.009214509,1,-0.033844583,1,0.021063032,1,0.459868014,1,-0.441312611,1,0.313676417,1,-0.072069168,1,0.02175045,1,0.00897646,1
0.200001284,-4.2499547,1,-3.873786211,1,-7.89317894,1,-0.008383761,1,-0.026047574,1,0.022254171,1,0.459820092,1,-0.441455096,1,0.313704431,1,-0.071325302,1,0.05042243,1,0.030917645,1
0.204002813,-4.274760246,1,-3.869676352,1,-7.936965466,1,-0.010673973,1,-0.023897117,1,0.022971904,1,0.459764481,1,-0.441590607,1,0.313735098,1,-0.094932556,1,0.053841114,1,-0.013155937,1
0.208000511,-4.296692848,1,-3.882739067,1,-7.905953407,1,-0.010327302,1,-0.027321395,1,0.023567876,1,0.459667593,1,-0.441806316,1,0.313482821,1,-0.114958286,1,0.039609432,1,0.017425537,1
0.212005883,-4.187387466,1,-3.79835844,1,-7.973388195,1,-0.010812181,1,-0.036042698,1,0.021949535,1,0.459611207,1,-0.441941917,1,0.313519239,1,-0.004454136,1,0.123291731,1,-0.050296307,1
0.21600768,-4.242233276,1,-3.918924093,1,-7.846031189,1,-0.01247451,1,-0.034616329,1,0.026989006,1,0.459547013,1,-0.442123622,1,0.313540548,1,-0.057693481,1,0.001881123,1,0.076632023,1
0.220005631,-4.22672987,1,-3.869580269,1,-7.91053915,1,-0.011741097,1,-0.032548938,1,0.026075142,1,0.459478945,1,-0.442287356,1,0.313582659,1,-0.040742874,1,0.050381422,1,0.011776924,1
0.224005118,-4.272877693,1,-3.86010766,1,-7.942923069,1,-0.007726472,1,-0.031223979,1,0.030624907,1,0.459404826,1,-0.442458034,1,0.313634187,1,-0.085381985,1,0.058949709,1,-0.02095747,1
0.228007168,-4.248888016,1,-3.851139307,1,-7.998076916,1,-0.00634388,1,-0.032492794,1,0.031796154,1,0.459350228,1,-0.442631155,1,0.313689291,1,-0.059862137,1,0.067163944,1,-0.0765481,1
0.232005119,-4.240136623,1,-3.847138405,1,-7.920465946,1,-0.014105537,1,-0.03421421,1,0.02858327,1,0.45929566,1,-0.442803681,1,0.313740462,1,-0.049586296,1,0.070411921,1,0.000628471,1
0.236004606,-4.344736099,1,-3.839381695,1,-7.993312359,1,-0.011412793,1,-0.030859418,1,0.03125738,1,0.459216684,1,-0.442975283,1,0.313802242,1,-0.15266943,1,0.077224255,1,-0.072553158,1
0.240005881,-4.246395111,1,-3.826622248,1,-7.891867161,1,-0.016237659,1,-0.02832065,1,0.032722667,1,0.459138989,1,-0.443136394,1,0.313878089,1,-0.052905083,1,0.089069128,1,0.028590202,1
0.244003326,-4.250426292,1,-3.875023603,1,-7.874276161,1,-0.008496289,1,-0.037518725,1,0.035189744,1,0.459054649,1,-0.443313986,1,0.31395185,1,-0.055366993,1,0.039669275,1,0.045844555,1
0.248002559,-4.336440086,1,-3.926708221,1,-7.951215267,1,-0.012106401,1,-0.028946135,1,0.036371008,1,0.458982825,1,-0.443502367,1,0.314027846,1,-0.139716625,1,-0.012934208,1,-0.031522274,1
0.252004087,-4.300186634,1,-3.793533802,1,-7.98620224,1,-0.013331451,1,-0.033683125,1,0.031739745,1,0.458880842,1,-0.443684548,1,0.314108312,1,-0.101853371,1,0.119093418,1,-0.066795826,1
0.256001532,-4.387693405,1,-3.965277433,1,-7.796399117,1,-0.018920118,1,-0.036960509,1,0.03968101,1,0.458806098,1,-0.443900406,1,0.314162433,1,-0.187454224,1,-0.053643942,1,0.122486115,1
0.260000765,-4.31087923,1,-3.821476221,1,-7.925535202,1,-0.014588429,1,-0.029649617,1,0.033805549,1,0.458703279,1,-0.444070101,1,0.314237088,1,-0.109140873,1,0.089027405,1,-0.006887436,1
0.264003068,-4.362530231,1,-3.867676497,1,-7.894512653,1,-0.017587978,1,-0.031523604,1,0.03542234,1,0.458601773,1,-0.444243699,1,0.314316779,1,-0.159258842,1,0.04170084,1,0.023879051,1
0.268001527,-4.405563354,1,-3.852164984,1,-7.872491837,1,-0.017142363,1,-0.032140832,1,0.032247316,1,0.458497316,1,-0.444414824,1,0.314396381,1,-0.200781345,1,0.056067228,1,0.045663357,1
0.272001266,-4.373062134,1,-3.860753775,1,-7.937279224,1,-0.010168286,1,-0.028036429,1,0.028509833,1,0.458412468,1,-0.444574565,1,0.314469635,1,-0.166869164,1,0.046508312,1,-0.019396305,1
0.276002824,-4.347872734,1,-3.830111027,1,-7.931930542,1,-0.015132294,1,-0.032824203,1,0.026859451,1,0.458332777,1,-0.444733083,1,0.314523906,1,-0.140280247,1,0.076225996,1,-0.014332294,1
0.280000508,-4.345123291,1,-3.934560061,1,-7.819580555,1,-0.00984375,1,-0.041391995,1,0.030808203,1,0.458260834,1,-0.444922328,1,0.314561337,1,-0.135859966,1,-0.029145241,1,0.097583771,1
0.283999741,-4.391354561,1,-3.777767181,1,-7.942918301,1,-0.015553445,1,-0.025356675,1,0.026713651,1,0.458177149,1,-0.445082933,1,0.314615011,1,-0.180673599,1,0.126685858,1,-0.026033878,1
0.288000762,-4.32011795,1,-3.806699991,1,-7.974076748,1,-0.01105821,1,-0.028327812,1,0.025687475,1,0.45810768,1,-0.44523111,1,0.314679056,1,-0.108129025,1,0.096927881,1,-0.057479382,1
0.292004108,-4.36587286,1,-3.747918367,1,-7.931333542,1,-0.006776694,1,-0.030530144,1,0.025664451,1,0.458054781,1,-0.445382446,1,0.314715594,1,-0.152548313,1,0.155009031,1,-0.015100479,1
0.29600358,-4.38971138,1,-3.832506895,1,-7.799120426,1,-0.014737989,1,-0.028520444,1,0.030397356,1,0.457992226,1,-0.44553256,1,0.314760059,1,-0.175061703,1,0.069643974,1,0.116786003,1
0.300005108,-4.347893238,1,-3.80800581,1,-7.88009882,1,-0.00810435,1,-0.026165657,1,0.027865548,1,0.457925111,1,-0.445674956,1,0.314809859,1,-0.131986618,1,0.093348742,1,0.035531998,1
0.304002553,-4.32178545,1,-3.855149269,1,-7.9059515,1,-0.008774538,1,-0.02424698,1,0.024660392,1,0.457867146,1,-0.445812643,1,0.314866543,1,-0.104664326,1,0.045490503,1,0.009385586,1
0.308001786,-4.342303753,1,-3.845957041,1,-7.977618694,1,-0.005158005,1,-0.031304747,1,0.023069125,1,0.457820475,1,-0.445952237,1,0.314902216,1,-0.123950958,1,0.054053068,1,-0.062627316,1
0.312004089,-4.327277184,1,-3.932740927,1,-7.772036552,1,-0.013689063,1,-0.036099128,1,0.021383915,1,0.457781255,1,-0.446118146,1,0.314912885,1,-0.107460499,1,-0.033350229,1,0.142479897,1
0.316002309,-4.408429623,1,-3.800683498,1,-7.932214737,1,-0.006413999,1,-0.031955421,1,0.027230166,1,0.457720101,1,-0.446283281,1,0.314946055,1,-0.187155724,1,0.097914219,1,-0.018086433,1
0.320001781,-4.357105732,1,-3.899008274,1,-7.855976582,1,-0.008346684,1,-0.025672855,1,0.02655961,1,0.457667112,1,-0.446434468,1,0.314981788,1,-0.134498119,1,-0.001111984,1,0.057785034,1
0.324003339,-4.366363525,1,-3.846755028,1,-7.913768768,1,-0.00452413,1,-0.0292053,1,0.020159123,1,0.457618237,1,-0.44657433,1,0.315022349,1,-0.142522335,1,0.050493956,1,-0.00034523,1
0.328000754,-4.389545918,1,-3.898848772,1,-7.988423824,1,-0.009195372,1,-0.024300808,1,0.024703192,1,0.457573891,1,-0.446703643,1,0.315063983,1,-0.164564133,1,-0.002191544,1,-0.075316906,1
0.332000256,-4.259209156,1,-3.854820251,1,-7.898635864,1,-0.008432142,1,-0.021708434,1,0.025434714,1,0.457513452,1,-0.446825832,1,0.315105796,1,-0.033149242,1,0.041130304,1,0.014242649,1
0.336001784,-4.278578758,1,-3.811386347,1,-7.940927029,1,-0.008727131,1,-0.029087786,1,0.034607682,1,0.457444996,1,-0.446971893,1,0.315171838,1,-0.051230907,1,0.083749533,1,-0.028336048,1
0.339999229,-4.439775467,1,-3.823991776,1,-7.989521503,1,-0.010311903,1,-0.030256156,1,0.027161971,1,0.457385957,1,-0.447136402,1,0.31523329,1,-0.210976601,1,0.070369482,1,-0.077324867,1
0.343998462,-4.362426281,1,-3.952779055,1,-7.750701904,1,-0.013480536,1,-0.036987968,1,0.025725804,1,0.45732522,1,-0.447312355,1,0.315264106,1,-0.132075787,1,-0.05922699,1,0.161062717,1
0.347999752,-4.407232761,1,-3.85753727,1,-7.906549454,1,-0.012717443,1,-0.033381015,1,0.024180215,1,0.457257688,1,-0.447477609,1,0.315291286,1,-0.175425529,1,0.035172224,1,0.004851818,1
0.351996928,-4.371934891,1,-3.856636763,1,-7.960181236,1,-0.008647779,1,-0.028934352,1,0.023917226,1,0.457203507,1,-0.447633326,1,0.315324545,1,-0.138754368,1,0.035352945,1,-0.04916048,1
0.355996668,-4.376284599,1,-3.811545372,1,-7.919350147,1,-0.010323342,1,-0.026890537,1,0.025966905,1,0.457146168,1,-0.447775155,1,0.315360963,1,-0.141853809,1,0.079725504,1,-0.008645535,1
0.359998465,-4.376195908,1,-3.819521427,1,-7.969295979,1,-0.009664368,1,-0.023167077,1,0.027039103,1,0.457092196,1,-0.447924405,1,0.3154158,1,-0.140449047,1,0.071043491,1,-0.058948517,1
0.363996416,-4.328455925,1,-3.793408871,1,-7.911139011,1,-0.00645161,1,-0.025305599,1,0.023640933,1,0.457035571,1,-0.448055267,1,0.315460682,1,-0.091556072,1,0.096463442,1,-0.001069069,1
0.367996424,-4.409592152,1,-3.814781904,1,-7.938344479,1,-0.00832053,1,-0.026772691,1,0.028170697,1,0.456980109,1,-0.448200077,1,0.315518945,1,-0.171415329,1,0.074380398,1,-0.028610229,1
0.372003853,-4.342748642,1,-3.822594643,1,-7.909082413,1,-0.004142806,1,-0.027706858,1,0.024052795,1,0.456929326,1,-0.448346287,1,0.315562487,1,-0.103283405,1,0.065892696,1,0.000293255,1
0.376007438,-4.35545063,1,-3.730030775,1,-8.086028099,1,-0.009748458,1,-0.031405162,1,0.024027672,1,0.456881195,1,-0.448494196,1,0.315605938,1,-0.114681721,1,0.157800436,1,-0.177025318,1
0.380006909,-4.387573719,1,-3.891920328,1,-7.880105495,1,-0.010138225,1,-0.026651949,1,0.023994626,1,0.456826538,1,-0.448660105,1,0.315638065,1,-0.145342827,1,-0.004831553,1,0.028478622,1
0.384008199,-4.227807522,1,-3.87088418,1,-7.835707188,1,-0.013454692,1,-0.033311252,1,0.021050144,1,0.456766963,1,-0.448804319,1,0.315670758,1,0.015694141,1,0.015463114,1,0.072557926,1
0.388005644,-4.345886707,1,-3.893193722,1,-7.963638306,1,-0.005749453,1,-0.02590617,1,0.026189847,1,0.456709206,1,-0.448957801,1,0.315716028,1,-0.101032257,1,-0.007591009,1,-0.055734158,1
0.392004877,-4.352694988,1,-3.846742153,1,-7.885206223,1,-0.005231102,1,-0.031541102,1,0.032893836,1,0.456662923,1,-0.449111342,1,0.315768272,1,-0.106488228,1,0.038207054,1,0.022292614,1
0.39600718,-4.396882057,1,-3.829828501,1,-7.916517258,1,-0.010569136,1,-0.02800229,1,0.032745551,1,0.456602782,1,-0.449273139,1,0.315830588,1,-0.149249554,1,0.054341793,1,-0.009402275,1
0.40000537,-4.350486279,1,-3.741945028,1,-7.993262768,1,-0.008751496,1,-0.037937734,1,0.026135281,1,0.456551433,1,-0.449435592,1,0.315884233,1,-0.101422787,1,0.141515493,1,-0.086566925,1
0.404005378,-4.378772259,1,-3.78643322,1,-7.895908833,1,-0.011799482,1,-0.036324505,1,0.02480505,1,0.456509173,1,-0.449625462,1,0.315913916,1,-0.128036499,1,0.096337557,1,0.010226727,1
0.408007413,-4.369358063,1,-3.76684761,1,-7.925246239,1,-0.002805837,1,-0.035149068,1,0.026953578,1,0.45646131,1,-0.449799508,1,0.315947473,1,-0.117089272,1,0.115218401,1,-0.019589901,1
0.412005365,-4.355898857,1,-3.827517033,1,-7.908691406,1,-0.00712498,1,-0.036880892,1,0.026237838,1,0.456430227,1,-0.449984819,1,0.315981597,1,-0.101998329,1,0.053955793,1,-0.003622055,1
0.416004598,-4.398591042,1,-3.872066259,1,-7.910331249,1,-0.003722478,1,-0.036032025,1,0.026211701,1,0.456389844,1,-0.450161368,1,0.316015929,1,-0.143135548,1,0.008756638,1,-0.005778313,1
0.420006156,-4.412487984,1,-3.796729803,1,-7.957199097,1,-0.003553501,1,-0.040788781,1,0.026066095,1,0.456354558,1,-0.450341642,1,0.316045403,1,-0.155445099,1,0.08347559,1,-0.053198338,1
0.424003839,-4.459148407,1,-3.860045433,1,-7.90507412,1,-0.005223486,1,-0.037882347,1,0.029187463,1,0.456322581,1,-0.450533956,1,0.316079795,1,-0.200412273,1,0.019545555,1,-0.001685619,1
0.428003341,-4.399472237,1,-3.786959648,1,-7.89177084,1,-0.000246505,1,-0.033351276,1,0.029038619,1,0.456287742,1,-0.450714171,1,0.316120654,1,-0.139149189,1,0.092017889,1,0.011063576,1
0.432004869,-4.440704823,1,-3.724605322,1,-7.920981884,1,-0.001811559,1,-0.037631676,1,0.028846558,1,0.456267715,1,-0.450891167,1,0.316161215,1,-0.178823471,1,0.153882265,1,-0.018745899,1
0.436002314,-4.464159489,1,-3.778316259,1,-7.976937771,1,-0.002761113,1,-0.033906966,1,0.020086234,1,0.456251889,1,-0.451068163,1,0.316178501,1,-0.20072031,1,0.099714041,1,-0.075316906,1
0.440003067,-4.457952499,1,-3.820768356,1,-7.849912643,1,-0.006265878,1,-0.032116663,1,0.02492257,1,0.456227601,1,-0.451235682,1,0.316200972,1,-0.19303894,1,0.056755543,1,0.051161766,1
0.444005132,-4.428672791,1,-3.796100378,1,-7.917380333,1,-0.003903746,1,-0.032594796,1,0.027500767,1,0.456185728,1,-0.451398849,1,0.316240668,1,-0.162323475,1,0.08078599,1,-0.016768456,1
0.448008716,-4.449211121,1,-3.803240538,1,-7.88711977,1,-0.000334623,1,-0.029206716,1,0.023945339,1,0.456160098,1,-0.451545835,1,0.316283643,1,-0.181568146,1,0.073167562,1,0.013028622,1
0.452008694,-4.446334362,1,-3.82085371,1,-7.920778751,1,-0.002342654,1,-0.030410044,1,0.020647857,1,0.456065863,1,-0.451836526,1,0.316513449,1,-0.176133633,1,0.0542624,1,-0.021380901,1
0.456009984,-4.460951328,1,-3.819841862,1,-7.923189163,1,0.00042175,1,-0.027116939,1,0.022675907,1,0.456088454,1,-0.451932162,1,0.316070735,1,-0.189909458,1,0.055273533,1,-0.024244308,1
0.460007668,-4.432072163,1,-3.788439035,1,-7.919195652,1,-0.000700588,1,-0.034066357,1,0.016232373,1,0.456078231,1,-0.452077806,1,0.316092551,1,-0.159748554,1,0.086321115,1,-0.02077055,1
0.464006901,-4.467001915,1,-3.73845315,1,-8.00331974,1,-0.002804439,1,-0.036472913,1,0.013212783,1,0.456072956,1,-0.452229798,1,0.316095769,1,-0.193341255,1,0.135980129,1,-0.105455875,1
0.46800819,-4.474024773,1,-3.789227724,1,-7.8853755,1,-0.001012903,1,-0.024663692,1,0.020315252,1,0.45604822,1,-0.452366769,1,0.316116333,1,-0.199159145,1,0.084751844,1,0.012057781,1
0.472005874,-4.457530022,1,-3.801187277,1,-7.911171436,1,-0.004757514,1,-0.021542428,1,0.017418707,1,0.456029862,1,-0.452485144,1,0.316143334,1,-0.181623459,1,0.072424173,1,-0.014121532,1
0.476005107,-4.43470192,1,-3.824370384,1,-7.872345448,1,-0.002629649,1,-0.022397062,1,0.015157398,1,0.456013978,1,-0.452605546,1,0.316157877,1,-0.157736301,1,0.048888683,1,0.024303436,1
0.48000741,-4.444637299,1,-3.806072712,1,-7.897737026,1,-0.002969443,1,-0.013922226,1,0.014175978,1,0.455992997,1,-0.452700734,1,0.316173077,1,-0.166834354,1,0.066841841,1,-0.001371861,1
0.484006137,-4.465438843,1,-3.809675932,1,-7.928430557,1,-0.00187317,1,-0.019404827,1,0.012143116,1,0.455977738,1,-0.452788591,1,0.316195905,1,-0.186863422,1,0.062953234,1,-0.032342911,1
0.488005877,-4.424248219,1,-3.735761166,1,-7.916788101,1,0.003453485,1,-0.017438671,1,0.014351234,1,0.455961823,1,-0.452869266,1,0.316209257,1,-0.144962788,1,0.136590958,1,-0.02094698,1
0.492007941,-4.463475704,1,-3.747155666,1,-7.902910709,1,-0.000760929,1,-0.013992135,1,0.00357998,1,0.455957204,1,-0.452949703,1,0.316218734,1,-0.183483124,1,0.125006437,1,-0.007365227,1
0.496005893,-4.424639702,1,-3.800061703,1,-7.890984058,1,0.002563634,1,-0.01536468,1,0.006554651,1,0.455951035,1,-0.453010589,1,0.316219807,1,-0.14411211,1,0.071937084,1,0.00435257,1
0.500005126,-4.471153259,1,-3.764842272,1,-7.91357708,1,0.000931201,1,-0.016674915,1,0.00802559,1,0.455960751,1,-0.453087747,1,0.316217542,1,-0.189946651,1,0.107088327,1,-0.018574238,1
0.504006386,-4.412504673,1,-3.783901691,1,-7.923325062,1,0.005253971,1,-0.00964589,1,0.004565419,1,0.455970109,1,-0.453135431,1,0.316214412,1,-0.130878925,1,0.088012695,1,-0.028542042,1
0.508003831,-4.41086483,1,-3.789783239,1,-7.892147064,1,0.001399989,1,-0.013103644,1,0.007698413,1,0.455987811,1,-0.453189224,1,0.316212744,1,-0.12876606,1,0.082168818,1,0.002359867,1
0.512003064,-4.477621555,1,-3.827057123,1,-7.920443535,1,0.003590104,1,-0.012227952,1,0.006448827,1,0.456000119,1,-0.453246832,1,0.316218495,1,-0.195016384,1,0.04488349,1,-0.026206493,1
0.516004324,-4.431434155,1,-3.834422827,1,-7.889858246,1,0.002859892,1,-0.010733023,1,0.003085152,1,0.456017792,1,-0.453291297,1,0.316209197,1,-0.1484375,1,0.037574291,1,0.004140377,1
0.520001769,-4.446024895,1,-3.828001738,1,-7.904917717,1,0.005098265,1,-0.010910156,1,0.003335285,1,0.456034541,1,-0.453339428,1,0.316206008,1,-0.162605286,1,0.044037104,1,-0.011168003,1
0.524001002,-4.449868202,1,-3.862610102,1,-7.894493103,1,0.005093361,1,-0.010645094,1,0.003648133,1,0.456053525,1,-0.45338282,1,0.316204309,1,-0.166067123,1,0.009497404,1,-0.000982285,1
0.528008938,-4.441045284,1,-3.816209793,1,-7.937783718,1,0.002657557,1,-0.009794895,1,0.005575544,1,0.456068546,1,-0.453431129,1,0.316200972,1,-0.156819344,1,0.055924892,1,-0.04451704,1
0.532013059,-4.390947819,1,-3.837295532,1,-7.916877747,1,0.001436415,1,-0.011464461,1,0.001476869,1,0.456081003,1,-0.453476876,1,0.316197366,1,-0.106319904,1,0.034850836,1,-0.023836136,1
0.536013305,-4.444133759,1,-3.86658597,1,-7.906105995,1,0.003247028,1,-0.011186499,1,0.002106792,1,0.456094295,1,-0.453519434,1,0.316188514,1,-0.159131527,1,0.005584717,1,-0.013279915,1
0.540015101,-4.417996407,1,-3.859393835,1,-7.909929752,1,-0.000344767,1,-0.010408112,1,0.004717351,1,0.456110895,1,-0.453557968,1,0.316180825,1,-0.132655621,1,0.012835264,1,-0.017315865,1
0.544012785,-4.41301012,1,-3.861581087,1,-7.895384312,1,0.0001417,1,-0.010151505,1,0.004387723,1,0.456111044,1,-0.453595579,1,0.316183299,1,-0.127338409,1,0.010577917,1,-0.002916336,1
0.548012018,-4.429653645,1,-3.883337259,1,-7.928128719,1,-0.001676212,1,-0.013434831,1,0.007663002,1,0.456109375,1,-0.45363915,1,0.316181898,1,-0.143599033,1,-0.011273861,1,-0.035822392,1
0.552013338,-4.396994114,1,-3.817094564,1,-7.903167725,1,-0.00141842,1,-0.008638562,1,0.002663379,1,0.456101239,1,-0.453683138,1,0.316186726,1,-0.110552788,1,0.054822445,1,-0.010997772,1
0.556010723,-4.408582687,1,-3.826971292,1,-7.906402111,1,-0.002225693,1,-0.007719169,1,0.002379166,1,0.456092775,1,-0.453720182,1,0.316178143,1,-0.121815681,1,0.044808626,1,-0.014342785,1
0.560009956,-4.433192253,1,-3.808819056,1,-7.89014864,1,-0.006829847,1,-0.00796955,1,0.002093918,1,0.456078976,1,-0.453760743,1,0.316179276,1,-0.146068573,1,0.062775373,1,0.001808643,1
0.564011276,-4.439520359,1,-3.815649271,1,-7.8957057,1,-0.006274039,1,-0.008384221,1,0.006573918,1,0.456056178,1,-0.453799695,1,0.316183865,1,-0.152054787,1,0.055692196,1,-0.003808975,1
0.568008721,-4.462839127,1,-3.816835165,1,-7.870683193,1,-0.008504698,1,-0.008805244,1,0.002170101,1,0.456036031,1,-0.453833342,1,0.316181064,1,-0.175077438,1,0.054283142,1,0.021161079,1
0.572007954,-4.383482456,1,-3.812686205,1,-7.91543293,1,-0.007411325,1,-0.003483318,1,0.005296879,1,0.456008852,1,-0.453860849,1,0.316173375,1,-0.095479488,1,0.058165312,1,-0.023590565,1
0.576009452,-4.434363365,1,-3.793637991,1,-7.909397125,1,-0.003904997,1,-0.007771432,1,-0.002308245,1,0.455990136,1,-0.453891158,1,0.316173375,1,-0.146093369,1,0.077008724,1,-0.017598152,1
0.580007195,-4.418387413,1,-3.802975655,1,-7.924920559,1,-0.003939382,1,-0.007200139,1,0.002598262,1,0.45596987,1,-0.453916222,1,0.31616348,1,-0.129897118,1,0.067464352,1,-0.033138752,1
0.584007144,-4.416265011,1,-3.853684664,1,-7.907056808,1,-0.005011348,1,-0.008108603,1,0.002011099,1,0.455954194,1,-0.45394972,1,0.316149831,1,-0.127480507,1,0.016569138,1,-0.015341759,1
0.58800894,-4.42495966,1,-3.833454847,1,-7.897007942,1,-0.008328281,1,-0.005086854,1,0.002220939,1,0.455933601,1,-0.453971446,1,0.316141874,1,-0.135983944,1,0.036593199,1,-0.005301952,1
0.592006683,-4.45689106,1,-3.845201969,1,-7.894499779,1,-0.010388141,1,-0.006029269,1,9.93E-05,1,0.455903679,1,-0.454004079,1,0.316131294,1,-0.167628765,1,0.024549246,1,-0.002801895,1
0.596005917,-4.414864063,1,-3.842233658,1,-7.905566692,1,-0.011441022,1,-0.005094494,1,0.000146518,1,0.45586583,1,-0.45402053,1,0.316133142,1,-0.125457287,1,0.027187347,1,-0.013785839,1
0.600007176,-4.422689915,1,-3.812764645,1,-7.911751747,1,-0.011054232,1,-0.007575655,1,-0.000269616,1,0.455825806,1,-0.454039991,1,0.31612134,1,-0.133111954,1,0.056304216,1,-0.019889832,1
0.604004622,-4.447060585,1,-3.842570305,1,-7.892938137,1,-0.013029305,1,-0.003410214,1,0.003258171,1,0.455782115,1,-0.45406574,1,0.316119373,1,-0.157256603,1,0.026105165,1,-0.00100708,1
0.608009994,-4.464500427,1,-3.838284254,1,-7.898791313,1,-0.009562952,1,-0.002920942,1,0.000435497,1,0.455737799,1,-0.454083323,1,0.316115618,1,-0.174541473,1,0.030008554,1,-0.006756306,1
0.612011492,-4.443369865,1,-3.814044952,1,-7.909230709,1,-0.012418304,1,-0.007278477,1,-0.002690575,1,0.455698848,1,-0.454100728,1,0.316103101,1,-0.153258324,1,0.053907871,1,-0.017110825,1
0.616008937,-4.464578629,1,-3.804695845,1,-7.932415009,1,-0.011381124,1,-0.005662587,1,-0.001476506,1,0.455658734,1,-0.454125017,1,0.316088617,1,-0.174253464,1,0.062894821,1,-0.040233135,1
0.620009243,-4.412259102,1,-3.788966179,1,-7.942667961,1,-0.010814144,1,-0.004151585,1,0.000932495,1,0.455623567,1,-0.454142064,1,0.316072583,1,-0.12178421,1,0.078314543,1,-0.05041647,1
0.62401098,-4.431817055,1,-3.809959412,1,-7.932994366,1,-0.009056808,1,-0.005030227,1,-0.00237332,1,0.455588579,1,-0.454156458,1,0.316064566,1,-0.141215324,1,0.057017803,1,-0.040662766,1
0.628008723,-4.463664532,1,-3.803380489,1,-7.928171635,1,-0.014073768,1,-0.000911384,1,-0.001629171,1,0.455551565,1,-0.45417285,1,0.316040933,1,-0.172918797,1,0.063273191,1,-0.03576088,1
0.632008433,-4.459368229,1,-3.820088625,1,-7.912506104,1,-0.010190713,1,-0.007601886,1,-0.004126655,1,0.45551756,1,-0.454186231,1,0.316018522,1,-0.168505192,1,0.046271563,1,-0.02001524,1
0.636009753,-4.488225937,1,-3.778986454,1,-7.9398489,1,-0.014014364,1,-0.004315419,1,-0.009062987,1,0.455478221,1,-0.454194903,1,0.315989494,1,-0.197286129,1,0.087046623,1,-0.047240257,1
0.6400069,-4.497361183,1,-3.814878941,1,-7.937351704,1,-0.013056458,1,-0.001971246,1,-0.007112307,1,0.45544529,1,-0.454191774,1,0.315957665,1,-0.206449032,1,0.050900698,1,-0.044602871,1
0.644006371,-4.459872246,1,-3.781558275,1,-7.941078186,1,-0.014088503,1,0.000539871,1,-0.010224984,1,0.455417603,1,-0.454182655,1,0.315922052,1,-0.169040203,1,0.084019899,1,-0.048187733,1
0.648007691,-4.534292221,1,-3.750361681,1,-7.942546844,1,-0.008256422,1,0.001343514,1,-0.012660349,1,0.45539555,1,-0.454165757,1,0.31588012,1,-0.243608952,1,0.115074873,1,-0.049504757,1
0.652005136,-4.541619301,1,-3.759169579,1,-7.933037758,1,-0.008239912,1,0.002600842,1,-0.018396294,1,0.455380172,1,-0.454133302,1,0.315831631,1,-0.25122118,1,0.106206894,1,-0.039810658,1
0.656004369,-4.515794754,1,-3.729907036,1,-7.918635845,1,-0.007036201,1,0.005312767,1,-0.017551038,1,0.455371976,1,-0.454092294,1,0.31577158,1,-0.225757122,1,0.135481834,1,-0.025219917,1
0.660006642,-4.493166924,1,-3.752199173,1,-7.94641161,1,-0.002783914,1,0.005919334,1,-0.022433611,1,0.455376118,1,-0.454042733,1,0.315706789,1,-0.203565121,1,0.113315821,1,-0.052820206,1
0.664005101,-4.481441975,1,-3.739862442,1,-7.938132286,1,-0.005333568,1,0.006811285,1,-0.024210302,1,0.45538494,1,-0.453986764,1,0.315628707,1,-0.192332268,1,0.125828266,1,-0.044359207,1
0.668004632,-4.475805759,1,-3.751936197,1,-7.933289528,1,-0.006033513,1,0.006445553,1,-0.025058853,1,0.455396742,1,-0.453914195,1,0.315547168,1,-0.187333584,1,0.113983631,1,-0.039283752,1
0.67200613,-4.518754005,1,-3.726103067,1,-7.952864647,1,-0.004966538,1,0.009625173,1,-0.028603034,1,0.455421388,1,-0.453836083,1,0.31545341,1,-0.230968475,1,0.140158892,1,-0.058652878,1
0.676003814,-4.533321381,1,-3.733521938,1,-7.908439636,1,-0.005942184,1,0.01863521,1,-0.031956315,1,0.455443919,1,-0.453735918,1,0.315348923,1,-0.246416092,1,0.133106709,1,-0.013929367,1
0.680003047,-4.461774349,1,-3.8077209,1,-7.941244602,1,-0.004237421,1,0.018714894,1,-0.031861171,1,0.455463707,1,-0.453604996,1,0.315260291,1,-0.176020145,1,0.059311152,1,-0.04630661,1
0.684010506,-4.388962269,1,-3.7698071,1,-7.931371689,1,-0.001479234,1,0.014775625,1,-0.033210628,1,0.455494493,1,-0.45348841,1,0.315158844,1,-0.104232788,1,0.09768796,1,-0.036103725,1
0.68801409,-4.435698986,1,-3.759186745,1,-7.922307014,1,-0.000603735,1,0.010640927,1,-0.038317561,1,0.455544055,1,-0.453375369,1,0.315036356,1,-0.151963711,1,0.108913422,1,-0.02679491,1
0.692013562,-4.476592541,1,-3.805435896,1,-7.928963184,1,-0.004121499,1,0.017416479,1,-0.033955213,1,0.455584139,1,-0.45325923,1,0.314919829,1,-0.193878174,1,0.063199043,1,-0.03316021,1
0.69601512,-4.398600578,1,-3.803763151,1,-7.893056393,1,-0.004415075,1,0.012069161,1,-0.037389159,1,0.455627441,1,-0.453133643,1,0.314804852,1,-0.116990566,1,0.065449715,1,0.003060818,1
0.700012565,-4.386057377,1,-3.848915339,1,-7.886487484,1,-0.003269952,1,0.015959147,1,-0.036580175,1,0.455669045,1,-0.453006059,1,0.314686596,1,-0.105569363,1,0.020866871,1,0.009960175,1
0.7040115,-4.355753899,1,-3.817876577,1,-7.928153038,1,-0.003152221,1,0.013582073,1,-0.041011717,1,0.455649555,1,-0.453016639,1,0.314310104,1,-0.075172901,1,0.051730394,1,-0.031672478,1
0.708013296,-4.357021332,1,-3.78887105,1,-7.921172142,1,-0.001200351,1,0.012317927,1,-0.038529698,1,0.455691516,1,-0.452898085,1,0.314183235,1,-0.0774827,1,0.081291199,1,-0.02439785,1
0.71201098,-4.337769985,1,-3.810995579,1,-7.901304722,1,-0.002984782,1,0.015106692,1,-0.038515676,1,0.455736965,1,-0.452785909,1,0.31406039,1,-0.05921793,1,0.05973649,1,-0.004276276,1
0.716010988,-4.453091145,1,-3.782777071,1,-7.889879704,1,0.000968095,1,0.010288442,1,-0.037538487,1,0.455789208,1,-0.452675343,1,0.313939184,1,-0.175511837,1,0.088576078,1,0.007371902,1
0.720012546,-4.363979816,1,-3.837779045,1,-7.914892197,1,-0.002756596,1,0.015567075,1,-0.036625676,1,0.455828518,1,-0.452555954,1,0.313815594,1,-0.087450027,1,0.034109592,1,-0.017333508,1
0.724010229,-4.335893154,1,-3.756631851,1,-7.887298584,1,-0.001992571,1,0.008949428,1,-0.032213118,1,0.455865592,1,-0.452452511,1,0.313708663,1,-0.06027317,1,0.115744591,1,0.010514259,1
0.728009462,-4.356635571,1,-3.781056404,1,-7.917703629,1,-0.001545901,1,0.007116896,1,-0.032934666,1,0.455913603,1,-0.452367902,1,0.313588381,1,-0.08175993,1,0.091858149,1,-0.019752502,1
0.732010782,-4.346003532,1,-3.828736782,1,-7.900107384,1,0.003502493,1,0.004424306,1,-0.030229919,1,0.455967009,1,-0.452290982,1,0.313471377,1,-0.071805,1,0.044744253,1,-0.002068996,1
0.736008167,-4.376408577,1,-3.862609148,1,-7.906348228,1,0.003864629,1,0.005657152,1,-0.034301013,1,0.4560242,1,-0.452213049,1,0.313350111,1,-0.10289526,1,0.011469603,1,-0.008232594,1
0.740007699,-4.34803772,1,-3.820253134,1,-7.875340462,1,-0.002622663,1,0.003140067,1,-0.033988412,1,0.456083596,1,-0.452141911,1,0.313228518,1,-0.07515049,1,0.054429531,1,0.022819996,1
0.744008958,-4.366310596,1,-3.829832554,1,-7.896773338,1,-0.00186826,1,0.005701126,1,-0.031681765,1,0.456124902,1,-0.452063382,1,0.313115478,1,-0.094113827,1,0.045324326,1,0.001528263,1
0.748006403,-4.376791,1,-3.789412022,1,-7.914607048,1,-0.000673102,1,0.001804698,1,-0.030885611,1,0.456166893,1,-0.451996535,1,0.31300506,1,-0.105182171,1,0.086202145,1,-0.016212463,1
0.752006173,-4.382641315,1,-3.774544477,1,-7.862897396,1,0.000853828,1,0.006631088,1,-0.02891463,1,0.456217855,1,-0.451925904,1,0.312894344,1,-0.111654282,1,0.101606131,1,0.035572529,1
0.756008208,-4.288544655,1,-3.810569286,1,-7.90444088,1,0.000641814,1,0.005442875,1,-0.028103679,1,0.456272632,1,-0.451852202,1,0.312791705,1,-0.018205643,1,0.066151857,1,-0.005901337,1
0.760006666,-4.294435501,1,-3.73281765,1,-7.902893066,1,0.000307541,1,0.003834667,1,-0.028227452,1,0.456318915,1,-0.451792151,1,0.312684774,1,-0.024625301,1,0.144381523,1,-0.004304886,1
0.764012039,-4.343033791,1,-3.786151648,1,-7.900035381,1,0.003553304,1,-0.003359612,1,-0.030530777,1,0.456382394,1,-0.451736361,1,0.312564015,1,-0.073714256,1,0.091655016,1,-0.001477242,1
0.768013597,-4.371594906,1,-3.824120522,1,-7.888768196,1,0.003259586,1,-0.005646913,1,-0.02861866,1,0.45645234,1,-0.451697111,1,0.31244424,1,-0.102621078,1,0.05431056,1,0.009665489,1
0.77201128,-4.384828568,1,-3.864593506,1,-7.884945393,1,0.004200373,1,-0.001384078,1,-0.023726206,1,0.45650816,1,-0.451662242,1,0.312332571,1,-0.116161346,1,0.014344931,1,0.01340723,1
0.776010513,-4.359115124,1,-3.917961597,1,-7.88608551,1,0.001766713,1,-0.004606088,1,-0.025444839,1,0.456563026,1,-0.451623499,1,0.31222567,1,-0.090788841,1,-0.038516521,1,0.012203693,1
0.780012012,-4.349639893,1,-3.875859976,1,-7.869023323,1,-0.00197466,1,-0.002563858,1,-0.02653056,1,0.456604958,1,-0.451590836,1,0.312122524,1,-0.081601143,1,0.003978252,1,0.029228687,1
0.784009457,-4.311366558,1,-3.829455137,1,-7.894797802,1,0.006554345,1,-0.003063647,1,-0.024927944,1,0.45665583,1,-0.451557636,1,0.312014997,1,-0.043619633,1,0.050846815,1,0.003383636,1
0.78800869,-4.381576061,1,-3.785062075,1,-7.901573181,1,-0.000998689,1,-0.001373359,1,-0.021149985,1,0.456700653,1,-0.451533973,1,0.311921537,1,-0.114037514,1,0.09563899,1,-0.003474712,1
0.792010009,-4.340593815,1,-3.822776556,1,-7.871026516,1,-0.004231272,1,0.000341278,1,-0.021481331,1,0.456738532,1,-0.45149681,1,0.311828107,1,-0.073382378,1,0.058292627,1,0.027065754,1
0.796007395,-4.326536655,1,-3.792145252,1,-7.896417141,1,0.003061508,1,0.000494178,1,-0.017993648,1,0.456775546,1,-0.451466441,1,0.31174016,1,-0.059592724,1,0.089273214,1,0.001647472,1
0.800007403,-4.363676548,1,-3.791996717,1,-7.861720085,1,0.003217978,1,-0.006773094,1,-0.022571441,1,0.456817299,1,-0.451448768,1,0.311649501,1,-0.096888065,1,0.089785099,1,0.036251068,1
0.804008961,-4.391902924,1,-3.870009899,1,-7.905197144,1,0.002238786,1,-0.007361876,1,-0.020516746,1,0.456872046,1,-0.451434433,1,0.311551899,1,-0.125240326,1,0.012231112,1,-0.0073843,1
0.808006644,-4.352418423,1,-3.834897995,1,-7.885741711,1,0.000869691,1,-0.004277297,1,-0.02012209,1,0.456913024,1,-0.451418519,1,0.311464787,1,-0.085896015,1,0.047697067,1,0.011973381,1
0.812006414,-4.371882439,1,-3.837431908,1,-7.901320934,1,-0.001383685,1,-0.003619784,1,-0.0189275,1,0.456953496,1,-0.451404512,1,0.311376333,1,-0.105483532,1,0.045508385,1,-0.00371027,1
0.816007912,-4.411599159,1,-3.763019085,1,-7.896437645,1,-0.003554467,1,-0.00172812,1,-0.019054569,1,0.456985712,1,-0.451373249,1,0.311299622,1,-0.145475388,1,0.120235443,1,0.001169682,1
0.820005357,-4.389821529,1,-3.812910557,1,-7.903851986,1,0.001949464,1,-0.002548353,1,-0.022833556,1,0.457024515,1,-0.451352477,1,0.311214626,1,-0.123880386,1,0.070689678,1,-0.006315708,1
0.824004591,-4.409294605,1,-3.795243502,1,-7.869616508,1,0.005181309,1,-0.002642427,1,-0.021935537,1,0.457083076,1,-0.451317072,1,0.311122656,1,-0.143664837,1,0.088885069,1,0.027826309,1
0.828006148,-4.337746143,1,-3.775448799,1,-7.874911308,1,0.001268917,1,-0.000216412,1,-0.020908665,1,0.457134068,1,-0.451279551,1,0.31103301,1,-0.072446823,1,0.109153271,1,0.022476673,1
0.832003593,-4.312641144,1,-3.77335906,1,-7.889644623,1,0.007136241,1,0.001297228,1,-0.019167794,1,0.457188845,1,-0.451239526,1,0.310949892,1,-0.047693729,1,0.111751318,1,0.007685184,1
0.836002827,-4.396713734,1,-3.742769718,1,-7.877366066,1,0.005855998,1,-0.003633428,1,-0.021471404,1,0.457242697,1,-0.451211959,1,0.310865015,1,-0.132009029,1,0.142816305,1,0.01985693,1
0.840004086,-4.414525986,1,-3.785490513,1,-7.878048897,1,0.005643317,1,-0.003223766,1,-0.019960845,1,0.457314253,1,-0.451181889,1,0.310774088,1,-0.150085926,1,0.100717545,1,0.019011497,1
0.844007909,-4.439815521,1,-3.739608288,1,-7.869297981,1,0.010681289,1,0.000629192,1,-0.02168829,1,0.457385182,1,-0.451147288,1,0.3106803,1,-0.175680161,1,0.147225857,1,0.027620792,1
0.848007917,-4.41852808,1,-3.75992465,1,-7.869915485,1,0.00861493,1,0.00427376,1,-0.024597254,1,0.457454383,1,-0.451091558,1,0.310593009,1,-0.154883385,1,0.127561808,1,0.026948452,1
0.852009714,-4.420656204,1,-3.790986538,1,-7.883196354,1,0.010647119,1,0.005166275,1,-0.025360111,1,0.457540214,1,-0.451032162,1,0.310498178,1,-0.157534122,1,0.097287416,1,0.013557434,1
0.856007934,-4.476980209,1,-3.737499237,1,-7.885701656,1,0.008240374,1,0.0065444,1,-0.029906027,1,0.457611173,1,-0.450968564,1,0.310407728,1,-0.214418411,1,0.151455641,1,0.011021137,1
0.860007703,-4.465517998,1,-3.800595999,1,-7.879245758,1,0.005526473,1,0.014223705,1,-0.028705701,1,0.45768699,1,-0.450880915,1,0.310319781,1,-0.203727722,1,0.089122534,1,0.017516613,1
0.864008963,-4.314112186,1,-3.81806159,1,-7.88749361,1,0.010108335,1,0.011340499,1,-0.025472157,1,0.457762629,1,-0.450788856,1,0.310233653,1,-0.053132057,1,0.072427988,1,0.009327888,1
0.868006408,-4.379760265,1,-3.756937027,1,-7.882438183,1,0.014398162,1,0.006175591,1,-0.028666157,1,0.457851321,1,-0.450703979,1,0.310146809,1,-0.11952734,1,0.134412766,1,0.014362335,1
0.872005403,-4.399237156,1,-3.826763868,1,-7.886510849,1,0.009202948,1,0.004930281,1,-0.028205909,1,0.457935065,1,-0.4506284,1,0.310054243,1,-0.139669418,1,0.06539011,1,0.010253429,1
0.876006901,-4.401658535,1,-3.804550886,1,-7.855638504,1,0.014282788,1,0.009906201,1,-0.027907096,1,0.45802778,1,-0.450544983,1,0.309955359,1,-0.142825127,1,0.088492632,1,0.041084766,1
0.880004346,-4.364714146,1,-3.84295249,1,-7.880083084,1,0.010415795,1,0.009633806,1,-0.029298324,1,0.458111346,1,-0.450465441,1,0.309868872,1,-0.106581211,1,0.050900936,1,0.016618729,1
0.88400358,-4.300677299,1,-3.895388603,1,-7.863377571,1,0.007184273,1,0.012136043,1,-0.02733982,1,0.458193749,1,-0.450371236,1,0.309781551,1,-0.043373585,1,-0.000707388,1,0.033362389,1
0.888005376,-4.276304245,1,-3.857196093,1,-7.878525734,1,0.010705328,1,0.009595565,1,-0.025482301,1,0.458271116,1,-0.450290769,1,0.309696794,1,-0.01970911,1,0.038247585,1,0.018219948,1
0.892003059,-4.275319576,1,-3.85274744,1,-7.850721836,1,0.00988246,1,0.009754889,1,-0.025240254,1,0.458348811,1,-0.450220138,1,0.309615612,1,-0.019346237,1,0.043442726,1,0.045990467,1
0.896002531,-4.212407589,1,-3.921116114,1,-7.897501469,1,0.001662614,1,0.011472878,1,-0.017205227,1,0.458397716,1,-0.450137198,1,0.309562564,1,0.042835236,1,-0.024384022,1,-0.00066328,1
0.900004327,-4.138114929,1,-3.902608633,1,-7.905420303,1,0.010853068,1,-0.000299205,1,-0.014641094,1,0.458446532,1,-0.45008561,1,0.309509426,1,0.11667347,1,-0.005393505,1,-0.008574963,1
0.90400207,-4.28899622,1,-3.901618004,1,-7.887394905,1,0.007000138,1,-0.005354955,1,-0.012229804,1,0.458506167,1,-0.450062335,1,0.309456348,1,-0.034412861,1,-0.003887892,1,0.009307384,1
0.908001542,-4.360414982,1,-3.900638819,1,-7.923194885,1,0.007428101,1,-0.002186618,1,-0.008367354,1,0.45855394,1,-0.450058281,1,0.309407592,1,-0.105867386,1,-0.002523661,1,-0.026662827,1
0.912002802,-4.353087902,1,-3.879632473,1,-7.886760712,1,0.003929635,1,-0.004284655,1,-0.008284698,1,0.458595455,1,-0.450046986,1,0.309363902,1,-0.098639488,1,0.018830299,1,0.0096488,1
0.916000247,-4.354614258,1,-3.863548756,1,-7.894338608,1,0.00670378,1,-0.004784935,1,-0.007945568,1,0.458631903,1,-0.450045943,1,0.309324265,1,-0.100174904,1,0.035204411,1,0.001934052,1
0.92000562,-4.309607029,1,-3.902177811,1,-7.916258335,1,0.003008323,1,-0.003731573,1,-0.0071526,1,0.458659619,1,-0.450047493,1,0.309292495,1,-0.055153847,1,-0.003208876,1,-0.02009964,1
0.924006939,-4.370685577,1,-3.795466661,1,-7.900030136,1,0.000291108,1,-0.007991595,1,-0.003600494,1,0.458686531,1,-0.450059444,1,0.309252173,1,-0.116127968,1,0.103692532,1,-0.004021168,1
0.928004324,-4.336662292,1,-3.858011484,1,-7.906333923,1,0.001364942,1,-0.002800992,1,-0.00857165,1,0.458705753,1,-0.450063139,1,0.309228241,1,-0.082071781,1,0.041292429,1,-0.010414124,1
0.932003558,-4.324792385,1,-3.81213975,1,-7.920606613,1,0.000836134,1,-0.01033105,1,-0.004857827,1,0.458731532,1,-0.450068176,1,0.309190571,1,-0.070157528,1,0.087357998,1,-0.024806499,1
0.936005652,-4.342727184,1,-3.798676968,1,-7.927828312,1,0.009002941,1,-0.01095683,1,-0.009646369,1,0.458772659,1,-0.450100482,1,0.309147954,1,-0.087808132,1,0.101085663,1,-0.032310963,1
0.940003812,-4.378832817,1,-3.789103985,1,-7.907550335,1,0.009083572,1,-0.017336257,1,-0.010403172,1,0.458829731,1,-0.450128317,1,0.309079528,1,-0.123668194,1,0.111056328,1,-0.012362957,1
0.944003582,-4.410480499,1,-3.713969469,1,-7.940182209,1,0.011465904,1,-0.015743615,1,-0.011757538,1,0.45890224,1,-0.450172484,1,0.309006274,1,-0.154927254,1,0.18667984,1,-0.045445919,1
0.948005378,-4.39257431,1,-3.713525772,1,-7.924636364,1,0.015554064,1,-0.015984291,1,-0.009326819,1,0.458990872,1,-0.450201452,1,0.308927804,1,-0.13676548,1,0.187768936,1,-0.03035593,1
0.952003598,-4.349302292,1,-3.772991419,1,-7.942266464,1,0.01604504,1,-0.011824467,1,-0.015237635,1,0.459006608,1,-0.450343698,1,0.30903253,1,-0.092241287,1,0.128159761,1,-0.048588753,1
0.956002831,-4.390323162,1,-3.749263525,1,-7.922385216,1,0.019849634,1,-0.013936806,1,-0.017305158,1,0.459158719,1,-0.450313717,1,0.308474958,1,-0.133526325,1,0.153143883,1,-0.029188633,1
0.96000433,-4.401326656,1,-3.754312277,1,-7.93725872,1,0.02431814,1,-0.012633396,1,-0.022691878,1,0.45929724,1,-0.450328559,1,0.308373094,1,-0.144398689,1,0.149160862,1,-0.044659138,1
0.964002073,-4.297674179,1,-3.851588488,1,-7.878591061,1,0.025508422,1,-0.011241678,1,-0.020591894,1,0.459444076,1,-0.450329632,1,0.308262169,1,-0.040737152,1,0.053041697,1,0.013431549,1
0.968001306,-4.297729492,1,-3.820980549,1,-7.847441196,1,0.027048046,1,-0.016063627,1,-0.016052585,1,0.4596017,1,-0.450357407,1,0.308162093,1,-0.040547848,1,0.084841013,1,0.043859005,1
0.972002566,-4.25138092,1,-3.864250422,1,-7.817250252,1,0.020323167,1,-0.020945124,1,-0.015602254,1,0.459753513,1,-0.450383663,1,0.308054626,1,0.006032467,1,0.042719126,1,0.073357105,1
0.976000011,-4.35771656,1,-3.905730486,1,-7.81734705,1,0.02371579,1,-0.016007701,1,-0.01462248,1,0.45989275,1,-0.450422317,1,0.307957351,1,-0.099963188,1,0.002264977,1,0.07256937,1
0.980000496,-4.343930244,1,-3.972080708,1,-7.772242069,1,0.020523496,1,-0.008622926,1,-0.014380127,1,0.460012913,1,-0.450442076,1,0.307878047,1,-0.086003304,1,-0.063174725,1,0.117129326,1
0.984002292,-4.263267517,1,-3.925250769,1,-7.87610054,1,0.016194219,1,-0.017213643,1,-0.006339679,1,0.460107028,1,-0.450471222,1,0.307817757,1,-0.005083561,1,-0.01565671,1,0.012793064,1
0.987999976,-4.280864239,1,-3.9877913,1,-7.806259155,1,0.007719393,1,-0.009161266,1,-0.001963539,1,0.460173309,1,-0.450507015,1,0.307768673,1,-0.022365093,1,-0.077742338,1,0.08223772,1
0.991999507,-4.196164131,1,-4.002039433,1,-7.84197855,1,0.00525381,1,-0.009581344,1,0.004035369,1,0.460200846,1,-0.450538397,1,0.307759643,1,0.06261158,1,-0.091832161,1,0.046291828,1
0.996001005,-4.220798492,1,-3.954857349,1,-7.824759483,1,-0.000384535,1,-0.005522244,1,0.00890353,1,0.460211396,1,-0.450573862,1,0.307781458,1,0.03828907,1,-0.044635773,1,0.063330173,1
1.000004053,-4.226726055,1,-3.894845486,1,-7.828540802,1,-0.00314954,1,-0.012062512,1,0.014213759,1,0.460191131,1,-0.450633645,1,0.307813168,1,0.032887936,1,0.015104055,1,0.059402466,1
1.004003525,-4.276106358,1,-3.889285326,1,-7.838858128,1,-0.000505746,1,-0.013734818,1,0.016628213,1,0.460167646,1,-0.450712442,1,0.307843626,1,-0.015799046,1,0.020328283,1,0.048872948,1
1.008005142,-4.333319187,1,-3.816384792,1,-7.946504116,1,-0.001826863,1,-0.023662882,1,0.016595194,1,0.460138559,1,-0.450806886,1,0.30787921,1,-0.072180271,1,0.092822075,1,-0.059017181,1
1.012002587,-4.360739708,1,-3.864147186,1,-7.803278446,1,-0.006544054,1,-0.010586165,1,0.019801574,1,0.460103869,1,-0.450899452,1,0.307924449,1,-0.098785877,1,0.044611216,1,0.083991051,1
1.016001821,-4.276932716,1,-3.860705376,1,-7.82261467,1,-0.002820968,1,-0.017557681,1,0.022914104,1,0.460063994,1,-0.450990349,1,0.307977855,1,-0.014178753,1,0.047566414,1,0.064464092,1
1.020003557,-4.318087578,1,-3.827872515,1,-7.870295525,1,-0.005981344,1,-0.019235756,1,0.020960342,1,0.460022539,1,-0.451086342,1,0.308035254,1,-0.054489136,1,0.079890728,1,0.016578674,1
1.024001241,-4.365905762,1,-3.799564838,1,-7.885496616,1,0.003893977,1,-0.020094953,1,0.020324294,1,0.459998518,1,-0.451192915,1,0.308078766,1,-0.101368904,1,0.107807875,1,0.001064777,1
1.028001308,-4.399775505,1,-3.669874191,1,-8.022089958,1,0.000504545,1,-0.028764607,1,0.014725076,1,0.459991336,1,-0.451309651,1,0.30810827,1,-0.13421154,1,0.237219334,1,-0.135949612,1
1.032003045,-4.443641663,1,-3.735011578,1,-7.828882694,1,0.00132092,1,-0.021951603,1,0.016752277,1,0.459988296,1,-0.451429605,1,0.308116943,1,-0.17702198,1,0.171831131,1,0.056812286,1
1.036000967,-4.435952187,1,-3.716614962,1,-7.886626244,1,0.008984035,1,-0.021929344,1,0.013497347,1,0.460007191,1,-0.451534688,1,0.308124423,1,-0.16840744,1,0.190177202,1,-0.0014081,1
1.0400002,-4.394387722,1,-3.658969164,1,-7.908268452,1,0.01385154,1,-0.023453377,1,0.006138946,1,0.460057765,1,-0.451636016,1,0.308124632,1,-0.12595129,1,0.248030186,1,-0.023633957,1
1.044001579,-4.330614567,1,-3.560213804,1,-7.954329014,1,0.021951504,1,-0.026534449,1,-0.001352288,1,0.460143179,1,-0.451731384,1,0.308099687,1,-0.061338902,1,0.347278357,1,-0.070393562,1
1.047999024,-4.326742649,1,-3.568289757,1,-7.864377975,1,0.027781403,1,-0.034674451,1,-0.000148843,1,0.460274369,1,-0.451844931,1,0.308027059,1,-0.05646801,1,0.340021133,1,0.018610001,1
1.051998258,-4.243123055,1,-3.540701628,1,-7.900287151,1,0.037491858,1,-0.029647067,1,0.000211829,1,0.460430771,1,-0.451954812,1,0.307959378,1,0.02811861,1,0.368633509,1,-0.018330574,1
1.055999517,-4.189306736,1,-3.610770464,1,-7.98583746,1,0.045973584,1,-0.036160853,1,-0.004707752,1,0.460628033,1,-0.45207262,1,0.307897627,1,0.082971096,1,0.299896479,1,-0.105102539,1
1.059996963,-4.280390263,1,-3.573061943,1,-7.978853226,1,0.054431058,1,-0.039550807,1,4.50E-05,1,0.460862577,1,-0.452208936,1,0.307810664,1,-0.006912708,1,0.339194298,1,-0.099556923,1
1.063996196,-4.242876053,1,-3.682374716,1,-7.872481346,1,0.057337306,1,-0.049079228,1,7.34E-06,1,0.46112287,1,-0.452372819,1,0.307719558,1,0.032042503,1,0.23162055,1,0.005169392,1
1.067997932,-4.3491292,1,-3.555579424,1,-7.952148438,1,0.066672541,1,-0.047052681,1,-0.001451752,1,0.461400956,1,-0.452541322,1,0.307628483,1,-0.072728157,1,0.360285759,1,-0.07623148,1
1.071995616,-4.301264286,1,-3.600769281,1,-7.961385727,1,0.067744814,1,-0.049160484,1,-0.002373291,1,0.46171242,1,-0.452703476,1,0.307536542,1,-0.0234375,1,0.317239523,1,-0.087310314,1
1.075995445,-4.332341194,1,-3.627427816,1,-7.876649857,1,0.074790381,1,-0.05101686,1,-0.002250599,1,0.462039918,1,-0.452888697,1,0.307429492,1,-0.052885056,1,0.292806149,1,-0.004567623,1
1.080002785,-4.280786991,1,-3.634121895,1,-7.951421261,1,0.074632794,1,-0.05091336,1,0.006046388,1,0.462372839,1,-0.453071892,1,0.307339251,1,0.000279903,1,0.288383722,1,-0.081344604,1
1.08400619,-4.282436848,1,-3.664584398,1,-7.889840603,1,0.076564848,1,-0.05143201,1,0.006448886,1,0.462718874,1,-0.453267515,1,0.307252347,1,0.000350475,1,0.26026988,1,-0.02187252,1
1.088005662,-4.346113682,1,-3.652754784,1,-7.963502407,1,0.078877077,1,-0.048943844,1,0.007672911,1,0.463067383,1,-0.453457206,1,0.307187974,1,-0.061658859,1,0.274478436,1,-0.097629547,1
1.092007399,-4.437434196,1,-3.713799715,1,-7.875965595,1,0.086354464,1,-0.043981448,1,0.011219746,1,0.463407278,1,-0.453644007,1,0.307157785,1,-0.151337147,1,0.215749979,1,-0.012142181,1
1.096005082,-4.417304516,1,-3.876938343,1,-7.805142403,1,0.080693476,1,-0.043685164,1,0.016502634,1,0.46375528,1,-0.453827411,1,0.307129622,1,-0.12959528,1,0.054994106,1,0.056606293,1
1.100004554,-4.357042313,1,-3.906338692,1,-7.810899734,1,0.079920374,1,-0.040861297,1,0.017940518,1,0.464078724,1,-0.454005539,1,0.307121634,1,-0.067767143,1,0.027793884,1,0.048892975,1
1.104005933,-4.322802067,1,-3.900824547,1,-7.829307079,1,0.076124795,1,-0.039397627,1,0.028008066,1,0.464382023,1,-0.454184949,1,0.307135999,1,-0.031949997,1,0.035346985,1,0.028604031,1
1.10800302,-4.314327717,1,-3.966048717,1,-7.776222229,1,0.071070127,1,-0.035181422,1,0.027177971,1,0.46465981,1,-0.454371989,1,0.307168037,1,-0.021831989,1,-0.028054237,1,0.0798769,1
1.112003088,-4.436466217,1,-3.884903908,1,-7.884931564,1,0.065107495,1,-0.037652574,1,0.032905765,1,0.464909166,1,-0.454559743,1,0.30722636,1,-0.142320633,1,0.054688215,1,-0.030533791,1
1.116004825,-4.507031918,1,-3.968533516,1,-7.720971107,1,0.063682221,1,-0.02323381,1,0.035091013,1,0.465129167,1,-0.454735607,1,0.307302445,1,-0.211341381,1,-0.027552128,1,0.131884575,1
1.120002866,-4.288576603,1,-3.878797531,1,-7.825492382,1,0.053210787,1,-0.021797061,1,0.030006733,1,0.465326875,1,-0.454872072,1,0.30739224,1,0.008313179,1,0.063474178,1,0.026061058,1
1.124002814,-4.46510601,1,-3.872449398,1,-7.791697979,1,0.054194465,1,-0.033097643,1,0.036980677,1,0.465514362,1,-0.455042511,1,0.307463378,1,-0.16671896,1,0.070964813,1,0.058460712,1
1.128004074,-4.479000568,1,-3.879965305,1,-7.726941109,1,0.048527144,1,-0.030170089,1,0.033632252,1,0.465696245,1,-0.45521462,1,0.307531714,1,-0.179101467,1,0.064545155,1,0.121840477,1
1.132001758,-4.321081638,1,-3.919964075,1,-7.70161438,1,0.046801474,1,-0.029324258,1,0.031259261,1,0.465848833,1,-0.455381691,1,0.307596177,1,-0.019715309,1,0.025421381,1,0.145923615,1
1.136000991,-4.268988609,1,-3.986014366,1,-7.745918751,1,0.039337855,1,-0.024772815,1,0.036766522,1,0.465982646,1,-0.45553863,1,0.307680815,1,0.033756733,1,-0.039882183,1,0.100488663,1
1.140002251,-4.311003685,1,-4.023864269,1,-7.750938416,1,0.036364038,1,-0.018375471,1,0.035604861,1,0.466085047,1,-0.455686897,1,0.307775319,1,-0.006956577,1,-0.077216387,1,0.094491959,1
1.143999696,-4.481792927,1,-4.082669735,1,-7.837543011,1,0.030776639,1,-0.003816273,1,0.040815495,1,0.466161728,1,-0.455794483,1,0.30791238,1,-0.176800728,1,-0.1356287,1,0.007171631,1
1.147998929,-4.412530899,1,-4.009382725,1,-7.793119907,1,0.028241741,1,-0.027497821,1,0.033445295,1,0.466228366,1,-0.455925345,1,0.308022499,1,-0.106389999,1,-0.062071562,1,0.050828934,1
1.152000308,-4.578166485,1,-4.107298374,1,-7.731170177,1,0.014553569,1,-0.020551944,1,0.037306715,1,0.466280967,1,-0.456075102,1,0.308102369,1,-0.270710468,1,-0.159864187,1,0.111996174,1
1.155997992,-4.513527393,1,-4.07878828,1,-7.788259983,1,0.016665105,1,-0.013474435,1,0.03687764,1,0.466290653,1,-0.45619151,1,0.308205485,1,-0.205049038,1,-0.131503344,1,0.054420471,1
1.160004139,-4.398458004,1,-4.07315731,1,-7.6862216,1,0.004842,1,-0.015332989,1,0.03493588,1,0.466286421,1,-0.456312656,1,0.308308393,1,-0.088916779,1,-0.126140594,1,0.156007767,1
1.16400671,-4.382724285,1,-3.967573643,1,-7.849421978,1,0.001291301,1,-0.017868657,1,0.037344426,1,0.46625632,1,-0.456440389,1,0.308420122,1,-0.072060585,1,-0.021040201,1,-0.007565022,1
1.168005109,-4.354480267,1,-3.980093956,1,-7.928374767,1,-6.23E-05,1,-0.022673361,1,0.040077019,1,0.466206998,1,-0.45658654,1,0.308541864,1,-0.042534351,1,-0.034231663,1,-0.08688736,1
1.172004819,-4.392243385,1,-3.9852283,1,-7.8659482,1,0.00036898,1,-0.024774281,1,0.050843924,1,0.466150105,1,-0.456755579,1,0.308682799,1,-0.078813553,1,-0.04013896,1,-0.024886608,1
1.176006436,-4.511518955,1,-4.022536278,1,-7.890147686,1,-0.002516825,1,-0.02074296,1,0.055077657,1,0.466074407,1,-0.456926137,1,0.308844805,1,-0.196591854,1,-0.07837081,1,-0.049445152,1
1.180003881,-4.697113991,1,-4.058729172,1,-7.780650616,1,-0.00443779,1,-0.015102252,1,0.0576411,1,0.465974629,1,-0.45709461,1,0.309034824,1,-0.380708218,1,-0.115673065,1,0.059796333,1
1.184002757,-4.002407551,1,-3.94977808,1,-8.124515533,1,-0.011230607,1,-0.019356152,1,0.057008643,1,0.46583721,1,-0.457228094,1,0.309262395,1,0.315169811,1,-0.008058786,1,-0.284043312,1
1.188004136,-4.439651489,1,-3.992494106,1,-7.952767849,1,-0.008240037,1,-0.043731052,1,0.069905221,1,0.465714097,1,-0.457469642,1,0.309437692,1,-0.119954586,1,-0.052208424,1,-0.112741947,1
1.192001581,-4.288648605,1,-3.962875128,1,-7.939035416,1,-0.015268715,1,-0.037850495,1,0.077952772,1,0.465580374,1,-0.457740277,1,0.30964011,1,0.03342247,1,-0.024162531,1,-0.099526882,1
1.196000814,-4.279067993,1,-3.994000912,1,-7.988770962,1,-0.010288173,1,-0.045432441,1,0.083438873,1,0.465430111,1,-0.458032697,1,0.309873641,1,0.045568466,1,-0.057034016,1,-0.149800301,1
1.200003028,-4.351408958,1,-3.991608381,1,-8.000025749,1,-0.017971208,1,-0.054304056,1,0.089534611,1,0.465263844,1,-0.458367378,1,0.31012395,1,-0.023836613,1,-0.05659461,1,-0.161694527,1
1.204001546,-4.248417854,1,-4.092020035,1,-7.92347765,1,-0.018229542,1,-0.058853742,1,0.097861148,1,0.465027094,1,-0.458783865,1,0.310098439,1,0.082806587,1,-0.159670115,1,-0.08582592,1
1.208001256,-4.257866859,1,-4.174584866,1,-7.906153202,1,-0.026048958,1,-0.062124625,1,0.104352631,1,0.464811653,1,-0.459182262,1,0.310378522,1,0.076850891,1,-0.244696379,1,-0.069195747,1
1.212003112,-4.197957993,1,-4.131792068,1,-7.990001202,1,-0.03102022,1,-0.072036147,1,0.115264073,1,0.464567721,1,-0.459625185,1,0.310675472,1,0.140642643,1,-0.20467639,1,-0.153802872,1
1.216001034,-4.174293041,1,-4.108956337,1,-8.070233345,1,-0.033077799,1,-0.083901882,1,0.124441408,1,0.464290977,1,-0.46011728,1,0.311005414,1,0.168620586,1,-0.184967279,1,-0.234862328,1
1.220000267,-4.236124516,1,-4.160061359,1,-8.003965378,1,-0.038259625,1,-0.095765762,1,0.133518994,1,0.463995636,1,-0.460667223,1,0.311344355,1,0.111607075,1,-0.2394557,1,-0.1695714,1
1.224001765,-4.405977249,1,-4.257958412,1,-8.024772644,1,-0.046623029,1,-0.101335846,1,0.143252134,1,0.463672101,1,-0.461263597,1,0.311693668,1,-0.053021908,1,-0.341047525,1,-0.191429615,1
1.227999449,-4.430195808,1,-4.24698782,1,-7.985208035,1,-0.048879016,1,-0.106695242,1,0.150147751,1,0.463303298,1,-0.461896956,1,0.312080175,1,-0.071694374,1,-0.334198713,1,-0.152888775,1
1.231998682,-4.456560612,1,-4.214728832,1,-8.042346954,1,-0.058145575,1,-0.105816565,1,0.161011621,1,0.462902188,1,-0.462551594,1,0.312490404,1,-0.092328548,1,-0.306357861,1,-0.211016178,1
1.236006618,-4.481841087,1,-4.12817955,1,-8.029750824,1,-0.064475216,1,-0.111145616,1,0.167071745,1,0.462452412,1,-0.463234454,1,0.312933177,1,-0.111632824,1,-0.22466135,1,-0.199330807,1
1.240010977,-4.479013443,1,-4.137481213,1,-7.962153912,1,-0.072026514,1,-0.118461341,1,0.170007795,1,0.461983144,1,-0.463942975,1,0.313382059,1,-0.10260725,1,-0.23901844,1,-0.132675648,1
1.244011521,-4.505672455,1,-4.181124687,1,-7.964774609,1,-0.075882643,1,-0.116946489,1,0.178877607,1,0.461472392,1,-0.464676142,1,0.313853025,1,-0.12285471,1,-0.288092375,1,-0.136183739,1
1.24801302,-4.469763756,1,-4.148128986,1,-7.979788303,1,-0.08737129,1,-0.124541484,1,0.185102075,1,0.460925072,1,-0.465424925,1,0.314341128,1,-0.080400944,1,-0.26084137,1,-0.152006626,1
1.252011061,-4.521252155,1,-4.189702511,1,-7.917351723,1,-0.089751378,1,-0.124828018,1,0.191390783,1,0.460345209,1,-0.466218024,1,0.314843625,1,-0.124958992,1,-0.308502436,1,-0.09043932,1
1.256010771,-4.546205997,1,-4.173945904,1,-7.919021606,1,-0.097488113,1,-0.130019203,1,0.203192547,1,0.459732533,1,-0.467024475,1,0.315376997,1,-0.142868519,1,-0.299117804,1,-0.092915058,1
1.260012269,-4.590631962,1,-4.115176201,1,-7.874848843,1,-0.106137805,1,-0.130705521,1,0.206106335,1,0.459069252,1,-0.467845619,1,0.315937042,1,-0.180125713,1,-0.247142553,1,-0.049416542,1
1.264009714,-4.530453205,1,-4.003742218,1,-7.893124104,1,-0.111939274,1,-0.130488589,1,0.21688956,1,0.458364427,1,-0.46867457,1,0.316527009,1,-0.112712383,1,-0.142843246,1,-0.068246841,1
1.268008947,-4.588657856,1,-3.925131798,1,-7.995728016,1,-0.114264861,1,-0.133891135,1,0.216013283,1,0.457633615,1,-0.469530523,1,0.317130744,1,-0.163449287,1,-0.07162571,1,-0.171428204,1
1.272010446,-4.603892326,1,-3.930164337,1,-7.930570602,1,-0.117981568,1,-0.133625746,1,0.218330562,1,0.456884593,1,-0.470395476,1,0.317743361,1,-0.171141624,1,-0.084208488,1,-0.106822491,1
1.276007891,-4.553533554,1,-3.882097721,1,-7.951339245,1,-0.123381905,1,-0.138057992,1,0.222803384,1,0.456124216,1,-0.471264154,1,0.318361491,1,-0.113211632,1,-0.043790817,1,-0.128130913,1
1.280007124,-4.701784134,1,-3.849883556,1,-7.91419363,1,-0.117236912,1,-0.136301517,1,0.225789145,1,0.455357134,1,-0.472158194,1,0.318994522,1,-0.253673077,1,-0.01932478,1,-0.091609478,1
1.284009695,-4.57758522,1,-3.851055145,1,-7.833591461,1,-0.123805575,1,-0.140863702,1,0.229347453,1,0.454585433,1,-0.473056316,1,0.319631815,1,-0.121653557,1,-0.028290033,1,-0.011646271,1
1.288008451,-4.58827877,1,-3.884474039,1,-7.828691483,1,-0.120302886,1,-0.136758566,1,0.232140735,1,0.453796566,1,-0.473966837,1,0.320288956,1,-0.124421597,1,-0.069662809,1,-0.007386208,1
1.292008758,-4.488613605,1,-3.833163261,1,-7.883766174,1,-0.119606994,1,-0.142207846,1,0.234410197,1,0.453011572,1,-0.474877,1,0.320953071,1,-0.016838074,1,-0.026271343,1,-0.063122749,1
1.296010494,-4.647983074,1,-3.720131874,1,-7.964046478,1,-0.119691998,1,-0.1532626,1,0.233641326,1,0.452225924,1,-0.475814104,1,0.321613073,1,-0.168058395,1,0.078781605,1,-0.144187927,1
1.300008416,-4.704292774,1,-3.758573771,1,-7.873888493,1,-0.120674521,1,-0.152008221,1,0.236352742,1,0.451439679,1,-0.4767645,1,0.322270542,1,-0.216107845,1,0.032331228,1,-0.054880142,1
1.304007888,-4.753576279,1,-3.863657951,1,-7.791844368,1,-0.120164439,1,-0.147875056,1,0.231305152,1,0.450666279,1,-0.47770524,1,0.32292217,1,-0.257218838,1,-0.080642462,1,0.026288986,1
1.308009267,-4.678869724,1,-3.632548571,1,-7.882709026,1,-0.121815555,1,-0.148415893,1,0.230474293,1,0.449877203,1,-0.478643239,1,0.323559463,1,-0.174366951,1,0.142460108,1,-0.065396309,1
1.312006354,-4.688560009,1,-3.561368465,1,-7.861331463,1,-0.119970113,1,-0.147468939,1,0.227293894,1,0.449105501,1,-0.479577929,1,0.324193716,1,-0.175945282,1,0.205777884,1,-0.044901848,1
1.316011786,-4.706754208,1,-3.615335703,1,-7.867309093,1,-0.117589638,1,-0.156233326,1,0.216480255,1,0.448359251,1,-0.480506599,1,0.324796617,1,-0.186083794,1,0.144158363,1,-0.051850319,1
1.320013046,-4.825099468,1,-3.640524387,1,-7.748569012,1,-0.113186337,1,-0.143467873,1,0.213994443,1,0.44763422,1,-0.481424332,1,0.325380683,1,-0.296471596,1,0.111503839,1,0.065867901,1
1.324010491,-4.836870193,1,-3.633372307,1,-7.758552551,1,-0.115899406,1,-0.134480327,1,0.208238885,1,0.446895182,1,-0.482290328,1,0.325973868,1,-0.300737381,1,0.111184359,1,0.055117607,1
1.328009725,-4.785601139,1,-3.652993917,1,-7.764986992,1,-0.114947073,1,-0.125633985,1,0.209217206,1,0.446156502,1,-0.483117282,1,0.326574445,1,-0.242304802,1,0.08417058,1,0.048061848,1
1.332011223,-4.809342861,1,-3.536528826,1,-7.738526344,1,-0.11543487,1,-0.117533982,1,0.199691564,1,0.445406049,1,-0.483909696,1,0.327170193,1,-0.259184837,1,0.19321847,1,0.074071407,1
1.336008906,-4.811794281,1,-3.412475109,1,-7.795433521,1,-0.117616586,1,-0.114590578,1,0.187017396,1,0.444677055,1,-0.484672546,1,0.327734649,1,-0.255033016,1,0.31008172,1,0.016746521,1
1.340008497,-4.855322361,1,-3.486079693,1,-7.629834175,1,-0.115461029,1,-0.103076287,1,0.185047194,1,0.443948358,1,-0.485397339,1,0.328285754,1,-0.292290211,1,0.22936511,1,0.182073593,1
1.344010234,-4.897288799,1,-3.495634556,1,-7.639725208,1,-0.119142629,1,-0.088337146,1,0.177688971,1,0.443208665,1,-0.486058772,1,0.328852654,1,-0.328536034,1,0.212734699,1,0.172198772,1
1.348008156,-4.834047318,1,-3.498135805,1,-7.639462471,1,-0.120290264,1,-0.080023468,1,0.174817622,1,0.442472428,1,-0.486673355,1,0.329417109,1,-0.259980679,1,0.203276873,1,0.172647953,1
1.352007389,-4.929643154,1,-3.467681408,1,-7.630567551,1,-0.12107297,1,-0.067387506,1,0.164659783,1,0.441732317,1,-0.487229019,1,0.32997483,1,-0.350773811,1,0.226861954,1,0.181982517,1
1.356008649,-4.876029491,1,-3.45032239,1,-7.622683048,1,-0.122543164,1,-0.066094831,1,0.155191824,1,0.44100228,1,-0.487747371,1,0.330495626,1,-0.292681217,1,0.237503052,1,0.190414906,1
1.360006094,-4.85414505,1,-3.345277071,1,-7.636294365,1,-0.120231554,1,-0.053449325,1,0.150546163,1,0.440274477,1,-0.488224953,1,0.331003189,1,-0.266671181,1,0.33592844,1,0.177506447,1
1.364005327,-4.826729774,1,-3.385002851,1,-7.656048775,1,-0.117445096,1,-0.049002882,1,0.141938284,1,0.439570367,1,-0.488650471,1,0.331499338,1,-0.235580921,1,0.289869785,1,0.158576488,1
1.368006945,-4.830738068,1,-3.504235983,1,-7.523144722,1,-0.118966796,1,-0.037989881,1,0.132741764,1,0.438871324,1,-0.489039063,1,0.33198002,1,-0.236233711,1,0.164413452,1,0.292429447,1
1.37200439,-4.844020844,1,-3.487156153,1,-7.611571789,1,-0.118809298,1,-0.023865115,1,0.13375546,1,0.438159585,1,-0.489372849,1,0.332471132,1,-0.24663496,1,0.175279617,1,0.20522356,1
1.376004577,-4.818830967,1,-3.5372684,1,-7.614915848,1,-0.123723254,1,-0.011057956,1,0.129040554,1,0.437438548,1,-0.48965767,1,0.332971871,1,-0.218986511,1,0.11897397,1,0.203329086,1
1.380006671,-4.872401714,1,-3.527034044,1,-7.681400299,1,-0.126255095,1,-0.012805573,1,0.129794896,1,0.436707318,1,-0.489914507,1,0.33347708,1,-0.270340919,1,0.122990847,1,0.138445854,1
1.384004593,-4.916826248,1,-3.5610919,1,-7.556850433,1,-0.125318229,1,0.006813226,1,0.126237839,1,0.43597573,1,-0.490148902,1,0.333978862,1,-0.31274271,1,0.082756519,1,0.264688015,1
1.388004303,-4.907839775,1,-3.528363705,1,-7.65816164,1,-0.128685907,1,0.015910761,1,0.122344114,1,0.435216695,1,-0.490319014,1,0.334509015,1,-0.302288532,1,0.109215021,1,0.165426254,1
1.392005682,-5.012057304,1,-3.354013205,1,-7.697297096,1,-0.127831936,1,0.028823093,1,0.11629755,1,0.434449881,1,-0.490435243,1,0.335047275,1,-0.405503273,1,0.277341127,1,0.128595829,1
1.396008968,-4.820664883,1,-3.527063131,1,-7.711667538,1,-0.127980798,1,0.035199966,1,0.113327265,1,0.433683425,1,-0.490502924,1,0.335593373,1,-0.213526726,1,0.098161221,1,0.116724014,1
1.40000844,-4.761265755,1,-3.49072814,1,-7.68186903,1,-0.126793221,1,0.040238384,1,0.112038076,1,0.432915479,1,-0.490551651,1,0.336140096,1,-0.153707027,1,0.128387213,1,0.149096012,1
1.404009938,-4.830848217,1,-3.46151042,1,-7.7929492,1,-0.125368237,1,0.048675269,1,0.112482131,1,0.432153046,1,-0.490588486,1,0.336694211,1,-0.222971916,1,0.151563168,1,0.040620327,1
1.408007383,-4.760783195,1,-3.408733606,1,-7.854664326,1,-0.120451152,1,0.0419976,1,0.111407995,1,0.431396842,1,-0.490606427,1,0.337260664,1,-0.152751923,1,0.198380947,1,-0.018438816,1
1.412006617,-4.819474697,1,-3.416819572,1,-7.840434551,1,-0.116979986,1,0.051700778,1,0.111891106,1,0.430654734,1,-0.490618855,1,0.337808728,1,-0.211336136,1,0.184454918,1,-0.001586437,1
1.416007876,-4.784629345,1,-3.332452536,1,-7.893014431,1,-0.111344196,1,0.05119691,1,0.107671425,1,0.429939061,1,-0.490608543,1,0.338362396,1,-0.176579952,1,0.263230801,1,-0.05154705,1
1.420005322,-4.746860027,1,-3.392250776,1,-7.836271763,1,-0.109440401,1,0.053351641,1,0.107383236,1,0.429230988,1,-0.490594,1,0.338917315,1,-0.13893652,1,0.197907209,1,0.007801056,1
1.424004912,-4.68341589,1,-3.426646709,1,-7.837385654,1,-0.104028158,1,0.052840445,1,0.10755451,1,0.428548932,1,-0.490584135,1,0.339455277,1,-0.075577259,1,0.158179998,1,0.009176254,1
1.428006649,-4.641269207,1,-3.484187365,1,-7.897275925,1,-0.108130068,1,0.057008591,1,0.106904805,1,0.427864701,1,-0.490562737,1,0.340004444,1,-0.033615112,1,0.09531045,1,-0.048172951,1
1.432004809,-4.552422047,1,-3.484754324,1,-7.960831165,1,-0.10880819,1,0.04565113,1,0.113961793,1,0.427170187,1,-0.490547597,1,0.340564311,1,0.055101395,1,0.089318514,1,-0.109184742,1
1.4360044,-4.576163769,1,-3.5866611,1,-7.882843494,1,-0.105982758,1,0.046756424,1,0.117507294,1,0.426482558,1,-0.49057743,1,0.341130406,1,0.031617165,1,-0.01804471,1,-0.028865337,1
1.44000566,-4.714041233,1,-3.46185565,1,-8.004408836,1,-0.105632037,1,0.042863987,1,0.118610822,1,0.425792873,1,-0.490599155,1,0.341694355,1,-0.10607338,1,0.101302147,1,-0.148061752,1
1.444003105,-4.538507462,1,-3.442732573,1,-7.970873833,1,-0.10794761,1,0.040779635,1,0.113063909,1,0.425104111,1,-0.49063319,1,0.342251301,1,0.069754124,1,0.114948988,1,-0.112216473,1
1.448008418,-4.527513504,1,-3.458973408,1,-7.937606812,1,-0.101389341,1,0.031659748,1,0.117035553,1,0.424431235,1,-0.4906964,1,0.342799783,1,0.081293106,1,0.093299866,1,-0.076821804,1
1.452010036,-4.548194885,1,-3.552636862,1,-7.949068069,1,-0.096856281,1,0.023566432,1,0.124203257,1,0.423727483,1,-0.490948588,1,0.343464434,1,0.062787533,1,-0.006376028,1,-0.086848259,1
1.456007481,-4.494374275,1,-3.662282705,1,-7.944490433,1,-0.105601661,1,0.020706911,1,0.133087561,1,0.423093647,1,-0.491043955,1,0.343558609,1,0.11743021,1,-0.121186018,1,-0.080425262,1
1.460006714,-4.490684032,1,-3.641189337,1,-8.004488945,1,-0.108734317,1,0.013223809,1,0.13468504,1,0.422396898,1,-0.491197497,1,0.344134569,1,0.122445107,1,-0.105862617,1,-0.138602734,1
1.464008689,-4.516965866,1,-3.61164403,1,-8.01455307,1,-0.106337607,1,0.007690076,1,0.142172292,1,0.421681941,1,-0.491391659,1,0.344726443,1,0.097837448,1,-0.082308054,1,-0.146957397,1
1.468006968,-4.512390137,1,-3.624700546,1,-7.96284771,1,-0.112952977,1,0.002402345,1,0.151736557,1,0.420940101,1,-0.491618633,1,0.345345616,1,0.104370117,1,-0.101629972,1,-0.093592167,1
1.47201252,-4.759903431,1,-3.632669687,1,-7.961310863,1,-0.119090848,1,-0.003761743,1,0.14900744,1,0.420181215,1,-0.491886228,1,0.345966816,1,-0.140836239,1,-0.116077423,1,-0.090514183,1
1.476014614,-4.676958561,1,-3.682303667,1,-7.984770298,1,-0.123668335,1,-0.00950435,1,0.159817904,1,0.41940552,1,-0.492158532,1,0.346589595,1,-0.0555439,1,-0.172330141,1,-0.112397671,1
1.480012774,-4.590122223,1,-3.6647892,1,-7.912835598,1,-0.123724051,1,-0.022938946,1,0.162868246,1,0.418603182,1,-0.492476076,1,0.347227812,1,0.034029484,1,-0.161728859,1,-0.038988113,1
1.484012246,-4.603692055,1,-3.622258425,1,-7.969941616,1,-0.13173832,1,-0.029316721,1,0.167384401,1,0.41778776,1,-0.492830187,1,0.347881794,1,0.023510456,1,-0.126285076,1,-0.094739437,1
1.488013625,-4.597716331,1,-3.746814966,1,-7.890048027,1,-0.134970307,1,-0.028689669,1,0.185566545,1,0.41693002,1,-0.493221015,1,0.348559201,1,0.03285408,1,-0.25832963,1,-0.013502598,1
1.492010951,-4.323034763,1,-3.825980425,1,-8.184253693,1,-0.146832928,1,0.002377897,1,0.187615305,1,0.416009486,1,-0.493576348,1,0.349325508,1,0.310595512,1,-0.345411777,1,-0.306004047,1
1.496010542,-4.401977062,1,-3.702043533,1,-8.08487606,1,-0.146626651,1,-0.081187464,1,0.211335897,1,0.415076315,1,-0.494077474,1,0.350065827,1,0.235969067,1,-0.229765654,1,-0.205510139,1
1.500011802,-4.584450245,1,-3.639429569,1,-8.109211922,1,-0.143238783,1,-0.075197332,1,0.214829922,1,0.414150506,1,-0.494696885,1,0.350800663,1,0.058828354,1,-0.175605774,1,-0.229269028,1
1.504009008,-4.681614876,1,-3.667751312,1,-7.989585876,1,-0.151058301,1,-0.080990896,1,0.222877786,1,0.413192868,1,-0.495336562,1,0.351573527,1,-0.032831192,1,-0.212667227,1,-0.109047413,1
1.508008718,-4.645414352,1,-3.574806929,1,-8.079125404,1,-0.151437759,1,-0.088795558,1,0.228320435,1,0.412217647,1,-0.496015221,1,0.352360874,1,0.009208202,1,-0.128675222,1,-0.198115826,1
1.512011051,-4.652355194,1,-3.406601191,1,-8.13967514,1,-0.14861384,1,-0.100170113,1,0.239337832,1,0.411234647,1,-0.496734917,1,0.353152603,1,0.008457184,1,0.030442953,1,-0.258351803,1
1.516009688,-4.591769218,1,-3.471789837,1,-8.008598328,1,-0.151796505,1,-0.105836585,1,0.242102146,1,0.410254836,1,-0.497496217,1,0.353969932,1,0.075586796,1,-0.043887138,1,-0.127169609,1
1.520009518,-4.64745903,1,-3.437536001,1,-8.14500618,1,-0.144131854,1,-0.114757262,1,0.253931791,1,0.409265459,1,-0.498301238,1,0.354816854,1,0.026814938,1,-0.018929005,1,-0.263640404,1
1.524010777,-4.523622036,1,-3.408646584,1,-8.160630226,1,-0.14632532,1,-0.130185083,1,0.259311408,1,0.408279985,1,-0.499150008,1,0.355656087,1,0.157941341,1,0.000614882,1,-0.279544353,1
1.528008223,-4.707846642,1,-3.34394145,1,-8.142323494,1,-0.143147632,1,-0.138014421,1,0.262592316,1,0.407302409,1,-0.500068605,1,0.356510937,1,-0.018396854,1,0.055910349,1,-0.261857033,1
1.532007456,-4.521644592,1,-3.342118502,1,-8.134284973,1,-0.136109114,1,-0.151117146,1,0.264518172,1,0.406335801,1,-0.501015246,1,0.357348859,1,0.175927639,1,0.048357725,1,-0.254618645,1
1.536008716,-4.776322365,1,-3.200320959,1,-8.09158802,1,-0.135006025,1,-0.155155808,1,0.274186164,1,0.40537563,1,-0.502008259,1,0.358208001,1,-0.070234299,1,0.180747271,1,-0.212959766,1
1.540006161,-4.608770847,1,-3.394152641,1,-8.335780144,1,-0.124136798,1,-0.137598157,1,0.270228833,1,0.404446959,1,-0.502968311,1,0.359097064,1,0.105546474,1,-0.022182941,1,-0.458174229,1
1.544005394,-4.673136234,1,-3.038199663,1,-8.195313454,1,-0.115379214,1,-0.209991857,1,0.282105625,1,0.40358004,1,-0.504063368,1,0.359929323,1,0.050561428,1,0.324910164,1,-0.319540024,1
1.548007727,-4.729450226,1,-3.174418926,1,-8.228829384,1,-0.114538521,1,-0.20682092,1,0.275410771,1,0.402746409,1,-0.505267084,1,0.360716909,1,0.004551888,1,0.179893732,1,-0.355490685,1
1.552011251,-4.593841076,1,-3.261078835,1,-8.215333939,1,-0.110502183,1,-0.225042865,1,0.282301307,1,0.401919276,1,-0.506486654,1,0.361510366,1,0.150594711,1,0.084459782,1,-0.34454155,1
1.556010962,-4.63429594,1,-3.314048052,1,-8.215382576,1,-0.11316482,1,-0.24115853,1,0.281841069,1,0.401094377,1,-0.507778645,1,0.362281978,1,0.121185303,1,0.022601366,1,-0.347481728,1
1.560012817,-4.770951748,1,-3.293551922,1,-8.252388,1,-0.102084681,1,-0.248468593,1,0.281583041,1,0.400300235,1,-0.509128034,1,0.36303407,1,-0.00394249,1,0.034343481,1,-0.387759686,1
1.564010501,-4.96322298,1,-3.370679379,1,-8.206595421,1,-0.113150068,1,-0.264474273,1,0.285662174,1,0.399505973,1,-0.510521948,1,0.363786161,1,-0.184314728,1,-0.051619053,1,-0.345454216,1
1.568009734,-4.968720436,1,-3.272524118,1,-8.116186142,1,-0.112125359,1,-0.273812592,1,0.276879728,1,0.398709416,1,-0.511941791,1,0.364498794,1,-0.177700996,1,0.037636042,1,-0.258663654,1
1.572010994,-4.703537941,1,-3.33078146,1,-8.262512207,1,-0.103529282,1,-0.287822604,1,0.283507288,1,0.397934139,1,-0.513408124,1,0.365184307,1,0.099978447,1,-0.02944088,1,-0.408913136,1
1.576008201,-4.808261395,1,-3.316768408,1,-8.364307404,1,-0.108604886,1,-0.305924505,1,0.286882341,1,0.397184074,1,-0.514948785,1,0.36587283,1,0.008374214,1,-0.024185181,1,-0.515065193,1
1.580007672,-4.773697853,1,-3.298254251,1,-8.18404007,1,-0.113946781,1,-0.309393495,1,0.286659747,1,0.396419048,1,-0.516520679,1,0.36654526,1,0.056312084,1,-0.014605284,1,-0.339277744,1
1.584009171,-4.759431362,1,-3.366861582,1,-8.227475166,1,-0.117986403,1,-0.330856949,1,0.2903032,1,0.395636797,1,-0.518153548,1,0.367201477,1,0.084458351,1,-0.092394829,1,-0.387435913,1
1.588006616,-4.819496155,1,-3.354999781,1,-8.189207077,1,-0.126805082,1,-0.344935715,1,0.292585582,1,0.394824088,1,-0.519846022,1,0.367844403,1,0.038766861,1,-0.09006238,1,-0.354084969,1
1.592005849,-4.659324646,1,-3.374561071,1,-8.325922966,1,-0.123503923,1,-0.358921617,1,0.299016327,1,0.394008011,1,-0.521598279,1,0.368480682,1,0.213804245,1,-0.119291782,1,-0.496011257,1
1.596007943,-4.687321186,1,-3.373659372,1,-8.337180138,1,-0.124846399,1,-0.390628695,1,0.310113668,1,0.393190384,1,-0.523445189,1,0.369117796,1,0.201460361,1,-0.128247499,1,-0.512938023,1
1.600005865,-4.650425434,1,-3.357234001,1,-8.239785194,1,-0.123149417,1,-0.406659395,1,0.314416707,1,0.3923769,1,-0.525396526,1,0.369745791,1,0.25487566,1,-0.121842146,1,-0.421735287,1
1.604005337,-4.686001301,1,-3.261906862,1,-8.339159966,1,-0.099049434,1,-0.435285509,1,0.330242187,1,0.391614914,1,-0.527454734,1,0.370374084,1,0.236703873,1,-0.036333561,1,-0.527993679,1
1.608006954,-4.804130554,1,-3.504573345,1,-8.642755508,1,-0.116194263,1,-0.462055475,1,0.334996253,1,0.390869796,1,-0.529622078,1,0.37100324,1,0.136879444,1,-0.288892508,1,-0.839069366,1
1.612004638,-4.594924927,1,-3.278515816,1,-8.363533974,1,-0.10080605,1,-0.496090949,1,0.347001672,1,0.39012596,1,-0.531897724,1,0.371622443,1,0.365279198,1,-0.072927237,1,-0.567882538,1
1.616003871,-4.903108597,1,-3.262119532,1,-8.626509666,1,-0.100534528,1,-0.521392465,1,0.352761805,1,0.389410734,1,-0.534319818,1,0.372227788,1,0.077496529,1,-0.066677094,1,-0.839703083,1
1.620004892,-4.831588745,1,-3.692127705,1,-8.828669548,1,-0.104747273,1,-0.571140349,1,0.356950343,1,0.388713717,1,-0.536879718,1,0.372803688,1,0.170547009,1,-0.50695467,1,-1.051458836,1
1.624002337,-4.814191818,1,-2.631935358,1,-9.022659302,1,-0.0815593,1,-0.609175384,1,0.365562141,1,0.388038754,1,-0.539611995,1,0.373325318,1,0.210887432,1,0.542803764,1,-1.255980968,1
1.628001571,-4.455487728,1,-2.646608591,1,-9.080327034,1,-0.01167071,1,-0.665951908,1,0.385250926,1,0.387618601,1,-0.54253912,1,0.373822689,1,0.594130039,1,0.519292593,1,-1.325969219,1
1.632008672,-4.661239624,1,-3.103119612,1,-9.178033829,1,0.036084741,1,-0.724174976,1,0.391118675,1,0.387439489,1,-0.545690835,1,0.374278307,1,0.414751053,1,0.055365086,1,-1.437880516,1
1.636012316,-4.659745216,1,-3.051037788,1,-9.326830864,1,0.072047547,1,-0.782517076,1,0.409896106,1,0.387443185,1,-0.549085736,1,0.374672771,1,0.444596767,1,0.10094595,1,-1.602690697,1
1.640011787,-4.650927067,1,-3.149249554,1,-9.4882164,1,0.109458469,1,-0.84886235,1,0.428731799,1,0.38760072,1,-0.552749336,1,0.375047088,1,0.483944416,1,-0.003138065,1,-1.781937122,1
1.644013286,-4.310927868,1,-3.497478962,1,-9.358401299,1,0.132818922,1,-0.928275108,1,0.459908783,1,0.387901127,1,-0.556696355,1,0.375389218,1,0.856757164,1,-0.356744051,1,-1.671890736,1
1.648010969,-4.511317253,1,-4.153214931,1,-9.540834427,1,0.144549161,1,-1.00835824,1,0.496007234,1,0.38827011,1,-0.561001301,1,0.375740409,1,0.692065716,1,-1.018094778,1,-1.876144409,1
1.652010798,-4.495249748,1,-4.603844643,1,-9.381483078,1,0.113468125,1,-1.08184135,1,0.533507407,1,0.388588727,1,-0.565654099,1,0.376111239,1,0.746606827,1,-1.475489855,1,-1.740282059,1
1.656012774,-4.658002853,1,-5.010697842,1,-9.752186775,1,0.092006586,1,-1.16530025,1,0.572455406,1,0.388788491,1,-0.570649981,1,0.376524717,1,0.625038624,1,-1.890782595,1,-2.135938644,1
1.660010695,-4.600453377,1,-5.186591625,1,-9.513085365,1,0.050891232,1,-1.23942554,1,0.634669423,1,0.388817906,1,-0.576013684,1,0.377000391,1,0.726657391,1,-2.077239037,1,-1.923259735,1
1.66400969,-4.828197956,1,-5.842044353,1,-9.737550735,1,-0.01816768,1,-1.332985401,1,0.687168002,1,0.388551414,1,-0.581783593,1,0.377605975,1,0.546148777,1,-2.7464118,1,-2.175469875,1
1.668011308,-4.694124699,1,-5.954789639,1,-9.615950584,1,-0.085772097,1,-1.407244444,1,0.739059091,1,0.387970984,1,-0.587918162,1,0.378279746,1,0.730247498,1,-2.876077414,1,-2.082736015,1
1.672008753,-4.575706482,1,-6.515965939,1,-9.662239075,1,-0.177514642,1,-1.499791145,1,0.807919979,1,0.386992753,1,-0.594492435,1,0.379090339,1,0.902049541,1,-3.458149433,1,-2.159202099,1
1.676007986,-4.477148533,1,-6.120264053,1,-9.554664612,1,-0.238367632,1,-1.602365255,1,0.886602879,1,0.385618061,1,-0.601507366,1,0.380047351,1,1.057308674,1,-3.087293625,1,-2.083221912,1
1.680009246,-5.101804256,1,-6.836090088,1,-9.942562103,1,-0.301213443,1,-1.706204891,1,0.984032929,1,0.383872271,1,-0.60905844,1,0.381240815,1,0.493383408,1,-3.831904888,1,-2.504798412,1
1.684006691,-4.6848979,1,-6.434952736,1,-9.586627007,1,-0.377682179,1,-1.779419303,1,1.0580163,1,0.381687701,1,-0.617041707,1,0.382670999,1,0.97414875,1,-3.463756323,1,-2.184008121,1
1.688005924,-4.550934315,1,-6.365974903,1,-9.97820282,1,-0.419286758,1,-1.902708292,1,1.167316914,1,0.379083931,1,-0.62552917,1,0.384380281,1,1.175609589,1,-3.431941748,1,-2.612755299,1
1.692007661,-5.003412724,1,-6.51323843,1,-10.01789093,1,-0.45769316,1,-1.988002539,1,1.277082562,1,0.376130104,1,-0.634564102,1,0.386449665,1,0.794528008,1,-3.620098114,1,-2.692230701,1
1.696005583,-4.592495441,1,-6.636517048,1,-9.850667953,1,-0.508749306,1,-2.096349955,1,1.388476372,1,0.37272191,1,-0.644108653,1,0.388923258,1,1.28035593,1,-3.788643122,1,-2.567062378,1
1.700005412,-6.187957764,1,-7.115994453,1,-10.82550144,1,-0.582668126,1,-2.18448019,1,1.522315383,1,0.368774742,1,-0.654229581,1,0.391841978,1,-0.236257553,1,-4.318463326,1,-3.586530209,1
1.704006672,-4.930902004,1,-6.317623138,1,-9.733222008,1,-0.643422067,1,-2.196519852,1,1.60374558,1,0.364311516,1,-0.6645962,1,0.394732118,1,1.10092926,1,-3.574558735,1,-2.539870262,1
1.708009958,-3.934813976,1,-5.951632977,1,-9.817661285,1,-0.650612473,1,-2.365441799,1,1.744470358,1,0.359295785,1,-0.675470293,1,0.398616612,1,2.180375099,1,-3.267906904,1,-2.672472954,1
1.71200943,-4.496243477,1,-5.869252682,1,-10.11760235,1,-0.655927837,1,-2.481405497,1,1.871009946,1,0.35394454,1,-0.687094092,1,0.402971029,1,1.707249641,1,-3.248615026,1,-3.02531147,1
1.716010809,-4.268363953,1,-6.133523941,1,-9.677963257,1,-0.682210505,1,-2.559287786,1,1.992697001,1,0.348125964,1,-0.699213266,1,0.407905936,1,2.026303768,1,-3.580033779,1,-2.641737461,1
1.720008135,-3.982057095,1,-7.012649059,1,-9.625265121,1,-0.71495527,1,-2.684976578,1,2.140185356,1,0.341739953,1,-0.711890459,1,0.413461506,1,2.406994343,1,-4.531086922,1,-2.64862299,1
1.724007368,-5.253723145,1,-7.177190781,1,-9.520167351,1,-0.796125114,1,-2.772287846,1,2.237356901,1,0.3346816,1,-0.725123882,1,0.419617474,1,1.232757568,1,-4.772917747,1,-2.606651306,1
1.728008747,-4.177384853,1,-6.543005466,1,-9.060562134,1,-0.871981025,1,-2.841359615,1,2.328235626,1,0.326837003,1,-0.738698006,1,0.426330268,1,2.40785265,1,-4.221523285,1,-2.212422848,1
1.732006192,-3.742508411,1,-6.063084126,1,-9.367675781,1,-0.886186719,1,-2.96818471,1,2.43978548,1,0.318348587,1,-0.752748787,1,0.433642656,1,2.943675518,1,-3.828998089,1,-2.588631153,1
1.736005902,-6.144886971,1,-5.387946606,1,-9.070097923,1,-0.881707966,1,-2.933896542,1,2.436305523,1,0.309385329,1,-0.767130494,1,0.441459179,1,0.64325428,1,-3.244213343,1,-2.363593578,1
1.740007877,-5.021214962,1,-6.622786522,1,-9.054406166,1,-0.877963722,1,-3.23684454,1,2.687028646,1,0.300053,1,-0.781817913,1,0.449925542,1,1.869602203,1,-4.571425915,1,-2.424160004,1
1.744006157,-7.220077515,1,-5.841282845,1,-9.266690254,1,-0.915116012,1,-3.163482189,1,2.732550383,1,0.289705873,1,-0.797332764,1,0.459403515,1,-0.222416401,1,-3.88941288,1,-2.718822002,1
1.748005867,-7.324077606,1,-6.752897263,1,-8.639574051,1,-0.951893628,1,-3.180818796,1,2.849497557,1,0.278586537,1,-0.812615514,1,0.469707012,1,-0.222816944,1,-4.903580666,1,-2.173987865,1
1.752007127,-6.694841385,1,-7.118245602,1,-8.062072754,1,-1.067749739,1,-3.140010834,1,2.93513155,1,0.266222417,1,-0.827905357,1,0.481091768,1,0.508407593,1,-5.377780437,1,-1.679621696,1
1.756004333,-5.577232361,1,-6.413933754,1,-8.030064583,1,-1.168304563,1,-3.196125269,1,3.012705803,1,0.252627909,1,-0.843171775,1,0.493377239,1,1.726168156,1,-4.788071632,1,-1.731766224,1
1.760003328,-6.574038506,1,-5.703305721,1,-8.583090782,1,-1.214904904,1,-3.248181105,1,3.10920167,1,0.237876713,1,-0.85867095,1,0.506648779,1,0.829298496,1,-4.197381496,1,-2.372260094,1
1.764004827,-8.034889221,1,-5.068109989,1,-9.23644352,1,-1.227507591,1,-3.23597765,1,3.153989315,1,0.2220833,1,-0.874162316,1,0.520933628,1,-0.533441544,1,-3.68588829,1,-3.115217209,1
1.768002272,-9.098584175,1,-4.46517992,1,-9.297226906,1,-1.221395969,1,-3.205657721,1,3.161199093,1,0.205502734,1,-0.889449596,1,0.536061585,1,-1.502084255,1,-3.20818758,1,-3.266905785,1
1.772001505,-8.762227058,1,-3.67151022,1,-9.132229805,1,-1.192196727,1,-3.212147474,1,3.157601357,1,0.188275546,1,-0.904481232,1,0.5519104,1,-1.07399416,1,-2.540085316,1,-3.193994522,1
1.776002765,-8.818806648,1,-3.080404997,1,-8.791728973,1,-1.156947851,1,-3.255630493,1,3.212509394,1,0.170372874,1,-0.919466913,1,0.568600297,1,-1.040851593,1,-2.075115442,1,-2.948405743,1
1.779999971,-9.458490372,1,-3.572078228,1,-9.240848541,1,-1.175835729,1,-3.255388498,1,3.289273739,1,0.151370734,1,-0.934430659,1,0.586545646,1,-1.592686653,1,-2.69564867,1,-3.495183945,1
1.783999205,-9.252735138,1,-3.125329018,1,-9.448767662,1,-1.136312723,1,-3.212881804,1,3.291600466,1,0.131320417,1,-0.949091017,1,0.605591953,1,-1.30257225,1,-2.379451275,1,-3.801623821,1
1.788006902,-9.595702171,1,-2.598600864,1,-8.99879837,1,-1.036834836,1,-3.187637329,1,3.30035615,1,0.110610791,1,-0.963393629,1,0.625603557,1,-1.564885139,1,-1.982440352,1,-3.451006889,1
1.792010784,-10.8850174,1,-2.661711454,1,-9.1105299,1,-0.897462904,1,-3.116474867,1,3.256843805,1,0.089475624,1,-0.977265418,1,0.646517277,1,-2.777544022,1,-2.172935724,1,-3.662445545,1
1.796010971,-12.55628395,1,-3.318793774,1,-8.559859276,1,-0.782507658,1,-2.981016874,1,3.243852615,1,0.068126388,1,-0.990463316,1,0.668162823,1,-4.377326965,1,-2.953749418,1,-3.209812641,1
1.800013304,-13.53650284,1,-3.752203703,1,-7.972997189,1,-0.746157348,1,-2.794407845,1,3.202340603,1,0.046202004,1,-1.002737045,1,0.690643787,1,-5.292346001,1,-3.50918889,1,-2.716908455,1
1.80401206,-13.32217979,1,-5.260511398,1,-6.777356625,1,-0.79511869,1,-2.640560389,1,3.175517559,1,0.023525622,1,-1.014024377,1,0.713829219,1,-5.019159317,1,-5.138934612,1,-1.610471725,1
1.80801177,-14.71963024,1,-5.150360107,1,-7.701975346,1,-0.8490237,1,-2.444135427,1,3.072400093,1,3.10E-05,1,-1.024369478,1,0.7375319,1,-6.363587379,1,-5.150202751,1,-2.61982584,1
1.81201303,-15.73981476,1,-5.443029404,1,-6.990140438,1,-0.92543596,1,-2.209071875,1,2.950802565,1,-0.023627635,1,-1.033534765,1,0.76102674,1,-7.337544441,1,-5.561283112,1,-1.986188889,1
1.816010475,-16.42462349,1,-5.954043388,1,-6.726251125,1,-1.12202251,1,-1.913016081,1,2.905919313,1,-0.048003487,1,-1.041389346,1,0.784618497,1,-7.983297348,1,-6.191051006,1,-1.792739868,1
1.820009708,-14.59136391,1,-5.21761322,1,-6.552140713,1,-1.381892085,1,-1.550708175,1,2.854447126,1,-0.073545717,1,-1.047587872,1,0.808375776,1,-6.119585037,1,-5.576690674,1,-1.678574562,1
1.824010968,-13.55558872,1,-3.122906208,1,-5.262870789,1,-1.660226822,1,-1.223140478,1,2.734797001,1,-0.099986985,1,-1.05219245,1,0.831878304,1,-5.061397552,1,-3.60680747,1,-0.439367771,1
1.828008413,-11.08472919,1,-4.603319168,1,-6.113536358,1,-1.760644913,1,-1.213343143,1,2.652464867,1,-0.12656714,1,-1.055876851,1,0.854626179,1,-2.572735786,1,-5.211289406,1,-1.335672855,1
1.832007647,-12.08462238,1,-2.515740633,1,-8.938498497,1,-1.835956216,1,-0.95267725,1,2.269897938,1,-0.152357787,1,-1.058738232,1,0.875877321,1,-3.55888176,1,-3.243020535,1,-4.201990604,1
1.836009264,-12.0398674,1,-3.221494436,1,-10.556077,1,-1.607807875,1,-0.526678264,1,1.836261272,1,-0.174561039,1,-1.060400248,1,0.893387794,1,-3.506174088,1,-4.051289558,1,-5.850848675,1
1.840006709,-8.956628799,1,-4.914020538,1,-10.53213024,1,-1.401852965,1,-0.135254383,1,1.427701712,1,-0.192440793,1,-1.060464144,1,0.907023787,1,-0.42263031,1,-5.827702045,1,-5.843027115,1
1.844006419,-7.097849846,1,-6.697871685,1,-10.0522995,1,-1.288957,1,0.119055033,1,1.004886508,1,-0.206325158,1,-1.05951345,1,0.916788042,1,1.431603432,1,-7.678230762,1,-5.368391037,1
1.848008156,-5.836121559,1,-6.168997765,1,-8.314317703,1,-1.216333747,1,0.191411942,1,0.653834343,1,-0.216865391,1,-1.058187962,1,0.923114896,1,2.686981201,1,-7.201102734,1,-3.629966259,1
1.852006197,-11.06449413,1,-6.706933498,1,-7.771400928,1,-0.936497033,1,0.157401547,1,0.22428818,1,-0.224018052,1,-1.057141066,1,0.926313877,1,-2.54641819,1,-7.77449894,1,-3.08585453,1
1.85600543,-11.02701473,1,-7.547141552,1,-8.752966881,1,-0.76203531,1,0.490098834,1,-0.125423059,1,-0.227101669,1,-1.055910707,1,0.926075578,1,-2.514857292,1,-8.631507874,1,-4.060530663,1
1.86000669,-7.671062469,1,-9.093658447,1,-8.135759354,1,-0.884667814,1,0.898703337,1,-0.411141276,1,-0.227413967,1,-1.053460002,1,0.922672451,1,0.829266548,1,-10.18419075,1,-3.423349857,1
1.864004135,-4.47571373,1,-8.395706177,1,-6.946522713,1,-1.011577368,1,1.157019734,1,-0.639550149,1,-0.225961819,1,-1.049875498,1,0.916608751,1,4.007222176,1,-9.486213684,1,-2.202870846,1
1.868009686,-3.162183762,1,-8.023344994,1,-5.458009243,1,-1.084540367,1,1.160588384,1,-0.777977765,1,-0.223525599,1,-1.045935273,1,0.908944666,1,5.30150795,1,-9.109693527,1,-0.679158688,1
1.872011304,-3.421433926,1,-7.467533588,1,-5.681574821,1,-1.145880699,1,1.137470245,1,-0.900084436,1,-0.220637515,1,-1.042230248,1,0.900436342,1,5.024041653,1,-8.54693222,1,-0.869037151,1
1.876008749,-2.28117609,1,-5.911681175,1,-5.732316494,1,-1.16465652,1,1.211863399,1,-1.000293612,1,-0.217216864,1,-1.038469672,1,0.891090691,1,6.145693302,1,-6.981448174,1,-0.885138988,1
1.880007982,-0.994008243,1,-4.941299915,1,-5.233607769,1,-1.130827069,1,1.267354608,1,-1.067196488,1,-0.213188201,1,-1.03450036,1,0.881050706,1,7.41309166,1,-5.998599052,1,-0.349508286,1
1.884009242,0.127593532,1,-4.21412611,1,-4.728872299,1,-1.044545412,1,1.239994526,1,-1.123049617,1,-0.208613187,1,-1.030494213,1,0.870637953,1,8.514606476,1,-5.256035805,1,0.192922592,1
1.888006449,0.611957073,1,-3.663761377,1,-4.598988056,1,-0.917644441,1,1.149057388,1,-1.169352174,1,-0.203467041,1,-1.0267452,1,0.860044003,1,8.980049133,1,-4.686676025,1,0.358863831,1
1.892005682,0.924585938,1,-3.378112793,1,-4.553024292,1,-0.773196995,1,1.053550839,1,-1.212630391,1,-0.197707355,1,-1.023378134,1,0.849353075,1,9.275586128,1,-4.37798357,1,0.438236237,1
1.896006942,1.082319975,1,-3.419370413,1,-4.34016943,1,-0.630702913,1,0.965316474,1,-1.247099876,1,-0.191346318,1,-1.020361185,1,0.838601172,1,9.417924881,1,-4.392259121,1,0.682065487,1
1.900004387,1.198096752,1,-3.602976799,1,-4.169324875,1,-0.505503654,1,0.887424946,1,-1.274081349,1,-0.184457451,1,-1.01766324,1,0.827843904,1,9.519868851,1,-4.545366764,1,0.881582737,1
1.90400362,1.334874272,1,-3.911129951,1,-3.971904278,1,-0.410544395,1,0.79940486,1,-1.300713778,1,-0.177149057,1,-1.015267491,1,0.817087889,1,9.644313812,1,-4.820091248,1,1.105362892,1
1.90800488,1.283026338,1,-4.21896553,1,-3.787166357,1,-0.34587574,1,0.704468489,1,-1.336556315,1,-0.169482335,1,-1.013210058,1,0.806281686,1,9.5818367,1,-5.091855526,1,1.313756227,1
1.912002563,1.054789543,1,-4.441557884,1,-3.732398033,1,-0.300017655,1,0.619701564,1,-1.371106625,1,-0.161512539,1,-1.01148808,1,0.795377731,1,9.344676018,1,-5.27606535,1,1.389422894,1
1.916002035,0.867904246,1,-4.72545433,1,-3.709985971,1,-0.282322079,1,0.545744359,1,-1.421450853,1,-0.153290853,1,-1.010067821,1,0.784311652,1,9.15041256,1,-5.519620895,1,1.430152655,1
1.920003295,0.614487946,1,-4.907086849,1,-3.737243891,1,-0.290686667,1,0.485608041,1,-1.477688789,1,-0.144825712,1,-1.008900762,1,0.772969902,1,8.890919685,1,-5.659108162,1,1.418997526,1
1.924000978,0.473627031,1,-5.041981697,1,-3.792057991,1,-0.312267214,1,0.430009454,1,-1.546451807,1,-0.136122227,1,-1.007944226,1,0.761261463,1,8.745071411,1,-5.750171661,1,1.3783741,1
1.928000212,0.209668294,1,-5.076784611,1,-3.880033493,1,-0.343408793,1,0.37760222,1,-1.624253511,1,-0.12716347,1,-1.00718081,1,0.749112427,1,8.477125168,1,-5.73942709,1,1.302798748,1
1.932001591,-0.040491812,1,-5.034346581,1,-3.994965792,1,-0.377708584,1,0.33081758,1,-1.71216321,1,-0.117871948,1,-1.006589293,1,0.736416996,1,8.223873138,1,-5.649378777,1,1.198645353,1
1.935998917,-0.214966506,1,-4.959657192,1,-4.114902973,1,-0.409449071,1,0.294232607,1,-1.804158568,1,-0.108197734,1,-1.006136417,1,0.723102808,1,8.047028542,1,-5.524821281,1,1.088136673,1
1.93999815,-0.371246368,1,-4.885072708,1,-4.266178131,1,-0.433640838,1,0.264579356,1,-1.905814409,1,-0.098065667,1,-1.005784035,1,0.709109008,1,7.888904572,1,-5.397776604,1,0.945223331,1
1.944005609,-0.500994325,1,-4.726100445,1,-4.30696249,1,-0.454631716,1,0.237344787,1,-2.002449036,1,-0.087450221,1,-1.005513906,1,0.694432497,1,7.757741451,1,-5.183650017,1,0.91180563,1
1.948009014,-0.555280566,1,-4.53172493,1,-4.497415066,1,-0.458565831,1,0.214173824,1,-2.094578743,1,-0.076302283,1,-1.00528574,1,0.67906189,1,7.702260017,1,-4.931212425,1,0.728009701,1
1.952008247,-0.595706642,1,-4.344693661,1,-4.554709911,1,-0.458486199,1,0.192423642,1,-2.190608978,1,-0.064570971,1,-1.00507462,1,0.662993491,1,7.660727024,1,-4.682966232,1,0.676782131,1
1.956010461,-0.624635637,1,-4.170710087,1,-4.693609238,1,-0.442937762,1,0.168111667,1,-2.281058311,1,-0.052164406,1,-1.004861593,1,0.6458444,1,7.630681038,1,-4.444145203,1,0.543435097,1
1.960008979,-0.608562946,1,-4.030130386,1,-4.743931293,1,-0.424191087,1,0.14637132,1,-2.35437274,1,-0.039282259,1,-1.004653335,1,0.628524542,1,7.645661831,1,-4.236147881,1,0.497918129,1
1.964008927,-0.556526542,1,-4.009086132,1,-4.867442608,1,-0.402228922,1,0.116949312,1,-2.415377378,1,-0.025903426,1,-1.004441142,1,0.610710084,1,7.696585178,1,-4.145002842,1,0.378439903,1
1.968010783,-0.676801383,1,-3.858456612,1,-4.845159531,1,-0.384542167,1,0.099664323,1,-2.467035055,1,-0.012110789,1,-1.004195929,1,0.59249419,1,7.575023174,1,-3.922032595,1,0.40412426,1
1.972008705,-0.686814129,1,-3.747021198,1,-4.972869396,1,-0.360010743,1,0.052409645,1,-2.50906229,1,0.002052372,1,-1.003947735,1,0.573943257,1,7.563706398,1,-3.736242771,1,0.278838158,1
1.976007938,-0.962990522,1,-3.80379796,1,-5.174017906,1,-0.333773851,1,0.031239875,1,-2.539401054,1,0.016519949,1,-1.003676653,1,0.555149496,1,7.286107063,1,-3.717006922,1,0.079217911,1
1.980009437,-1.340688109,1,-3.78807497,1,-5.364715099,1,-0.307130843,1,0.015199594,1,-2.578019619,1,0.031303555,1,-1.003341198,1,0.536108792,1,6.906646252,1,-3.623547792,1,-0.110566139,1
1.984006882,-1.725474,1,-3.851222038,1,-5.594173431,1,-0.27423647,1,0.014827382,1,-2.602946758,1,0.046382155,1,-1.002871513,1,0.516851425,1,6.519390583,1,-3.607311964,1,-0.339241505,1
1.988006115,-2.230016232,1,-3.875468016,1,-5.887265205,1,-0.247969091,1,0.02539435,1,-2.635159731,1,0.061717831,1,-1.002239466,1,0.497412413,1,6.011521816,1,-3.550680399,1,-0.631489754,1
1.992007375,-2.890753984,1,-4.021988869,1,-6.224044323,1,-0.222630322,1,0.060675059,1,-2.677398443,1,0.077329569,1,-1.001342058,1,0.477760971,1,5.346055031,1,-3.614621401,1,-0.966610432,1
1.996005177,-3.600425243,1,-4.206981182,1,-6.514026165,1,-0.193768203,1,0.123771794,1,-2.723590136,1,0.093228549,1,-1.000077605,1,0.457881153,1,4.629708767,1,-3.715111494,1,-1.253364086,1
2.000005007,-4.260588169,1,-4.42334938,1,-6.74594593,1,-0.184469625,1,0.220311433,1,-2.770915508,1,0.109355502,1,-0.998295248,1,0.437805593,1,3.96011591,1,-3.845108986,1,-1.479327679,1
2.004007101,-4.787307739,1,-4.621946812,1,-6.954777241,1,-0.173851043,1,0.339904726,1,-2.818621874,1,0.125598624,1,-0.995870054,1,0.417608976,1,3.420523643,1,-3.955744028,1,-1.678477287,1
2.008005619,-5.252882004,1,-4.656991482,1,-7.213379383,1,-0.173465654,1,0.476310998,1,-2.863424301,1,0.14190194,1,-0.992735922,1,0.397334456,1,2.938241005,1,-3.901226282,1,-1.92320776,1
2.012005329,-5.520800114,1,-4.667434216,1,-7.403903484,1,-0.172228932,1,0.627204418,1,-2.913285255,1,0.158150956,1,-0.988826931,1,0.377080441,1,2.64937067,1,-3.820775509,1,-2.095126152,1
2.016006708,-5.71945715,1,-4.561115265,1,-7.531857014,1,-0.165504366,1,0.776694715,1,-2.954818487,1,0.174298823,1,-0.984118819,1,0.356915414,1,2.425313473,1,-3.622185469,1,-2.199622154,1
2.020004034,-5.844307423,1,-4.370174408,1,-7.59090662,1,-0.154135928,1,0.926831782,1,-2.988078833,1,0.190218002,1,-0.978615761,1,0.336993784,1,2.270544529,1,-3.338022709,1,-2.230358601,1
2.024009466,-5.839811325,1,-4.179449081,1,-7.65822649,1,-0.133993104,1,1.071293831,1,-3.008682728,1,0.205844715,1,-0.972338676,1,0.317422926,1,2.240614891,1,-3.053269148,1,-2.26470232,1
2.028011084,-5.810060978,1,-3.977669716,1,-7.61284399,1,-0.106691785,1,1.204576612,1,-3.017409086,1,0.221105337,1,-0.965334535,1,0.298319697,1,2.231575489,1,-2.756933212,1,-2.18204546,1
2.032008648,-5.717157841,1,-3.835871696,1,-7.572952747,1,-0.070112355,1,1.328223109,1,-3.01164341,1,0.235939562,1,-0.957669079,1,0.279793799,1,2.281574249,1,-2.520340443,1,-2.101087093,1
2.036007881,-5.543664455,1,-3.753174305,1,-7.530846119,1,-0.032758687,1,1.433665991,1,-2.998533249,1,0.250311732,1,-0.949410915,1,0.261914909,1,2.408320427,1,-2.342824459,1,-2.014643192,1
2.04000926,-5.436704159,1,-3.744534731,1,-7.414010525,1,0.002600796,1,1.529016972,1,-2.971330166,1,0.264149934,1,-0.94064343,1,0.244756252,1,2.465056419,1,-2.239842892,1,-1.850763321,1
2.044006586,-5.392820358,1,-3.695718527,1,-7.386168957,1,0.037309002,1,1.602928281,1,-2.932242155,1,0.277403325,1,-0.931452036,1,0.228399783,1,2.455636024,1,-2.097605467,1,-1.773733616,1
2.048006296,-5.380096912,1,-3.741242886,1,-7.338745594,1,0.070874825,1,1.668354392,1,-2.884369373,1,0.290059656,1,-0.921909273,1,0.212844729,1,2.412315845,1,-2.050883532,1,-1.675477505,1
2.05200839,-5.458321095,1,-3.819102049,1,-7.298199654,1,0.096467897,1,1.730104566,1,-2.837529421,1,0.302092612,1,-0.91206342,1,0.198104441,1,2.275524616,1,-2.037979603,1,-1.582706451,1
2.056006432,-5.620368004,1,-3.925883055,1,-7.302442551,1,0.122014202,1,1.784913063,1,-2.782998323,1,0.313499928,1,-0.901967227,1,0.184180319,1,2.052642822,1,-2.055694342,1,-1.533653736,1
2.060005903,-5.744337559,1,-4.265443802,1,-7.307832241,1,0.133326039,1,1.840631366,1,-2.725117683,1,0.32427454,1,-0.891625166,1,0.171055079,1,1.86554575,1,-2.308026314,1,-1.484613895,1
2.064007282,-5.870378017,1,-4.206774235,1,-7.304232597,1,0.135525957,1,1.89784205,1,-2.669811249,1,0.334377706,1,-0.88104409,1,0.158718079,1,1.674077034,1,-2.164313555,1,-1.425354958,1
2.06800437,-6.273835182,1,-4.414217472,1,-7.382009029,1,0.14094232,1,1.949815273,1,-2.635626793,1,0.343870759,1,-0.870264053,1,0.147081643,1,1.203092098,1,-2.288745403,1,-1.446561337,1
2.072003841,-6.43305254,1,-4.665266037,1,-7.46045208,1,0.136726499,1,2.003601551,1,-2.607029915,1,0.352828711,1,-0.859252989,1,0.136048377,1,0.974003315,1,-2.458393574,1,-1.467382908,1
2.07600522,-6.561011314,1,-4.702556133,1,-7.56404686,1,0.139817372,1,2.058928728,1,-2.580549717,1,0.361270249,1,-0.848011255,1,0.125579208,1,0.77378273,1,-2.415882587,1,-1.512304783,1
2.080002546,-6.661102772,1,-4.793658733,1,-7.578424454,1,0.130369902,1,2.111232042,1,-2.560279131,1,0.369238913,1,-0.836544514,1,0.115629144,1,0.599028587,1,-2.428635836,1,-1.467062473,1
2.08400178,-6.664102554,1,-4.857229233,1,-7.585451603,1,0.131628051,1,2.161873341,1,-2.549100637,1,0.376771092,1,-0.824861169,1,0.106145665,1,0.518974304,1,-2.415199757,1,-1.413622379,1
2.088003874,-6.641480446,1,-4.931756973,1,-7.676695824,1,0.145929202,1,2.19415617,1,-2.540472031,1,0.383975387,1,-0.812994182,1,0.097039096,1,0.462326527,1,-2.413570642,1,-1.444018841,1
2.092002153,-6.620859623,1,-4.946123123,1,-7.762599468,1,0.163062423,1,2.217331409,1,-2.539353371,1,0.390929401,1,-0.800993383,1,0.08825618,1,0.4017663,1,-2.352355003,1,-1.469212055,1
2.096001863,-6.60371685,1,-5.063474178,1,-7.759778023,1,0.179403782,1,2.230162382,1,-2.541106462,1,0.397691578,1,-0.788878083,1,0.07974115,1,0.335927486,1,-2.394452095,1,-1.406095505,1
2.100003481,-6.609940529,1,-5.210940838,1,-7.754227638,1,0.204877466,1,2.232198715,1,-2.547787666,1,0.404321373,1,-0.776688159,1,0.071432173,1,0.245183468,1,-2.466777563,1,-1.341078758,1
2.104007006,-6.630884171,1,-5.441360474,1,-7.767840862,1,0.233796105,1,2.223806858,1,-2.562229156,1,0.410871059,1,-0.764453948,1,0.063291304,1,0.138388157,1,-2.621963024,1,-1.296393871,1
2.108006239,-6.663456917,1,-5.62505579,1,-7.797263622,1,0.251267552,1,2.2170012,1,-2.569137573,1,0.417344123,1,-0.752186239,1,0.05528729,1,0.01871109,1,-2.730386019,1,-1.268779278,1
2.11200738,-6.728933811,1,-5.912622929,1,-7.810804844,1,0.266529471,1,2.198338509,1,-2.587718725,1,0.423743933,1,-0.739918947,1,0.047376297,1,-0.134872437,1,-2.942746401,1,-1.226744175,1
2.116004944,-6.781804085,1,-6.134199619,1,-7.813158035,1,0.266526163,1,2.17737484,1,-2.601712942,1,0.430070281,1,-0.727657914,1,0.039526567,1,-0.276796341,1,-3.089248657,1,-1.175026894,1
2.120004177,-6.777784348,1,-6.388497829,1,-7.80260849,1,0.262699723,1,2.148552656,1,-2.617066383,1,0.436278284,1,-0.715417862,1,0.031749852,1,-0.362652302,1,-3.268981934,1,-1.111841202,1
2.124005556,-6.834833622,1,-6.532587051,1,-7.827925205,1,0.247580171,1,2.10945344,1,-2.627367735,1,0.442338735,1,-0.703249276,1,0.024007054,1,-0.510005951,1,-3.339399338,1,-1.086133003,1
2.12800312,-6.896021366,1,-6.68114233,1,-7.878079414,1,0.233903095,1,2.067777872,1,-2.648620367,1,0.448262841,1,-0.691165626,1,0.016276471,1,-0.661794662,1,-3.415184498,1,-1.086936951,1
2.132002354,-6.920576096,1,-6.716839314,1,-7.942798138,1,0.220502764,1,2.017089367,1,-2.660352707,1,0.454069555,1,-0.679179549,1,0.008543759,1,-0.777118683,1,-3.378964901,1,-1.104070663,1
2.136003733,-6.952142715,1,-6.782170296,1,-7.962716579,1,0.211221725,1,1.96368587,1,-2.665326595,1,0.459757477,1,-0.667334914,1,0.000812563,1,-0.899249554,1,-3.373402357,1,-1.07835722,1
2.140001535,-7.020130634,1,-6.809736252,1,-8.021755219,1,0.209438875,1,1.907298207,1,-2.673666954,1,0.465355098,1,-0.65563488,1,-0.006920157,1,-1.057529926,1,-3.330942392,1,-1.093766212,1
2.144001007,-7.066484451,1,-6.830952644,1,-8.107831955,1,0.208622679,1,1.850288272,1,-2.674931765,1,0.470860869,1,-0.64410305,1,-0.014648142,1,-1.193676949,1,-3.283109665,1,-1.138285637,1
2.148002863,-7.199443817,1,-6.913695335,1,-8.1260252,1,0.217444107,1,1.785773158,1,-2.663528442,1,0.47630918,1,-0.632764399,1,-0.022353921,1,-1.415686607,1,-3.297633648,1,-1.117184162,1
2.152000666,-7.409897804,1,-6.942546844,1,-8.258293152,1,0.231229156,1,1.718326092,1,-2.657940626,1,0.48171854,1,-0.621632576,1,-0.030030958,1,-1.714291096,1,-3.259021759,1,-1.212490559,1
2.155999899,-7.69268465,1,-6.958907127,1,-8.396935463,1,0.254079133,1,1.664444685,1,-2.653707743,1,0.487111449,1,-0.610702693,1,-0.037688907,1,-2.084314823,1,-3.208521843,1,-1.31650877,1
2.160001278,-8.004013062,1,-6.921982288,1,-8.512541771,1,0.281308502,1,1.60481441,1,-2.643643379,1,0.492519319,1,-0.599951625,1,-0.045314472,1,-2.482107162,1,-3.105071068,1,-1.399779797,1
2.163998365,-8.267382622,1,-6.986721039,1,-8.573710442,1,0.312816828,1,1.570502877,1,-2.648927689,1,0.497957319,1,-0.589332879,1,-0.052913923,1,-2.831502914,1,-3.103397369,1,-1.43069315,1
2.167997599,-8.652115822,1,-6.972157955,1,-8.718033791,1,0.349058479,1,1.527522802,1,-2.653881788,1,0.503469288,1,-0.578810334,1,-0.060508173,1,-3.302087784,1,-3.022142649,1,-1.546824455,1
2.171998978,-8.988765717,1,-7.027738094,1,-8.843955994,1,0.392169327,1,1.500319481,1,-2.672979832,1,0.509079635,1,-0.568348169,1,-0.068100952,1,-3.724683285,1,-3.010491848,1,-1.646537781,1
2.175996304,-9.318882942,1,-7.154651642,1,-8.87802124,1,0.43897441,1,1.477124572,1,-2.687355042,1,0.51480794,1,-0.557906926,1,-0.075711362,1,-4.141149521,1,-3.069403172,1,-1.65628767,1
2.179995537,-9.593549728,1,-7.330001354,1,-8.887029648,1,0.477235883,1,1.460270643,1,-2.705462217,1,0.520627201,1,-0.547463477,1,-0.083317831,1,-4.502748489,1,-3.176124096,1,-1.642672539,1
2.184003353,-9.744607925,1,-7.465996265,1,-8.863318443,1,0.513677418,1,1.446935058,1,-2.726567984,1,0.526524127,1,-0.537000179,1,-0.09091001,1,-4.741459846,1,-3.242934704,1,-1.59792757,1
2.188007355,-9.981407166,1,-7.599254608,1,-8.87075901,1,0.541769803,1,1.435566902,1,-2.740945339,1,0.532469869,1,-0.526506603,1,-0.098480605,1,-5.066716671,1,-3.306652546,1,-1.585773468,1
2.192007542,-10.13389397,1,-7.748540401,1,-8.861621857,1,0.572802842,1,1.427110076,1,-2.748303652,1,0.538438737,1,-0.515978158,1,-0.105995536,1,-5.308498383,1,-3.386237144,1,-1.558366299,1
2.196009159,-10.46123219,1,-7.860117435,1,-8.867395401,1,0.602300525,1,1.42091167,1,-2.755340099,1,0.544427693,1,-0.505429387,1,-0.113446251,1,-5.725841045,1,-3.428035736,1,-1.547258854,1
2.2000072,-10.6900444,1,-7.786195278,1,-8.909614563,1,0.629545569,1,1.415667176,1,-2.762245655,1,0.550423861,1,-0.494834304,1,-0.120807074,1,-6.045583248,1,-3.284310341,1,-1.573832512,1
2.204006433,-10.99521637,1,-7.681572914,1,-8.9265728,1,0.662395954,1,1.419204593,1,-2.771396637,1,0.556425571,1,-0.484144449,1,-0.128308624,1,-6.443026066,1,-3.109781265,1,-1.576202869,1
2.208007574,-11.38865662,1,-7.680315495,1,-8.913342476,1,0.689595103,1,1.437354445,1,-2.784140825,1,0.562443793,1,-0.473407537,1,-0.135506123,1,-6.929666996,1,-3.038572311,1,-1.549693584,1
2.212005138,-11.68233109,1,-7.688544273,1,-8.907021523,1,0.712266445,1,1.465424061,1,-2.797293425,1,0.568445563,1,-0.46252352,1,-0.142583683,1,-7.318344116,1,-2.976843834,1,-1.530902386,1
2.216004372,-11.99594307,1,-7.731208324,1,-8.831139565,1,0.72848314,1,1.505758405,1,-2.811666489,1,0.574398518,1,-0.451448858,1,-0.14952147,1,-7.729153633,1,-2.949714184,1,-1.443076134,1
2.220005751,-12.24890041,1,-7.811549187,1,-8.710347176,1,0.745670319,1,1.559348941,1,-2.822079659,1,0.580263257,1,-0.440152586,1,-0.156277463,1,-8.081791878,1,-2.960693836,1,-1.310616493,1
2.224003077,-12.37852192,1,-7.795836926,1,-8.674859047,1,0.749547422,1,1.626698017,1,-2.835500717,1,0.586004138,1,-0.428605318,1,-0.162815809,1,-8.31385994,1,-2.876296043,1,-1.26349926,1
2.22800231,-12.47838593,1,-7.753107071,1,-8.550458908,1,0.753291368,1,1.691722631,1,-2.843859434,1,0.591609895,1,-0.416781664,1,-0.169136494,1,-8.519182205,1,-2.765641212,1,-1.127417088,1
2.232004404,-12.57964134,1,-7.646918297,1,-8.395341873,1,0.749095261,1,1.762403727,1,-2.839540482,1,0.597031415,1,-0.404693097,1,-0.175184697,1,-8.728832245,1,-2.592741966,1,-0.960407734,1
2.236002445,-12.56538296,1,-7.499562263,1,-8.220700264,1,0.747827768,1,1.851158738,1,-2.830152512,1,0.602253318,1,-0.39233014,1,-0.180926293,1,-8.82600975,1,-2.380049706,1,-0.773593903,1
2.240002155,-12.47201443,1,-7.310339928,1,-7.989786148,1,0.741266012,1,1.927873969,1,-2.819830656,1,0.607270122,1,-0.379686803,1,-0.1863323,1,-8.847196579,1,-2.126967907,1,-0.530227661,1
2.244003534,-12.19360447,1,-7.052907944,1,-7.774635315,1,0.738884151,1,2.00090003,1,-2.788049459,1,0.612067997,1,-0.366816521,1,-0.191372037,1,-8.685991287,1,-1.807431698,1,-0.302463531,1
2.248001099,-11.97500038,1,-6.722566605,1,-7.620082378,1,0.738427997,1,2.060425282,1,-2.746022224,1,0.616673052,1,-0.353799164,1,-0.196042493,1,-8.58652401,1,-1.416780949,1,-0.135531425,1
2.25200057,-11.71527958,1,-6.430160046,1,-7.310630322,1,0.748113453,1,2.111504078,1,-2.692442417,1,0.621100187,1,-0.340690911,1,-0.200321421,1,-8.447351456,1,-1.065901756,1,0.185839653,1
2.256001711,-11.40236092,1,-6.057391644,1,-7.070031166,1,0.758399129,1,2.155883551,1,-2.62462306,1,0.625383735,1,-0.327548712,1,-0.20419915,1,-8.255856514,1,-0.636398792,1,0.437561989,1
2.260004759,-11.04409599,1,-5.732151985,1,-6.745337009,1,0.781970382,1,2.182761908,1,-2.545395136,1,0.62955296,1,-0.31445092,1,-0.207650393,1,-8.019145966,1,-0.25610733,1,0.772259235,1
2.264004469,-10.73602581,1,-5.436810493,1,-6.443840504,1,0.814256549,1,2.198267937,1,-2.446233749,1,0.633656025,1,-0.301474869,1,-0.210667089,1,-7.832012177,1,0.092810154,1,1.082224369,1
2.26800561,-10.43337059,1,-5.141849041,1,-6.14082098,1,0.849944413,1,2.20092845,1,-2.337216377,1,0.637727499,1,-0.288703561,1,-0.213252932,1,-7.648863316,1,0.439994812,1,1.391852856,1
2.272002697,-10.22885513,1,-4.875254154,1,-5.825834274,1,0.891258895,1,2.189987898,1,-2.214369297,1,0.641806185,1,-0.276225567,1,-0.21539478,1,-7.561547279,1,0.757629871,1,1.711258888,1
2.276002884,-10.06196308,1,-4.556074619,1,-5.539862633,1,0.949603379,1,2.164322138,1,-2.077551126,1,0.64594084,1,-0.264100373,1,-0.217093125,1,-7.508939743,1,1.126974583,1,1.999146461,1
2.280004501,-9.934383392,1,-4.214702606,1,-5.19233942,1,1.013888121,1,2.138287306,1,-1.940247416,1,0.650186002,1,-0.252384275,1,-0.21834448,1,-7.492145061,1,1.518013954,1,2.345769405,1
2.284002542,-9.92797184,1,-3.8105371,1,-4.868100643,1,1.092008948,1,2.101579666,1,-1.788996458,1,0.654599309,1,-0.241127759,1,-0.219147041,1,-7.592488766,1,1.971763849,1,2.665967464,1
2.288002253,-9.995557785,1,-3.423659325,1,-4.514999866,1,1.188410997,1,2.061992407,1,-1.635861635,1,0.659237623,1,-0.230351225,1,-0.219485834,1,-7.762555599,1,2.408602238,1,3.01162529,1
2.292003632,-10.0988102,1,-2.95665741,1,-4.15431118,1,1.292894483,1,2.024815083,1,-1.474383354,1,0.664166152,1,-0.220081985,1,-0.219367206,1,-7.963706017,1,2.92645359,1,3.361139297,1
2.296001196,-10.25691414,1,-2.406777859,1,-3.872817039,1,1.416069508,1,1.976039767,1,-1.309860587,1,0.669461071,1,-0.210353166,1,-0.218769401,1,-8.214763641,1,3.528652191,1,3.627309322,1
2.300000429,-10.68068123,1,-1.551507354,1,-3.678258181,1,1.568177104,1,1.928313136,1,-1.14611423,1,0.675211549,1,-0.201184675,1,-0.217720911,1,-8.726308823,1,4.438405514,1,3.80191493,1
2.304001808,-11.03691578,1,-0.448900461,1,-3.647845507,1,1.752233148,1,1.882658839,1,-1.006059408,1,0.681554139,1,-0.192549899,1,-0.216252044,1,-9.165361404,1,5.598743439,1,3.807015181,1
2.307999134,-11.47895718,1,0.667466164,1,-3.285137177,1,1.959671855,1,1.825163484,1,-0.877297282,1,0.688630044,1,-0.184445828,1,-0.214436278,1,-9.685256958,1,6.777147293,1,4.138213634,1
2.311998367,-11.64383316,1,1.523238659,1,-3.137724638,1,2.186257601,1,1.761330485,1,-0.791191876,1,0.696543932,1,-0.176779881,1,-0.212376401,1,-9.923888206,1,7.700114727,1,4.247371674,1
2.315999746,-11.89229488,1,2.224345446,1,-2.701539516,1,2.383833885,1,1.691761374,1,-0.732424557,1,0.705315948,1,-0.169537187,1,-0.210218444,1,-10.24212456,1,8.473675728,1,4.638380051,1
2.319997072,-12.23033047,1,2.398813486,1,-2.358803511,1,2.548306227,1,1.59849,1,-0.694960654,1,0.714837611,1,-0.162673786,1,-0.208060801,1,-10.64636135,1,8.725025177,1,4.929664612,1
2.323997021,-12.54839325,1,2.274343967,1,-1.791059017,1,2.633438587,1,1.492833018,1,-0.677390337,1,0.724903405,1,-0.156224683,1,-0.206019342,1,-11.02669716,1,8.680238724,1,5.440860271,1
2.327998638,-12.97242928,1,1.463242412,1,-1.117860913,1,2.636353493,1,1.372626424,1,-0.655301988,1,0.735192001,1,-0.15018639,1,-0.204162493,1,-11.5090971,1,7.94924736,1,6.054452419,1
2.331996679,-13.32764339,1,0.639701784,1,-0.355428308,1,2.525392056,1,1.255180955,1,-0.623580813,1,0.745287538,1,-0.144574091,1,-0.20247896,1,-11.9186058,1,7.203248024,1,6.756962776,1
2.335996151,-13.32173634,1,-0.35064134,1,0.23528114,1,2.31101656,1,1.1216501,1,-0.590067685,1,0.754772604,1,-0.139432818,1,-0.200998068,1,-11.96247482,1,6.284946442,1,7.290281773,1
2.340003252,-13.16862202,1,-1.427790284,1,0.823725104,1,1.993324757,1,0.977558374,1,-0.54027915,1,0.763232946,1,-0.134829208,1,-0.199740827,1,-11.85396194,1,5.271502972,1,7.826783657,1
2.344006538,-12.71609497,1,-2.307148457,1,1.224283099,1,1.60082674,1,0.812370062,1,-0.473774254,1,0.770302653,1,-0.130837604,1,-0.198709369,1,-11.44012928,1,4.445083618,1,8.183512688,1
2.348006248,-12.00196934,1,-3.069129229,1,1.456660032,1,1.15637064,1,0.628300548,1,-0.391468883,1,0.775726318,1,-0.127565995,1,-0.197925419,1,-10.7577343,1,3.723636866,1,8.382110596,1
2.352007389,-11.32123184,1,-3.495901108,1,1.434448361,1,0.695636988,1,0.425950199,1,-0.307404935,1,0.779361963,1,-0.125079334,1,-0.197446212,1,-10.10112286,1,3.324151039,1,8.33733654,1
2.356004715,-10.55156326,1,-3.423567533,1,1.106925845,1,0.253695935,1,0.207651839,1,-0.233128324,1,0.781232476,1,-0.123420045,1,-0.197313473,1,-9.347557068,1,3.410802126,1,7.998474121,1
2.360003948,-9.913493156,1,-3.174755096,1,0.673287213,1,-0.124247067,1,-0.022020264,1,-0.174496755,1,0.781507134,1,-0.122587994,1,-0.197632417,1,-8.717563629,1,3.662209034,1,7.56366539,1
2.364005089,-9.539345741,1,-2.907753706,1,0.212920189,1,-0.415103048,1,-0.241904095,1,-0.144957826,1,0.780509114,1,-0.122532658,1,-0.198462486,1,-8.343952179,1,3.922376394,1,7.110164642,1
2.368002415,-9.44701767,1,-2.774903536,1,-0.439027786,1,-0.624527037,1,-0.434091419,1,-0.126365632,1,0.778561473,1,-0.123118944,1,-0.199815184,1,-8.245933533,1,4.041286469,1,6.471006393,1
2.372002602,-9.059421539,1,-2.830343723,1,-0.944808662,1,-0.754969537,1,-0.613548577,1,-0.132370934,1,0.776016831,1,-0.124245815,1,-0.201666534,1,-7.847400665,1,3.967290401,1,5.981579781,1
2.376004457,-8.6474123,1,-3.015126944,1,-1.299857497,1,-0.82981205,1,-0.780931652,1,-0.156675071,1,0.773139119,1,-0.125842541,1,-0.204061151,1,-7.419897079,1,3.761185408,1,5.644668102,1
2.380002499,-8.170166969,1,-3.229151964,1,-1.738661408,1,-0.856966138,1,-0.933573306,1,-0.188949019,1,0.770129919,1,-0.127824441,1,-0.206974968,1,-6.923424721,1,3.524523497,1,5.224462032,1
2.38400197,-7.498519421,1,-3.533853769,1,-2.042037964,1,-0.842057705,1,-1.082616806,1,-0.24187313,1,0.767161489,1,-0.13012296,1,-0.210426778,1,-6.229483604,1,3.197118521,1,4.939024448,1
2.388003349,-7.050832272,1,-3.731911421,1,-2.321805954,1,-0.815046191,1,-1.222528338,1,-0.299233735,1,0.764364541,1,-0.132691845,1,-0.214432165,1,-5.756889343,1,2.977230787,1,4.675679207,1
2.392000675,-6.621706009,1,-4.063982487,1,-2.523284674,1,-0.764585078,1,-1.350992203,1,-0.378142118,1,0.761817336,1,-0.135477364,1,-0.219009846,1,-5.300764561,1,2.624799728,1,4.488631248,1
2.39599967,-6.421943188,1,-4.506811619,1,-2.77061677,1,-0.710393667,1,-1.486055017,1,-0.460479856,1,0.759581089,1,-0.138433531,1,-0.224193871,1,-5.072360516,1,2.163553715,1,4.253376007,1
2.400001049,-6.364634037,1,-4.946416855,1,-2.95430994,1,-0.651909709,1,-1.615380526,1,-0.553760767,1,0.757663071,1,-0.141540885,1,-0.229992211,1,-4.984958649,1,1.707551479,1,4.079384804,1
2.403998375,4.289625645,1,-20.43353081,1,-6.173235893,1,-1.22151947,1,-1.875793695,1,-0.522328973,1,0.755248725,1,-0.145000353,1,-0.236433029,1,5.70278883,1,-13.79987335,1,0.872986794,1
2.407997608,-7.971450329,1,-17.90373611,1,-1.359062672,1,-2.376960993,1,-2.703889608,1,-0.116695352,1,0.748977542,1,-0.15085493,1,-0.243774951,1,-6.501653671,1,-11.32014751,1,5.722437382,1
2.411999226,-8.003380775,1,-15.06617737,1,3.093892574,1,-3.154394627,1,-2.831873655,1,0.172992378,1,0.739099622,1,-0.15917328,1,-0.251274943,1,-6.453205109,1,-8.561315536,1,10.23079872,1
2.41599679,-0.319736689,1,-10.54590321,1,3.867925644,1,-3.988887548,1,-3.075379133,1,0.348813176,1,0.725935936,1,-0.168582171,1,-0.258457989,1,1.32122612,1,-4.145518303,1,11.07861137,1
2.420002699,1.870976329,1,-3.087098122,1,3.982132196,1,-4.450347424,1,-3.423861742,1,0.565190136,1,0.710205078,1,-0.179574922,1,-0.265730709,1,3.617824793,1,3.186928749,1,11.2784853,1
2.424005032,-1.71868825,1,-0.474839061,1,2.017534971,1,-4.578160286,1,-3.895371675,1,0.766497433,1,0.693482578,1,-0.192467391,1,-0.273258269,1,0.152074456,1,5.661395073,1,9.399845123,1
2.428003311,-8.632243156,1,0.060436118,1,-1.338946104,1,-4.592027187,1,-4.21914959,1,0.82464838,1,0.676698804,1,-0.207151443,1,-0.281235397,1,-6.620726585,1,6.054058075,1,6.123085022,1
2.432002544,-9.460331917,1,-1.837035656,1,-3.863810301,1,-4.589909077,1,-4.19190979,1,0.738714039,1,0.660105824,1,-0.222346872,1,-0.289438099,1,-7.303616524,1,4.012531281,1,3.671624899,1
2.436003923,-6.720844269,1,-3.451908112,1,-6.936485291,1,-4.550927639,1,-4.100315571,1,0.707268536,1,0.643618405,1,-0.237246096,1,-0.297390759,1,-4.422243595,1,2.252711296,1,0.667815685,1
2.440001249,-10.78581524,1,-5.179572582,1,-9.333429337,1,-4.5801754,1,-4.08456707,1,0.621220469,1,0.627255917,1,-0.252061486,1,-0.305217206,1,-8.346633911,1,0.379265308,1,-1.665223598,1
2.444000483,-9.509347916,1,-2.953289747,1,-12.18942356,1,-4.277341366,1,-3.75530529,1,0.492583215,1,0.611438096,1,-0.266144186,1,-0.312759191,1,-6.93703413,1,2.463305712,1,-4.46314764,1
2.448001862,-8.859996796,1,-1.973403096,1,-14.90688038,1,-4.062744141,1,-3.541629076,1,0.344730556,1,0.596679151,1,-0.27916351,1,-0.319981635,1,-6.165056705,1,3.309308052,1,-7.129869461,1
2.451999187,-6.54972744,1,-0.144910112,1,-16.17331314,1,-3.810323238,1,-3.282988071,1,0.275414407,1,0.582868516,1,-0.291177809,1,-0.326835573,1,-3.742031097,1,5.011698723,1,-8.351688385,1
2.455998659,-3.469595671,1,1.08567512,1,-17.19569778,1,-3.582681417,1,-3.174748421,1,0.389221042,1,0.569935083,1,-0.302600861,1,-0.333123922,1,-0.555068254,1,6.123062611,1,-9.335551262,1
2.460000038,-1.829253912,1,4.435068607,1,-16.6236496,1,-3.326842308,1,-3.145672083,1,0.645283163,1,0.557635009,1,-0.314430237,1,-0.338431299,1,1.195503235,1,9.356805801,1,-8.731946945,1
2.463997126,-2.767127991,1,6.372012615,1,-16.71927834,1,-3.077711821,1,-3.204682589,1,0.917708933,1,0.546194613,1,-0.326810092,1,-0.342581689,1,0.372535229,1,11.18332577,1,-8.804391861,1
2.467996597,-5.971702576,1,7.37235117,1,-17.37662315,1,-2.921376705,1,-3.174250603,1,1.161046982,1,0.535257518,1,-0.339907348,1,-0.345777035,1,-2.71099782,1,12.07543278,1,-9.445642471,1
2.471997976,-9.511651993,1,8.39070797,1,-17.43660164,1,-2.641614676,1,-3.061798811,1,1.452429771,1,0.52476424,1,-0.353346199,1,-0.347660363,1,-6.127331734,1,12.98794079,1,-9.49534893,1
2.475995541,-14.7983799,1,9.474253654,1,-18.28528976,1,-2.324315071,1,-2.755660534,1,1.664332151,1,0.514960587,1,-0.366572469,1,-0.348036945,1,-11.29299545,1,13.97097397,1,-10.33900452,1
2.479994774,-19.34194946,1,8.581155777,1,-17.54451752,1,-2.107170105,1,-2.286815643,1,1.832743526,1,0.505627692,1,-0.378823012,1,-0.346836269,1,-15.72497845,1,12.98238754,1,-9.594779968,1
2.483996153,-20.80313873,1,9.762304306,1,-19.06413841,1,-1.618015289,1,-1.7984128,1,1.927200794,1,0.497063428,1,-0.389567167,1,-0.343877494,1,-17.08874893,1,14.07651138,1,-11.11161804,1
2.487993717,-23.69882393,1,5.995030403,1,-17.30275154,1,-1.443504214,1,-1.254748106,1,1.979940295,1,0.489339858,1,-0.398772359,1,-0.339615345,1,-19.90130997,1,10.23143578,1,-9.347667694,1
2.49199295,-21.51971245,1,4.377378464,1,-17.495121,1,-1.173117638,1,-0.737159073,1,1.892639041,1,0.481905431,1,-0.405793369,1,-0.334088534,1,-17.65901375,1,8.542066574,1,-9.532579422,1
2.496000528,-20.47215843,1,-0.835046709,1,-15.04808807,1,-0.991971195,1,-0.423450977,1,1.581564546,1,0.475396276,1,-0.411139548,1,-0.328517199,1,-16.56347466,1,3.26821804,1,-7.077074528,1
2.500004292,-14.20221329,1,-4.136814117,1,-11.80637264,1,-0.94708246,1,-0.203834593,1,1.211176395,1,0.46959132,1,-0.414701253,1,-0.323651969,1,-10.26162338,1,-0.086215973,1,-3.824140072,1
2.50400424,-8.339388847,1,-5.42563343,1,-9.831869125,1,-0.926768959,1,-0.24041453,1,0.938634098,1,0.464338273,1,-0.417362809,1,-0.319899946,1,-4.374988556,1,-1.421731472,1,-1.837872982,1
2.508005857,-3.566614389,1,-5.235913277,1,-9.083616257,1,-0.908896685,1,-0.502383471,1,0.831147015,1,0.459560633,1,-0.420215189,1,-0.31717819,1,0.423271656,1,-1.275281429,1,-1.080749512,1
2.512003422,-0.818530321,1,-4.031525612,1,-10.52607155,1,-0.914995849,1,-0.738061428,1,0.825553417,1,0.45508945,1,-0.423913181,1,-0.315148234,1,3.204348803,1,-0.113227606,1,-2.518884659,1
2.516002417,-1.256463408,1,-2.013131857,1,-13.13825321,1,-0.822657347,1,-0.866053939,1,0.830359221,1,0.450877607,1,-0.428283781,1,-0.313433409,1,2.80533886,1,1.863707066,1,-5.130537033,1
2.520003557,-3.117012978,1,0.626553178,1,-14.11389256,1,-0.6746189,1,-0.820923984,1,0.810197532,1,0.447179377,1,-0.432790816,1,-0.311797976,1,0.984846115,1,4.46579504,1,-6.108483315,1
2.524000883,-2.039931059,1,1.615451217,1,-11.50130463,1,-0.470783144,1,-0.7901963,1,0.822254598,1,0.444167525,1,-0.437049627,1,-0.310079455,1,2.09970212,1,5.423023701,1,-3.50021553,1
2.528000116,-3.148117304,1,1.935789704,1,-11.73503017,1,-0.089383163,1,-1.157616973,1,0.741509378,1,0.442403674,1,-0.441866517,1,-0.308672935,1,1.034149885,1,5.720663071,1,-3.745349407,1
2.532001495,-6.163070679,1,-6.069648743,1,-8.929345131,1,-0.144899875,1,-0.912663281,1,0.588504791,1,0.441884488,1,-0.446927845,1,-0.308166564,1,-1.93611145,1,-2.298024416,1,-0.956936836,1
2.53599906,-7.70367527,1,-5.846267223,1,-5.729921341,1,-0.087609902,1,-0.861217618,1,0.59333545,1,0.440997869,1,-0.451032817,1,-0.307380497,1,-3.440547466,1,-2.089151382,1,2.23006773,1
2.53999877,-4.270614147,1,-6.919622421,1,-6.868699074,1,-0.168898016,1,-0.779679358,1,0.525226355,1,0.440234482,1,-0.454956055,1,-0.306709886,1,0.027013302,1,-3.175740242,1,1.07896471,1
2.544000864,-6.884275913,1,-5.848753929,1,-7.034000874,1,-0.205454484,1,-0.723476052,1,0.493742734,1,0.439221442,1,-0.458593369,1,-0.306130052,1,-2.554721832,1,-2.119596958,1,0.903250694,1
2.547998905,-6.173387051,1,-6.715531826,1,-4.854547501,1,-0.298397899,1,-0.556631088,1,0.561976314,1,0.43781516,1,-0.461762428,1,-0.305216879,1,-1.816062927,1,-3.003374577,1,3.0754776,1
2.551999092,-6.48707962,1,-6.640024185,1,-6.080570221,1,-0.389745623,1,-0.47574541,1,0.6003263,1,0.435800761,1,-0.464632928,1,-0.303805053,1,-2.10463953,1,-2.949144363,1,1.845543861,1
