Time,inertial-6253.76535:estCompensatedAccelX,inertial-6253.76535:estCompensatedAccelX:valid,inertial-6253.76535:estCompensatedAccelY,inertial-6253.76535:estCompensatedAccelY:valid,inertial-6253.76535:estCompensatedAccelZ,inertial-6253.76535:estCompensatedAccelZ:valid,inertial-6253.76535:estAngularRateX,inertial-6253.76535:estAngularRateX:valid,inertial-6253.76535:estAngularRateY,inertial-6253.76535:estAngularRateY:valid,inertial-6253.76535:estAngularRateZ,inertial-6253.76535:estAngularRateZ:valid,inertial-6253.76535:estRoll,inertial-6253.76535:estRoll:valid,inertial-6253.76535:estPitch,inertial-6253.76535:estPitch:valid,inertial-6253.76535:estYaw,inertial-6253.76535:estYaw:valid,inertial-6253.76535:estLinearAccelX,inertial-6253.76535:estLinearAccelX:valid,inertial-6253.76535:estLinearAccelY,inertial-6253.76535:estLinearAccelY:valid,inertial-6253.76535:estLinearAccelZ,inertial-6253.76535:estLinearAccelZ:valid
0,-5.207243919,1,-2.666130066,1,-8.02340126,1,0.017280396,1,-0.008053911,1,-0.025793696,1,0.36999476,1,-0.526961446,1,-0.371697694,1,-0.28870821,1,0.390701294,1,-0.142067432,1
0.004001024,-5.223531246,1,-2.65644908,1,-7.999631405,1,0.020639692,1,-0.010806014,1,-0.030194482,1,0.370134115,1,-0.526960194,1,-0.371836603,1,-0.305006027,1,0.401484013,1,-0.118715763,1
0.007998464,-5.196941853,1,-2.790276766,1,-7.909051895,1,0.027500883,1,-0.009678379,1,-0.035085998,1,0.37031883,1,-0.526956141,1,-0.372003853,1,-0.278450966,1,0.269119024,1,-0.028682709,1
0.01200384,-5.147108555,1,-2.969759464,1,-7.872919083,1,0.026439533,1,-0.008571226,1,-0.037943117,1,0.370527685,1,-0.526931047,1,-0.372188509,1,-0.228829861,1,0.091326714,1,0.00692606,1
0.016005376,-5.064579964,1,-3.111076832,1,-7.732707977,1,0.021386987,1,-0.004532208,1,-0.031383101,1,0.370486677,1,-0.527150154,1,-0.372280002,1,-0.144448757,1,-0.050704479,1,0.146257401,1
0.020002816,-4.98795414,1,-3.148985147,1,-7.686779976,1,0.016286965,1,-0.004282206,1,-0.027473629,1,0.370616674,1,-0.527092755,1,-0.372727215,1,-0.068308353,1,-0.087486982,1,0.19204855,1
0.024001792,-4.974051952,1,-3.263188362,1,-7.61739397,1,0.008160261,1,0.001314808,1,-0.012665609,1,0.370716333,1,-0.527071059,1,-0.372816801,1,-0.054589272,1,-0.200866222,1,0.261229038,1
0.028003328,-4.986600876,1,-3.291614056,1,-7.615510941,1,0.000176341,1,-0.003139214,1,-0.010020282,1,0.370771229,1,-0.527065098,1,-0.372874945,1,-0.067188263,1,-0.228850126,1,0.262968063,1
0.032001022,-4.98139143,1,-3.310945749,1,-7.610913754,1,-0.004544197,1,-0.001958163,1,-0.000445611,1,0.370776623,1,-0.527060568,1,-0.372898728,1,-0.062017441,1,-0.248129368,1,0.267574787,1
0.035999998,-4.972054005,1,-3.267115116,1,-7.597064972,1,0.001718033,1,-0.007576855,1,-0.006631603,1,0.37078017,1,-0.527071536,1,-0.372916877,1,-0.052587032,1,-0.204289436,1,0.281363487,1
0.040001281,-5.02559185,1,-3.22942996,1,-7.65273428,1,0.007833148,1,-0.001952952,1,-0.01444363,1,0.370829463,1,-0.527075052,1,-0.37298131,1,-0.106095791,1,-0.166223526,1,0.225523949,1
0.043998718,-5.069035053,1,-2.885097027,1,-7.576824665,1,0.020035738,1,0.005461603,1,-0.025192089,1,0.370927095,1,-0.527044058,1,-0.37305975,1,-0.149800777,1,0.178934097,1,0.301277161,1
0.047997952,-5.149234295,1,-2.965820074,1,-7.857433319,1,0.01977667,1,-0.001139129,1,-0.016035423,1,0.371045351,1,-0.527007818,1,-0.373143554,1,-0.230306625,1,0.099208117,1,0.020473957,1
0.05200512,-5.121361256,1,-2.85095191,1,-7.772927284,1,0.020810038,1,0.004800893,1,-0.023530744,1,0.371169448,1,-0.52697432,1,-0.373225272,1,-0.202716351,1,0.215112925,1,0.104752064,1
0.056008194,-5.007104874,1,-2.838213205,1,-7.801040173,1,0.032316767,1,0.003672947,1,-0.021944201,1,0.371320426,1,-0.526918769,1,-0.373316288,1,-0.08893013,1,0.229140282,1,0.076431751,1
0.06000768,-5.01171875,1,-2.861190319,1,-7.82577467,1,0.036513805,1,-0.005620422,1,-0.02736601,1,0.37151432,1,-0.526875556,1,-0.373419136,1,-0.093909264,1,0.207767963,1,0.051301479,1
0.064008959,-5.059505939,1,-2.819852829,1,-7.809919357,1,0.04467107,1,0.004217652,1,-0.033120614,1,0.371734738,1,-0.526829898,1,-0.373544037,1,-0.142082214,1,0.250922203,1,0.066686153,1
0.068006143,-5.027869701,1,-2.833042145,1,-7.789432526,1,0.049592189,1,0.003174569,1,-0.035084777,1,0.371999264,1,-0.526765883,1,-0.373676896,1,-0.110987186,1,0.239930868,1,0.086654186,1
0.072005376,-5.000668526,1,-2.799708843,1,-7.829512119,1,0.059545614,1,0.003815661,1,-0.037129119,1,0.372303128,1,-0.526695192,1,-0.373829842,1,-0.084383488,1,0.275784254,1,0.045964718,1
0.076006658,-5.00716877,1,-2.797890902,1,-7.846090794,1,0.067887023,1,-3.04E-05,1,-0.042384602,1,0.372648418,1,-0.526619613,1,-0.3740049,1,-0.091522694,1,0.280456543,1,0.028670311,1
0.080004096,-5.012104988,1,-2.871734858,1,-7.816786289,1,0.072303988,1,0.007930913,1,-0.044839229,1,0.373019278,1,-0.526540995,1,-0.374186158,1,-0.0971241,1,0.209674597,1,0.057193756,1
0.084009215,-4.963624954,1,-2.991498947,1,-7.767469883,1,0.07381019,1,0.003300129,1,-0.046709035,1,0.373406291,1,-0.526455641,1,-0.374372602,1,-0.04936552,1,0.093110323,1,0.105707169,1
0.088010497,-4.899775028,1,-3.104026079,1,-7.764777184,1,0.075551152,1,0.006433739,1,-0.043684661,1,0.373802453,1,-0.526367903,1,-0.374558985,1,0.013742924,1,-0.016140699,1,0.107578754,1
0.092007935,-4.926675797,1,-3.211653233,1,-7.725095749,1,0.070285156,1,0.003265061,1,-0.034254689,1,0.374172211,1,-0.526288033,1,-0.374718785,1,-0.013833523,1,-0.120714903,1,0.146479607,1
0.096007168,-4.956884384,1,-3.204730511,1,-7.753646851,1,0.05789816,1,0.004761193,1,-0.029696679,1,0.374498516,1,-0.52621901,1,-0.374847591,1,-0.044625759,1,-0.11109972,1,0.117236614,1
0.10000819,-5.004851341,1,-3.234667778,1,-7.729934692,1,0.044525359,1,0.013388044,1,-0.026620645,1,0.374759912,1,-0.526147723,1,-0.374962181,1,-0.093195438,1,-0.138851166,1,0.140466213,1
0.104005635,-5.010625362,1,-3.315074682,1,-7.726025105,1,0.031815115,1,0.014523744,1,-0.014834173,1,0.374946296,1,-0.526070535,1,-0.375037432,1,-0.09962225,1,-0.217653036,1,0.14414978,1
0.108004607,-4.966417789,1,-3.340619087,1,-7.686718464,1,0.014755405,1,0.019233914,1,-0.005699972,1,0.375051111,1,-0.525994956,1,-0.375055194,1,-0.056054115,1,-0.242236137,1,0.183477402,1
0.112005889,-4.96337986,1,-3.392803669,1,-7.679515362,1,-0.00418112,1,0.024137961,1,0.001610515,1,0.375057757,1,-0.525909722,1,-0.375018746,1,-0.05373764,1,-0.294214725,1,0.191050053,1
0.116003327,-4.981596947,1,-3.447918653,1,-7.724732876,1,-0.016332965,1,0.031188341,1,0.019765848,1,0.37496534,1,-0.525822341,1,-0.374922007,1,-0.072693825,1,-0.349900961,1,0.146517277,1
0.120002307,-5.003925323,1,-3.450560093,1,-7.715202808,1,-0.040876258,1,0.035003193,1,0.033680271,1,0.374773324,1,-0.525744736,1,-0.374754906,1,-0.095678329,1,-0.35391283,1,0.156999588,1
0.124003582,-5.041076183,1,-3.457082033,1,-7.804077148,1,-0.05379628,1,0.031821638,1,0.048628472,1,0.374466181,1,-0.525678039,1,-0.374524117,1,-0.133393764,1,-0.362733603,1,0.069379807,1
0.128000766,-5.078792095,1,-3.484695196,1,-7.795093536,1,-0.064954802,1,0.028647007,1,0.049585436,1,0.374101579,1,-0.525626659,1,-0.374267817,1,-0.171543598,1,-0.393125057,1,0.079726219,1
0.132005885,-5.079815388,1,-3.38185358,1,-7.812656879,1,-0.088446401,1,0.028576242,1,0.061989043,1,0.373656929,1,-0.525601804,1,-0.373974204,1,-0.172777653,1,-0.293742418,1,0.063646317,1
0.136007428,-5.097638607,1,-3.353363752,1,-7.929237366,1,-0.087980561,1,0.022592455,1,0.070886649,1,0.373134792,1,-0.525596499,1,-0.373646796,1,-0.190645695,1,-0.269354343,1,-0.05129528,1
0.140004858,-5.118015766,1,-3.243750811,1,-7.91182518,1,-0.086218409,1,0.013387247,1,0.064657986,1,0.372617632,1,-0.525630593,1,-0.373322487,1,-0.210734367,1,-0.163877249,1,-0.032444477,1
0.144004092,-5.214838505,1,-3.231868029,1,-7.973065376,1,-0.077249974,1,0.004967034,1,0.060103808,1,0.372156262,1,-0.52568239,1,-0.373043537,1,-0.30711937,1,-0.155722618,1,-0.09250164,1
0.148005381,-5.200108528,1,-3.058580399,1,-7.955018997,1,-0.07681144,1,0.005848588,1,0.063062169,1,0.371718258,1,-0.525755763,1,-0.372780383,1,-0.291768551,1,0.013982534,1,-0.07344389,1
0.152002558,-5.142787457,1,-3.016003847,1,-8.033860207,1,-0.077965356,1,0.002534368,1,0.062590122,1,0.371260822,1,-0.525830626,1,-0.372507125,1,-0.233813763,1,0.052820444,1,-0.151222229,1
0.156001791,-5.078026772,1,-3.0408144,1,-7.961269855,1,-0.078840151,1,0.004466224,1,0.060183246,1,0.370813996,1,-0.525916398,1,-0.372236401,1,-0.168327332,1,0.024334669,1,-0.077653885,1
0.160003066,-5.122095108,1,-3.06313014,1,-7.977896214,1,-0.071569182,1,-0.006348616,1,0.063191228,1,0.370375097,1,-0.52600944,1,-0.371974409,1,-0.211609364,1,-0.001606703,1,-0.093360901,1
0.164000258,-5.149366856,1,-3.042413473,1,-7.976555824,1,-0.077375636,1,-0.00291492,1,0.068009332,1,0.36993745,1,-0.526118398,1,-0.371700585,1,-0.237959385,1,0.015465498,1,-0.091181278,1
0.167999491,-5.169941425,1,-2.983053446,1,-7.994827271,1,-0.072043866,1,-0.013712423,1,0.068925299,1,0.369499087,1,-0.526246428,1,-0.371424705,1,-0.257450581,1,0.071141243,1,-0.108699322,1
0.172000766,-5.151022434,1,-2.86773634,1,-7.998968124,1,-0.068358868,1,-0.012771786,1,0.065729,1,0.369086087,1,-0.526392221,1,-0.371153057,1,-0.237298965,1,0.182942629,1,-0.112247944,1
0.175998211,-5.147096634,1,-2.821794987,1,-7.983372211,1,-0.063945837,1,-0.017855193,1,0.064176843,1,0.368691832,1,-0.526542485,1,-0.37089473,1,-0.232102394,1,0.225507498,1,-0.096140385,1
0.179997444,-5.143934727,1,-2.822036266,1,-7.975279808,1,-0.061263997,1,-0.017459374,1,0.059264284,1,0.368320793,1,-0.526697457,1,-0.370647252,1,-0.227630615,1,0.222065687,1,-0.087627411,1
0.183998719,-5.102993488,1,-2.860970259,1,-7.929251194,1,-0.055657443,1,-0.020426851,1,0.057754874,1,0.367979228,1,-0.526852667,1,-0.370430768,1,-0.185377598,1,0.180163145,1,-0.04127121,1
0.187996164,-5.105862617,1,-2.995827675,1,-7.882946014,1,-0.052106414,1,-0.017304843,1,0.053952239,1,0.367659211,1,-0.526993275,1,-0.370224535,1,-0.187057495,1,0.042532206,1,0.00536108,1
0.191995129,-5.114192009,1,-3.066076279,1,-7.884651184,1,-0.051108424,1,-0.016112808,1,0.055295747,1,0.36735037,1,-0.527127206,1,-0.370012909,1,-0.194254875,1,-0.030389786,1,0.003976822,1
0.195996165,-5.064208031,1,-3.031541586,1,-7.871898651,1,-0.051885553,1,-0.017099177,1,0.057637505,1,0.367042542,1,-0.527277708,1,-0.369793594,1,-0.142998695,1,0.001451015,1,0.016972542,1
0.199993595,-5.030681133,1,-3.106124401,1,-7.835420609,1,-0.046691008,1,-0.012679841,1,0.058554035,1,0.366730064,1,-0.527424157,1,-0.36956799,1,-0.108234406,1,-0.075855494,1,0.053726196,1
0.203992575,-5.048032761,1,-3.06667161,1,-7.84530735,1,-0.051591568,1,-0.013215682,1,0.064278036,1,0.366411388,1,-0.527570367,1,-0.369328022,1,-0.124350548,1,-0.039174795,1,0.04413271,1
0.20799385,-5.060590267,1,-3.081374884,1,-7.836909771,1,-0.055222355,1,-0.017635772,1,0.065208413,1,0.366073847,1,-0.52771461,1,-0.369073868,1,-0.135688782,1,-0.056795359,1,0.052888393,1
0.211997181,-5.102948666,1,-3.161388159,1,-7.769128323,1,-0.056519505,1,-0.009997549,1,0.074821062,1,0.365718007,1,-0.527863741,1,-0.368797541,1,-0.176787376,1,-0.139878511,1,0.121061325,1
0.215996414,-5.105998993,1,-3.132207632,1,-7.758550644,1,-0.063166983,1,-0.005745764,1,0.077489965,1,0.365323186,1,-0.528003454,1,-0.368478894,1,-0.178657055,1,-0.11405921,1,0.13218832,1
0.219997689,-5.137889385,1,-3.158997774,1,-7.765576839,1,-0.066612199,1,0.001218755,1,0.084361635,1,0.364894569,1,-0.528123319,1,-0.36813274,1,-0.209535122,1,-0.144442558,1,0.125904083,1
0.223995134,-5.139310837,1,-3.08710289,1,-7.742069721,1,-0.069083698,1,0.006357222,1,0.087229982,1,0.364425629,1,-0.528237045,1,-0.367752403,1,-0.209995747,1,-0.076449633,1,0.150296688,1
0.227994114,-5.141922474,1,-3.031985521,1,-7.764137745,1,-0.074208766,1,0.00903435,1,0.090602584,1,0.36393106,1,-0.528336525,1,-0.367353976,1,-0.211767197,1,-0.025410175,1,0.129259109,1
0.231995389,-5.125025749,1,-2.996489763,1,-7.810587883,1,-0.07625819,1,0.01857454,1,0.091951668,1,0.363409698,1,-0.528417766,1,-0.366932005,1,-0.194183826,1,0.005827188,1,0.084000111,1
0.235992581,-5.165148258,1,-2.920758486,1,-7.762848854,1,-0.075626142,1,0.014885489,1,0.085760519,1,0.362888545,1,-0.528485596,1,-0.366507113,1,-0.233733654,1,0.077325344,1,0.132990837,1
0.239991814,-5.162140846,1,-2.883877754,1,-7.929998875,1,-0.07941211,1,0.01784966,1,0.086722225,1,0.362377763,1,-0.528540313,1,-0.366108,1,-0.230264187,1,0.110077381,1,-0.032879353,1
0.243993089,-5.210355759,1,-2.833786011,1,-7.98814249,1,-0.078987293,1,0.010116144,1,0.082718246,1,0.361865252,1,-0.528612077,1,-0.365721643,1,-0.277873039,1,0.155996084,1,-0.089820385,1
0.247990265,-5.168194771,1,-2.630717516,1,-8.027894974,1,-0.074845925,1,0.005968866,1,0.076113701,1,0.361365557,1,-0.528702497,1,-0.365355074,1,-0.234948158,1,0.354960442,1,-0.128495693,1
0.251989514,-5.156247616,1,-2.477777243,1,-8.067134857,1,-0.061744962,1,0.006181707,1,0.070994712,1,0.360929579,1,-0.528791547,1,-0.365021706,1,-0.222249031,1,0.504300117,1,-0.166849613,1
0.255990773,-5.142887115,1,-2.503853559,1,-8.055621147,1,-0.046617962,1,0.004514342,1,0.056063093,1,0.360568345,1,-0.528860331,1,-0.3647407,1,-0.20830822,1,0.475249529,1,-0.154577255,1
0.25998798,-5.162479401,1,-2.534189463,1,-8.047611237,1,-0.035505887,1,0.002237151,1,0.04730168,1,0.360296994,1,-0.528924346,1,-0.364507258,1,-0.227360249,1,0.442659855,1,-0.14605093,1
0.263986945,-5.175802708,1,-2.681223631,1,-8.044368744,1,-0.029276811,1,0.00068255,1,0.042299252,1,0.360071182,1,-0.528976202,1,-0.364309251,1,-0.240245342,1,0.293751478,1,-0.142375469,1
0.267988235,-5.17176342,1,-2.765929222,1,-7.986630917,1,-0.024472659,1,-0.003026495,1,0.034793135,1,0.359884024,1,-0.529236734,1,-0.364507258,1,-0.234006405,1,0.207113028,1,-0.085286617,1
0.27198565,-5.132696629,1,-2.754012108,1,-8.02987957,1,-0.020604504,1,-0.010366019,1,0.036549736,1,0.359714061,1,-0.529310346,1,-0.364356339,1,-0.194317818,1,0.217559099,1,-0.128370762,1
0.275984883,-5.104500294,1,-2.746215582,1,-7.921205521,1,-0.020059846,1,-0.010969709,1,0.031489491,1,0.359571487,1,-0.529399514,1,-0.36422345,1,-0.165369034,1,0.224074125,1,-0.019684792,1
0.279986173,-5.103460312,1,-2.739969969,1,-7.910291195,1,-0.012753537,1,-0.009538637,1,0.029530307,1,0.359452635,1,-0.529484987,1,-0.364103019,1,-0.163608074,1,0.22923255,1,-0.008812428,1
0.283983618,-5.141695499,1,-2.765081167,1,-7.863683224,1,-0.013761749,1,-0.005313393,1,0.026362984,1,0.359353155,1,-0.529560983,1,-0.364003658,1,-0.201200962,1,0.203203201,1,0.037739277,1
0.287988722,-5.127055168,1,-2.852994204,1,-7.861540318,1,-0.01467118,1,-0.011277663,1,0.023387907,1,0.35925585,1,-0.529627621,1,-0.363908291,1,-0.18599844,1,0.114405155,1,0.039862633,1
0.291990012,-5.076879501,1,-2.933899641,1,-7.832310677,1,-0.015313501,1,-0.004490448,1,0.02470002,1,0.359147519,1,-0.529689372,1,-0.363814294,1,-0.13530159,1,0.032536745,1,0.069128036,1
0.295987457,-5.048865795,1,-2.9020226,1,-7.848846436,1,-0.018196875,1,-0.005186514,1,0.030740069,1,0.359012753,1,-0.529751539,1,-0.363693655,1,-0.106763363,1,0.063240528,1,0.052703857,1
0.299986422,-5.115412235,1,-2.895259619,1,-7.858188629,1,-0.021834387,1,-0.002338543,1,0.03309964,1,0.35886693,1,-0.529811382,1,-0.363568485,1,-0.172804832,1,0.068747282,1,0.043517113,1
0.303987712,-5.069489479,1,-2.907664061,1,-7.852183342,1,-0.023597559,1,-0.003898057,1,0.034834117,1,0.358709157,1,-0.529868364,1,-0.363422811,1,-0.126400471,1,0.054997444,1,0.049726486,1
0.307985157,-5.064970016,1,-2.90174222,1,-7.85530901,1,-0.026584754,1,-0.004160213,1,0.038592715,1,0.358534724,1,-0.529931843,1,-0.363273144,1,-0.121345997,1,0.059431076,1,0.046823978,1
0.311984122,-5.066381454,1,-2.953919888,1,-7.84716177,1,-0.026384432,1,-0.007397584,1,0.037371639,1,0.3583453,1,-0.530006289,1,-0.363117874,1,-0.122128963,1,0.005626917,1,0.055185795,1
0.315985411,-5.017704487,1,-2.986578941,1,-7.840423584,1,-0.029451337,1,-0.011481618,1,0.043741781,1,0.358160496,1,-0.530094802,1,-0.362955272,1,-0.072704792,1,-0.028646231,1,0.062060356,1
0.319982588,-5.031117916,1,-2.950107336,1,-7.870391369,1,-0.024648812,1,-0.008977233,1,0.043511346,1,0.357963592,1,-0.530196607,1,-0.362789929,1,-0.085259438,1,0.006093502,1,0.032205105,1
0.323981553,-4.996678352,1,-2.857554913,1,-7.877857208,1,-0.019325756,1,-0.021449482,1,0.041641973,1,0.357799083,1,-0.530318439,1,-0.362628222,1,-0.04979229,1,0.097134352,1,0.024659634,1
0.327982843,-5.047912121,1,-2.868990421,1,-7.927924156,1,-0.020016044,1,-0.02396713,1,0.039757922,1,0.357645094,1,-0.530461073,1,-0.362479091,1,-0.099822044,1,0.084234953,1,-0.025611877,1
0.33198002,-5.054804802,1,-2.863867283,1,-7.875080585,1,-0.017978283,1,-0.027732924,1,0.044085629,1,0.357502401,1,-0.530621767,1,-0.362337172,1,-0.105359554,1,0.087952614,1,0.026907444,1
0.335979253,-5.042010784,1,-2.852453947,1,-7.874835968,1,-0.017813481,1,-0.031886294,1,0.04339017,1,0.357354045,1,-0.53078562,1,-0.362188101,1,-0.091184139,1,0.097910404,1,0.026832104,1
0.339980543,-5.032697678,1,-2.832072496,1,-7.869568348,1,-0.015196916,1,-0.028698834,1,0.044155177,1,0.35722205,1,-0.530963778,1,-0.36205405,1,-0.080368042,1,0.116940022,1,0.031660557,1
0.34397772,-5.063527584,1,-2.857752323,1,-7.950212479,1,-0.017382253,1,-0.034029745,1,0.046148453,1,0.357080162,1,-0.53114748,1,-0.361911565,1,-0.109648705,1,0.089820862,1,-0.049417019,1
0.347976953,-5.041219234,1,-2.873731852,1,-7.939525604,1,-0.016804155,1,-0.043001615,1,0.045219403,1,0.356940717,1,-0.531354189,1,-0.3617751,1,-0.085597038,1,0.072381973,1,-0.03927803,1
0.351978242,-5.089502335,1,-2.892588615,1,-7.875517368,1,-0.017369742,1,-0.050323345,1,0.047182601,1,0.356813371,1,-0.531584322,1,-0.361646235,1,-0.131940365,1,0.05211997,1,0.024034023,1
0.355975419,-5.067325115,1,-2.894761801,1,-7.83578825,1,-0.013574464,1,-0.048705883,1,0.046631582,1,0.356687129,1,-0.531839252,1,-0.361521065,1,-0.107613564,1,0.048508167,1,0.062949657,1
0.359974653,-5.034976959,1,-2.936625004,1,-7.810616016,1,-0.018163417,1,-0.054209881,1,0.046863113,1,0.356557369,1,-0.532097936,1,-0.361396968,1,-0.073085308,1,0.005171776,1,0.087301254,1
0.363975942,-5.02275753,1,-2.965677977,1,-7.814826965,1,-0.017848678,1,-0.061204232,1,0.053134702,1,0.356417954,1,-0.532391608,1,-0.361268461,1,-0.058391094,1,-0.025491238,1,0.082133293,1
0.367979258,-4.958292007,1,-3.044713259,1,-7.826834679,1,-0.021475691,1,-0.064044863,1,0.058047697,1,0.356262296,1,-0.53270632,1,-0.361130178,1,0.00872612,1,-0.106299877,1,0.069120884,1
0.371978492,-4.97650528,1,-3.015899658,1,-7.808220863,1,-0.02489464,1,-0.069124125,1,0.062123962,1,0.35609296,1,-0.533035696,1,-0.360976696,1,-0.006712437,1,-0.079393625,1,0.086699486,1
0.375979513,-4.972766399,1,-3.067093611,1,-7.809051514,1,-0.0273844,1,-0.070042133,1,0.069517791,1,0.355896801,1,-0.533384681,1,-0.360798895,1,-3.43E-05,1,-0.132741213,1,0.08481741,1
0.379976958,-4.991630554,1,-3.060793638,1,-7.835637569,1,-0.031976949,1,-0.071519591,1,0.073705211,1,0.355674773,1,-0.533753932,1,-0.360609978,1,-0.015789032,1,-0.128834009,1,0.057159901,1
0.383975923,-5.037766457,1,-3.098648548,1,-7.835680485,1,-0.041685492,1,-0.077356897,1,0.074758612,1,0.355414331,1,-0.534136593,1,-0.360402644,1,-0.058703423,1,-0.169407606,1,0.056093693,1
0.387977213,-5.070055485,1,-3.057846069,1,-7.757645607,1,-0.047151532,1,-0.075100787,1,0.080501057,1,0.355131269,1,-0.534543455,1,-0.360185415,1,-0.087567806,1,-0.131543636,1,0.133058548,1
0.391974658,-5.117875099,1,-2.95609951,1,-7.83440876,1,-0.045317512,1,-0.082186222,1,0.084825531,1,0.354832202,1,-0.534949005,1,-0.359954655,1,-0.131975174,1,-0.032858849,1,0.055274487,1
0.395973623,-5.13131237,1,-2.872624636,1,-7.706990242,1,-0.04300661,1,-0.06469816,1,0.081857122,1,0.354517847,1,-0.535347044,1,-0.359707385,1,-0.142063141,1,0.047446489,1,0.181750774,1
0.399975181,-5.115846157,1,-2.824693203,1,-7.796647072,1,-0.045273371,1,-0.07265684,1,0.080215439,1,0.354215026,1,-0.535717726,1,-0.359464049,1,-0.123479366,1,0.092347145,1,0.091242313,1
0.403972596,-5.160797119,1,-2.855167389,1,-7.903267384,1,-0.044281814,1,-0.073632911,1,0.079324238,1,0.353928179,1,-0.536099255,1,-0.359237015,1,-0.165222645,1,0.058949471,1,-0.016329288,1
0.407971591,-5.134354115,1,-2.842862368,1,-7.899411678,1,-0.045054518,1,-0.080560975,1,0.081821553,1,0.353630245,1,-0.536507905,1,-0.359006524,1,-0.135343552,1,0.06819725,1,-0.013521671,1
0.411972851,-5.133677959,1,-2.876819611,1,-7.948473454,1,-0.043188274,1,-0.087543912,1,0.080157824,1,0.353349388,1,-0.536929011,1,-0.358796239,1,-0.131127834,1,0.03129673,1,-0.063741207,1
0.415970057,-5.212254047,1,-2.856257915,1,-7.95992136,1,-0.042055033,1,-0.093373381,1,0.084200844,1,0.353074074,1,-0.537377536,1,-0.358575523,1,-0.205935001,1,0.048912048,1,-0.07649374,1
0.41996929,-5.19193697,1,-2.755224705,1,-7.933335781,1,-0.036978289,1,-0.096664332,1,0.078959972,1,0.352817863,1,-0.537846625,1,-0.358373672,1,-0.181677341,1,0.147113562,1,-0.051368237,1
0.42397055,-5.17595911,1,-2.681023121,1,-7.925466061,1,-0.032904319,1,-0.101354949,1,0.07370469,1,0.352579653,1,-0.53832382,1,-0.358190119,1,-0.161692142,1,0.218611717,1,-0.045052052,1
0.427967757,-5.163771152,1,-2.633466482,1,-7.974531174,1,-0.019511914,1,-0.107190497,1,0.06900721,1,0.352392197,1,-0.538814068,1,-0.358046174,1,-0.145388126,1,0.263842583,1,-0.095881462,1
0.43196699,-5.226887226,1,-2.563326597,1,-8.020296097,1,-0.019336423,1,-0.107884273,1,0.062702216,1,0.35225302,1,-0.539300144,1,-0.35792622,1,-0.204424858,1,0.332042933,1,-0.143536091,1
0.43596825,-5.243768692,1,-2.577342272,1,-8.073320389,1,-0.007798517,1,-0.123547472,1,0.054044683,1,0.352174163,1,-0.539813399,1,-0.357863575,1,-0.216999531,1,0.316516638,1,-0.198753357,1
0.439965427,-5.239229202,1,-2.624975681,1,-8.02060318,1,-0.000708479,1,-0.126707286,1,0.045039695,1,0.3521415,1,-0.540349364,1,-0.357847571,1,-0.20796442,1,0.267696619,1,-0.148470402,1
0.44396466,-5.231652737,1,-2.618053198,1,-8.035146713,1,0.00324513,1,-0.137492731,1,0.038919128,1,0.352161467,1,-0.540900707,1,-0.357874572,1,-0.195764542,1,0.27381897,1,-0.16567564,1
0.447972089,-5.250253201,1,-2.651694775,1,-8.016876221,1,0.009398131,1,-0.146333873,1,0.035437923,1,0.352223396,1,-0.541486382,1,-0.35793668,1,-0.20945549,1,0.23964572,1,-0.150357246,1
0.451975673,-5.268349171,1,-2.581356049,1,-8.055376053,1,0.01207255,1,-0.155335695,1,0.028082578,1,0.352322996,1,-0.542099476,1,-0.358040333,1,-0.222414017,1,0.309700727,1,-0.192047119,1
0.455975413,-5.255868912,1,-2.673918486,1,-8.038603783,1,0.013917027,1,-0.168397874,1,0.023423774,1,0.352447331,1,-0.542745113,1,-0.358180493,1,-0.204525948,1,0.216991186,1,-0.178692818,1
0.459976435,-5.189535618,1,-2.7870965,1,-7.980755329,1,0.018655345,1,-0.181724504,1,0.020925138,1,0.352611929,1,-0.543432772,1,-0.35836786,1,-0.132435322,1,0.103907347,1,-0.124580383,1
0.46397388,-5.246311665,1,-2.840999842,1,-7.971981049,1,0.025561728,1,-0.194109067,1,0.021102533,1,0.352807999,1,-0.544170678,1,-0.358579695,1,-0.183034897,1,0.050254583,1,-0.119874954,1
0.467973113,-5.282642365,1,-2.847576141,1,-7.929265022,1,0.026611347,1,-0.206243172,1,0.026053628,1,0.353014678,1,-0.544946194,1,-0.358788908,1,-0.212878227,1,0.043941498,1,-0.081447124,1
0.471974134,-5.345089912,1,-2.855871916,1,-7.786931038,1,0.027125254,1,-0.208930582,1,0.027055958,1,0.353237003,1,-0.545753121,1,-0.359010249,1,-0.268579006,1,0.035974741,1,0.056403637,1
0.47597158,-5.306789398,1,-2.862247705,1,-7.797901154,1,0.026350912,1,-0.214283019,1,0.026414763,1,0.353462517,1,-0.546586394,1,-0.359230518,1,-0.223313808,1,0.029903173,1,0.040812016,1
0.479976714,-5.314220428,1,-2.8357656,1,-7.73830986,1,0.02019763,1,-0.204428703,1,0.027795983,1,0.353664726,1,-0.547405362,1,-0.359440774,1,-0.223904133,1,0.056525946,1,0.095906258,1
0.483977973,-5.262174129,1,-2.731502295,1,-7.771420956,1,0.023581695,1,-0.199656889,1,0.026667682,1,0.353857994,1,-0.548199892,1,-0.359644353,1,-0.165224552,1,0.160901785,1,0.058441639,1
0.487975419,-5.345094681,1,-2.730397463,1,-7.784642696,1,0.01529214,1,-0.190709859,1,0.023464466,1,0.35404712,1,-0.54896754,1,-0.359857559,1,-0.241738319,1,0.162130117,1,0.041000843,1
0.491974413,-5.331893444,1,-2.736959934,1,-7.699387074,1,0.019836299,1,-0.188989699,1,0.019522602,1,0.35422951,1,-0.549704313,1,-0.36007148,1,-0.222391605,1,0.15569067,1,0.122202396,1
0.495975941,-5.302544594,1,-2.740093231,1,-7.703222275,1,0.016544012,1,-0.177561328,1,0.013050739,1,0.354415983,1,-0.550410509,1,-0.360298991,1,-0.187155247,1,0.152761221,1,0.114437103,1
0.499973387,-5.335965633,1,-2.700234652,1,-7.708299637,1,0.015504209,1,-0.170575172,1,0.009526651,1,0.354596972,1,-0.551079094,1,-0.360532075,1,-0.215004444,1,0.192847013,1,0.10562849,1
0.503972352,-5.277060986,1,-2.732800245,1,-7.728782177,1,0.013984246,1,-0.157893702,1,0.004378172,1,0.354780585,1,-0.551707447,1,-0.360764802,1,-0.150865078,1,0.16059804,1,0.081596851,1
0.507973611,-5.337224483,1,-2.736349106,1,-7.703685284,1,0.017097766,1,-0.154461414,1,0.003039378,1,0.354963422,1,-0.552306771,1,-0.360999763,1,-0.206037998,1,0.157409668,1,0.103284359,1
0.511970818,-5.341573238,1,-2.712736845,1,-7.766591072,1,0.02590164,1,-0.143910185,1,0.003104097,1,0.35516119,1,-0.552875817,1,-0.361225724,1,-0.205649376,1,0.181549788,1,0.03706646,1
0.515970051,-5.30627346,1,-2.667108297,1,-7.747139931,1,0.024567727,1,-0.136011913,1,-0.001673963,1,0.355220914,1,-0.553618312,1,-0.36133337,1,-0.164171219,1,0.226315975,1,0.052763462,1
0.519971311,-5.304281712,1,-2.678590775,1,-7.783789158,1,0.030790718,1,-0.138586149,1,-0.003557061,1,0.35544458,1,-0.554094493,1,-0.361902475,1,-0.158218384,1,0.215726137,1,0.013173103,1
0.523974419,-5.30570364,1,-2.648683786,1,-7.805780888,1,0.034851525,1,-0.137052551,1,-0.007813085,1,0.355722487,1,-0.554597795,1,-0.362162262,1,-0.155455589,1,0.246898413,1,-0.012050152,1
0.527973652,-5.258405209,1,-2.670237541,1,-7.765199661,1,0.046647847,1,-0.136481434,1,-0.010338965,1,0.356025994,1,-0.555099845,1,-0.362422168,1,-0.103982925,1,0.226806641,1,0.025222778,1
0.531974912,-5.221285343,1,-2.742629528,1,-7.749786377,1,0.047108993,1,-0.128752753,1,-0.006199222,1,0.356344581,1,-0.555588961,1,-0.362672269,1,-0.0627985,1,0.156017303,1,0.037350178,1
0.535972118,-5.255757332,1,-2.8503685,1,-7.760711193,1,0.050495312,1,-0.135397837,1,-0.003085305,1,0.356679112,1,-0.556076229,1,-0.362921059,1,-0.093222618,1,0.05000639,1,0.023101807,1
0.539971352,-5.270517349,1,-2.847626209,1,-7.765330315,1,0.054431874,1,-0.126674846,1,-0.004471153,1,0.357014298,1,-0.556566,1,-0.363158226,1,-0.103914738,1,0.054472208,1,0.015137196,1
0.543972611,-5.25994873,1,-2.872133017,1,-7.719845772,1,0.057649065,1,-0.129264191,1,0.004506086,1,0.357348382,1,-0.557049215,1,-0.363364637,1,-0.089333534,1,0.031691551,1,0.057313919,1
0.547970057,-5.255164623,1,-2.867268801,1,-7.742082119,1,0.057055604,1,-0.130443081,1,0.006180985,1,0.35767442,1,-0.55754137,1,-0.363547951,1,-0.08046484,1,0.038199663,1,0.03174448,1
0.55196929,-5.231803417,1,-2.930420876,1,-7.772080421,1,0.055151887,1,-0.128009379,1,0.020678408,1,0.357980251,1,-0.558045626,1,-0.36370486,1,-0.052919388,1,-0.02348876,1,-0.001585007,1
0.555970311,-5.251507759,1,-2.890725136,1,-7.752017975,1,0.056854066,1,-0.129711106,1,0.021093767,1,0.358273864,1,-0.558559299,1,-0.363824755,1,-0.068362713,1,0.017554522,1,0.015129089,1
0.559967458,-5.194116592,1,-2.889099121,1,-7.813378811,1,0.060852494,1,-0.13072446,1,0.029663708,1,0.358557284,1,-0.559082627,1,-0.363918692,1,-0.006631851,1,0.020429134,1,-0.049597263,1
0.563966691,-5.308527946,1,-2.81535387,1,-7.817187786,1,0.056409307,1,-0.136776865,1,0.036679409,1,0.358843327,1,-0.559637308,1,-0.363999963,1,-0.116445541,1,0.095384836,1,-0.056931973,1
0.567967772,-5.301092148,1,-2.909309149,1,-7.947764874,1,0.068143681,1,-0.151856005,1,0.03532476,1,0.35912472,1,-0.560220242,1,-0.364071816,1,-0.104178905,1,0.002547979,1,-0.191166401,1
0.57196492,-5.195399284,1,-2.87249136,1,-8.01308918,1,0.068722911,1,-0.15731439,1,0.038614601,1,0.35943976,1,-0.560849786,1,-0.364158481,1,0.006729126,1,0.040658712,1,-0.260470867,1
0.575964153,-5.267695427,1,-2.883676767,1,-7.938709736,1,0.077898674,1,-0.171492949,1,0.049125072,1,0.359779894,1,-0.561529636,1,-0.364239663,1,-0.059937477,1,0.030862808,1,-0.190398216,1
0.579965413,-5.224376202,1,-3.002137899,1,-7.878593922,1,0.073581293,1,-0.18277669,1,0.060917243,1,0.360107183,1,-0.56226784,1,-0.364290774,1,-0.010509014,1,-0.086417675,1,-0.134835243,1
0.583962858,-5.169782162,1,-3.01565671,1,-8.047511101,1,0.077791221,1,-0.195457995,1,0.060440034,1,0.36042884,1,-0.563063979,1,-0.364340752,1,0.050671101,1,-0.098909616,1,-0.308574677,1
0.587962091,-5.11509943,1,-2.926097393,1,-8.244635582,1,0.088542707,1,-0.218181968,1,0.069052249,1,0.360780001,1,-0.563925982,1,-0.364384413,1,0.112480164,1,-0.008223057,1,-0.510938644,1
0.59196341,-5.115592003,1,-2.91456604,1,-8.299507141,1,0.105910093,1,-0.240868106,1,0.083434403,1,0.361189425,1,-0.564893544,1,-0.364434719,1,0.11998415,1,0.004685163,1,-0.571742058,1
0.595960557,-5.080151558,1,-3.029055119,1,-8.387960434,1,0.116729632,1,-0.274083644,1,0.090550266,1,0.361646414,1,-0.565977037,1,-0.364482224,1,0.16437149,1,-0.108280182,1,-0.666837692,1
0.599959791,-5.03255415,1,-3.195157051,1,-8.432462692,1,0.126443803,1,-0.31358254,1,0.106688693,1,0.362180918,1,-0.567209601,1,-0.364543289,1,0.222139359,1,-0.272548437,1,-0.718953133,1
0.603967249,-5.066862106,1,-3.389379978,1,-8.331188202,1,0.126317158,1,-0.356488407,1,0.122456238,1,0.362718105,1,-0.568621993,1,-0.364598155,1,0.199476242,1,-0.46526432,1,-0.626196384,1
0.607970536,-5.011022091,1,-3.521222115,1,-8.276200294,1,0.09287975,1,-0.392824203,1,0.144562528,1,0.36318022,1,-0.570209384,1,-0.36464107,1,0.268392086,1,-0.59651947,1,-0.580384254,1
0.611970067,-5.067050934,1,-3.283792496,1,-8.163025856,1,0.091466233,1,-0.424928248,1,0.169300705,1,0.363537312,1,-0.571973145,1,-0.364634961,1,0.226875782,1,-0.359658241,1,-0.476971626,1
0.615971327,-5.011069775,1,-3.340815783,1,-8.260128975,1,0.073480621,1,-0.462355167,1,0.196800977,1,0.36381951,1,-0.573885798,1,-0.364578247,1,0.298575878,1,-0.418121576,1,-0.584378242,1
0.619968534,-4.99983263,1,-3.297190428,1,-8.325123787,1,0.069185041,1,-0.500823915,1,0.215447873,1,0.364052206,1,-0.575978756,1,-0.36447525,1,0.326991558,1,-0.376672745,1,-0.66045332,1
0.623967767,-4.985139847,1,-3.269020081,1,-8.436424255,1,0.074255303,1,-0.542376101,1,0.246484175,1,0.364256084,1,-0.578262448,1,-0.364327163,1,0.360402107,1,-0.351281643,1,-0.783735275,1
0.627969027,-4.740616798,1,-3.282784939,1,-8.847146988,1,0.070745915,1,-0.608567894,1,0.271252394,1,0.364462018,1,-0.580779552,1,-0.364158094,1,0.62552309,1,-0.368277311,1,-1.207658768,1
0.631966233,-4.68618536,1,-3.039513826,1,-8.918296814,1,0.109517492,1,-0.680900395,1,0.297793239,1,0.364713252,1,-0.583585978,1,-0.363986909,1,0.702879906,1,-0.12846756,1,-1.293634892,1
0.635965705,-4.662165642,1,-2.936319351,1,-9.311330795,1,0.172860697,1,-0.759521186,1,0.318764061,1,0.36519289,1,-0.586704195,1,-0.363836259,1,0.752323151,1,-0.027631521,1,-1.703799725,1
0.639966965,-4.340546131,1,-3.834902287,1,-9.748715401,1,0.159628272,1,-0.861776471,1,0.364861161,1,0.365819275,1,-0.590201259,1,-0.363696098,1,1.102392197,1,-0.928241968,1,-2.160737514,1
0.64396441,-4.221874237,1,-4.042466164,1,-9.481807709,1,0.17048347,1,-0.965755224,1,0.418732315,1,0.366349906,1,-0.5941751,1,-0.363513768,1,1.25331068,1,-1.139550447,1,-1.915626526,1
0.647963643,-4.262493134,1,-4.583699703,1,-9.659752846,1,0.165733516,1,-1.06791091,1,0.489595026,1,0.366869986,1,-0.598610997,1,-0.363222361,1,1.248586655,1,-1.685590029,1,-2.117828846,1
0.651964903,-4.166912079,1,-5.135727406,1,-10.07527733,1,0.122441061,1,-1.176720619,1,0.583562434,1,0.367192388,1,-0.603566945,1,-0.362766623,1,1.384140968,1,-2.24502635,1,-2.559871197,1
0.655962348,-4.060457706,1,-5.395153999,1,-10.25969982,1,0.059651114,1,-1.317943096,1,0.683299124,1,0.367150307,1,-0.609126508,1,-0.362063617,1,1.535276413,1,-2.515892982,1,-2.773095131,1
0.659961581,-4.111432552,1,-5.258870125,1,-10.45059776,1,0.032224413,1,-1.466829538,1,0.792516112,1,0.366792947,1,-0.615383565,1,-0.361140549,1,1.534380436,1,-2.394896746,1,-2.995793819,1
0.663962901,-4.464982986,1,-5.398170948,1,-10.75002098,1,0.002535807,1,-1.622188091,1,0.911901355,1,0.366189241,1,-0.622366548,1,-0.359960228,1,1.236457825,1,-2.552883387,1,-3.330478668,1
0.667960346,-4.233324528,1,-5.811219215,1,-11.08502293,1,-0.077386484,1,-1.773487687,1,1.033862591,1,0.365183771,1,-0.630105317,1,-0.358475327,1,1.529440403,1,-2.98923707,1,-3.704062462,1
0.671959281,-3.923066139,1,-6.261980534,1,-10.8145504,1,-0.188152596,1,-1.938351154,1,1.140196919,1,0.3635934,1,-0.63858819,1,-0.356717795,1,1.906522751,1,-3.469225883,1,-3.475065231,1
0.6759606,-3.85136795,1,-5.749447346,1,-11.09567642,1,-0.219039455,1,-2.122693777,1,1.242841244,1,0.361586869,1,-0.647869051,1,-0.354754984,1,2.050850391,1,-2.990684748,1,-3.801523209,1
0.679957747,-4.183823109,1,-5.738164425,1,-11.38654327,1,-0.28476578,1,-2.29282093,1,1.351071239,1,0.359250486,1,-0.657962084,1,-0.352559507,1,1.796802521,1,-3.017532825,1,-4.142099857,1
0.683962882,-4.228662491,1,-5.679387093,1,-11.01986313,1,-0.367426962,1,-2.460128546,1,1.453762531,1,0.356420517,1,-0.668820918,1,-0.350103676,1,1.835639477,1,-3.002086639,1,-3.829037189,1
0.687964439,-4.250901699,1,-5.593919277,1,-10.98871899,1,-0.39285931,1,-2.631283522,1,1.535317183,1,0.353234798,1,-0.680425167,1,-0.347466975,1,1.902030468,1,-2.964062691,1,-3.855911732,1
0.691961884,-4.955537319,1,-5.120010376,1,-11.25053787,1,-0.349315643,1,-2.82810998,1,1.598502159,1,0.349964261,1,-0.692832351,1,-0.344704568,1,1.291239738,1,-2.539869785,1,-4.181426525,1
0.69596082,-6.22927475,1,-4.314642906,1,-13.28763294,1,-0.081892982,1,-3.010208607,1,1.703039885,1,0.347294033,1,-0.706072092,1,-0.341828108,1,0.116584778,1,-1.7817626,1,-6.290049076,1
0.699962139,-5.677922249,1,-6.411848545,1,-11.76080132,1,-0.15328905,1,-3.166456461,1,1.836339593,1,0.344730258,1,-0.720103323,1,-0.338573694,1,0.771728039,1,-3.927253246,1,-4.841232777,1
0.703959525,-4.81017971,1,-7.517814636,1,-10.73454189,1,-0.270792902,1,-3.279474974,1,1.982914329,1,0.341355801,1,-0.734814763,1,-0.334742188,1,1.746929169,1,-5.088610649,1,-3.896780968,1
0.707958758,-5.345104694,1,-7.32077837,1,-11.49730206,1,-0.346652269,1,-3.456665516,1,2.099829435,1,0.337134659,1,-0.750221133,1,-0.330383301,1,1.32301712,1,-4.954158783,1,-4.745490074,1
0.711960077,-7.431757927,1,-6.763302326,1,-11.81089306,1,-0.322474182,1,-3.589672327,1,2.203741074,1,0.332467079,1,-0.766379774,1,-0.325576991,1,-0.648903847,1,-4.463693619,1,-5.150837421,1
0.715957224,-8.417135239,1,-6.855312824,1,-11.7083168,1,-0.322052926,1,-3.66481781,1,2.330426931,1,0.327424914,1,-0.783040881,1,-0.320160419,1,-1.517835617,1,-4.625971794,1,-5.144677639,1
0.719956458,-8.446616173,1,-7.586787701,1,-11.69118404,1,-0.398026377,1,-3.709275246,1,2.452210903,1,0.321574569,1,-0.800071597,1,-0.313954532,1,-1.430268288,1,-5.433337212,1,-5.227040291,1
0.723957777,-8.410745621,1,-8.368412018,1,-11.27659607,1,-0.55944252,1,-3.734695673,1,2.591278791,1,0.314503074,1,-0.817362309,1,-0.306803107,1,-1.277643204,1,-6.298569202,1,-4.9137187,1
0.727954924,-7.975987911,1,-8.878383636,1,-10.5398407,1,-0.728329003,1,-3.800352097,1,2.702148199,1,0.305962205,1,-0.834949911,1,-0.298709482,1,-0.726315022,1,-6.90105629,1,-4.280121326,1
0.731954157,-9.184185028,1,-8.194875717,1,-10.35168743,1,-0.802874088,1,-3.83105278,1,2.775774956,1,0.296225607,1,-0.852792621,1,-0.289783835,1,-1.818542004,1,-6.316654205,1,-4.197730064,1
0.735955477,-10.06375313,1,-8.22881031,1,-10.76922035,1,-0.906786978,1,-3.773743868,1,2.898576975,1,0.28527239,1,-0.870621681,1,-0.279821217,1,-2.584571362,1,-6.455347538,1,-4.722046375,1
0.739952922,-9.747009277,1,-9.051334381,1,-9.901481628,1,-1.072312832,1,-3.70902133,1,3.071993351,1,0.272435457,1,-0.888311684,1,-0.268290222,1,-2.157523632,1,-7.391505241,1,-3.960406303,1
0.743952155,-9.201235771,1,-9.105120659,1,-9.308180809,1,-1.26771152,1,-3.629694939,1,3.191371441,1,0.257388741,1,-0.905761659,1,-0.255036473,1,-1.505270004,1,-7.568820953,1,-3.471782684,1
0.747953415,-10.92498779,1,-8.843583107,1,-9.661978722,1,-1.436716199,1,-3.534017324,1,3.265247822,1,0.240320131,1,-0.922829092,1,-0.240341246,1,-3.127141953,1,-7.438591957,1,-3.928633213,1
0.75195086,-10.40211105,1,-9.943487167,1,-8.812314987,1,-1.703393459,1,-3.42997551,1,3.35130477,1,0.221065938,1,-0.939409196,1,-0.22409758,1,-2.507469177,1,-8.677666664,1,-3.17991209,1
0.755950093,-9.229066849,1,-9.368711472,1,-8.49598217,1,-2.046524525,1,-3.335046053,1,3.417557478,1,0.199027956,1,-0.955464184,1,-0.206205413,1,-1.242763042,1,-8.252521515,1,-2.962023735,1
0.759957254,-8.816491127,1,-6.653541088,1,-8.74213028,1,-2.225315571,1,-3.239954233,1,3.39124608,1,0.174689338,1,-0.970931292,1,-0.18703717,1,-0.74382782,1,-5.693943024,1,-3.304952621,1
0.7639606,-8.289827347,1,-3.973691463,1,-9.823069572,1,-2.159570694,1,-3.082121134,1,3.310222387,1,0.149228588,1,-0.985596478,1,-0.166996837,1,-0.137064934,1,-3.170512676,1,-4.480876446,1
0.767959833,-7.366497993,1,-2.275703192,1,-10.65437794,1,-1.877364874,1,-2.820097446,1,3.180537939,1,0.12390139,1,-0.999048412,1,-0.146556512,1,0.858194351,1,-1.621684074,1,-5.402871132,1
0.771961331,-6.926313877,1,-1.377794862,1,-11.12008667,1,-1.500415206,1,-2.548766375,1,3.050823927,1,0.09951596,1,-1.011074781,1,-0.125696287,1,1.36142683,1,-0.861882925,1,-5.952998638,1
0.775958776,-12.7802124,1,-0.200277239,1,-10.86816597,1,-1.006590366,1,-2.308781862,1,2.817080021,1,0.076862343,1,-1.021842837,1,-0.10498409,1,-4.437037468,1,0.191583663,1,-5.779993057,1
0.779957771,-13.36575603,1,-3.184900284,1,-12.94120121,1,-0.57668972,1,-1.785782814,1,2.425578356,1,0.057357293,1,-1.030764699,1,-0.085817516,1,-4.97738266,1,-2.896631241,1,-7.92086792,1
0.783959031,-8.856311798,1,-6.479061604,1,-11.2769556,1,-0.320494652,1,-1.323931336,1,2.034558296,1,0.041186944,1,-1.03736043,1,-0.06903591,1,-0.43495369,1,-6.274290085,1,-6.308006763,1
0.787956476,-6.248699665,1,-8.710964203,1,-9.989703178,1,-0.332790285,1,-1.052298665,1,1.777242422,1,0.027314382,1,-1.042324543,1,-0.054375645,1,2.197241306,1,-8.576285362,1,-5.060237885,1
0.791955471,-3.627432108,1,-10.64732265,1,-9.393984795,1,-0.520547032,1,-0.937261522,1,1.589442849,1,0.014214451,1,-1.046411753,1,-0.041157857,1,4.838594437,1,-10.57772064,1,-4.497740746,1
0.795956731,-2.413290262,1,-10.5175724,1,-8.532213211,1,-0.784884095,1,-0.914223015,1,1.398917437,1,0.001280168,1,-1.050147057,1,-0.029239899,1,6.070967674,1,-10.51134396,1,-3.667137146,1
0.799954176,-2.030617714,1,-9.544803619,1,-7.687657356,1,-1.025609612,1,-0.94424957,1,1.193159342,1,-0.011480263,1,-1.053827286,1,-0.018738076,1,6.471487045,1,-9.600296021,1,-2.854150295,1
0.803953409,-2.179363489,1,-8.341497421,1,-7.363088131,1,-1.165847063,1,-0.957657635,1,0.949176431,1,-0.02360302,1,-1.057553768,1,-0.009867495,1,6.340695381,1,-8.454831123,1,-2.562317371,1
0.807954669,-2.824113131,1,-7.342422485,1,-7.357958317,1,-1.193199396,1,-0.944404721,1,0.667752028,1,-0.034308776,1,-1.061268449,1,-0.003018396,1,5.71372509,1,-7.506057739,1,-2.590340614,1
0.811951876,-3.245717049,1,-6.982032299,1,-7.261048317,1,-1.172974944,1,-0.899021208,1,0.357120365,1,-0.042977255,1,-1.06487596,1,0.001481999,1,5.309274673,1,-7.185664177,1,-2.525835514,1
0.815951109,-3.466379166,1,-7.314525604,1,-7.068144321,1,-1.146348238,1,-0.829681754,1,0.059265666,1,-0.049384914,1,-1.068290591,1,0.003514105,1,5.104746819,1,-7.547051907,1,-2.363529682,1
0.819952369,-3.252368689,1,-7.917318344,1,-6.806698799,1,-1.1754601,1,-0.741275549,1,-0.219242126,1,-0.05371061,1,-1.071449518,1,0.003166948,1,5.333594322,1,-8.168738365,1,-2.130195618,1
0.823949575,-2.925637007,1,-8.376626968,1,-6.596425056,1,-1.261669993,1,-0.651611269,1,-0.474320561,1,-0.056284025,1,-1.074312091,1,0.000566747,1,5.673696518,1,-8.638696671,1,-1.945148468,1
0.827948809,-2.57746768,1,-8.432962418,1,-6.438786983,1,-1.379517078,1,-0.579956234,1,-0.695702851,1,-0.057487499,1,-1.076904535,1,-0.00406482,1,6.033914566,1,-8.699347496,1,-1.810094833,1
0.831950068,-2.289049625,1,-7.982566357,1,-6.287267685,1,-1.498150349,1,-0.520946205,1,-0.903715909,1,-0.057510123,1,-1.079286695,1,-0.010585507,1,6.333352566,1,-8.247877121,1,-1.679071903,1
0.835947514,-2.149226427,1,-7.361827374,1,-6.187588692,1,-1.571083188,1,-0.46775341,1,-1.100003839,1,-0.056361917,1,-1.081485748,1,-0.018855233,1,6.483305931,1,-7.620777607,1,-1.598035336,1
0.839952886,-2.157616615,1,-6.765595913,1,-6.132339954,1,-1.600513935,1,-0.417459339,1,-1.281802416,1,-0.053928129,1,-1.083513737,1,-0.0288033,1,6.484219551,1,-7.012431145,1,-1.559660912,1
0.843954206,-2.250426769,1,-6.256681442,1,-6.051187992,1,-1.585706472,1,-0.362967163,1,-1.453427672,1,-0.050116271,1,-1.085360646,1,-0.040328406,1,6.399852276,1,-6.485284805,1,-1.493549824,1
0.847951591,-2.358754873,1,-5.943096638,1,-5.969704151,1,-1.557482481,1,-0.305778623,1,-1.612495184,1,-0.044895615,1,-1.086995721,1,-0.053336486,1,6.298974037,1,-6.147268295,1,-1.425067902,1
0.851950824,-2.398772478,1,-5.934670925,1,-5.906025887,1,-1.519447684,1,-0.236300811,1,-1.752869368,1,-0.038309101,1,-1.088358164,1,-0.067718387,1,6.265147209,1,-6.108452797,1,-1.371940613,1
0.855952144,-2.437269449,1,-6.015329361,1,-5.906795025,1,-1.496484876,1,-0.171902627,1,-1.869665146,1,-0.030554155,1,-1.089421391,1,-0.083284147,1,6.231469154,1,-6.153663158,1,-1.38070631,1
0.859949589,-2.598320723,1,-5.87332201,1,-5.895197868,1,-1.472474217,1,-0.101422854,1,-1.968732238,1,-0.021802334,1,-1.090165854,1,-0.099855296,1,6.073786736,1,-5.971899033,1,-1.374520302,1
0.863948524,-2.8371315,1,-5.716388226,1,-5.874536037,1,-1.451148272,1,-0.022606701,1,-2.060827255,1,-0.012183677,1,-1.090559959,1,-0.117303342,1,5.83675766,1,-5.771436691,1,-1.356539726,1
0.867950082,-2.951571941,1,-5.579385757,1,-5.848026276,1,-1.424427271,1,0.060092382,1,-2.139428854,1,-0.001781445,1,-1.090544462,1,-0.135507494,1,5.722246647,1,-5.587435246,1,-1.329570293,1
0.871947527,-3.000198126,1,-5.406112671,1,-5.823411465,1,-1.399061322,1,0.152260393,1,-2.2137959,1,0.00929318,1,-1.090079546,1,-0.154367357,1,5.671518326,1,-5.364084721,1,-1.301110744,1
0.875952661,-3.018557549,1,-5.309438229,1,-5.77787447,1,-1.371395946,1,0.245120481,1,-2.276504517,1,0.020947145,1,-1.089152813,1,-0.173752427,1,5.648963928,1,-5.214543343,1,-1.248341084,1
0.879954159,-3.087581396,1,-5.230109215,1,-5.702958584,1,-1.339823604,1,0.341017127,1,-2.334871531,1,0.033064138,1,-1.087732434,1,-0.193553284,1,5.573496819,1,-5.079931259,1,-1.162600517,1
0.883951604,-3.188914776,1,-5.163342476,1,-5.693948269,1,-1.311405301,1,0.437398702,1,-2.373059988,1,0.045553226,1,-1.085812569,1,-0.213646516,1,5.463426113,1,-4.955716133,1,-1.13921833,1
0.887950599,-3.356071711,1,-5.159463882,1,-5.708724976,1,-1.277392507,1,0.532486081,1,-2.406223774,1,0.058250461,1,-1.083382487,1,-0.233862117,1,5.285163879,1,-4.892800331,1,-1.136024475,1
0.891951859,-3.688735247,1,-5.050995827,1,-5.713376522,1,-1.248760104,1,0.647485554,1,-2.435090303,1,0.07107015,1,-1.080406427,1,-0.254110605,1,4.938830376,1,-4.723910809,1,-1.118841171,1
0.895949066,-3.864223719,1,-5.067955494,1,-5.681305408,1,-1.211624503,1,0.775357068,1,-2.458574533,1,0.083953261,1,-1.076822639,1,-0.27431494,1,4.746778488,1,-4.679116249,1,-1.060575008,1
0.899948299,-3.991346121,1,-5.046264172,1,-5.696036816,1,-1.178658366,1,0.904172957,1,-2.471750259,1,0.096762106,1,-1.072587848,1,-0.294315696,1,4.599942207,1,-4.594754219,1,-1.044424534,1
0.903949797,-4.000368595,1,-4.879207134,1,-5.678358078,1,-1.133946776,1,1.034673929,1,-2.480523109,1,0.109427661,1,-1.067707181,1,-0.314013183,1,4.568007946,1,-4.364246368,1,-0.991208076,1
0.907947242,-3.970246077,1,-4.812460423,1,-5.67857933,1,-1.073057055,1,1.158327818,1,-2.482388735,1,0.121906936,1,-1.062203288,1,-0.333316475,1,4.572048187,1,-4.23332262,1,-0.951479912,1
0.911946476,-3.948982239,1,-4.842810154,1,-5.614665985,1,-1.014384985,1,1.278372765,1,-2.472287655,1,0.134138584,1,-1.056097865,1,-0.352130055,1,4.564076424,1,-4.198933601,1,-0.843405724,1
0.915947497,-3.909192801,1,-4.827740192,1,-5.599142075,1,-0.957144678,1,1.391957164,1,-2.465832949,1,0.146043509,1,-1.049427152,1,-0.370372593,1,4.571559906,1,-4.118860722,1,-0.779807568,1
0.919950604,-3.936378956,1,-4.918366909,1,-5.599409103,1,-0.895241559,1,1.506768942,1,-2.447373152,1,0.157611296,1,-1.042201877,1,-0.388015151,1,4.508957386,1,-4.144189835,1,-0.728209019,1
0.923949838,-4.077973843,1,-4.899612427,1,-5.587595463,1,-0.835336506,1,1.613047123,1,-2.434041262,1,0.168780163,1,-1.034447789,1,-0.405002534,1,4.328862667,1,-4.060103416,1,-0.660936832,1
0.927951097,-4.184885025,1,-4.861925125,1,-5.525301933,1,-0.767461181,1,1.726443172,1,-2.418520451,1,0.179567039,1,-1.026178479,1,-0.421321124,1,4.180337906,1,-3.956936598,1,-0.53975153,1
0.931948543,-4.323600292,1,-4.893440247,1,-5.548931599,1,-0.701836348,1,1.835568905,1,-2.407654047,1,0.190004155,1,-1.017398596,1,-0.43700105,1,3.996812344,1,-3.922633886,1,-0.501170158,1
0.935947776,-4.485090256,1,-4.901442051,1,-5.479196548,1,-0.633400798,1,1.94817543,1,-2.399767637,1,0.200105965,1,-1.008096576,1,-0.452044427,1,3.787148476,1,-3.86435461,1,-0.365866661,1
0.939949036,-4.608349323,1,-4.98763895,1,-5.461471081,1,-0.566386878,1,2.059982777,1,-2.393334627,1,0.209879026,1,-0.998307228,1,-0.466468841,1,3.612418652,1,-3.883808613,1,-0.279557228,1
0.943946481,-4.714506626,1,-5.126704216,1,-5.422460556,1,-0.50795877,1,2.164305687,1,-2.389361143,1,0.219305426,1,-0.988008559,1,-0.48028031,1,3.451261997,1,-3.955720901,1,-0.168828964,1
0.947945714,-4.751319408,1,-5.194106102,1,-5.399598122,1,-0.458246678,1,2.268167019,1,-2.386953831,1,0.22838217,1,-0.977237403,1,-0.493508428,1,3.356000423,1,-3.955643177,1,-0.071442604,1
0.951946735,-4.786484241,1,-5.221021175,1,-5.460189819,1,-0.403335124,1,2.363167524,1,-2.392136097,1,0.237134695,1,-0.966018617,1,-0.506199121,1,3.25895834,1,-3.91468668,1,-0.055009365,1
0.95594418,-4.948627949,1,-5.157688618,1,-5.489052773,1,-0.34947589,1,2.439831257,1,-2.411674976,1,0.245670557,1,-0.954389215,1,-0.518458366,1,3.031602859,1,-3.78260088,1,-0.004831791,1
0.959943175,-5.082559109,1,-5.165090561,1,-5.56701088,1,-0.290240049,1,2.524528027,1,-2.438944817,1,0.254070908,1,-0.942367315,1,-0.530362129,1,2.829124928,1,-3.719971657,1,-0.002071381,1
0.963944733,-5.245224476,1,-5.182304859,1,-5.567154884,1,-0.229578465,1,2.594942093,1,-2.472925186,1,0.262379169,1,-0.929956794,1,-0.541967094,1,2.594497681,1,-3.66564846,1,0.079986095,1
0.967942119,-5.269298553,1,-5.243728638,1,-5.569851875,1,-0.176649287,1,2.667541504,1,-2.520005465,1,0.270651102,1,-0.917163193,1,-0.553346992,1,2.494976521,1,-3.653726339,1,0.160728931,1
0.971941113,-5.303535938,1,-5.301393986,1,-5.628578186,1,-0.124997139,1,2.728344917,1,-2.571037769,1,0.278912604,1,-0.904016852,1,-0.564559579,1,2.381888866,1,-3.636143923,1,0.186302185,1
0.975942671,-5.375434399,1,-5.37762785,1,-5.733201981,1,-0.078270279,1,2.774471045,1,-2.625633717,1,0.287151784,1,-0.890548825,1,-0.575615048,1,2.227831841,1,-3.635364771,1,0.166502953,1
0.979940116,-5.575139046,1,-5.520069599,1,-5.801136017,1,-0.04435946,1,2.814846754,1,-2.686108589,1,0.295401871,1,-0.876786351,1,-0.586599827,1,1.9427495,1,-3.6989007,1,0.183541298,1
0.98393935,-5.867601871,1,-5.528334618,1,-5.823955536,1,-0.020661041,1,2.850599289,1,-2.749360323,1,0.303627163,1,-0.862753451,1,-0.597533703,1,1.56176424,1,-3.626646519,1,0.245616913,1
0.987940609,-6.08711338,1,-5.63093996,1,-5.825172424,1,-0.004940837,1,2.887424707,1,-2.822859764,1,0.311806977,1,-0.848436475,1,-0.608440042,1,1.250431061,1,-3.647237778,1,0.329256058,1
0.991938055,-6.242417812,1,-5.747724533,1,-5.858955383,1,-0.013577399,1,2.921374559,1,-2.894294024,1,0.319874048,1,-0.833837509,1,-0.619319081,1,0.999948025,1,-3.680972338,1,0.380302906,1
0.995937288,-6.345663071,1,-5.764434338,1,-5.928296566,1,-0.024985082,1,2.94737792,1,-2.959673643,1,0.327814281,1,-0.818993211,1,-0.630200624,1,0.798342705,1,-3.613826513,1,0.395448208,1
0.999944687,-6.408261776,1,-5.683076859,1,-5.924093246,1,-0.033566728,1,2.962395191,1,-3.027899504,1,0.335570455,1,-0.803913891,1,-0.641059697,1,0.634213924,1,-3.448262453,1,0.483777523,1
1.003947973,-6.560957909,1,-5.518891335,1,-6.002167702,1,-0.033167392,1,2.9715693,1,-3.092297077,1,0.343182504,1,-0.788646221,1,-0.651904702,1,0.377088547,1,-3.199453831,1,0.48900795,1
1.007947564,-6.630300522,1,-5.363377094,1,-6.04676199,1,-0.020303125,1,2.966305017,1,-3.147239208,1,0.350695312,1,-0.773234844,1,-0.662743866,1,0.200693607,1,-2.958785772,1,0.526453018,1
1.011948824,-6.773626328,1,-5.315887451,1,-6.050096989,1,-0.01242845,1,2.965617418,1,-3.199391365,1,0.358109593,1,-0.757696092,1,-0.673544049,1,-0.052211285,1,-2.825720549,1,0.60372448,1
1.015946031,-6.870692253,1,-5.16127634,1,-6.044781685,1,0.001189209,1,2.954759359,1,-3.250045538,1,0.365426183,1,-0.742060542,1,-0.684306622,1,-0.26117754,1,-2.585251808,1,0.687976837,1
1.019945264,-7.015464783,1,-5.212421894,1,-6.071214199,1,0.013757348,1,2.933648109,1,-3.297228575,1,0.372640371,1,-0.726333141,1,-0.694961071,1,-0.52013731,1,-2.550373077,1,0.738769531,1
1.023946524,-7.212524414,1,-5.13628149,1,-6.120219231,1,0.031118797,1,2.911066294,1,-3.346335173,1,0.379790276,1,-0.71057272,1,-0.705673814,1,-0.833236217,1,-2.387998819,1,0.764781952,1
1.027943969,-7.472450256,1,-5.155860424,1,-6.117907524,1,0.04287608,1,2.89028573,1,-3.399909019,1,0.386859179,1,-0.694766879,1,-0.716380358,1,-1.211126328,1,-2.321285009,1,0.840016365,1
1.031943202,-7.744806767,1,-5.124485493,1,-6.139034748,1,0.058161739,1,2.872757912,1,-3.449252129,1,0.393852174,1,-0.678897023,1,-0.727078199,1,-1.603498459,1,-2.203556299,1,0.889777184,1
1.035944223,-8.079877853,1,-5.034654617,1,-6.19954586,1,0.06852594,1,2.859249353,1,-3.503198147,1,0.40075931,1,-0.662948668,1,-0.737770677,1,-2.060738087,1,-2.027418375,1,0.898206711,1
1.039941669,-8.446279526,1,-4.89627552,1,-6.246146679,1,0.077884585,1,2.853774786,1,-3.568891048,1,0.407592237,1,-0.646878779,1,-0.748510003,1,-2.5517869,1,-1.802664042,1,0.918779373,1
1.043940902,-8.720233917,1,-4.838602066,1,-6.253474712,1,0.07702212,1,2.848782778,1,-3.634770393,1,0.414335042,1,-0.630673766,1,-0.759280443,1,-2.952978134,1,-1.658708811,1,0.976925373,1
1.0479424,-8.930925369,1,-4.918693066,1,-6.21380043,1,0.06124527,1,2.849467039,1,-3.69704628,1,0.420921654,1,-0.614314198,1,-0.770074904,1,-3.293655396,1,-1.653127193,1,1.080644608,1
1.051939845,-9.046574593,1,-4.972622395,1,-6.202242851,1,0.03701441,1,2.857002735,1,-3.747613668,1,0.427269101,1,-0.59778738,1,-0.780876637,1,-3.542151451,1,-1.622668982,1,1.155119896,1
1.055939078,-9.148096085,1,-4.919312477,1,-6.131326199,1,-0.013168965,1,2.854556322,1,-3.788719893,1,0.433291346,1,-0.581115603,1,-0.791624069,1,-3.77920866,1,-1.487056255,1,1.287992477,1
1.059940577,-9.145703316,1,-4.63551569,1,-6.13076067,1,-0.062183727,1,2.843544483,1,-3.826202631,1,0.438936681,1,-0.56434381,1,-0.802321255,1,-3.914669514,1,-1.123652697,1,1.349529266,1
1.063938022,-9.163456917,1,-4.388823986,1,-6.101890087,1,-0.10440667,1,2.826310635,1,-3.852303982,1,0.44421941,1,-0.547510684,1,-0.812951505,1,-4.072261333,1,-0.800156116,1,1.438193321,1
1.067937016,-9.295379639,1,-4.143346786,1,-6.099172592,1,-0.138266623,1,2.802271843,1,-3.868398428,1,0.449158937,1,-0.530677497,1,-0.823516488,1,-4.345463753,1,-0.480782032,1,1.499223232,1
1.071938515,-9.446573257,1,-4.025625229,1,-6.129402161,1,-0.168807328,1,2.76777792,1,-3.873444557,1,0.453760207,1,-0.513897419,1,-0.833989978,1,-4.638888836,1,-0.292250156,1,1.525644779,1
1.075941682,-9.59653759,1,-3.912900925,1,-6.191836834,1,-0.197237134,1,2.739925623,1,-3.861307383,1,0.458022118,1,-0.497196972,1,-0.844324648,1,-4.931753635,1,-0.111959696,1,1.518174171,1
1.079941154,-9.947850227,1,-3.738331318,1,-6.30662775,1,-0.215769798,1,2.705316782,1,-3.849494219,1,0.461976558,1,-0.480598539,1,-0.85450393,1,-5.426382542,1,0.1270504,1,1.456541061,1
1.083942413,-10.36157036,1,-3.624846458,1,-6.386619568,1,-0.229492843,1,2.681769848,1,-3.829042196,1,0.465638995,1,-0.464101613,1,-0.864518106,1,-5.983776569,1,0.301901102,1,1.427932739,1
1.08793962,-10.73726463,1,-3.462688208,1,-6.487945557,1,-0.244757146,1,2.658299685,1,-3.819220543,1,0.46903336,1,-0.447673857,1,-0.874366283,1,-6.503726959,1,0.522536516,1,1.376329422,1
1.091938853,-10.95773315,1,-3.470547915,1,-6.609968185,1,-0.259087652,1,2.644985437,1,-3.811561346,1,0.472165853,1,-0.431299806,1,-0.884079754,1,-6.869116306,1,0.570279837,1,1.302462578,1
1.095940113,-11.31254768,1,-3.465489626,1,-6.742833138,1,-0.267110318,1,2.613553286,1,-3.799731731,1,0.475051135,1,-0.414995313,1,-0.893668234,1,-7.369325638,1,0.62809968,1,1.216134071,1
1.09993732,-11.74583721,1,-3.55970335,1,-6.828245163,1,-0.294565141,1,2.582391262,1,-3.788723469,1,0.47768867,1,-0.398790985,1,-0.903167963,1,-7.948155403,1,0.58369875,1,1.175597191,1
1.103936553,-12.21534252,1,-3.670189142,1,-6.88186264,1,-0.324868321,1,2.552982569,1,-3.779354572,1,0.480038434,1,-0.382696867,1,-0.91257751,1,-8.56319809,1,0.519692659,1,1.165393829,1
1.107937813,-12.62847328,1,-3.794127703,1,-6.797163486,1,-0.3761971,1,2.528721571,1,-3.762013435,1,0.482049316,1,-0.366710335,1,-0.92188549,1,-9.121829987,1,0.438458204,1,1.292356968,1
1.111935496,-12.8386507,1,-3.824117661,1,-6.608525276,1,-0.447269887,1,2.50162816,1,-3.730482101,1,0.48362416,1,-0.350838006,1,-0.93107307,1,-9.477355957,1,0.446545601,1,1.522571564,1
1.11593473,-12.86645126,1,-3.753139257,1,-6.453615665,1,-0.527958572,1,2.468232393,1,-3.693882942,1,0.48472026,1,-0.335123062,1,-0.940118313,1,-9.649898529,1,0.550519705,1,1.718531132,1
1.119935989,-12.86405373,1,-3.539097309,1,-6.242777348,1,-0.599132597,1,2.421705961,1,-3.642440319,1,0.485318124,1,-0.319628954,1,-0.949007332,1,-9.790986061,1,0.792176247,1,1.969892979,1
1.123933434,-12.91208553,1,-3.339322567,1,-5.963899612,1,-0.665632844,1,2.358941078,1,-3.575237989,1,0.485461354,1,-0.304444015,1,-0.957732737,1,-9.980356216,1,1.014403343,1,2.288477898,1
1.127932668,-12.91723728,1,-3.063750505,1,-5.75101757,1,-0.713401318,1,2.277857065,1,-3.501182079,1,0.4852148,1,-0.289643079,1,-0.966304123,1,-10.12392235,1,1.307701349,1,2.539912224,1
1.131933689,-13.08558083,1,-2.813504457,1,-5.478572369,1,-0.742657483,1,2.189487457,1,-3.416907549,1,0.484645128,1,-0.27529043,1,-0.974714935,1,-10.42707348,1,1.571451902,1,2.849465847,1
1.135931134,-13.37160492,1,-2.689881086,1,-5.205841064,1,-0.752544582,1,2.100397587,1,-3.327065945,1,0.483841687,1,-0.261420071,1,-0.982948899,1,-10.84389496,1,1.705113173,1,3.15755558,1
1.139930367,-13.64283657,1,-2.556363583,1,-4.938093185,1,-0.763712227,1,2.019099474,1,-3.234732151,1,0.482839227,1,-0.248021692,1,-0.990997612,1,-11.24193668,1,1.845574856,1,3.458948135,1
1.143931866,-13.7622385,1,-2.653251171,1,-4.642926216,1,-0.769702792,1,1.94728446,1,-3.121168613,1,0.481633693,1,-0.235095739,1,-0.998807609,1,-11.48408508,1,1.752567768,1,3.786211967,1
1.147929311,-13.83226109,1,-2.563583374,1,-4.290732384,1,-0.789322853,1,1.869015574,1,-3.009852886,1,0.480224013,1,-0.222660512,1,-1.00634408,1,-11.67255402,1,1.84309721,1,4.169083595,1
1.151928544,-13.72813606,1,-2.395777464,1,-3.944537878,1,-0.808016837,1,1.780822039,1,-2.879972696,1,0.478588283,1,-0.21074824,1,-1.01359117,1,-11.68220711,1,2.008595705,1,4.544709206,1
1.155935764,-13.40694523,1,-2.128593922,1,-3.644874573,1,-0.811662555,1,1.684341431,1,-2.748412848,1,0.476763338,1,-0.19941166,1,-1.020548105,1,-11.46956635,1,2.27064085,1,4.872458458,1
1.159939051,-13.03513336,1,-1.670381784,1,-3.387314558,1,-0.796294272,1,1.553532124,1,-2.614996195,1,0.474827737,1,-0.188739613,1,-1.027231216,1,-11.20016861,1,2.721561193,1,5.1564188,1
1.163938284,-12.81795597,1,-1.139712334,1,-3.154648304,1,-0.750287414,1,1.404594421,1,-2.480114937,1,0.472916454,1,-0.178820327,1,-1.033701301,1,-11.07836914,1,3.24396801,1,5.413246632,1
1.167939544,-12.70522594,1,-0.710257947,1,-2.89059186,1,-0.67802912,1,1.235705614,1,-2.352473497,1,0.471145391,1,-0.169724166,1,-1.04000628,1,-11.05325317,1,3.665242672,1,5.69879818,1
1.171936989,-12.73364449,1,-0.382684261,1,-2.632881403,1,-0.598525226,1,1.061477661,1,-2.233095646,1,0.46961087,1,-0.161472395,1,-1.046179056,1,-11.16127205,1,3.985650539,1,5.975074768,1
1.175936222,-12.86441708,1,-0.178452075,1,-2.432802677,1,-0.519574165,1,0.881183028,1,-2.124791145,1,0.468328178,1,-0.154070944,1,-1.05227375,1,-11.36353302,1,4.183972836,1,6.190899372,1
1.179937482,-12.95349884,1,-0.111831307,1,-2.242951155,1,-0.465999663,1,0.71314919,1,-2.026625633,1,0.467265099,1,-0.147477254,1,-1.058313727,1,-11.51636982,1,4.24578619,1,6.394030571,1
1.183934927,-12.98360538,1,-0.004891486,1,-2.098941565,1,-0.425264478,1,0.541661561,1,-1.927555919,1,0.466347545,1,-0.141679123,1,-1.064305902,1,-11.60259151,1,4.348472118,1,6.549332619,1
1.18793416,-13.14534187,1,0.091736943,1,-1.93910718,1,-0.411170155,1,0.375879675,1,-1.848417521,1,0.465515673,1,-0.136635721,1,-1.070288301,1,-11.81317616,1,4.440976143,1,6.718898773,1
1.191935539,-13.18058968,1,0.133788258,1,-1.761322618,1,-0.404688209,1,0.227265641,1,-1.764255762,1,0.464688629,1,-0.132315472,1,-1.076260448,1,-11.89029503,1,4.478404522,1,6.905342579,1
1.195932627,-13.09140873,1,0.18477957,1,-1.501875758,1,-0.427033424,1,0.07532423,1,-1.681664705,1,0.46380353,1,-0.128691196,1,-1.082200646,1,-11.83625889,1,4.523787498,1,7.172759056,1
1.19993186,-12.91720581,1,0.342788637,1,-1.233821034,1,-0.459065646,1,-0.072029591,1,-1.588649035,1,0.4627828,1,-0.125762865,1,-1.088088512,1,-11.69046402,1,4.674560547,1,7.448486328,1
1.203933239,-12.41921139,1,0.58917731,1,-1.102211356,1,-0.485990494,1,-0.23332192,1,-1.487154365,1,0.461617023,1,-0.123560503,1,-1.093910575,1,-11.21384239,1,4.912016869,1,7.587536335,1
1.207930565,-12.00559521,1,0.859905899,1,-0.925973415,1,-0.501858234,1,-0.411594957,1,-1.36870718,1,0.460343659,1,-0.122167997,1,-1.099643707,1,-10.81374168,1,5.172419548,1,7.77077055,1
1.211929798,-11.79600048,1,1.001000285,1,-0.820885658,1,-0.493380487,1,-0.593828261,1,-1.243944526,1,0.459030032,1,-0.12165086,1,-1.10525918,1,-10.6091671,1,5.302357674,1,7.882064819,1
1.215931177,-11.78232574,1,1.00756681,1,-0.722683549,1,-0.491775066,1,-0.782428086,1,-1.104790807,1,0.45772025,1,-0.12204437,1,-1.110729098,1,-10.5916729,1,5.297317028,1,7.985477924,1
1.219928622,-11.67934322,1,0.888169885,1,-0.668376565,1,-0.486364067,1,-0.949650168,1,-0.962759256,1,0.456412613,1,-0.123316094,1,-1.116004229,1,-10.47634602,1,5.165857792,1,8.044019699,1
1.223927855,-11.58674049,1,0.788511217,1,-0.742078483,1,-0.487011701,1,-1.104198456,1,-0.806370676,1,0.455094278,1,-0.125456259,1,-1.121027827,1,-10.36297417,1,5.053567886,1,7.973616123,1
1.227929115,-11.56223297,1,0.733990312,1,-0.901984096,1,-0.486810505,1,-1.259552836,1,-0.657637715,1,0.453746498,1,-0.128422141,1,-1.125777245,1,-10.30969238,1,4.985686302,1,7.816149712,1
1.23192656,-11.50377274,1,0.685073972,1,-1.141061544,1,-0.488591939,1,-1.394598365,1,-0.51488632,1,0.452367574,1,-0.132179171,1,-1.130250096,1,-10.21479988,1,4.922658443,1,7.578635216,1
1.235931873,-11.37508106,1,0.610592842,1,-1.394783139,1,-0.487983614,1,-1.529368639,1,-0.38026461,1,0.450974405,1,-0.136668652,1,-1.134458899,1,-10.04259586,1,4.833459854,1,7.325510979,1
1.239933491,-11.19041824,1,0.460717499,1,-1.657788157,1,-0.483830959,1,-1.653973579,1,-0.251434863,1,0.449580848,1,-0.141856328,1,-1.13841033,1,-9.807688713,1,4.66836834,1,7.062040329,1
1.243930936,-11.00431252,1,0.214303941,1,-1.943636537,1,-0.481087297,1,-1.775487661,1,-0.134920999,1,0.448188931,1,-0.147700325,1,-1.142122388,1,-9.56502533,1,4.406238556,1,6.774606228,1
1.247930169,-10.74212933,1,-0.134426549,1,-2.213890791,1,-0.484637827,1,-1.881434917,1,-0.024039559,1,0.446781874,1,-0.154158622,1,-1.14560616,1,-9.240397453,1,4.041133881,1,6.501677513,1
1.251931667,-10.38846493,1,-0.535659492,1,-2.593004942,1,-0.496012509,1,-1.982613325,1,0.08068198,1,0.445335001,1,-0.161180884,1,-1.148871541,1,-8.81890583,1,3.622640848,1,6.118863106,1
1.255929112,-9.317842484,1,-1.306389928,1,-3.864556789,1,-0.547353983,1,-2.08668375,1,0.145944268,1,0.443785846,1,-0.168729216,1,-1.151980042,1,-7.675461769,1,2.833205223,1,4.842795849,1
1.259928346,25.79695511,1,-23.03526306,1,-29.91093063,1,-3.109541416,1,-2.908792973,1,0.740101933,1,0.437163711,1,-0.177894726,1,-1.154880047,1,27.52763367,1,-18.95996475,1,-21.19036102,1
1.263929605,2.02854991,1,-19.00879669,1,-9.398956299,1,-2.570689678,1,-3.393138409,1,1.224332929,1,0.426606208,1,-0.192071095,1,-1.156887293,1,3.895508289,1,-15.03634167,1,-0.659060478,1
1.267927051,35.96419144,1,-23.6556797,1,-21.06713295,1,-2.836840391,1,-2.491569996,1,1.807284474,1,0.415136904,1,-0.204700261,1,-1.155846596,1,37.95223999,1,-19.79354286,1,-12.30453014,1
1.271932364,18.01453209,1,-18.84692383,1,-29.30483818,1,-3.059295177,1,-2.854477406,1,2.074186087,1,0.402995586,1,-0.217644423,1,-1.152789831,1,20.12636566,1,-15.10186481,1,-20.52039909,1
1.275933743,11.89825535,1,-4.754721165,1,-21.41700935,1,-2.845708847,1,-3.240391731,1,2.161607742,1,0.390075743,1,-0.232138455,1,-1.149508476,1,14.14827156,1,-1.135485888,1,-12.61415768,1
1.279931188,9.666472435,1,11.99308205,1,-10.02387238,1,-2.185322523,1,-4.156055927,1,1.844545484,1,0.379472792,1,-0.248727679,1,-1.14744091,1,12.07406521,1,15.50446796,1,-1.219025612,1
1.283930421,-6.957570553,1,14.63070965,1,-3.182948351,1,-1.454188228,1,-5.043478012,1,1.521884561,1,0.37244603,1,-0.268430769,1,-1.148040533,1,-4.363687992,1,18.06220818,1,5.600455284,1
1.287931681,-13.95284271,1,3.694655657,1,-6.039055347,1,-1.16920507,1,-5.51985836,1,1.374654889,1,0.367962062,1,-0.29025054,1,-1.150461793,1,-11.1538353,1,7.065572739,1,2.704752445,1
1.291928887,-16.30125809,1,-1.754120827,1,-10.0042448,1,-1.00040102,1,-5.630991459,1,1.466564775,1,0.364480853,1,-0.313238829,1,-1.153307557,1,-13.2875843,1,1.562519073,1,-1.311182022,1
1.295928121,-20.09519005,1,-0.547925353,1,-14.48340702,1,-0.880478561,1,-5.173754215,1,1.373294592,1,0.36152187,1,-0.33557266,1,-1.155772328,1,-16.87448502,1,2.718352318,1,-5.845690727,1
1.29992938,-23.06137657,1,0.266641408,1,-16.65061569,1,-0.760321498,1,-4.494764328,1,1.186358333,1,0.358971298,1,-0.355481654,1,-1.157940865,1,-19.6574688,1,3.487709522,1,-8.066338539,1
1.303926826,-24.53142738,1,-0.633378565,1,-16.50021172,1,-0.701768577,1,-3.847720623,1,1.099099636,1,0.35670352,1,-0.372671068,1,-1.15964973,1,-20.97042656,1,2.547310591,1,-7.964747429,1
1.307925701,-23.15872192,1,0.915222526,1,-14.40247631,1,-0.492114276,1,-3.31020689,1,1.086991429,1,0.354624867,1,-0.387623549,1,-1.160573602,1,-19.4619236,1,4.059319496,1,-5.911308289,1
1.31193316,-21.21209717,1,1.969078422,1,-13.15040779,1,-0.260469109,1,-2.822509289,1,0.96889174,1,0.353265703,1,-0.400541544,1,-1.160977006,1,-17.39864349,1,5.084849358,1,-4.700487137,1
1.315936804,-18.84385109,1,1.702108979,1,-12.88540745,1,-0.037892289,1,-2.426266193,1,0.784932494,1,0.352835238,1,-0.411588162,1,-1.161326408,1,-14.93114567,1,4.799496651,1,-4.474189758,1
1.319936514,-15.67023754,1,-0.411976963,1,-11.96277905,1,0.080401555,1,-2.054941416,1,0.576697528,1,0.353174865,1,-0.420924872,1,-1.161925316,1,-11.67401505,1,2.675496101,1,-3.587258339,1
1.323937774,-12.30815792,1,-1.320776105,1,-10.83583355,1,0.147262022,1,-1.765427709,1,0.417056322,1,0.353982091,1,-0.428755194,1,-1.162788868,1,-8.242162704,1,1.762516618,1,-2.492412567,1
1.327935457,-8.782132149,1,-1.632751703,1,-9.57881546,1,0.192215919,1,-1.588088155,1,0.310263693,1,0.355122149,1,-0.435520589,1,-1.163858652,1,-4.656052589,1,1.450413465,1,-1.264903069,1
1.33193469,-5.448878288,1,-1.621420145,1,-8.667813301,1,0.25935629,1,-1.524716854,1,0.28222388,1,0.356518626,1,-0.441743702,1,-1.16502893,1,-1.267697334,1,1.464333296,1,-0.382430077,1
1.33593595,-3.876673937,1,-1.462190509,1,-8.187589645,1,0.321135223,1,-1.525400996,1,0.264672965,1,0.358198941,1,-0.447829127,1,-1.166254997,1,0.358232737,1,1.628501058,1,0.068609238,1
1.339933157,-3.736366749,1,-1.698006392,1,-7.935275078,1,0.370981872,1,-1.50927794,1,0.26439479,1,0.360152751,1,-0.453876704,1,-1.167534471,1,0.551775932,1,1.399727821,1,0.290750504,1
1.34393239,-4.552333832,1,-2.349557877,1,-7.627498627,1,0.414105803,1,-1.467499137,1,0.274286449,1,0.36226815,1,-0.459835887,1,-1.168760777,1,-0.211886406,1,0.75646019,1,0.567917824,1
1.347934008,-5.796298027,1,-3.203758001,1,-7.418118,1,0.414046139,1,-1.393071055,1,0.312099904,1,0.364390552,1,-0.465604246,1,-1.169812083,1,-1.405367851,1,-0.089328051,1,0.74715662,1
1.351931334,-6.866793633,1,-4.381560326,1,-7.237846851,1,0.385032684,1,-1.281964421,1,0.340762198,1,0.366342604,1,-0.471068025,1,-1.170590043,1,-2.428180695,1,-1.259839296,1,0.898808956,1
1.355930328,-8.293424606,1,-6.280439377,1,-7.272706032,1,0.302121758,1,-1.154199004,1,0.365579337,1,0.367955804,1,-0.476134896,1,-1.171079278,1,-3.810711384,1,-3.15372467,1,0.837817192,1
1.359931946,-9.388072968,1,-9.079906464,1,-6.839630127,1,0.114967778,1,-0.961684227,1,0.377960384,1,0.368864298,1,-0.480623811,1,-1.171224833,1,-4.866385937,1,-5.953111649,1,1.249198914,1
1.363929391,-9.750864983,1,-8.603645325,1,-6.974645138,1,-0.044372592,1,-0.785723507,1,0.329517335,1,0.368969023,1,-0.484393418,1,-1.171137094,1,-5.196519852,1,-5.482171059,1,1.097904682,1
1.367928624,-8.827097893,1,-7.873548985,1,-6.96481514,1,-0.189622328,1,-0.66286397,1,0.264474928,1,0.368456125,1,-0.487509906,1,-1.171076298,1,-4.245800972,1,-4.761344433,1,1.09605217,1
1.371929884,-7.485181808,1,-5.609994888,1,-7.532150745,1,-0.271510333,1,-0.579960048,1,0.225456432,1,0.3675116,1,-0.490173936,1,-1.171056271,1,-2.880882263,1,-2.509802103,1,0.520231724,1
1.375927091,-6.915448189,1,-3.426733494,1,-8.307252884,1,-0.309862494,1,-0.505528867,1,0.21069102,1,0.366316527,1,-0.492516994,1,-1.171024799,1,-2.290944099,1,-0.340037584,1,-0.261262894,1
1.379926324,-6.966346741,1,-1.289979815,1,-9.031496048,1,-0.283284217,1,-0.428001672,1,0.197604373,1,0.36505878,1,-0.49455741,1,-1.170911074,1,-2.324268341,1,1.783218741,1,-0.990460396,1
1.383927584,-6.868493557,1,-0.677962124,1,-9.237434387,1,-0.224770635,1,-0.360242188,1,0.153280914,1,0.363989651,1,-0.496274918,1,-1.170800686,1,-2.211637497,1,2.383794785,1,-1.200579643,1
1.38792479,-6.897642612,1,-1.479188085,1,-8.849469185,1,-0.160243213,1,-0.308447182,1,0.101741023,1,0.363222957,1,-0.497707784,1,-1.17080152,1,-2.228467941,1,1.574031711,1,-0.816516876,1
1.391930103,-6.921977997,1,-2.688103676,1,-8.479956627,1,-0.131874144,1,-0.249706388,1,0.061989758,1,0.362701833,1,-0.498877227,1,-1.170913219,1,-2.242756844,1,0.358989954,1,-0.450526237,1
1.395931602,-6.383431435,1,-3.350052357,1,-8.176277161,1,-0.119684257,1,-0.201127738,1,0.028360624,1,0.362295091,1,-0.499780416,1,-1.171088099,1,-1.696455479,1,-0.307722807,1,-0.149559975,1
1.399929285,-5.532070637,1,-3.390697002,1,-8.05679512,1,-0.117212348,1,-0.177141473,1,0.014259262,1,0.361924917,1,-0.500513315,1,-1.171312451,1,-0.838804722,1,-0.352557421,1,-0.032169342,1
1.40392828,-5.045981407,1,-2.8939991,1,-8.222561836,1,-0.116011567,1,-0.173303872,1,0.009145651,1,0.361563593,1,-0.501188576,1,-1.171539068,1,-0.346922398,1,0.140120506,1,-0.199802399,1
1.407929659,-5.171487808,1,-2.414489508,1,-8.605378151,1,-0.080521956,1,-0.176212505,1,-0.010446772,1,0.361304343,1,-0.501848876,1,-1.171826005,1,-0.466766357,1,0.616451502,1,-0.584739685,1
1.411926985,-5.461595058,1,-1.829389572,1,-8.866378784,1,-0.047996279,1,-0.175169095,1,-0.027601982,1,0.361215234,1,-0.502487481,1,-1.172187924,1,-0.75139904,1,1.199773312,1,-0.848284721,1
1.415926218,-5.605817795,1,-1.339145899,1,-9.081998825,1,0.003502703,1,-0.156106859,1,-0.060396064,1,0.361347914,1,-0.503046334,1,-1.172638893,1,-0.890832424,1,1.690150499,1,-1.066767693,1
1.419927597,-5.531023502,1,-1.127593517,1,-9.120850563,1,0.060489692,1,-0.145655498,1,-0.089106955,1,0.361742318,1,-0.503507853,1,-1.173208475,1,-0.812084198,1,1.904093504,1,-1.108850479,1
1.423925042,-5.281395912,1,-1.276730776,1,-8.937511444,1,0.112350464,1,-0.140115201,1,-0.117961623,1,0.362426162,1,-0.50388062,1,-1.173887253,1,-0.559263706,1,1.75981164,1,-0.92923069,1
1.427924275,-5.013632774,1,-1.512213469,1,-8.725019455,1,0.160039991,1,-0.14122206,1,-0.143618762,1,0.363342673,1,-0.504215002,1,-1.174673796,1,-0.288637161,1,1.531104326,1,-0.721004486,1
1.431925535,-4.946385384,1,-2.037787676,1,-8.415097237,1,0.195457503,1,-0.139972448,1,-0.159165248,1,0.364474237,1,-0.504527867,1,-1.175545812,1,-0.218710899,1,1.014059305,1,-0.415910244,1
1.43592298,-4.949268818,1,-2.4887743,1,-8.197889328,1,0.212948546,1,-0.141285777,1,-0.165456235,1,0.365740806,1,-0.504825592,1,-1.176475644,1,-0.219045639,1,0.572697401,1,-0.203891277,1
1.439921975,-4.977602482,1,-2.795779705,1,-8.079236031,1,0.223719195,1,-0.14247638,1,-0.170905605,1,0.367076844,1,-0.505111575,1,-1.177425742,1,-0.244931221,1,0.275883675,1,-0.090598583,1
1.443923235,-4.932322502,1,-2.9763062,1,-7.98120594,1,0.227354437,1,-0.132805705,1,-0.168025419,1,0.368441135,1,-0.505382299,1,-1.17837441,1,-0.19733429,1,0.105791092,1,0.002037048,1
1.44792068,-4.864413261,1,-3.133126974,1,-7.864017487,1,0.226006165,1,-0.127582863,1,-0.167925924,1,0.369797885,1,-0.505622864,1,-1.179308176,1,-0.127366543,1,-0.040611506,1,0.113976955,1
1.451919675,-4.794296265,1,-3.410692692,1,-7.739011288,1,0.218648508,1,-0.121862993,1,-0.156264201,1,0.371126235,1,-0.505863428,1,-1.180203557,1,-0.05519104,1,-0.307996988,1,0.233803272,1
1.455921173,-4.706126213,1,-3.80098629,1,-7.578147411,1,0.199002326,1,-0.129768372,1,-0.14501287,1,0.372376502,1,-0.506124139,1,-1.181052923,1,0.035209656,1,-0.688772917,1,0.389634609,1
1.459918618,-4.607280731,1,-4.183093071,1,-7.41849947,1,0.17143251,1,-0.127946794,1,-0.124557398,1,0.373513579,1,-0.506397009,1,-1.181846261,1,0.136388302,1,-1.06229496,1,0.544530869,1
1.463917851,-4.458488464,1,-4.483733177,1,-7.276424408,1,0.134199202,1,-0.130743846,1,-0.101886041,1,0.374470115,1,-0.506712317,1,-1.182540774,1,0.28787756,1,-1.355866432,1,0.682226181,1
1.467919111,-4.376224995,1,-4.563572884,1,-7.1714921,1,0.090975866,1,-0.137055516,1,-0.070277102,1,0.375202328,1,-0.507080436,1,-1.183126092,1,0.373287678,1,-1.430519581,1,0.783240795,1
1.471922159,-4.502687931,1,-4.484932423,1,-7.233788967,1,0.044380389,1,-0.147808105,1,-0.044569921,1,0.375707269,1,-0.507517278,1,-1.183609962,1,0.250559807,1,-1.34862566,1,0.717427254,1
1.475921392,-4.673280716,1,-4.197694778,1,-7.394349098,1,0.00746999,1,-0.146104366,1,-0.021886161,1,0.375997961,1,-0.508014441,1,-1.183986902,1,0.084216118,1,-1.059944391,1,0.553756714,1
1.479922652,-4.86400938,1,-3.868420601,1,-7.625376225,1,-0.01426683,1,-0.138024285,1,-0.012011938,1,0.376131266,1,-0.508512855,1,-1.184299588,1,-0.102253914,1,-0.73048234,1,0.320105076,1
1.483919859,-4.990113735,1,-3.439105034,1,-7.813314438,1,-0.032713942,1,-0.128943592,1,-0.001917775,1,0.376148045,1,-0.509002805,1,-1.18453908,1,-0.224174023,1,-0.301890373,1,0.129944801,1
1.487919092,-4.931201935,1,-3.231267691,1,-7.903105259,1,-0.048531149,1,-0.129317924,1,0.005919783,1,0.376086712,1,-0.509478152,1,-1.184746504,1,-0.161203384,1,-0.095371962,1,0.038239479,1
1.491920352,-4.77670002,1,-3.157375813,1,-7.966944695,1,-0.051271956,1,-0.128470302,1,0.014878575,1,0.375972629,1,-0.509970367,1,-1.184910893,1,-0.002499104,1,-0.023250341,1,-0.027431965,1
1.495917797,-4.65826416,1,-3.126884699,1,-7.996110916,1,-0.050837327,1,-0.142030597,1,0.021790305,1,0.375834316,1,-0.510500014,1,-1.185054898,1,0.120457172,1,0.005215168,1,-0.058514595,1
1.49991703,-4.674285889,1,-3.044308901,1,-7.998901844,1,-0.046934843,1,-0.162556201,1,0.029884271,1,0.375704795,1,-0.511097491,1,-1.185192585,1,0.109532833,1,0.085713863,1,-0.063559532,1
1.50391829,-4.688765049,1,-2.893254042,1,-8.025040627,1,-0.048375633,1,-0.174727172,1,0.03229589,1,0.375583202,1,-0.511771023,1,-1.185337782,1,0.10079813,1,0.234621763,1,-0.092315197,1
1.507915735,-4.690074921,1,-2.773989916,1,-8.082954407,1,-0.037537247,1,-0.185467958,1,0.039222352,1,0.375481427,1,-0.512487054,1,-1.185480237,1,0.105592728,1,0.351820469,1,-0.153102875,1
1.511921167,-4.679790497,1,-2.783470392,1,-8.024116516,1,-0.033287127,1,-0.19695963,1,0.040927976,1,0.3754026,1,-0.513256967,1,-1.18562758,1,0.122437954,1,0.340360403,1,-0.097455025,1
1.515922427,-4.553492546,1,-2.896406174,1,-7.978710175,1,-0.035223428,1,-0.209893763,1,0.046505012,1,0.37353617,1,-0.516882777,1,-1.185071826,1,0.279595852,1,0.206250906,1,-0.062494755,1
1.519920111,-4.471316814,1,-3.098887444,1,-7.827773094,1,-0.03445686,1,-0.228672147,1,0.052980695,1,0.373433411,1,-0.517755747,1,-1.184464216,1,0.3691926,1,0.001413345,1,0.084824562,1
1.523919344,-4.406667709,1,-3.329957247,1,-7.677435875,1,-0.036438327,1,-0.242845193,1,0.05728396,1,0.373377383,1,-0.518710494,1,-1.184628367,1,0.441953182,1,-0.231785059,1,0.231033325,1
1.527920842,-4.432637215,1,-3.473109484,1,-7.597096443,1,-0.048735492,1,-0.260492176,1,0.067203358,1,0.373294771,1,-0.519740105,1,-1.184789181,1,0.424726009,1,-0.377412081,1,0.306977272,1
1.531918287,-4.474104404,1,-3.679135323,1,-7.458765507,1,-0.059347935,1,-0.267493874,1,0.073923625,1,0.373149633,1,-0.520827472,1,-1.184927821,1,0.392486572,1,-0.586513281,1,0.440832615,1
1.535917521,-4.46865797,1,-3.831165791,1,-7.381053925,1,-0.083485283,1,-0.280803323,1,0.091485985,1,0.372913718,1,-0.521975815,1,-1.185024023,1,0.407671452,1,-0.742445946,1,0.514062881,1
1.5399189,-4.471482277,1,-4.009020329,1,-7.330150604,1,-0.100849248,1,-0.294292152,1,0.10296987,1,0.372579157,1,-0.523185611,1,-1.185081959,1,0.415099621,1,-0.925091505,1,0.560499191,1
1.543915987,-4.705488205,1,-3.962027073,1,-7.410817146,1,-0.104201943,1,-0.30234009,1,0.097508684,1,0.372203797,1,-0.52444464,1,-1.185155392,1,0.191756248,1,-0.883301258,1,0.475250244,1
1.547921181,-5.450114727,1,-3.661866426,1,-7.718332291,1,-0.105874643,1,-0.284704566,1,0.093172789,1,0.371824622,1,-0.525682747,1,-1.185245275,1,-0.542392731,1,-0.588335752,1,0.163247108,1
1.551922441,-5.538136005,1,-3.186388493,1,-7.879127502,1,-0.115983963,1,-0.254200935,1,0.091851868,1,0.371401548,1,-0.52681458,1,-1.185300946,1,-0.62084198,1,-0.1182096,1,-0.001426697,1
1.555919886,-5.127980709,1,-2.83821559,1,-7.84435463,1,-0.118772358,1,-0.24150686,1,0.087631337,1,0.370931089,1,-0.527863979,1,-1.185323477,1,-0.201817036,1,0.224383354,1,0.029972076,1
1.559919119,-4.930966854,1,-2.820088148,1,-7.898850918,1,-0.105512664,1,-0.245675936,1,0.075314477,1,0.370512366,1,-0.528883159,1,-1.185379386,1,0.003804684,1,0.237395525,1,-0.02792263,1
1.563920379,-4.976764202,1,-2.872445583,1,-7.982866287,1,-0.09596023,1,-0.243468091,1,0.070329942,1,0.370154351,1,-0.529892206,1,-1.185471773,1,-0.033474445,1,0.180415869,1,-0.115492821,1
1.567917824,-5.210999012,1,-2.856971025,1,-8.021055222,1,-0.079271711,1,-0.233179882,1,0.05972904,1,0.369863749,1,-0.530878365,1,-1.185588837,1,-0.2593894,1,0.191841125,1,-0.157341957,1
1.571917057,-5.128529549,1,-2.714763165,1,-8.142260551,1,-0.066138856,1,-0.235748649,1,0.054766525,1,0.36964196,1,-0.531832218,1,-1.185729384,1,-0.168877602,1,0.330596209,1,-0.282280445,1
1.575918317,-5.057283401,1,-2.59172368,1,-8.161318779,1,-0.040233802,1,-0.241936147,1,0.04436614,1,0.369520098,1,-0.53279537,1,-1.185918689,1,-0.089515209,1,0.450952053,1,-0.305424213,1
1.579915524,-5.040884495,1,-2.598701239,1,-8.191711426,1,-0.014588658,1,-0.251952738,1,0.037131298,1,0.369534522,1,-0.533772469,1,-1.186162949,1,-0.06488657,1,0.442331791,1,-0.34039402,1
1.583914757,-5.006584644,1,-2.660003901,1,-8.21711731,1,0.01197702,1,-0.257050842,1,0.029181991,1,0.369672835,1,-0.534774184,1,-1.186449647,1,-0.022155762,1,0.380313873,1,-0.37086916,1
1.587916017,-5.126632214,1,-2.847816944,1,-8.118210793,1,0.040495791,1,-0.263072848,1,0.022585932,1,0.369945705,1,-0.535788,1,-1.186781645,1,-0.133674145,1,0.192812443,1,-0.277510643,1
1.591913462,-5.185546398,1,-2.977186918,1,-8.060987473,1,0.052501526,1,-0.269581795,1,0.017701022,1,0.370322466,1,-0.536814153,1,-1.187153101,1,-0.183962345,1,0.06454134,1,-0.226209641,1
1.595912695,-5.2155509,1,-3.050441265,1,-8.018144608,1,0.073805518,1,-0.27135396,1,0.012196785,1,0.370783776,1,-0.537842572,1,-1.187549591,1,-0.205325603,1,-0.006966829,1,-0.189576149,1
1.599913955,-5.238708496,1,-3.07247901,1,-7.986396313,1,0.087345764,1,-0.276001394,1,0.010237379,1,0.37131393,1,-0.538874388,1,-1.187961936,1,-0.219819069,1,-0.026731253,1,-0.164261818,1
1.603911638,-5.304116249,1,-3.245518923,1,-7.980000973,1,0.09652181,1,-0.274746031,1,0.003225329,1,0.37190038,1,-0.539904952,1,-1.188397884,1,-0.27657938,1,-0.1970644,1,-0.16447401,1
1.607910872,-5.37808609,1,-3.467350006,1,-7.868562222,1,0.097041234,1,-0.275310338,1,0.002668258,1,0.372513056,1,-0.540929675,1,-1.188844204,1,-0.341954708,1,-0.415985584,1,-0.059709072,1
1.611912251,-5.221999645,1,-3.499034882,1,-7.860925674,1,0.09778285,1,-0.272942901,1,0.003753487,1,0.373142362,1,-0.54194361,1,-1.189304113,1,-0.177370071,1,-0.444618702,1,-0.058751106,1
1.615909576,-5.222220421,1,-3.531887531,1,-7.819664478,1,0.097660355,1,-0.280098081,1,0.00931275,1,0.373758316,1,-0.542979777,1,-1.189751983,1,-0.168912411,1,-0.474577188,1,-0.024244785,1
1.619908571,-5.217019081,1,-3.577963829,1,-7.812602043,1,0.091618158,1,-0.279815167,1,0.019364726,1,0.374352098,1,-0.544046283,1,-1.190165877,1,-0.154783726,1,-0.517997742,1,-0.024020195,1
1.623910189,-5.253488541,1,-3.658412218,1,-7.738904476,1,0.079697169,1,-0.283737838,1,0.027611353,1,0.37487936,1,-0.54513216,1,-1.190535545,1,-0.182168961,1,-0.596353292,1,0.042945862,1
1.627913475,-5.194608212,1,-3.622496367,1,-7.660227299,1,0.063306354,1,-0.28441605,1,0.039703853,1,0.375342607,1,-0.546239018,1,-1.190876961,1,-0.114035606,1,-0.558893204,1,0.114974022,1
1.631912708,-5.176912308,1,-3.608213663,1,-7.663929462,1,0.052388586,1,-0.280901641,1,0.046722233,1,0.375735164,1,-0.547356367,1,-1.191175342,1,-0.087005138,1,-0.54364419,1,0.104782581,1
1.635913968,-5.194042683,1,-3.532609463,1,-7.767371178,1,0.04279162,1,-0.28218767,1,0.053732529,1,0.376061857,1,-0.548481941,1,-1.191436768,1,-0.09473896,1,-0.467606783,1,-0.004991055,1
1.639911413,-5.115602493,1,-3.508784056,1,-7.766762257,1,0.03193298,1,-0.286184639,1,0.066823862,1,0.376319617,1,-0.549634933,1,-1.191659212,1,-0.006679058,1,-0.443943977,1,-0.01064682,1
1.643910885,-5.079673767,1,-3.424257994,1,-7.814489841,1,0.023246491,1,-0.293060482,1,0.081671812,1,0.37652421,1,-0.550830841,1,-1.191835403,1,0.039218903,1,-0.360080481,1,-0.06469059,1
1.647912145,-5.143543243,1,-3.379715204,1,-7.859401226,1,0.017719882,1,-0.300170362,1,0.090694927,1,0.376686871,1,-0.552056968,1,-1.191977501,1,-0.014436245,1,-0.316586494,1,-0.115940094,1
1.651909351,-5.145721436,1,-3.311300993,1,-7.946576595,1,0.005125957,1,-0.311842054,1,0.105182536,1,0.376792312,1,-0.553340673,1,-1.192079902,1,-0.005928993,1,-0.249782562,1,-0.209569454,1
1.655908585,-5.222452641,1,-3.351067305,1,-7.844048023,1,0.000685519,1,-0.32129243,1,0.111086629,1,0.3768529,1,-0.554682791,1,-1.192160368,1,-0.071496964,1,-0.291621208,1,-0.113647461,1
1.659909844,-5.316516399,1,-3.146298647,1,-7.86436224,1,-0.005013668,1,-0.33463791,1,0.116647102,1,0.376878947,1,-0.556073368,1,-1.192229748,1,-0.154005051,1,-0.08929038,1,-0.1407094,1
1.663907051,-5.329643726,1,-3.145560741,1,-7.930530071,1,-0.005436108,1,-0.338771492,1,0.121894509,1,0.376892865,1,-0.557492673,1,-1.192287683,1,-0.155347824,1,-0.091143847,1,-0.213739395,1
1.667912483,-5.347066879,1,-3.190948009,1,-7.851550102,1,-0.006418628,1,-0.351233065,1,0.126214489,1,0.376898766,1,-0.558963001,1,-1.19235158,1,-0.160574436,1,-0.139289141,1,-0.141858578,1
1.671913743,-5.407034397,1,-3.196527004,1,-7.962267399,1,-0.009184528,1,-0.365115762,1,0.127477676,1,0.376910746,1,-0.560490608,1,-1.192415118,1,-0.207881451,1,-0.147694826,1,-0.259986877,1
1.675911188,-5.399991512,1,-3.110692263,1,-7.823280811,1,-0.007097054,1,-0.371691048,1,0.132960737,1,0.376910567,1,-0.562056065,1,-1.192478657,1,-0.187876701,1,-0.06486249,1,-0.128582001,1
1.679910421,-5.342051506,1,-3.129596949,1,-7.905264854,1,-0.006493093,1,-0.381110549,1,0.136420727,1,0.376921833,1,-0.563649058,1,-1.192541361,1,-0.116760254,1,-0.086740494,1,-0.218329906,1
1.683911681,-5.346019745,1,-3.06507206,1,-7.895915508,1,-0.001747385,1,-0.390828133,1,0.140825406,1,0.376935959,1,-0.56529057,1,-1.192613006,1,-0.10716486,1,-0.025267363,1,-0.217008114,1
1.687909126,-5.362315655,1,-3.087539434,1,-7.898882389,1,-0.003693818,1,-0.402262896,1,0.14492768,1,0.37695691,1,-0.566977322,1,-1.192669153,1,-0.109537601,1,-0.050829887,1,-0.228262901,1
1.69190836,-5.355396748,1,-3.039412975,1,-7.862510681,1,8.23E-05,1,-0.4190211,1,0.147546068,1,0.37699914,1,-0.568719327,1,-1.192755699,1,-0.088256359,1,-0.005753517,1,-0.200540543,1
1.695909619,-5.368182182,1,-2.967857838,1,-7.840165615,1,0.016072942,1,-0.431308091,1,0.148046896,1,0.377077878,1,-0.570517898,1,-1.192853451,1,-0.086228371,1,0.06291151,1,-0.187255859,1
1.699907064,-5.381738186,1,-2.976089478,1,-7.948034286,1,0.023666566,1,-0.452351451,1,0.154951856,1,0.377201259,1,-0.572376966,1,-1.192949772,1,-0.084490776,1,0.052003622,1,-0.304636955,1
1.703906298,-5.372478962,1,-2.931652784,1,-7.779871941,1,0.04278725,1,-0.458462894,1,0.153023884,1,0.377393186,1,-0.574297488,1,-1.193071485,1,-0.059452534,1,0.094152212,1,-0.146529198,1
1.707913756,-5.457338333,1,-2.945792675,1,-7.799237251,1,0.070617802,1,-0.474279374,1,0.159907982,1,0.377694249,1,-0.576261938,1,-1.193202972,1,-0.128191948,1,0.078454494,1,-0.176523685,1
1.711917043,-5.452815533,1,-3.116231918,1,-7.664903164,1,0.082203045,1,-0.476337641,1,0.157294691,1,0.378076255,1,-0.578270376,1,-1.193332911,1,-0.107209206,1,-0.093029976,1,-0.053308487,1
1.715916514,-5.445898056,1,-3.314093828,1,-7.67031002,1,0.084674157,1,-0.489025533,1,0.17072022,1,0.378477395,1,-0.580304742,1,-1.193454266,1,-0.083641052,1,-0.29186368,1,-0.070050716,1
1.719917774,-5.331648827,1,-3.404657125,1,-7.662568569,1,0.077542342,1,-0.493452996,1,0.175630689,1,0.378858745,1,-0.582386672,1,-1.193545818,1,0.047625065,1,-0.383662701,1,-0.073847294,1
1.723915219,-5.405541897,1,-3.389170885,1,-7.774978638,1,0.063513145,1,-0.514205217,1,0.196856871,1,0.379178405,1,-0.584532499,1,-1.193604469,1,-0.008753777,1,-0.370030642,1,-0.197964191,1
1.727914214,-5.367905617,1,-3.420611858,1,-7.534800053,1,0.062181041,1,-0.518292844,1,0.20618391,1,0.379436255,1,-0.586752474,1,-1.193625808,1,0.046976089,1,-0.40396452,1,0.030285358,1
1.731915832,-5.427134514,1,-3.446531534,1,-7.746619225,1,0.053854775,1,-0.527542949,1,0.221170932,1,0.379661024,1,-0.589007497,1,-1.193599582,1,0.006099224,1,-0.432716131,1,-0.193570614,1
1.735913157,-5.536716938,1,-3.382782936,1,-7.620647907,1,0.039600912,1,-0.539785802,1,0.228460461,1,0.379818648,1,-0.591331363,1,-1.19355154,1,-0.084599972,1,-0.372467041,1,-0.07982254,1
1.739912152,-5.460017681,1,-3.351926088,1,-7.53551054,1,0.036653373,1,-0.537846386,1,0.236383721,1,0.37992841,1,-0.593680084,1,-1.193461776,1,0.011154652,1,-0.345538616,1,-0.006925583,1
1.743913531,-5.462231159,1,-3.514960051,1,-7.750295162,1,0.006582517,1,-0.547872305,1,0.249844417,1,0.379960179,1,-0.596051753,1,-1.193344235,1,0.028151989,1,-0.513155699,1,-0.23388052,1
1.747910857,-5.488559723,1,-3.351132393,1,-7.68377924,1,0.010919522,1,-0.561102152,1,0.259790003,1,0.37990883,1,-0.598497689,1,-1.193199992,1,0.021604061,1,-0.354703188,1,-0.179705143,1
1.751910448,-5.519289017,1,-3.279644489,1,-7.714403629,1,0.005581879,1,-0.569613755,1,0.265609145,1,0.379845679,1,-0.600993812,1,-1.193031192,1,0.011026382,1,-0.28879714,1,-0.222934723,1
1.755911708,-5.631236553,1,-3.110060453,1,-7.470789433,1,-0.005415637,1,-0.575593531,1,0.267455101,1,0.379741132,1,-0.603525102,1,-1.192861319,1,-0.080520153,1,-0.125195265,1,0.007965088,1
1.759908915,-5.584436417,1,-3.156294107,1,-7.743209362,1,-0.003597428,1,-0.586027741,1,0.269847035,1,0.37962997,1,-0.606076837,1,-1.192691088,1,-0.013190746,1,-0.177517653,1,-0.277299404,1
1.763908386,-5.633100986,1,-3.029346466,1,-7.736152172,1,-0.005832154,1,-0.600553095,1,0.272683203,1,0.379526615,1,-0.608685911,1,-1.192541361,1,-0.040902138,1,-0.0567379,1,-0.283463955,1
1.767909646,-5.60416317,1,-3.047225952,1,-7.731619358,1,-0.004040474,1,-0.619353831,1,0.274459362,1,0.379646063,1,-0.611313999,1,-1.191796303,1,0.009103298,1,-0.079184055,1,-0.292962074,1
1.771907091,-5.651670933,1,-3.042896986,1,-7.765254021,1,-0.00063718,1,-0.633345246,1,0.274413198,1,0.37958169,1,-0.614043236,1,-1.19168961,1,-0.016566753,1,-0.081020832,1,-0.340662003,1
1.775906324,-5.652841568,1,-3.037691355,1,-7.775502682,1,0.006103231,1,-0.657661557,1,0.282444954,1,0.37953946,1,-0.616856575,1,-1.191588879,1,0.004729271,1,-0.082016468,1,-0.365544796,1
1.779907584,-5.643458366,1,-3.068490982,1,-7.811350346,1,0.012496197,1,-0.681164801,1,0.283448756,1,0.379550219,1,-0.619759858,1,-1.191526532,1,0.037249565,1,-0.118831873,1,-0.416705608,1
1.783910871,-5.640424252,1,-3.111596107,1,-7.786593914,1,0.028930791,1,-0.70842135,1,0.292159706,1,0.379593283,1,-0.622775078,1,-1.191465497,1,0.064262867,1,-0.167979956,1,-0.408021927,1
1.787910104,-5.706469536,1,-3.05378437,1,-7.727443695,1,0.0403012,1,-0.738813043,1,0.301627904,1,0.379707277,1,-0.62590605,1,-1.191434026,1,0.023061752,1,-0.115961552,1,-0.365831852,1
1.791911483,-5.762289524,1,-3.057378769,1,-7.695652485,1,0.050939795,1,-0.762325764,1,0.300317258,1,0.379891336,1,-0.629146874,1,-1.191431761,1,-0.007100582,1,-0.125102758,1,-0.351867199,1
1.795908809,-5.788850784,1,-3.12708807,1,-7.676480293,1,0.064505413,1,-0.786680639,1,0.31247735,1,0.380132377,1,-0.632473707,1,-1.191442728,1,-0.007387161,1,-0.200162172,1,-0.351222038,1
1.799908042,-5.681057453,1,-3.226942778,1,-7.639107704,1,0.071414761,1,-0.808748901,1,0.317176729,1,0.380409509,1,-0.63590163,1,-1.191461325,1,0.12741375,1,-0.30536294,1,-0.333106041,1
1.803909659,-5.713535786,1,-3.205001831,1,-7.691551208,1,0.06777598,1,-0.831422627,1,0.327156365,1,0.380699664,1,-0.639425933,1,-1.19148469,1,0.122629642,1,-0.288926363,1,-0.405447483,1
1.807907104,-5.765358925,1,-3.187597513,1,-7.620152473,1,0.066097938,1,-0.854651272,1,0.33620885,1,0.380982399,1,-0.643061519,1,-1.19151628,1,0.099299431,1,-0.277370453,1,-0.354616642,1
1.811906099,-5.838749886,1,-3.096157789,1,-7.558306694,1,0.057613533,1,-0.87951231,1,0.341474146,1,0.381243348,1,-0.64677906,1,-1.191546202,1,0.054964066,1,-0.192166805,1,-0.313816071,1
1.815907359,-5.915746212,1,-3.096046209,1,-7.568031311,1,0.042925555,1,-0.891168773,1,0.345838755,1,0.381467223,1,-0.650579274,1,-1.191591501,1,0.007585526,1,-0.198792934,1,-0.345032215,1
1.819904804,-5.880840778,1,-3.027998209,1,-7.524321079,1,0.03573107,1,-0.92146945,1,0.346078455,1,0.381664634,1,-0.654468179,1,-1.191665769,1,0.072711468,1,-0.137920618,1,-0.323325634,1
1.823903799,-5.909779549,1,-2.881529808,1,-7.498978138,1,0.02832933,1,-0.939844728,1,0.345805436,1,0.381869793,1,-0.658440232,1,-1.191790462,1,0.074545383,1,0.001189709,1,-0.320577145,1
1.827905059,-6.030884266,1,-2.781322241,1,-7.481410027,1,0.025815567,1,-0.960400045,1,0.339966148,1,0.382086962,1,-0.662482142,1,-1.191966891,1,-0.015341282,1,0.093913317,1,-0.32613945,1
1.831902266,-5.931994915,1,-2.710951567,1,-7.407214642,1,0.02525563,1,-0.982396424,1,0.332526714,1,0.382345706,1,-0.666581571,1,-1.192227125,1,0.115109921,1,0.156910658,1,-0.275627136,1
1.835901737,-5.926755905,1,-2.645649195,1,-7.447633266,1,0.028146936,1,-1.010947227,1,0.320458591,1,0.382676899,1,-0.670763791,1,-1.192579746,1,0.152442455,1,0.215104818,1,-0.340522766,1
1.839903235,-6.067696571,1,-2.682462454,1,-7.398692608,1,0.034386475,1,-1.031047821,1,0.313611835,1,0.383091122,1,-0.675025344,1,-1.193025351,1,0.044095993,1,0.171526909,1,-0.316857815,1
1.843900681,-6.026273727,1,-2.697482347,1,-7.361981869,1,0.046938781,1,-1.056989431,1,0.312069267,1,0.383580089,1,-0.679370224,1,-1.19353652,1,0.118635178,1,0.150005102,1,-0.30623436,1
1.847899914,-6.01775074,1,-2.726468086,1,-7.377511501,1,0.050485246,1,-1.083217621,1,0.304679543,1,0.38414669,1,-0.683797777,1,-1.194129229,1,0.160785198,1,0.114791155,1,-0.348675251,1
1.851901174,-6.054334164,1,-2.777474165,1,-7.390774727,1,0.063864946,1,-1.111837029,1,0.303653359,1,0.384790868,1,-0.68832767,1,-1.194792867,1,0.158481598,1,0.057777643,1,-0.389782429,1
1.85589838,-6.019800663,1,-2.749180317,1,-7.339033604,1,0.063708983,1,-1.138868332,1,0.306226909,1,0.38550818,1,-0.692955732,1,-1.195527673,1,0.227905273,1,0.080251694,1,-0.366791248,1
1.859897614,-6.047297001,1,-2.826955318,1,-7.311472416,1,0.07593143,1,-1.169610977,1,0.302584946,1,0.386290789,1,-0.697691798,1,-1.196312189,1,0.235975266,1,-0.003247261,1,-0.368933201,1
1.863905072,-6.102864265,1,-2.809498072,1,-7.328650475,1,0.087044567,1,-1.196777463,1,0.30757165,1,0.387165368,1,-0.702539444,1,-1.197162867,1,0.216666698,1,0.008746386,1,-0.416872025,1
1.867908597,-6.358014584,1,-2.636631012,1,-7.802858829,1,0.137465358,1,-1.240576744,1,0.309498131,1,0.388174295,1,-0.707507849,1,-1.198078394,1,-0.001476765,1,0.176666737,1,-0.923073292,1
1.871908069,-5.946579933,1,-2.895869255,1,-7.549040794,1,0.176628187,1,-1.287410498,1,0.322136611,1,0.389486581,1,-0.712675393,1,-1.19907093,1,0.448281765,1,-0.086056471,1,-0.70343399,1
1.875909328,-5.917783737,1,-3.22821784,1,-7.241645336,1,0.157154888,1,-1.334054708,1,0.333924621,1,0.390846014,1,-0.718026102,1,-1.200114012,1,0.516580582,1,-0.422178268,1,-0.431601048,1
1.879906774,-6.238172531,1,-3.05711627,1,-7.415986538,1,0.147318199,1,-1.366422772,1,0.343657106,1,0.392143667,1,-0.723536789,1,-1.20117569,1,0.236682892,1,-0.255834579,1,-0.642456055,1
1.883906007,-6.22355175,1,-2.856918097,1,-7.473835468,1,0.154742777,1,-1.40948987,1,0.356677771,1,0.393487811,1,-0.729202867,1,-1.202289343,1,0.292731285,1,-0.060643911,1,-0.738064289,1
1.887907386,-6.140626907,1,-2.871108532,1,-7.439560413,1,0.160201788,1,-1.455765724,1,0.363633782,1,0.394889295,1,-0.735044181,1,-1.203447342,1,0.418146133,1,-0.080089331,1,-0.742966652,1
1.891904712,-6.202865601,1,-2.941152811,1,-7.487691402,1,0.167268366,1,-1.50501287,1,0.370773286,1,0.396388054,1,-0.741079092,1,-1.204693913,1,0.399570942,1,-0.155434132,1,-0.831923962,1
1.895903945,-6.266788006,1,-2.879919291,1,-7.427083015,1,0.173324883,1,-1.549991965,1,0.378828734,1,0.397961736,1,-0.747292995,1,-1.206029415,1,0.380355358,1,-0.099682808,1,-0.813655853,1
1.899905562,-6.242582798,1,-2.825707912,1,-7.436913013,1,0.177008286,1,-1.607184291,1,0.38177076,1,0.399649084,1,-0.753709733,1,-1.207468152,1,0.450457096,1,-0.050968647,1,-0.867610931,1
1.903903008,-6.416917324,1,-2.871251106,1,-7.618855,1,0.177032813,1,-1.673196435,1,0.39220041,1,0.40143618,1,-0.760347486,1,-1.209037185,1,0.323310852,1,-0.102196932,1,-1.095561504,1
1.907902241,-6.249429703,1,-2.812688828,1,-7.519416809,1,0.181833133,1,-1.743126631,1,0.397138685,1,0.403321445,1,-0.76725781,1,-1.210722327,1,0.539608479,1,-0.049689531,1,-1.044353962,1
1.911903501,-6.255923748,1,-2.727267265,1,-7.485448837,1,0.189907789,1,-1.810922503,1,0.406475544,1,0.405337363,1,-0.774429202,1,-1.212553144,1,0.583425045,1,0.029510736,1,-1.060874462,1
1.915900946,-6.304501534,1,-2.708235025,1,-7.477772713,1,0.213583499,1,-1.861925364,1,0.407518059,1,0.407525361,1,-0.781814218,1,-1.214522362,1,0.586289883,1,0.042499065,1,-1.105793953,1
1.91989994,-6.341537476,1,-2.768715858,1,-7.504775047,1,0.232734427,1,-1.93271184,1,0.411968827,1,0.409939945,1,-0.789428949,1,-1.216667891,1,0.601902485,1,-0.023596287,1,-1.18776226,1
1.9239012,-6.295327663,1,-2.891699314,1,-7.540811539,1,0.242054418,1,-2.003157377,1,0.422089726,1,0.41252622,1,-0.797313213,1,-1.218978763,1,0.702199936,1,-0.152286291,1,-1.281270027,1
1.927898645,-6.334636211,1,-3.119179487,1,-7.590686321,1,0.237418264,1,-2.095559359,1,0.438895375,1,0.415263295,1,-0.805511475,1,-1.221444488,1,0.718672276,1,-0.385879517,1,-1.391366005,1
1.931897879,-6.354025841,1,-3.109556913,1,-7.632941723,1,0.238503844,1,-2.18160367,1,0.469391614,1,0.418115854,1,-0.814064145,1,-1.224061012,1,0.756969452,1,-0.383179665,1,-1.496799469,1
1.935899138,-6.327496529,1,-3.200336695,1,-7.679740906,1,0.2545228,1,-2.272447348,1,0.494715571,1,0.421098173,1,-0.822985291,1,-1.226795673,1,0.843116283,1,-0.481712103,1,-1.60989666,1
1.939896345,-6.189800739,1,-3.263878822,1,-7.950991154,1,0.255503803,1,-2.379252434,1,0.52499181,1,0.424238026,1,-0.832308054,1,-1.229678154,1,1.042503834,1,-0.55384469,1,-1.950899124,1
1.943901658,-6.08649683,1,-3.156553507,1,-8.142508507,1,0.272738427,1,-2.502483368,1,0.553032398,1,0.427592099,1,-0.842092156,1,-1.232766271,1,1.209876537,1,-0.455882788,1,-2.21621418,1
1.947903275,-6.004434586,1,-3.168157101,1,-8.49189949,1,0.281309277,1,-2.645423412,1,0.583424211,1,0.431223452,1,-0.852399528,1,-1.236124516,1,1.358678341,1,-0.477563858,1,-2.644087791,1
1.951900721,-5.990622997,1,-3.372730255,1,-8.739683151,1,0.287813127,1,-2.813657999,1,0.609719217,1,0.435169995,1,-0.863318145,1,-1.239830613,1,1.442334175,1,-0.693131924,1,-2.975783825,1
1.955899954,-5.965725899,1,-3.447199821,1,-8.802131653,1,0.301766783,1,-2.98761487,1,0.651638687,1,0.439458638,1,-0.87489593,1,-1.243896961,1,1.540323734,1,-0.779698133,1,-3.128036499,1
1.959901214,-5.900336742,1,-3.569387197,1,-8.93806839,1,0.308230847,1,-3.167448759,1,0.68634516,1,0.444128156,1,-0.887161434,1,-1.248365164,1,1.682048798,1,-0.915180445,1,-3.360052586,1
1.963898659,-5.782315731,1,-3.720591784,1,-9.114281654,1,0.319997936,1,-3.36430335,1,0.72844404,1,0.449235082,1,-0.900159419,1,-1.253297806,1,1.879719257,1,-1.080958843,1,-3.639137268,1
1.967897892,-5.629703999,1,-3.840194702,1,-9.213411331,1,0.327401459,1,-3.576343298,1,0.7871418,1,0.454786807,1,-0.913961887,1,-1.25870657,1,2.115493298,1,-1.216915131,1,-3.848530293,1
1.971899152,-5.6530056,1,-4.014126778,1,-9.372429848,1,0.331734776,1,-3.793349266,1,0.850917935,1,0.460801899,1,-0.9286291,1,-1.264616728,1,2.178946495,1,-1.409421444,1,-4.125745773,1
1.975896597,-5.913365364,1,-4.030091286,1,-9.448174477,1,0.324801803,1,-4.019455433,1,0.927805603,1,0.467285126,1,-0.944193542,1,-1.271045327,1,2.008805275,1,-1.446654797,1,-4.32794857,1
1.97989583,-5.732172489,1,-3.990503788,1,-9.707158089,1,0.343986243,1,-4.265790462,1,1.006659865,1,0.474340022,1,-0.960715711,1,-1.278062105,1,2.283668041,1,-1.431149244,1,-4.722417355,1
1.98389709,-5.799060345,1,-4.078779221,1,-9.97513485,1,0.386215061,1,-4.522951603,1,1.093394399,1,0.482136518,1,-0.978253007,1,-1.28576231,1,2.313810825,1,-1.546216726,1,-5.135807514,1
1.987894535,-5.535599232,1,-3.929371357,1,-10.0478611,1,0.416562229,1,-4.792189598,1,1.167060256,1,0.490882874,1,-0.996825933,1,-1.294314146,1,2.67731142,1,-1.426050425,1,-5.364578724,1
1.991893768,-5.272846699,1,-4.168788433,1,-9.932905197,1,0.474122167,1,-5.093824387,1,1.246447921,1,0.500834703,1,-1.016500711,1,-1.30398345,1,3.042947292,1,-1.697061777,1,-5.417402744,1
1.995895028,-5.731542587,1,-4.367058277,1,-10.09457874,1,0.528530955,1,-5.386484623,1,1.34363234,1,0.512165427,1,-1.037348509,1,-1.314877868,1,2.68975544,1,-1.929828644,1,-5.75945282,1
1.999892473,-6.348510742,1,-4.765260696,1,-10.10813427,1,0.595524788,1,-5.659759998,1,1.43894577,1,0.525033832,1,-1.059284687,1,-1.327136874,1,2.179847717,1,-2.365636826,1,-5.965604782,1
2.003891468,-6.660803795,1,-5.146196842,1,-9.865866661,1,0.654457748,1,-5.928181171,1,1.547085047,1,0.539653301,1,-1.082284808,1,-1.340945959,1,1.975398064,1,-2.787703991,1,-5.928210258,1
2.007893085,-7.532588959,1,-5.357275486,1,-9.973352432,1,0.724312127,1,-6.156981945,1,1.638319135,1,0.556275308,1,-1.106251717,1,-1.356545925,1,1.211129189,1,-3.043637514,1,-6.252318382,1
2.011890411,-8.311427116,1,-5.829901218,1,-10.09083462,1,0.802530944,1,-6.325194359,1,1.74427402,1,0.575107276,1,-1.130974054,1,-1.37409997,1,0.53793335,1,-3.564896345,1,-6.596523285,1
2.015889645,-8.887590408,1,-6.214004993,1,-9.841394424,1,0.885179043,1,-6.469108105,1,1.846219778,1,0.596440732,1,-1.156262517,1,-1.393803596,1,0.064235687,1,-4.001411915,1,-6.582425117,1
2.019891024,-9.823013306,1,-6.34073925,1,-10.00557327,1,0.9389745,1,-6.595227242,1,1.969126582,1,0.619914949,1,-1.182152987,1,-1.414587736,1,-0.772213936,1,-4.187660217,1,-6.989129066,1
2.02389431,-11.37594223,1,-5.805787563,1,-9.603927612,1,1.006643534,1,-6.677281857,1,2.112647772,1,0.647023439,1,-1.208380103,1,-1.439526796,1,-2.231068611,1,-3.715586662,1,-6.837348938,1
2.027893782,-12.06468105,1,-5.666452408,1,-9.004993439,1,1.051636338,1,-6.760858536,1,2.253505707,1,0.67763567,1,-1.234931469,1,-1.467719316,1,-2.83097744,1,-3.645531654,1,-6.493779182,1
2.031894922,-13.23645687,1,-4.95313549,1,-9.52269268,1,1.06362021,1,-6.835568905,1,2.366888046,1,0.712714195,1,-1.261757135,1,-1.500238061,1,-3.919615746,1,-3.008088827,1,-7.272156239,1
2.035892487,-16.96274185,1,-4.921551704,1,-11.53604412,1,1.164248705,1,-6.736077785,1,2.347757339,1,0.753878891,1,-1.288276911,1,-1.538655043,1,-7.570301056,1,-3.055353642,1,-9.548333168,1
2.03989172,-14.58026218,1,-6.694106579,1,-10.91465092,1,1.199074984,1,-6.707730293,1,2.510350943,1,0.801882327,1,-1.314191341,1,-1.583474994,1,-5.120326996,1,-4.910236835,1,-9.188643456,1
2.043893099,-13.821208,1,-8.405426025,1,-10.96122932,1,1.072393656,1,-6.800744057,1,2.703615665,1,0.858301401,1,-1.340137482,1,-1.636907697,1,-4.300061226,1,-6.713420868,1,-9.499547005,1
2.047890186,-15.4654932,1,-8.475427628,1,-11.30134869,1,0.939022303,1,-6.864403248,1,2.81285882,1,0.927253306,1,-1.365914464,1,-1.703419447,1,-5.88988018,1,-6.883649349,1,-10.10741043,1
2.05188942,-17.6225605,1,-7.548653126,1,-10.97648621,1,0.884062052,1,-6.822265148,1,2.858564615,1,1.014035583,1,-1.390782356,1,-1.78810358,1,-8.000432014,1,-6.062038898,1,-10.05114841,1
2.055890799,-19.25581932,1,-4.720921516,1,-11.42426395,1,0.9856897,1,-6.706130028,1,2.82910037,1,1.12518537,1,-1.413846493,1,-1.897123933,1,-9.595866203,1,-3.341495991,1,-10.76537704,1
2.059888124,-18.64022636,1,-6.137326241,1,-10.26281834,1,1.194190025,1,-6.535647869,1,2.808565855,1,1.268432379,1,-1.434038162,1,-2.03750205,1,-8.951376915,1,-4.864456654,1,-9.865774155,1
2.063893557,-17.9557991,1,-6.88903141,1,-10.29698467,1,1.28095746,1,-6.367680073,1,2.807990074,1,1.4506253,1,-1.450505018,1,-2.216176748,1,-8.246308327,1,-5.723852634,1,-10.15628624,1
2.067894697,-16.68858147,1,-7.232296467,1,-10.32033443,1,1.337843299,1,-6.203136444,1,2.823626995,1,1.674090981,1,-1.462047815,1,-2.435832262,1,-6.966191292,1,-6.176468372,1,-10.42978573,1
2.0718925,-14.89641571,1,-7.073251247,1,-10.26886654,1,1.404058099,1,-6.030461788,1,2.878264904,1,1.928573847,1,-1.467607617,1,-2.686218977,1,-5.168273926,1,-6.129621506,1,-10.62165928,1
2.075891733,-12.88248253,1,-6.898220062,1,-10.49737549,1,1.496467829,1,-5.872374058,1,2.944787264,1,2.189626217,1,-1.466717482,1,-2.942851543,1,-3.155241013,1,-6.070572376,1,-11.08677959,1
2.079892874,-10.85626698,1,-6.459919453,1,-10.10219383,1,1.590847254,1,-5.725725651,1,2.973114729,1,2.429107189,1,-1.459811449,1,3.105684042,1,-1.136275291,1,-5.751799583,1,-10.92191029,1
2.083890438,-9.305937767,1,-5.109237671,1,-9.629670143,1,1.7302531,1,-5.592924118,1,2.965107203,1,2.629816055,1,-1.448059678,1,2.910277605,1,0.400653839,1,-4.522848129,1,-10.67363739,1
2.087889671,-7.68019104,1,-3.72915554,1,-8.916648865,1,1.940611362,1,-5.446229935,1,2.941983461,1,2.78967309,1,-1.432900548,1,2.756421328,1,2.007134438,1,-3.265745878,1,-10.17863941,1
2.09189105,-5.724429607,1,-2.403750896,1,-8.254645348,1,2.289540768,1,-5.294789314,1,2.944770098,1,2.916028261,1,-1.415625453,1,2.637231827,1,3.93822813,1,-2.065690756,1,-9.727869987,1
2.095888376,-4.209078789,1,-1.106896758,1,-7.316531181,1,2.71453619,1,-5.145979881,1,3.027849197,1,3.018755674,1,-1.397107363,1,2.54323411,1,5.423933029,1,-0.899800897,1,-8.993980408,1
2.09989357,-2.585027933,1,0.448137879,1,-6.93666935,1,3.240230799,1,-4.963304996,1,3.160668373,1,3.10574913,1,-1.37789166,1,2.466833353,1,7.013730049,1,0.515328765,1,-8.810424805,1
2.103894949,1.042662024,1,2.224745989,1,-6.716448784,1,3.969763994,1,-4.821819782,1,3.394067526,1,-3.099714041,1,-1.358343482,1,2.402146578,1,10.60293579,1,2.138407469,1,-8.776875496,1
2.107892513,-8.815498352,1,2.320616484,1,-4.59408617,1,4.560757637,1,-4.898663044,1,3.407100677,1,-3.028759003,1,-1.337850213,1,2.347001553,1,0.700509071,1,2.066411018,1,-6.837435722,1
2.111891508,-24.15239906,1,1.748046756,1,-5.435387611,1,4.645777702,1,-4.179360867,1,3.189137697,1,-2.96804738,1,-1.317728281,1,2.303520679,1,-14.68374443,1,1.325213552,1,-7.847319603,1
2.115892649,-20.93663788,1,-3.058276892,1,-7.354149818,1,4.784092426,1,-3.018964052,1,2.855025053,1,-2.91556716,1,-1.301236629,1,2.268666983,1,-11.50965214,1,-3.641968012,1,-9.89243412,1
2.119890213,-18.91391945,1,-6.935883999,1,-6.741483688,1,4.865440845,1,-1.925680399,1,2.624019861,1,-2.867383718,1,-1.28895092,1,2.238721609,1,-9.51964283,1,-7.672460079,1,-9.360004425,1
2.123889685,-17.57299614,1,-8.09086895,1,-5.590624809,1,4.680722237,1,-0.888556421,1,2.42102766,1,-2.820943117,1,-1.280633926,1,2.210277557,1,-8.201667786,1,-8.972808838,1,-8.24618721,1
2.127891302,-16.26594353,1,-10.4936142,1,-5.070646286,1,4.248425961,1,0.055141091,1,2.186049938,1,-2.776089191,1,-1.275969982,1,2.182141066,1,-6.907767296,1,-11.50935078,1,-7.724785328,1
2.131888866,-14.8858242,1,-12.7959137,1,-5.041327953,1,3.593494654,1,0.965768933,1,1.972098708,1,-2.732516527,1,-1.274735451,1,2.153037786,1,-5.531164169,1,-13.93089199,1,-7.659300804,1
2.135888338,-13.85843754,1,-13.5845747,1,-5.066590309,1,2.828294277,1,1.802109361,1,1.770200133,1,-2.689619541,1,-1.276658773,1,2.121626377,1,-4.498306274,1,-14.82291794,1,-7.617294312,1
2.139889956,-12.73531055,1,-12.72844982,1,-5.230286598,1,2.084219933,1,2.586143732,1,1.543968916,1,-2.646790504,1,-1.281468868,1,2.087152004,1,-3.361649513,1,-14.05347157,1,-7.685975552,1
2.14388752,-11.01465034,1,-11.39426136,1,-5.171281815,1,1.396233797,1,3.25566721,1,1.350659847,1,-2.603019238,1,-1.288801193,1,2.048762798,1,-1.620780945,1,-12.79017735,1,-7.507573605,1
2.147887468,-8.97899437,1,-10.21949291,1,-4.90532732,1,0.825465977,1,3.800631523,1,1.193302989,1,-2.557031631,1,-1.298066258,1,2.005527973,1,0.439686775,1,-11.67324638,1,-7.102302551,1
2.151888847,-7.053497314,1,-9.113361359,1,-4.669010639,1,0.396104872,1,4.226918221,1,1.053202033,1,-2.507558107,1,-1.308689713,1,1.95674336,1,2.392638206,1,-10.61462021,1,-6.710672855,1
2.155886889,-5.334361553,1,-7.65079546,1,-4.458408356,1,0.077140942,1,4.551086903,1,0.911133349,1,-2.453636885,1,-1.32014966,1,1.901946068,1,4.140194416,1,-9.191069603,1,-6.332437992,1
2.15988636,-3.970633507,1,-6.229090691,1,-4.080332279,1,-0.14368467,1,4.781039238,1,0.779888213,1,-2.394403696,1,-1.332010984,1,1.840731144,1,5.532028198,1,-7.801117897,1,-5.777327538,1
2.163887978,-2.696708441,1,-4.912275314,1,-3.873134375,1,-0.274272263,1,4.932622433,1,0.649369001,1,-2.32899642,1,-1.343833327,1,1.772631526,1,6.832636833,1,-6.510169029,1,-5.386390209,1
2.16788578,-1.674824119,1,-3.741749048,1,-3.773625612,1,-0.325098127,1,4.999870777,1,0.521473169,1,-2.256953001,1,-1.35523665,1,1.697543502,1,7.878996372,1,-5.360243797,1,-5.099003315,1
2.171885014,-0.814269543,1,-2.816276073,1,-3.678919315,1,-0.310579985,1,5.005651951,1,0.38768205,1,-2.178177118,1,-1.365867019,1,1.61567533,1,8.761249542,1,-4.450558186,1,-4.814789772,1
2.175886631,-0.081494048,1,-2.034571171,1,-3.54432869,1,-0.243084803,1,4.955060482,1,0.249743193,1,-2.092888355,1,-1.375469089,1,1.527502656,1,9.512692451,1,-3.679898024,1,-4.490956306,1
2.179890156,0.428605914,1,-1.572608471,1,-3.490230083,1,-0.139556393,1,4.851353645,1,0.114610642,1,-2.001790047,1,-1.383835316,1,1.433933735,1,10.03833771,1,-3.22424221,1,-4.24969101,1
2.183889866,0.750364125,1,-1.264506817,1,-3.441200256,1,-0.025436623,1,4.714217663,1,-0.019643163,1,-1.906009674,1,-1.390827298,1,1.336175323,1,10.37257195,1,-2.917709351,1,-4.017110348,1
2.187891722,0.849914074,1,-1.093353152,1,-3.314115286,1,0.091323636,1,4.542999268,1,-0.149009526,1,-1.80717802,1,-1.396371841,1,1.235911965,1,10.48167992,1,-2.743426561,1,-3.711593151,1
2.191889763,0.841691196,1,-1.046925068,1,-3.190446615,1,0.196830615,1,4.354837418,1,-0.286348939,1,-1.707058907,1,-1.400525093,1,1.134881973,1,10.48042297,1,-2.688815117,1,-3.415569782,1
2.195889235,0.590130866,1,-1.133504868,1,-3.442847252,1,0.277273238,1,4.161672115,1,-0.433044314,1,-1.607225418,1,-1.403432012,1,1.03458488,1,10.23363972,1,-2.761651516,1,-3.502185345,1
2.199890614,0.210234165,1,-1.24045527,1,-3.500238419,1,0.325164855,1,3.949290752,1,-0.582816422,1,-1.509353518,1,-1.40525806,1,0.936565876,1,9.856702805,1,-2.849020481,1,-3.401278973,1
2.203888416,-0.371495485,1,-1.21142447,1,-3.61520505,1,0.365717202,1,3.76066637,1,-0.727006972,1,-1.414223313,1,-1.406185865,1,0.841531098,1,9.276463509,1,-2.794485569,1,-3.365294695,1
2.20788765,-1.115960836,1,-1.124930143,1,-3.690872431,1,0.401824981,1,3.594898939,1,-0.899196804,1,-1.321960092,1,-1.406414509,1,0.749564826,1,8.532363892,1,-2.676091671,1,-3.296718121,1
2.211889505,-1.762457013,1,-1.287539959,1,-3.866356134,1,0.424378991,1,3.457190752,1,-1.089332461,1,-1.23210144,1,-1.406142592,1,0.660145581,1,7.885433197,1,-2.799543381,1,-3.333724022,1
2.21588707,-2.501380205,1,-1.575077057,1,-4.052037716,1,0.43234691,1,3.357506752,1,-1.285006642,1,-1.143827081,1,-1.405455351,1,0.57240212,1,7.145405769,1,-3.040276527,1,-3.385433674,1
2.21988678,-3.258925438,1,-1.831020117,1,-4.283287525,1,0.423380345,1,3.29760313,1,-1.498308301,1,-1.056218743,1,-1.404377818,1,0.485321432,1,6.386119843,1,-3.241318703,1,-3.485927105,1
2.223888397,-4.140819073,1,-2.084506273,1,-4.501762867,1,0.391737968,1,3.281451941,1,-1.717205524,1,-0.968314826,1,-1.402857304,1,0.397828698,1,5.501751423,1,-3.431447029,1,-3.575356007,1
2.227885962,-4.91244936,1,-2.255845547,1,-4.681447983,1,0.326130301,1,3.29745841,1,-1.947146773,1,-0.879472136,1,-1.40077436,1,0.309166223,1,4.726695538,1,-3.530749083,1,-3.626382828,1
2.231885672,-5.586874485,1,-2.47300601,1,-4.854810238,1,0.23793748,1,3.359677315,1,-2.188522339,1,-0.789287269,1,-1.397957563,1,0.218786657,1,4.047570705,1,-3.666968346,1,-3.670098782,1
2.235887051,-6.110886097,1,-2.544033051,1,-4.975981712,1,0.142453641,1,3.448833466,1,-2.423825502,1,-0.697847486,1,-1.394182444,1,0.126716569,1,3.517140865,1,-3.648193121,1,-3.659335136,1
2.239884853,-6.559176922,1,-2.485528469,1,-5.157143593,1,0.038254429,1,3.558159351,1,-2.657927036,1,-0.605903149,1,-1.389215112,1,0.033645947,1,3.060195446,1,-3.491361141,1,-3.7053864,1
2.243884325,-6.910518646,1,-2.38112545,1,-5.300907135,1,-0.059413731,1,3.685138702,1,-2.889280319,1,-0.514413655,1,-1.382833004,1,-0.0594684,1,2.697386742,1,-3.280308247,1,-3.709905148,1
2.247885942,-7.116936684,1,-2.083281517,1,-5.418661594,1,-0.142291948,1,3.812405348,1,-3.098506451,1,-0.424928337,1,-1.374876022,1,-0.151049137,1,2.476122856,1,-2.868175507,1,-3.684077263,1
2.251883745,-7.203023911,1,-1.710241795,1,-5.529916286,1,-0.209129274,1,3.939800978,1,-3.295448065,1,-0.338894188,1,-1.365245819,1,-0.239569917,1,2.371255875,1,-2.373866796,1,-3.647255421,1
2.255883217,-7.314097404,1,-1.307961583,1,-5.62100029,1,-0.241663814,1,4.052474022,1,-3.467353344,1,-0.25754717,1,-1.353929996,1,-0.323690385,1,2.236981392,1,-1.843972445,1,-3.586007118,1
2.259891033,-7.459367752,1,-0.928088844,1,-5.678497314,1,-0.252445996,1,4.166353226,1,-3.616188288,1,-0.181808174,1,-1.340961576,1,-0.40238148,1,2.063617706,1,-1.330945253,1,-3.487133741,1
2.263895035,-7.521864891,1,-0.620142102,1,-5.730407238,1,-0.231385767,1,4.262132645,1,-3.737331629,1,-0.112287186,1,-1.326433301,1,-0.474898279,1,1.967746735,1,-0.885277808,1,-3.379111052,1
2.267895222,-7.61892271,1,-0.319022447,1,-5.767741203,1,-0.188388318,1,4.344734669,1,-3.833559036,1,-0.049165946,1,-1.310480356,1,-0.540961981,1,1.831736088,1,-0.442736983,1,-3.253504038,1
2.271896839,-7.772366047,1,-0.051963229,1,-5.788935184,1,-0.125307396,1,4.420274258,1,-3.890542269,1,0.027493088,1,-1.282062054,1,-0.604429901,1,1.602949619,1,0.024589751,1,-3.005192041,1
2.27589488,-7.819564819,1,0.146803826,1,-5.825537682,1,-0.060035478,1,4.48274231,1,-3.926938057,1,0.075006343,1,-1.263470054,1,-0.65452981,1,1.502358437,1,0.368510693,1,-2.875241518,1
2.279894114,-7.902376175,1,0.219222829,1,-5.855474949,1,0.021724604,1,4.527326584,1,-3.932482719,1,0.117348693,1,-1.244016886,1,-0.69916755,1,1.360232353,1,0.586780369,1,-2.737683058,1
2.283895493,-8.087838173,1,0.258511662,1,-5.950577259,1,0.09412425,1,4.56137991,1,-3.897249699,1,0.154857934,1,-1.223885298,1,-0.73865211,1,1.109697342,1,0.771390378,1,-2.665163994,1
2.287893295,-8.320057869,1,0.253617316,1,-6.003929615,1,0.173314199,1,4.58591795,1,-3.843875885,1,0.18791303,1,-1.20322156,1,-0.77335459,1,0.806807518,1,0.910165429,1,-2.551257849,1
2.291892529,-8.562262535,1,0.289245158,1,-5.974111557,1,0.252969742,1,4.614928722,1,-3.754661798,1,0.216953948,1,-1.182135344,1,-0.803688049,1,0.488471031,1,1.087026477,1,-2.354795218,1
2.295893908,-8.957997322,1,0.332753927,1,-5.967508793,1,0.342673033,1,4.650932789,1,-3.642267466,1,0.242309615,1,-1.160716176,1,-0.829911292,1,0.011282921,1,1.268346906,1,-2.182227373,1
2.29989171,-9.435665131,1,0.306463003,1,-5.925809383,1,0.443804026,1,4.695086956,1,-3.498270988,1,0.264293373,1,-1.139045119,1,-0.852278948,1,-0.552984238,1,1.375568986,1,-1.975287914,1
2.303890944,-9.9389534,1,0.141649902,1,-5.893872738,1,0.541759014,1,4.751436234,1,-3.33500433,1,0.283274949,1,-1.117164016,1,-0.871096194,1,-1.147942543,1,1.339592695,1,-1.778693199,1
2.307892561,-10.40854836,1,-0.08894638,1,-5.833276749,1,0.628941119,1,4.823163509,1,-3.157178879,1,0.299457312,1,-1.095088601,1,-0.886579812,1,-1.714287758,1,1.232368231,1,-1.553600788,1
2.311889887,-10.86808681,1,-0.422540098,1,-5.766059875,1,0.697302759,1,4.909142494,1,-2.960523367,1,0.313088596,1,-1.072845459,1,-0.898989499,1,-2.275594711,1,1.016202807,1,-1.321879387,1
2.315889359,-11.27563953,1,-0.855502009,1,-5.724810123,1,0.743802905,1,5.010664463,1,-2.759775877,1,0.324327528,1,-1.050428391,1,-0.90854764,1,-2.790014267,1,0.694098592,1,-1.115634918,1
2.319890976,-11.6025238,1,-1.147157788,1,-5.732348919,1,0.767688096,1,5.121403217,1,-2.549060106,1,0.333314836,1,-1.027822614,1,-0.915460587,1,-3.228981972,1,0.506152868,1,-0.957207203,1
2.323888302,-11.74930573,1,-1.385384798,1,-5.741357803,1,0.780759335,1,5.241152763,1,-2.346237421,1,0.340275735,1,-1.00502491,1,-0.920002341,1,-3.493132591,1,0.364392757,1,-0.79914093,1
2.327887774,-11.88576221,1,-1.44475472,1,-5.854633331,1,0.793073773,1,5.364020824,1,-2.154246569,1,0.345478058,1,-0.982029617,1,-0.922456324,1,-3.752321243,1,0.394528508,1,-0.744269371,1
2.331889153,-11.92258549,1,-1.297583461,1,-5.813914299,1,0.816845655,1,5.475693703,1,-1.977976322,1,0.34925881,1,-0.958851337,1,-0.923130989,1,-3.917205811,1,0.625014544,1,-0.534789562,1
2.335892439,-11.84646606,1,-1.134644508,1,-5.833297729,1,0.856235206,1,5.5785079,1,-1.82964623,1,0.35198158,1,-0.935464025,1,-0.922369242,1,-3.974660873,1,0.866332293,1,-0.385138512,1
2.339892387,-11.6698761,1,-1.102164626,1,-5.842139721,1,0.907204866,1,5.665712833,1,-1.710361481,1,0.353996277,1,-0.911905885,1,-0.920479536,1,-3.936973572,1,0.973504901,1,-0.22560215,1
2.343894005,-11.42365265,1,-1.165012598,1,-5.813090801,1,0.962231815,1,5.717769146,1,-1.623529673,1,0.355634928,1,-0.888247013,1,-0.91779232,1,-3.834565639,1,0.98296833,1,-0.030048847,1
2.347892046,-11.07230473,1,-1.303222656,1,-5.753023624,1,1.00871861,1,5.748562813,1,-1.553188324,1,0.357097447,1,-0.864527285,1,-0.914561987,1,-3.631668091,1,0.915526152,1,0.193887234,1
2.351891518,-10.7926836,1,-1.443290234,1,-5.774629116,1,1.04623425,1,5.741233826,1,-1.517456412,1,0.358571202,1,-0.840856373,1,-0.91105783,1,-3.504364014,1,0.845398188,1,0.33224535,1
2.355892897,-10.58444786,1,-1.468706608,1,-5.67587471,1,1.066397309,1,5.696681976,1,-1.509279966,1,0.360198438,1,-0.817310095,1,-0.907518864,1,-3.451694965,1,0.889760494,1,0.586161137,1
2.359890938,-10.46007442,1,-1.664230466,1,-5.61343956,1,1.073824644,1,5.628002167,1,-1.526017189,1,0.362065613,1,-0.793980122,1,-0.904157221,1,-3.485359669,1,0.764217019,1,0.798083782,1
2.363890409,-10.50864792,1,-1.930871129,1,-5.65456295,1,1.058167338,1,5.539708614,1,-1.565696955,1,0.364182353,1,-0.770905435,1,-0.901111424,1,-3.693975925,1,0.567812085,1,0.900472164,1
2.367892027,-10.75550461,1,-2.033162594,1,-5.738193512,1,1.034649253,1,5.438938618,1,-1.623046041,1,0.366571277,1,-0.748117626,1,-0.898502469,1,-4.10244751,1,0.536174536,1,0.954116344,1
2.37188983,-11.27258492,1,-2.07650733,1,-5.820255756,1,1.008933544,1,5.351418018,1,-1.712850332,1,0.369264752,1,-0.725583613,1,-0.896430492,1,-4.782740116,1,0.564294577,1,1.003212452,1
2.375889063,-11.85945606,1,-1.986085296,1,-5.992938995,1,0.979620516,1,5.280582428,1,-1.826037407,1,0.372277796,1,-0.703197896,1,-0.894964814,1,-5.535012245,1,0.727438331,1,0.956154823,1
2.379890919,-12.4083147,1,-1.858872056,1,-6.096261501,1,0.964751363,1,5.242665291,1,-1.965773225,1,0.37564081,1,-0.680853903,1,-0.894141555,1,-6.252123833,1,0.92915976,1,0.973379135,1
2.383888721,-12.80536079,1,-1.701274276,1,-6.188685417,1,0.951830626,1,5.219040871,1,-2.115111589,1,0.379378796,1,-0.658409655,1,-0.893983722,1,-6.821272373,1,1.163623691,1,0.997045994,1
2.387888193,-12.88462925,1,-1.563102961,1,-6.356251717,1,0.950128138,1,5.208430767,1,-2.274035454,1,0.38346374,1,-0.635791183,1,-0.894465387,1,-7.077027321,1,1.38101697,1,0.941386223,1
2.391889572,-12.76290703,1,-1.418458343,1,-6.496627808,1,0.952403128,1,5.182738304,1,-2.438041687,1,0.387924045,1,-0.612996042,1,-0.895593286,1,-7.13617754,1,1.607482076,1,0.908453941,1
2.395887375,-12.54648876,1,-1.225334883,1,-6.697582722,1,0.941594303,1,5.144061089,1,-2.596780062,1,0.392702281,1,-0.590050936,1,-0.897346854,1,-7.104772568,1,1.884552479,1,0.81028223,1
2.399886608,-12.36534405,1,-1.169102073,1,-6.839799404,1,0.920222223,1,5.086447716,1,-2.747463226,1,0.397727817,1,-0.567040443,1,-0.899720788,1,-7.112046242,1,2.026138306,1,0.765789509,1
2.403888226,-12.27935886,1,-1.22706461,1,-6.959222794,1,0.883632183,1,5.00833559,1,-2.882666826,1,0.402895212,1,-0.544055283,1,-0.902669191,1,-7.217047691,1,2.053918123,1,0.738816738,1
2.40788579,-12.30336094,1,-1.21758461,1,-7.124052048,1,0.827789664,1,4.916572571,1,-2.996901751,1,0.40807882,1,-0.521179616,1,-0.906130433,1,-7.433783054,1,2.148340464,1,0.661151886,1
2.411885262,-12.5712595,1,-1.045983553,1,-7.314138889,1,0.743418872,1,4.82091856,1,-3.105897188,1,0.413135111,1,-0.498452246,1,-0.910048008,1,-7.895688534,1,2.402812958,1,0.553294182,1
2.415893078,-13.01489735,1,-0.729681611,1,-7.570687771,1,0.640591621,1,4.723628998,1,-3.195631027,1,0.417922139,1,-0.475901067,1,-0.914373457,1,-8.534215927,1,2.798640728,1,0.374506474,1
2.419896841,-13.52070236,1,-0.14672862,1,-7.703495502,1,0.540868461,1,4.646358967,1,-3.276864052,1,0.422378302,1,-0.453514546,1,-0.91904211,1,-9.235743523,1,3.45718646,1,0.315393925,1
2.42389679,-14.13906097,1,0.487463593,1,-7.736848354,1,0.443724841,1,4.578064919,1,-3.343007088,1,0.426456124,1,-0.431253552,1,-0.9239856,1,-10.05085564,1,4.162599564,1,0.352130413,1
2.427898407,-14.60208035,1,0.832705855,1,-7.598596573,1,0.35168919,1,4.513962746,1,-3.39210248,1,0.430159032,1,-0.409122646,1,-0.92913568,1,-10.71148682,1,4.574588776,1,0.556966782,1
2.431895971,-14.78880787,1,0.807582855,1,-7.526713848,1,0.244353816,1,4.451450825,1,-3.402534008,1,0.433390826,1,-0.387149304,1,-0.934388816,1,-11.09630394,1,4.610794067,1,0.692330837,1
2.435895443,-14.7755928,1,0.592782915,1,-7.427716255,1,0.10574159,1,4.376262188,1,-3.376232386,1,0.436014771,1,-0.3654221,1,-0.939613104,1,-11.28071404,1,4.450522423,1,0.852097511,1
2.43989706,-14.63385487,1,0.374216437,1,-7.267999649,1,-0.073348083,1,4.287380695,1,-3.309781075,1,0.437861711,1,-0.344063789,1,-0.944719255,1,-11.33485413,1,4.27800703,1,1.070388794,1
2.443895102,-14.42323303,1,0.299454689,1,-7.07332325,1,-0.271248102,1,4.179496765,1,-3.211396217,1,0.438776642,1,-0.32318154,1,-0.949609101,1,-11.31719971,1,4.239284992,1,1.322031975,1
2.447894573,-14.21738911,1,0.39549619,1,-6.92788744,1,-0.464606911,1,4.058565617,1,-3.08811307,1,0.438724756,1,-0.302905649,1,-0.954235554,1,-11.3000164,1,4.36082983,1,1.52295351,1
2.451895952,-14.17138958,1,0.522387624,1,-6.771215439,1,-0.638589501,1,3.925698042,1,-2.94031477,1,0.437759578,1,-0.283320665,1,-0.958558083,1,-11.43738937,1,4.503022671,1,1.733571053,1
2.455893993,-14.13595772,1,0.469268888,1,-6.507254124,1,-0.787382841,1,3.793098927,1,-2.779222488,1,0.435983628,1,-0.264495164,1,-0.962544918,1,-11.57920742,1,4.455825329,1,2.049731731,1
2.459899664,-14.22509766,1,0.336964667,1,-6.253693581,1,-0.90392524,1,3.656925678,1,-2.611807346,1,0.433503777,1,-0.246445432,1,-0.966169655,1,-11.83914471,1,4.321026802,1,2.353634834,1
2.46390152,-14.30669594,1,0.161687002,1,-5.925221443,1,-1.000592947,1,3.531798601,1,-2.439889669,1,0.430451334,1,-0.229163259,1,-0.969406724,1,-12.08500671,1,4.136072636,1,2.730414391,1
2.467899323,-14.26147461,1,-0.151392803,1,-5.544442654,1,-1.071378708,1,3.403855324,1,-2.269231081,1,0.426924825,1,-0.212636158,1,-0.972281396,1,-12.19749355,1,3.807107925,1,3.157389164,1
2.471898556,-14.12008858,1,-0.444302529,1,-5.177502632,1,-1.109386206,1,3.272621155,1,-2.104267359,1,0.423063993,1,-0.196865574,1,-0.974794745,1,-12.2071228,1,3.493447304,1,3.568142891,1
2.475900173,-13.84310436,1,-0.601693153,1,-4.806720257,1,-1.112710238,1,3.116088629,1,-1.957109928,1,0.419026107,1,-0.181883141,1,-0.977025688,1,-12.074049,1,3.311933517,1,3.979950428,1
2.479897738,-13.70437241,1,-0.535118461,1,-4.322757721,1,-1.070575595,1,2.942599773,1,-1.838841915,1,0.414999902,1,-0.167724237,1,-0.979075968,1,-12.07168198,1,3.35281086,1,4.501641273,1
2.483897448,-13.66352081,1,-0.433116645,1,-3.911387444,1,-0.973669887,1,2.743278503,1,-1.746719837,1,0.411219656,1,-0.154433563,1,-0.981090248,1,-12.159132,1,3.429758549,1,4.946751595,1
2.487899065,-13.79875851,1,-0.29317686,1,-3.399658918,1,-0.839966655,1,2.529523849,1,-1.67704165,1,0.407887757,1,-0.142030239,1,-0.983187735,1,-12.41434479,1,3.547269583,1,5.487748146,1
2.491896868,-13.95882988,1,-0.182572469,1,-2.729109764,1,-0.668659449,1,2.303637743,1,-1.636820912,1,0.405170202,1,-0.130530775,1,-0.985466897,1,-12.68583965,1,3.639731407,1,6.18274498,1
2.4959023,-14.01650429,1,-0.238168016,1,-2.241922617,1,-0.493122309,1,2.081199884,1,-1.611374736,1,0.403165102,1,-0.119903415,1,-0.988005519,1,-12.84663677,1,3.571351051,1,6.689517021,1
2.499903917,-14.01976395,1,-0.339228213,1,-1.829863667,1,-0.317794174,1,1.845843196,1,-1.588266492,1,0.401868343,1,-0.110161975,1,-0.990828216,1,-12.94454002,1,3.462984085,1,7.116576195,1
2.503901958,-13.92176437,1,-0.326775223,1,-1.543352008,1,-0.160403654,1,1.606515527,1,-1.558596849,1,0.401247054,1,-0.101340786,1,-0.993939102,1,-12.93233013,1,3.473433733,1,7.41382885,1
2.50790143,-13.59457588,1,-0.212838307,1,-1.474803209,1,-0.018430432,1,1.351780295,1,-1.521020532,1,0.401222706,1,-0.0934911,1,-0.99731493,1,-12.68154907,1,3.590068102,1,7.489343643,1
2.511903048,-13.36394691,1,-0.048803128,1,-1.346961379,1,0.091093823,1,1.086805463,1,-1.476183772,1,0.401699841,1,-0.08666113,1,-1.000949025,1,-12.51744747,1,3.760729074,1,7.620898724,1
2.515900612,-13.21711159,1,0.056586336,1,-1.278757095,1,0.162083298,1,0.836511254,1,-1.407353282,1,0.402535886,1,-0.080866367,1,-1.004766464,1,-12.42708683,1,3.875472784,1,7.690279007,1
2.519900084,-13.07705402,1,-0.071100272,1,-1.191390753,1,0.18245402,1,0.589062274,1,-1.316146851,1,0.403483182,1,-0.076056637,1,-1.008580565,1,-12.33392429,1,3.757729292,1,7.777416229,1
2.523901701,-12.97148514,1,-0.194786876,1,-1.157808304,1,0.147189587,1,0.36906746,1,-1.190023303,1,0.404442251,1,-0.072327301,1,-1.012461424,1,-12.26472855,1,3.643705845,1,7.809806824,1
2.527899504,-12.73522282,1,-0.343265235,1,-1.144864321,1,0.067848414,1,0.157351613,1,-1.038154721,1,0.405142665,1,-0.069603331,1,-1.016159296,1,-12.05504036,1,3.50225234,1,7.821797371,1
2.531898975,-12.62343311,1,-0.299557954,1,-1.174864054,1,-0.046244763,1,-0.037496679,1,-0.857959151,1,0.405433714,1,-0.067892998,1,-1.019566536,1,-11.95993805,1,3.549021721,1,7.791731834,1
2.535900354,-12.56214142,1,-0.326131701,1,-1.130498886,1,-0.167636931,1,-0.216702178,1,-0.658065498,1,0.405214131,1,-0.067168377,1,-1.022569537,1,-11.90571785,1,3.520667553,1,7.837381363,1
2.539898157,-12.41394711,1,-0.271259189,1,-1.166363239,1,-0.276079774,1,-0.378181189,1,-0.437651664,1,0.404487193,1,-0.067399651,1,-1.025054932,1,-11.75526619,1,3.568960667,1,7.804171085,1
2.543897629,-12.30831528,1,-0.104223281,1,-1.223544598,1,-0.358485281,1,-0.530827582,1,-0.216057807,1,0.403345585,1,-0.068565488,1,-1.026983261,1,-11.63825893,1,3.7254498,1,7.750657558,1
