Time,inertial-6253.76535:estCompensatedAccelX,inertial-6253.76535:estCompensatedAccelX:valid,inertial-6253.76535:estCompensatedAccelY,inertial-6253.76535:estCompensatedAccelY:valid,inertial-6253.76535:estCompensatedAccelZ,inertial-6253.76535:estCompensatedAccelZ:valid,inertial-6253.76535:estAngularRateX,inertial-6253.76535:estAngularRateX:valid,inertial-6253.76535:estAngularRateY,inertial-6253.76535:estAngularRateY:valid,inertial-6253.76535:estAngularRateZ,inertial-6253.76535:estAngularRateZ:valid,inertial-6253.76535:estRoll,inertial-6253.76535:estRoll:valid,inertial-6253.76535:estPitch,inertial-6253.76535:estPitch:valid,inertial-6253.76535:estYaw,inertial-6253.76535:estYaw:valid
0,-4.791372776,1,-1.403926969,1,-8.458350182,1,-0.003268035,1,-0.00369612,1,0.004157716,1,0.1628920435905457,1,-0.502448976,1,0.050476797,1
0.00399744,-4.795803547,1,-1.379311323,1,-8.448009491,1,-0.002860729,1,-0.00973609,1,0.007752413,1,0.1628656983375549,1,-0.502473474,1,0.050509602,1
0.007996672,-4.803943634,1,-1.370332003,1,-8.441231728,1,-0.007307674,1,-0.003541171,1,0.005120153,1,0.1628416031599045,1,-0.502503753,1,0.050532427,1
0.011998208,-4.80691433,1,-1.366218925,1,-8.461179733,1,-0.001719084,1,-0.005714281,1,0.004902998,1,0.1628099679946899,1,-0.502522409,1,0.050555296,1
0.015995648,-4.797386646,1,-1.355417371,1,-8.488568306,1,-0.002998682,1,-0.007221891,1,0.007149214,1,0.1627950966358185,1,-0.502547383,1,0.050579838,1
0.019994624,-4.806445122,1,-1.372102022,1,-8.469659805,1,-0.000528489,1,-0.00452451,1,0.003385483,1,0.1627723872661591,1,-0.502566993,1,0.050600026,1
0.023995904,-4.790991783,1,-1.372020483,1,-8.457165718,1,-0.003153352,1,-0.001528538,1,0.002754987,1,0.1627637147903442,1,-0.502584875,1,0.050614197,1
0.027993089,-4.771653652,1,-1.387832761,1,-8.480736732,1,-0.004070266,1,-0.002523518,1,0.00236836,1,0.1627356708049774,1,-0.50267756,1,0.050616473,1
0.031992063,-4.77357769,1,-1.406638503,1,-8.462546349,1,-0.001355405,1,-0.003939862,1,0.003254174,1,0.1627227962017059,1,-0.502652645,1,0.050350048,1
0.035993598,-4.763057709,1,-1.374735117,1,-8.468869209,1,-0.004353986,1,0.002067669,1,0.003531241,1,0.1626985818147659,1,-0.502661705,1,0.050367355,1
0.039991297,-4.786690712,1,-1.379831672,1,-8.464796066,1,-0.001237193,1,-0.004178425,1,0.00640209,1,0.1626802682876587,1,-0.502665997,1,0.050385997,1
0.043990526,-4.808077812,1,-1.374669194,1,-8.4507761,1,-0.006699228,1,0.005644716,1,0.007252899,1,0.1626581698656082,1,-0.502673209,1,0.050398681,1
0.047991809,-4.78455925,1,-1.349075675,1,-8.465203285,1,-0.004843013,1,-0.000622866,1,0.001624886,1,0.1626371145248413,1,-0.502670288,1,0.050414253,1
0.051988993,-4.805307865,1,-1.387054801,1,-8.461270332,1,-0.005230857,1,-0.000958452,1,0.004415231,1,0.162604883,1,-0.502675235,1,0.050427902,1
0.055988222,-4.798374653,1,-1.389300704,1,-8.434412956,1,-0.005037429,1,0.000526228,1,0.002364771,1,0.1625887602567673,1,-0.502673984,1,0.050442029,1
0.059989505,-4.803893089,1,-1.340634346,1,-8.458582878,1,-0.006120726,1,0.000707104,1,0.005555858,1,0.162556455,1,-0.502674222,1,0.050460652,1
0.063986689,-4.812926769,1,-1.373007536,1,-8.475392342,1,-0.008515146,1,0.003830577,1,0.002974487,1,0.1625287681818008,1,-0.502666831,1,0.050475162,1
0.067985922,-4.819438457,1,-1.411804318,1,-8.428587914,1,-0.002340018,1,0.002536063,1,0.002877146,1,0.1625062674283981,1,-0.502655149,1,0.050487645,1
0.071987197,-4.761435032,1,-1.396702647,1,-8.430315018,1,-0.006357299,1,-0.001112921,1,0.004099689,1,0.1624836176633835,1,-0.502655804,1,0.050503377,1
0.075984642,-4.799409389,1,-1.392243624,1,-8.457794189,1,-0.004893034,1,0.002610776,1,0.007724989,1,0.1624579727649689,1,-0.502648294,1,0.050522219,1
0.079983875,-4.756095409,1,-1.383520126,1,-8.474054337,1,-0.008173532,1,0.003485754,1,0.0061006,1,0.1624236404895782,1,-0.502639532,1,0.050547414,1
0.08398515,-4.772697449,1,-1.374128461,1,-8.469201088,1,-0.002302917,1,0.005476694,1,0.005959502,1,0.1623865813016891,1,-0.502624035,1,0.050578933,1
0.087982595,-4.771968365,1,-1.362829447,1,-8.474567413,1,-0.00630593,1,0.00341918,1,0.00508676,1,0.1623531728982925,1,-0.502612472,1,0.050609943,1
0.091987967,-4.809592724,1,-1.386858821,1,-8.458509445,1,-0.005094884,1,0.002986176,1,0.007350159,1,0.1623168438673019,1,-0.502599359,1,0.050647382,1
0.09598925,-4.761942863,1,-1.39547205,1,-8.488695145,1,-0.009656786,1,-0.001203648,1,0.004065239,1,0.1622763723134995,1,-0.502597332,1,0.050678145,1
0.099986687,-4.791383743,1,-1.388931155,1,-8.477795601,1,-0.004128926,1,0.004034008,1,0.002704419,1,0.1622370332479477,1,-0.502589643,1,0.050705194,1
0.103985921,-4.784428596,1,-1.386279941,1,-8.477283478,1,-0.007035388,1,0.002189475,1,0.007448511,1,0.1622015833854675,1,-0.502586067,1,0.050731674,1
0.107987456,-4.782502174,1,-1.347134113,1,-8.473416328,1,-0.002123864,1,-0.001968392,1,0.005683492,1,0.162168875,1,-0.50257808,1,0.050759766,1
0.111984894,-4.753555298,1,-1.350663185,1,-8.475047112,1,-0.005173824,1,0.004188914,1,0.003033927,1,0.162132591,1,-0.50256753,1,0.050793007,1
0.115983874,-4.787637711,1,-1.360123158,1,-8.470541954,1,-0.003142769,1,0.00212982,1,0.00477868,1,0.1621045768260956,1,-0.502560735,1,0.050817359,1
0.119985148,-4.778400898,1,-1.382093191,1,-8.478784561,1,-0.002068413,1,0.001758552,1,0.003626395,1,0.1620676815509796,1,-0.502549946,1,0.050847538,1
0.123982333,-4.773617268,1,-1.333432436,1,-8.467784882,1,-0.002004767,1,-6.63E-05,1,0.004056612,1,0.1620523631572723,1,-0.5025509,1,0.050867956,1
0.127981573,-4.77166748,1,-1.35078311,1,-8.476910591,1,-0.002879254,1,-0.002076575,1,0.006256944,1,0.1620325297117233,1,-0.502553701,1,0.050892416,1
0.131982848,-4.788738728,1,-1.40650177,1,-8.481878281,1,-0.001318824,1,0.002063391,1,0.003630831,1,0.1620121002197266,1,-0.502552032,1,0.050921805,1
0.135980293,-4.742617607,1,-1.388724446,1,-8.474297523,1,-0.00403143,1,0.001298294,1,0.006987101,1,0.1619942635297775,1,-0.502551317,1,0.050939549,1
0.139979526,-4.780440807,1,-1.393687487,1,-8.489547729,1,-0.007207138,1,0.003135894,1,0.008474702,1,0.1619559824466705,1,-0.502555668,1,0.050976824,1
0.143980801,-4.782446384,1,-1.416521549,1,-8.467354774,1,-0.004810886,1,0.002199039,1,0.009829551,1,0.1619200110435486,1,-0.502556145,1,0.051018421,1
0.147977978,-4.785041809,1,-1.46949017,1,-8.457814217,1,-0.001902953,1,0.000105327,1,0.009336608,1,0.1618748754262924,1,-0.502560079,1,0.051060557,1
0.151977211,-4.816187859,1,-1.384307146,1,-8.4684515,1,-0.005898623,1,0.000846526,1,0.009149805,1,0.161823109,1,-0.502562046,1,0.051113024,1
0.155978501,-4.799225807,1,-1.376612663,1,-8.450259209,1,-0.007586121,1,-0.000542929,1,0.00882316,1,0.1617783308029175,1,-0.502557635,1,0.051151022,1
0.159975678,-4.790830135,1,-1.315082312,1,-8.49731636,1,-0.007522121,1,-0.000117901,1,0.012308687,1,0.1617313325405121,1,-0.502563357,1,0.051198024,1
0.163975164,-4.773695469,1,-1.329580426,1,-8.474006653,1,-0.007726151,1,0.003026825,1,0.006299233,1,0.1616783291101456,1,-0.50257051,1,0.051240604,1
0.167976454,-4.778487206,1,-1.356056809,1,-8.44764328,1,-0.008241231,1,0.00104974,1,0.011626963,1,0.1616243124008179,1,-0.502568901,1,0.051277235,1
0.171973884,-4.778455257,1,-1.356871486,1,-8.436776161,1,-0.006209249,1,-0.000127903,1,0.007323239,1,0.1615836918354034,1,-0.502569079,1,0.051320329,1
0.175973371,-4.795452595,1,-1.357076168,1,-8.462579727,1,-0.002619858,1,0.002761155,1,0.008976663,1,0.1615510284900665,1,-0.502565205,1,0.051353913,1
0.179974407,-4.816673756,1,-1.345055938,1,-8.443887711,1,-0.006424581,1,0.002059856,1,0.00139508,1,0.1615263670682907,1,-0.502561569,1,0.051385958,1
0.183971837,-4.803027153,1,-1.332914233,1,-8.4752388,1,-0.001686003,1,0.003031612,1,0.007939825,1,0.1614999622106552,1,-0.502555072,1,0.05140714,1
0.18797107,-4.815141201,1,-1.319453597,1,-8.445137024,1,-0.001219549,1,-0.000219174,1,0.002594822,1,0.1614795178174973,1,-0.502561092,1,0.051433284,1
0.191972345,-4.773636818,1,-1.314941525,1,-8.458222389,1,0.001020834,1,0.000638848,1,0.008308908,1,0.1614661067724228,1,-0.50255692,1,0.051450968,1
0.19596979,-4.78162384,1,-1.344941258,1,-8.452658653,1,-0.002682726,1,0.00566981,1,0.001989271,1,0.1614547371864319,1,-0.502551079,1,0.051468588,1
0.199969023,-4.787743092,1,-1.354565859,1,-8.433673859,1,-0.003749567,1,0.003369496,1,0.003632142,1,0.1614346653223038,1,-0.50254488,1,0.051485065,1
0.203970298,-4.769523144,1,-1.387644649,1,-8.440846443,1,-0.00680273,1,0.004750789,1,0.00385241,1,0.1614151149988174,1,-0.502531052,1,0.05150279,1
0.20796749,-4.802426815,1,-1.388654947,1,-8.406887054,1,-0.002207913,1,0.004383221,1,0.003157598,1,0.1613921672105789,1,-0.502524495,1,0.051517885,1
0.211972862,-4.81646347,1,-1.415285468,1,-8.422325134,1,-0.005578866,1,0.006694585,1,0.002762379,1,0.1613685488700867,1,-0.502502501,1,0.051536966,1
0.215974405,-4.841488361,1,-1.383786798,1,-8.439211845,1,-0.003866434,1,0.007458038,1,0.003883714,1,0.1613378971815109,1,-0.5024845,1,0.05156114,1
0.219971836,-4.779767513,1,-1.349485636,1,-8.463126183,1,-0.005022269,1,0.004526042,1,0.002881531,1,0.1613073199987411,1,-0.502462506,1,0.051584784,1
0.223971069,-4.760439396,1,-1.318137884,1,-8.478590012,1,-0.004247787,1,0.003887717,1,0.004521193,1,0.1612817943096161,1,-0.502443135,1,0.051603533,1
0.227972612,-4.769010067,1,-1.380869746,1,-8.500592232,1,-0.005114842,1,0.007108228,1,0.005961303,1,0.1612485498189926,1,-0.502423942,1,0.05163072,1
0.231970042,-4.808333397,1,-1.422040462,1,-8.454255104,1,-0.002732466,1,0.005099886,1,0.004247357,1,0.1612214595079422,1,-0.502400517,1,0.051651672,1
0.235969275,-4.755446434,1,-1.41642797,1,-8.466373444,1,-0.004876344,1,0.005463853,1,0.006593083,1,0.1611890643835068,1,-0.502385497,1,0.051677212,1
0.239970565,-4.764785767,1,-1.351970077,1,-8.513460159,1,-0.007534683,1,0.00239239,1,0.005163391,1,0.1611566543579102,1,-0.502368212,1,0.051711533,1
0.243967742,-4.748544216,1,-1.366698503,1,-8.481907845,1,-0.002997846,1,0.002460191,1,0.005845934,1,0.1611203402280807,1,-0.502355456,1,0.051737536,1
0.247966975,-4.794402122,1,-1.310084343,1,-8.461103439,1,-0.00471875,1,0.003556506,1,0.006269317,1,0.1610815227031708,1,-0.502349555,1,0.051774133,1
0.251968265,-4.782452106,1,-1.327730775,1,-8.495055199,1,-0.004594731,1,0.002086455,1,0.007035034,1,0.1610516011714935,1,-0.502342343,1,0.051798094,1
0.255965441,-4.81374836,1,-1.326686621,1,-8.491861343,1,-0.004530429,1,0.003302237,1,0.004782267,1,0.1610216796398163,1,-0.502335787,1,0.051822145,1
0.259964675,-4.825051785,1,-1.349187374,1,-8.493952751,1,-0.004153184,1,0.002387241,1,0.006639634,1,0.1609920412302017,1,-0.502332509,1,0.051855206,1
0.263965964,-4.804160118,1,-1.355913639,1,-8.460280418,1,-0.002959277,1,0.00022795,1,0.00370081,1,0.1609698683023453,1,-0.502328932,1,0.051877905,1
0.26796338,-4.781705379,1,-1.390285611,1,-8.480687141,1,0.000992034,1,4.732026718556881e-05,1,0.00284884,1,0.1609576791524887,1,-0.50232482,1,0.051890381,1
0.271962613,-4.786854267,1,-1.381222606,1,-8.453934669,1,-0.000590875,1,-0.003528571,1,0.000266406,1,0.1609452068805695,1,-0.502323151,1,0.05191363,1
0.275964171,-4.777398109,1,-1.39746511,1,-8.461140633,1,0.001022308,1,0.004761151,1,0.003216259,1,0.1609271019697189,1,-0.502319157,1,0.051922131,1
0.279961854,-4.802856922,1,-1.350213051,1,-8.454392433,1,-0.005017258,1,0.002575007,1,0.002003503,1,0.1608951687812805,1,-0.502355099,1,0.051664144,1
0.283961087,-4.836282253,1,-1.336131454,1,-8.458406448,1,-0.003325491,1,0.001581265,1,0.00683678,1,0.160877526,1,-0.50235182,1,0.051679179,1
0.287962615,-4.793006897,1,-1.32253027,1,-8.456317902,1,-0.00134038,1,0.003439104,1,0.000381885,1,0.1608614325523376,1,-0.502344131,1,0.051691029,1
0.291960061,-4.792468071,1,-1.327376962,1,-8.482509613,1,0.001481072,1,0.002246021,1,0.001514437,1,0.1608526110649109,1,-0.502339602,1,0.051698145,1
0.295959294,-4.735117912,1,-1.347890735,1,-8.467731476,1,0.001968262,1,0.002953781,1,0.000101814,1,0.1608529686927795,1,-0.502337098,1,0.051709212,1
0.299960583,-4.780622005,1,-1.356054306,1,-8.487330437,1,0.007101503,1,-0.000298691,1,-0.003629455,1,0.1608763337135315,1,-0.502325058,1,0.051699113,1
0.30395776,-4.749194622,1,-1.324896812,1,-8.471826553,1,-0.000262997,1,0.001112582,1,-0.001072726,1,0.1608865261077881,1,-0.502319455,1,0.051691607,1
0.307956725,-4.79607296,1,-1.372093081,1,-8.47958374,1,0.000845768,1,0.002848254,1,-0.000989941,1,0.1608833521604538,1,-0.502321005,1,0.051695704,1
0.311958015,-4.796309948,1,-1.371655941,1,-8.449586868,1,0.001132465,1,0.001388272,1,0.002371307,1,0.1608923226594925,1,-0.502303779,1,0.051684357,1
0.31595546,-4.790614605,1,-1.385563493,1,-8.422205925,1,0.001057289,1,0.004396133,1,-0.002596476,1,0.1608988046646118,1,-0.502293885,1,0.051679987,1
0.319954932,-4.794417381,1,-1.311359406,1,-8.433532715,1,0.000810357,1,0.004341898,1,-0.001865882,1,0.1609087884426117,1,-0.502284348,1,0.05167659,1
0.32395649,-4.781872749,1,-1.327352285,1,-8.454380035,1,0.002571697,1,0.007833785,1,0.000561418,1,0.1609160155057907,1,-0.502263308,1,0.051676817,1
0.327953935,-4.813745022,1,-1.319247603,1,-8.488801956,1,0.003140823,1,0.003809325,1,-0.001373776,1,0.1609352827072144,1,-0.502240956,1,0.051676214,1
0.331959307,-4.752558708,1,-1.367625952,1,-8.444524765,1,0.003717599,1,0.00357475,1,-0.001018385,1,0.160940945,1,-0.502217829,1,0.051674534,1
0.335960567,-4.764503956,1,-1.344762325,1,-8.462285042,1,0.000683769,1,0.004885956,1,-0.000243669,1,0.1609483510255814,1,-0.50221324,1,0.051678818,1
0.339957774,-4.782075882,1,-1.421614408,1,-8.441608429,1,0.003230604,1,0.005185848,1,-0.000587268,1,0.1609578430652618,1,-0.502194345,1,0.051683221,1
0.343956977,-4.763683319,1,-1.420890093,1,-8.486040115,1,-0.002084554,1,0.004672736,1,-0.004002541,1,0.1609651297330856,1,-0.502182961,1,0.051684074,1
0.347958535,-4.769151688,1,-1.407800317,1,-8.462288857,1,-0.001551063,1,0.001532374,1,0.002429181,1,0.1609612852334976,1,-0.502162158,1,0.05168784,1
0.351956218,-4.786950588,1,-1.400129199,1,-8.455649376,1,-0.000187415,1,0.002427558,1,0.006388619,1,0.1609480381011963,1,-0.50214684,1,0.051707156,1
0.355955452,-4.747447968,1,-1.379432678,1,-8.496660233,1,-0.003995255,1,0.006200716,1,0.001656725,1,0.1609286218881607,1,-0.502138734,1,0.051724046,1
0.359956741,-4.771279812,1,-1.406585097,1,-8.474992752,1,-0.00215783,1,0.002230054,1,0.006513102,1,0.1609167456626892,1,-0.502119064,1,0.051738586,1
0.363954186,-4.804945946,1,-1.391635537,1,-8.46169281,1,-0.004807731,1,0.004795181,1,0.003350756,1,0.1608844101428986,1,-0.502108932,1,0.051759034,1
0.367953658,-4.773010731,1,-1.388595462,1,-8.480559349,1,-0.002881674,1,0.00825527,1,0.004226279,1,0.1608524322509766,1,-0.502092004,1,0.051783483,1
0.371954679,-4.780358791,1,-1.365311503,1,-8.469261169,1,-0.002381023,1,0.006117148,1,0.006518241,1,0.1608263701200485,1,-0.502073467,1,0.051805075,1
0.375951886,-4.765104294,1,-1.343431473,1,-8.500736237,1,-0.002370076,1,-0.000308305,1,0.002390338,1,0.1608077138662338,1,-0.502068222,1,0.051824491,1
0.37995109,-4.758525372,1,-1.352916479,1,-8.520020485,1,-0.000106818,1,0.001296367,1,0.002277516,1,0.1607910245656967,1,-0.502057493,1,0.051847354,1
0.383952886,-4.78890419,1,-1.318587065,1,-8.485227585,1,0.001543437,1,0.003275591,1,0.008131031,1,0.1607769727706909,1,-0.502049208,1,0.051872056,1
0.387950599,-4.782288551,1,-1.325326562,1,-8.478330612,1,0.005378525,1,0.001716134,1,0.003187522,1,0.1607864797115326,1,-0.5020504,1,0.051894493,1
0.391949832,-4.800173759,1,-1.303826809,1,-8.486514091,1,0.006154479,1,0.001710145,1,0.007049842,1,0.1608021408319473,1,-0.502049088,1,0.051917009,1
0.39595136,-4.783565521,1,-1.274898171,1,-8.474651337,1,0.010650601,1,-0.002406182,1,0.004241154,1,0.1608216762542725,1,-0.502055883,1,0.051944859,1
0.399948806,-4.77109766,1,-1.293202043,1,-8.491285324,1,0.009058215,1,0.000735882,1,0.008938015,1,0.1608498245477676,1,-0.502055228,1,0.051971789,1
0.403947771,-4.776410103,1,-1.375971079,1,-8.480334282,1,0.009844098,1,-0.003625676,1,0.004539591,1,0.1608834117650986,1,-0.502069473,1,0.051990997,1
0.40794906,-4.76947403,1,-1.436064124,1,-8.465668678,1,0.009382609,1,-0.002055497,1,0.004483443,1,0.1609136164188385,1,-0.502085447,1,0.052009609,1
0.411946237,-4.759732246,1,-1.415280104,1,-8.422740936,1,0.011639692,1,-0.004960286,1,0.007197953,1,0.1609426736831665,1,-0.502097487,1,0.052033179,1
0.415945977,-4.797279835,1,-1.370451093,1,-8.502538681,1,0.008996446,1,-4.57E-05,1,0.001768094,1,0.1609635055065155,1,-0.502114058,1,0.05205347,1
0.419947535,-4.773800373,1,-1.376143098,1,-8.446883202,1,0.00571972,1,-0.000158683,1,0.005570764,1,0.160972998,1,-0.50212425,1,0.052090351,1
0.423945218,-4.778069496,1,-1.387064934,1,-8.476997375,1,0.005540805,1,0.001367,1,0.002675614,1,0.1609872132539749,1,-0.502129138,1,0.052114155,1
0.42794469,-4.781630993,1,-1.343037605,1,-8.491703987,1,0.003611338,1,-0.001693743,1,0.009565786,1,0.1609829068183899,1,-0.50213778,1,0.052150387,1
0.43194598,-4.790719509,1,-1.380575299,1,-8.466668129,1,-0.000761102,1,-0.002220227,1,0.008037601,1,0.160973847,1,-0.502140284,1,0.052187379,1
0.435943156,-4.780395985,1,-1.296931982,1,-8.422988892,1,0.001960629,1,-0.001717077,1,0.007696649,1,0.1609697639942169,1,-0.502142131,1,0.052217115,1
0.43994239,-4.811111927,1,-1.278029203,1,-8.438815117,1,0.000200889,1,-0.001785023,1,0.005493857,1,0.1609716564416885,1,-0.50214535,1,0.052242205,1
0.443943948,-4.741967201,1,-1.283640981,1,-8.47311306,1,0.007875564,1,0.003406274,1,0.000703002,1,0.1609838306903839,1,-0.50214231,1,0.052255902,1
0.447941631,-4.700519562,1,-1.26662612,1,-8.503445625,1,0.004648922,1,-0.000931635,1,0.004607104,1,0.1610080599784851,1,-0.50214678,1,0.052263759,1
0.451947004,-4.708894253,1,-1.283723354,1,-8.51935482,1,0.010153791,1,-0.007083893,1,5.771126598119736e-05,1,0.1610328108072281,1,-0.502160192,1,0.052274503,1
0.455948293,-4.761188984,1,-1.361921191,1,-8.512861252,1,0.010613136,1,-0.006315056,1,-0.000534305,1,0.1610719412565231,1,-0.50218606,1,0.052269906,1
0.459945977,-4.77248764,1,-1.387726545,1,-8.503293991,1,0.008467952,1,-0.006692181,1,-0.004447028,1,0.1611106693744659,1,-0.502210021,1,0.052267116,1
0.463945478,-4.775701523,1,-1.383877754,1,-8.50633812,1,0.006557898,1,-0.009191235,1,-0.00221064,1,0.1611517369747162,1,-0.502242923,1,0.05225851,1
0.4679465,-4.750411034,1,-1.397238731,1,-8.52679348,1,0.006874992,1,-0.011340712,1,0.001278986,1,0.1611893326044083,1,-0.5022825,1,0.052247755,1
0.471943945,-4.74393034,1,-1.387117028,1,-8.53027153,1,0.010271948,1,-0.010428954,1,0.002007526,1,0.1612351685762405,1,-0.502321482,1,0.052236494,1
0.475943178,-4.752857685,1,-1.402933002,1,-8.493237495,1,0.004991166,1,-0.015342114,1,0.001929683,1,0.1612675189971924,1,-0.502374887,1,0.052237026,1
0.479944438,-4.774552822,1,-1.410513163,1,-8.490762711,1,0.005183695,1,-0.015074623,1,0.002597694,1,0.1613004803657532,1,-0.502422869,1,0.0522292,1
0.483941644,-4.754108429,1,-1.390691996,1,-8.49479866,1,0.005240695,1,-0.015308288,1,0.000866273,1,0.1613337099552155,1,-0.502474487,1,0.052224834,1
0.487940609,-4.755748272,1,-1.432352185,1,-8.493035316,1,0.010925276,1,-0.017696524,1,-0.000283603,1,0.1613639295101166,1,-0.502532423,1,0.052217145,1
0.491941899,-4.743607044,1,-1.460682631,1,-8.531472206,1,0.005099236,1,-0.017075723,1,0.002205316,1,0.1613842695951462,1,-0.502606928,1,0.052216038,1
0.495939076,-4.768179417,1,-1.490999341,1,-8.526745796,1,0.000351242,1,-0.019703882,1,0.005030585,1,0.1613992899656296,1,-0.502683163,1,0.052223939,1
0.499938041,-4.750274658,1,-1.507599235,1,-8.504440308,1,-0.003018304,1,-0.018787276,1,0.007464302,1,0.1613832116127014,1,-0.502755642,1,0.05224539,1
0.503939569,-4.773699284,1,-1.4523139,1,-8.460783005,1,-0.003069896,1,-0.020664657,1,0.008847559,1,0.1613628268241882,1,-0.502843678,1,0.052262235,1
0.507937014,-4.778987885,1,-1.497511387,1,-8.475396156,1,-0.004846681,1,-0.016498415,1,0.012641881,1,0.1613245159387589,1,-0.502924919,1,0.052300919,1
0.511936784,-4.748662949,1,-1.436715484,1,-8.464174271,1,-0.00990142,1,-0.022145079,1,0.013380511,1,0.1612677872180939,1,-0.503012478,1,0.052348092,1
0.515938044,-4.785937786,1,-1.424525857,1,-8.469660759,1,-0.012050429,1,-0.020592431,1,0.014071312,1,0.1612035781145096,1,-0.503105462,1,0.052396409,1
0.519935489,-4.73707962,1,-1.440309763,1,-8.479734421,1,-0.015396668,1,-0.024039622,1,0.0136123,1,0.1611267924308777,1,-0.503201842,1,0.052438427,1
0.523934722,-4.752167225,1,-1.378044963,1,-8.503361702,1,-0.014408745,1,-0.022814097,1,0.016663138,1,0.1610488295555115,1,-0.503307998,1,0.052490737,1
0.527935982,-4.780738831,1,-1.357999802,1,-8.479894638,1,-0.016367409,1,-0.02358315,1,0.015809326,1,0.1609588414430618,1,-0.503477216,1,0.052540742,1
0.531933188,-4.799724102,1,-1.320651531,1,-8.484789848,1,-0.012678717,1,-0.023898924,1,0.014511097,1,0.1608781516551971,1,-0.503555357,1,0.052307103,1
0.535932422,-4.771475792,1,-1.31074512,1,-8.49943924,1,-0.012161206,1,-0.027952526,1,0.009803388,1,0.1608041822910309,1,-0.503669858,1,0.052356407,1
0.53993398,-4.708375454,1,-1.276498675,1,-8.512061119,1,-0.011931247,1,-0.03160917,1,0.012216806,1,0.1607447862625122,1,-0.503786922,1,0.052386113,1
0.543931901,-4.776286125,1,-1.311607718,1,-8.554870605,1,-0.011626598,1,-0.034467094,1,0.01139899,1,0.1606967151165009,1,-0.503920674,1,0.052420031,1
0.547931135,-4.789998531,1,-1.343603492,1,-8.527655602,1,-0.00541156,1,-0.031847101,1,0.0076033,1,0.1606573611497879,1,-0.504054308,1,0.052438721,1
0.551932395,-4.797427177,1,-1.340364695,1,-8.479024887,1,-0.009681254,1,-0.033462342,1,0.010060363,1,0.1606255918741226,1,-0.504188597,1,0.052459046,1
0.55592984,-4.815686703,1,-1.389356494,1,-8.492027283,1,-0.00453931,1,-0.034318719,1,0.007456018,1,0.1605848670005798,1,-0.504331768,1,0.052477766,1
0.559929073,-4.786956787,1,-1.361744642,1,-8.492079735,1,-0.00337452,1,-0.034798231,1,0.006147841,1,0.160553977,1,-0.504468799,1,0.052491795,1
0.563930631,-4.813216686,1,-1.318759561,1,-8.471678734,1,-0.005601572,1,-0.039990477,1,0.007587751,1,0.1605306565761566,1,-0.50461781,1,0.052499391,1
0.567928314,-4.833425999,1,-1.314733863,1,-8.459859848,1,-0.006554821,1,-0.03420325,1,0.007116881,1,0.1605093479156494,1,-0.504759908,1,0.052498944,1
0.571933448,-4.8172369,1,-1.372570038,1,-8.484107018,1,-0.003708963,1,-0.034064643,1,0.005021433,1,0.1605007499456406,1,-0.504898608,1,0.052497651,1
0.575934708,-4.798708439,1,-1.340087414,1,-8.456695557,1,-0.001386973,1,-0.0337952,1,0.005164642,1,0.1604968458414078,1,-0.505036831,1,0.052489545,1
0.579932153,-4.832238197,1,-1.381340623,1,-8.437657356,1,-0.002032143,1,-0.03547598,1,0.001313015,1,0.1604945212602615,1,-0.50517118,1,0.052479185,1
0.583931148,-4.865363598,1,-1.414708138,1,-8.389182091,1,-0.003813719,1,-0.030616986,1,0.004469416,1,0.1604793965816498,1,-0.505298436,1,0.052475244,1
0.587932408,-4.863675117,1,-1.413898468,1,-8.439282417,1,-0.009462491,1,-0.026706591,1,0.007870957,1,0.1604629904031754,1,-0.505420744,1,0.052481495,1
0.591929615,-4.79375267,1,-1.403114915,1,-8.426169395,1,-0.007492224,1,-0.027521376,1,0.005876066,1,0.160417765,1,-0.505539119,1,0.052496955,1
0.595928848,-4.784176826,1,-1.41950357,1,-8.401565552,1,-0.008155312,1,-0.026613334,1,0.011713069,1,0.1603692024946213,1,-0.505655587,1,0.052518118,1
0.599930346,-4.850681305,1,-1.450976372,1,-8.406687737,1,-0.017543629,1,-0.022348298,1,0.013395613,1,0.1602997779846191,1,-0.505753219,1,0.052548353,1
0.603927791,-4.828241348,1,-1.46965456,1,-8.391982079,1,-0.015112711,1,-0.024823975,1,0.011900097,1,0.1602228581905365,1,-0.50584805,1,0.052586757,1
0.607927322,-4.847996712,1,-1.411964297,1,-8.374631882,1,-0.020942204,1,-0.019209545,1,0.012253426,1,0.1601386219263077,1,-0.505940259,1,0.052630112,1
0.611928582,-4.87205267,1,-1.358791113,1,-8.409304619,1,-0.019097086,1,-0.018243233,1,0.017034864,1,0.1600497364997864,1,-0.506025016,1,0.052673943,1
0.615925789,-4.802379131,1,-1.340651751,1,-8.456748962,1,-0.015302059,1,-0.019122748,1,0.013693577,1,0.1599507480859756,1,-0.506104708,1,0.052735612,1
0.619925261,-4.844003201,1,-1.262699008,1,-8.425501823,1,-0.016533833,1,-0.011531315,1,0.011682294,1,0.1598678678274155,1,-0.506181777,1,0.052782424,1
0.62392652,-4.854712963,1,-1.292442441,1,-8.431853294,1,-0.013748914,1,-0.012153351,1,0.006276376,1,0.1597992032766342,1,-0.506242156,1,0.05282072,1
0.627923965,-4.848759174,1,-1.289227128,1,-8.469194412,1,-0.011683471,1,-0.016922895,1,0.01163842,1,0.1597351431846619,1,-0.506302655,1,0.052859031,1
0.631923199,-4.828439236,1,-1.286094069,1,-8.458427429,1,-0.012542295,1,-0.015584646,1,0.007853154,1,0.1596836298704147,1,-0.506374836,1,0.052890278,1
0.635924995,-4.804538727,1,-1.266480327,1,-8.461610794,1,-0.004846847,1,-0.016698776,1,0.008914541,1,0.1596400290727615,1,-0.506441414,1,0.052921187,1
0.639923215,-4.843379021,1,-1.326370358,1,-8.497506142,1,-0.005889492,1,-0.015280273,1,0.00608305,1,0.1596043854951859,1,-0.506510139,1,0.052944656,1
0.643922687,-4.818802834,1,-1.337043643,1,-8.4398489,1,-0.003731145,1,-0.014326114,1,0.010311423,1,0.1595743596553802,1,-0.506576478,1,0.052963357,1
0.647923946,-4.815234184,1,-1.335944295,1,-8.473009109,1,-0.003737193,1,-0.016536808,1,0.004151316,1,0.1595475375652313,1,-0.506652057,1,0.052984267,1
0.65192169,-4.851051331,1,-1.326807499,1,-8.447264671,1,-0.001580394,1,-0.015924184,1,0.005631572,1,0.1595205515623093,1,-0.506723285,1,0.052995093,1
0.655920923,-4.819835186,1,-1.356984019,1,-8.43088913,1,-0.005432128,1,-0.016767945,1,0.006898191,1,0.1595000922679901,1,-0.506786883,1,0.053012159,1
0.659922421,-4.814733982,1,-1.332504034,1,-8.439342499,1,-0.001098061,1,-0.014207434,1,0.002762826,1,0.1594826728105545,1,-0.506852627,1,0.053021718,1
0.663919866,-4.840549469,1,-1.272281408,1,-8.428706169,1,-0.00195276,1,-0.015228225,1,-0.000596353,1,0.1594611555337906,1,-0.506922483,1,0.053022292,1
0.667919099,-4.810576439,1,-1.232375383,1,-8.442765236,1,0.001122553,1,-0.016677918,1,0.003373884,1,0.1594606339931488,1,-0.506983042,1,0.053027645,1
0.671920896,-4.84189415,1,-1.215510488,1,-8.431033134,1,0.00416487,1,-0.017033065,1,-0.001119221,1,0.1594816446304321,1,-0.507057726,1,0.053011015,1
0.675918877,-4.826038837,1,-1.303459048,1,-8.472556114,1,0.010322791,1,-0.02118073,1,-0.003855326,1,0.1595085859298706,1,-0.507126987,1,0.05299975,1
0.679918051,-4.828587055,1,-1.317634463,1,-8.462603569,1,0.007173444,1,-0.016501544,1,-0.001459445,1,0.1595460325479507,1,-0.507190228,1,0.052989274,1
0.683919847,-4.834023952,1,-1.3780092,1,-8.459988594,1,0.005306018,1,-0.01659238,1,-0.000136689,1,0.1595753282308578,1,-0.507259965,1,0.052966952,1
0.68791759,-4.862164974,1,-1.417566299,1,-8.398592949,1,0.00348039,1,-0.019499872,1,0.003783514,1,0.159598097,1,-0.507328808,1,0.052958779,1
0.691923201,-4.830292225,1,-1.425731778,1,-8.431810379,1,0.003582948,1,-0.015747383,1,0.005141641,1,0.1596172004938126,1,-0.507391274,1,0.052959286,1
0.695924759,-4.849946976,1,-1.454836965,1,-8.406072617,1,0.000546918,1,-0.015182849,1,0.008084433,1,0.15960601,1,-0.507448554,1,0.052979123,1
0.699922204,-4.846282005,1,-1.435779095,1,-8.397264481,1,-0.000393325,1,-0.008862833,1,0.004090646,1,0.159592867,1,-0.507505715,1,0.053002663,1
0.703921437,-4.845383167,1,-1.430017829,1,-8.403862,1,-0.006628614,1,-0.006913671,1,0.013641605,1,0.1595636904239655,1,-0.507547796,1,0.053032294,1
0.707922697,-4.869450569,1,-1.420576811,1,-8.403140068,1,-0.011001009,1,-0.008384946,1,0.010199832,1,0.1595155894756317,1,-0.507592022,1,0.053071667,1
0.711920142,-4.875569344,1,-1.389458537,1,-8.393390656,1,-0.005694986,1,-0.006170081,1,0.011476625,1,0.159464955,1,-0.507619619,1,0.05312115,1
0.715919375,-4.834749699,1,-1.410405397,1,-8.396760941,1,-0.014185932,1,-0.00430501,1,0.012346879,1,0.1593988239765167,1,-0.507640302,1,0.05316934,1
0.719920635,-4.822463036,1,-1.343665004,1,-8.41656208,1,-0.01472113,1,0.003626815,1,0.011826755,1,0.1593216955661774,1,-0.507651091,1,0.053223237,1
0.72391808,-4.84478426,1,-1.328000069,1,-8.400279999,1,-0.015394367,1,0.001148874,1,0.014711298,1,0.1592343151569366,1,-0.507656276,1,0.053281359,1
0.727917314,-4.879197121,1,-1.325750351,1,-8.407993317,1,-0.009677669,1,0.004692724,1,0.010943713,1,0.1591557711362839,1,-0.507653356,1,0.053331718,1
0.731918871,-4.845726967,1,-1.31216526,1,-8.435434341,1,-0.010719717,1,0.000190731,1,0.008821921,1,0.1590877324342728,1,-0.507647395,1,0.053382594,1
0.735916793,-4.84690094,1,-1.331931829,1,-8.416030884,1,-0.012143758,1,0.002023348,1,0.009939494,1,0.1590291410684586,1,-0.507642865,1,0.053422663,1
0.739916265,-4.815714359,1,-1.349411964,1,-8.418913841,1,-0.008490263,1,0.006441007,1,0.012845678,1,0.158956453,1,-0.507627666,1,0.053472038,1
0.743917584,-4.827181816,1,-1.396054387,1,-8.447109222,1,-0.012205401,1,0.001418737,1,0.010378219,1,0.1588843315839767,1,-0.507623732,1,0.053532396,1
0.74791503,-4.826407909,1,-1.38633275,1,-8.483480453,1,-0.008130969,1,0.003438242,1,0.010341285,1,0.1588181108236313,1,-0.507615149,1,0.05357495,1
0.751914263,-4.815023899,1,-1.390566111,1,-8.444894791,1,-0.009164417,1,0.000655015,1,0.011026626,1,0.1587477475404739,1,-0.507612944,1,0.053630512,1
0.755915761,-4.836344242,1,-1.389698029,1,-8.410964012,1,-0.013011033,1,0.000153743,1,0.014579555,1,0.1586736887693405,1,-0.507617831,1,0.053684253,1
0.759913206,-4.815628052,1,-1.309150219,1,-8.447281837,1,-0.014219738,1,0.009639061,1,0.012271952,1,0.1585893481969833,1,-0.507610261,1,0.05374819,1
0.763912678,-4.83571291,1,-1.287796855,1,-8.423285484,1,-0.0140375,1,0.002805158,1,0.010182168,1,0.1585024446249008,1,-0.50759691,1,0.053809796,1
0.767913997,-4.836689472,1,-1.289322615,1,-8.382642746,1,-0.012490681,1,0.005534197,1,0.012958113,1,0.1584268063306808,1,-0.507589638,1,0.053863551,1
0.771911144,-4.829810619,1,-1.299092531,1,-8.422861099,1,-0.009644737,1,0.005018688,1,0.0123653,1,0.158360168,1,-0.507571638,1,0.053915266,1
0.775910139,-4.856275082,1,-1.308040977,1,-8.41119957,1,-0.010578199,1,0.001981758,1,0.00732764,1,0.1582872569561005,1,-0.507559001,1,0.053965133,1
0.779911697,-4.831087112,1,-1.309170961,1,-8.432395935,1,-0.007639183,1,0.00383791,1,0.008550216,1,0.1582110673189163,1,-0.507603288,1,0.053729933,1
0.78390938,-4.812809944,1,-1.244607329,1,-8.440647125,1,-0.009373466,1,0.001634702,1,0.006420974,1,0.1581648737192154,1,-0.507585168,1,0.053761285,1
0.787908852,-4.826151848,1,-1.270378113,1,-8.4363451,1,-0.006221039,1,0.0072006,1,0.005209638,1,0.1581181138753891,1,-0.5075683,1,0.053793456,1
0.79191041,-4.880339622,1,-1.264403224,1,-8.368419647,1,-0.006118367,1,0.005166928,1,0.007212955,1,0.1580798178911209,1,-0.507542253,1,0.05382679,1
0.795907855,-4.867076874,1,-1.277749658,1,-8.384411812,1,-0.003182557,1,0.006546029,1,0.006168901,1,0.1580533236265182,1,-0.507512629,1,0.053856477,1
0.799907088,-4.838832378,1,-1.232501507,1,-8.396454811,1,-0.002306422,1,0.00570068,1,0.001775064,1,0.1580339968204498,1,-0.507484853,1,0.053869333,1
0.803908587,-4.845620632,1,-1.261217952,1,-8.420259476,1,0.00292982,1,0.008271138,1,0.00287748,1,0.1580293029546738,1,-0.507451415,1,0.053881485,1
0.807906032,-4.864752769,1,-1.263513803,1,-8.405642509,1,-0.002276171,1,0.009311271,1,0.000493093,1,0.1580261141061783,1,-0.507413387,1,0.053891115,1
0.811911404,-4.865084171,1,-1.321908355,1,-8.421867371,1,0.002859715,1,0.011621666,1,-0.00366304,1,0.1580352187156677,1,-0.50737381,1,0.053891391,1
0.815912724,-4.835307598,1,-1.325610876,1,-8.3872509,1,0.000722998,1,0.011386613,1,-0.001455015,1,0.1580447852611542,1,-0.507331312,1,0.053893067,1
0.819910169,-4.866071701,1,-1.305390358,1,-8.399245262,1,0.005010715,1,0.015135926,1,-0.003673613,1,0.1580545604228973,1,-0.507282138,1,0.053887252,1
0.823909402,-4.825289249,1,-1.300987005,1,-8.429451942,1,0.004067094,1,0.01359332,1,-0.001914266,1,0.1580729633569717,1,-0.507218599,1,0.05388815,1
0.827910662,-4.804071426,1,-1.303604126,1,-8.416689873,1,0.007701666,1,0.016754219,1,-0.00094639,1,0.1580917239189148,1,-0.507154226,1,0.053883865,1
0.831908107,-4.78456068,1,-1.30403924,1,-8.458897591,1,0.004243054,1,0.017579196,1,0.001685683,1,0.1581156104803085,1,-0.50708878,1,0.053886145,1
0.83590734,-4.791304588,1,-1.341388464,1,-8.516568184,1,0.005440579,1,0.015829384,1,-0.002802521,1,0.1581288427114487,1,-0.507021964,1,0.053892761,1
0.839908838,-4.782720089,1,-1.371639848,1,-8.509768486,1,0.004725536,1,0.016618164,1,-0.003398133,1,0.1581493318080902,1,-0.506956935,1,0.053891569,1
0.843906581,-4.815711021,1,-1.437503576,1,-8.498709679,1,0.00191573,1,0.014220765,1,0.001076113,1,0.1581529229879379,1,-0.506898463,1,0.053909093,1
0.847905815,-4.799706936,1,-1.433365703,1,-8.536710739,1,0.003874128,1,0.01262707,1,0.002979179,1,0.1581490188837051,1,-0.506847262,1,0.053931389,1
0.851907313,-4.792633533,1,-1.416440129,1,-8.524643898,1,-0.001844616,1,0.0087898,1,0.003750002,1,0.1581424623727798,1,-0.506804347,1,0.053942196,1
0.855904758,-4.786124229,1,-1.34782958,1,-8.531025887,1,-0.002290678,1,0.00495021,1,0.00465245,1,0.158133402,1,-0.506777942,1,0.053963803,1
0.859903991,-4.80162859,1,-1.35168457,1,-8.554816246,1,0.00184007,1,0.003921363,1,0.005125858,1,0.1581143438816071,1,-0.50676465,1,0.053986449,1
0.863905251,-4.816940308,1,-1.377713084,1,-8.534636497,1,0.000929079,1,0.000477126,1,0.005052289,1,0.1581098586320877,1,-0.5067572,1,0.054011721,1
0.867902458,-4.823208809,1,-1.446367979,1,-8.517985344,1,-0.001691852,1,-0.002240988,1,0.008083699,1,0.1580879539251328,1,-0.50676316,1,0.054043707,1
0.871901929,-4.802297592,1,-1.466880679,1,-8.478149414,1,-0.001970632,1,-0.000998796,1,0.007626071,1,0.1580657511949539,1,-0.506773531,1,0.054076456,1
0.875903726,-4.838626862,1,-1.440908194,1,-8.449323654,1,-0.004292571,1,-0.005119081,1,0.01180093,1,0.1580278426408768,1,-0.5067963,1,0.054121628,1
0.879901469,-4.817456722,1,-1.355005383,1,-8.488220215,1,-0.004032505,1,-0.007077118,1,0.009104254,1,0.157977507,1,-0.506833434,1,0.054161634,1
0.883900642,-4.809440613,1,-1.39414227,1,-8.459132195,1,-0.00908852,1,-0.007346611,1,0.014494607,1,0.1579381972551346,1,-0.506870568,1,0.054206513,1
0.887901962,-4.817538738,1,-1.34015727,1,-8.43559742,1,-0.00057602,1,-0.006352967,1,0.01546476,1,0.1578834652900696,1,-0.506913602,1,0.054273777,1
0.891899109,-4.783666134,1,-1.375891685,1,-8.458674431,1,0.003029095,1,-0.006939382,1,0.022015268,1,0.1578402072191238,1,-0.506963909,1,0.054363094,1
0.89589864,-4.770584106,1,-1.317279696,1,-8.416700363,1,0.006823388,1,-0.008702097,1,0.028935185,1,0.1578069031238556,1,-0.507010877,1,0.054473877,1
0.899900138,-4.812216759,1,-1.316235781,1,-8.446265221,1,0.013914917,1,-0.00776722,1,0.038636655,1,0.1577868759632111,1,-0.50706774,1,0.054610379,1
0.903897882,-4.782583237,1,-1.313248038,1,-8.41221714,1,0.012108973,1,-0.003718717,1,0.035910089,1,0.1577647477388382,1,-0.507123172,1,0.054773808,1
0.907897353,-4.841718197,1,-1.256705046,1,-8.407699585,1,0.016002461,1,-0.004543557,1,0.038712084,1,0.1577466875314713,1,-0.507164598,1,0.054938126,1
0.911898613,-4.861700535,1,-1.178876638,1,-8.365481377,1,0.018882334,1,-0.00205265,1,0.037388291,1,0.1577426940202713,1,-0.507201791,1,0.055093504,1
0.915896058,-4.853613377,1,-1.217113256,1,-8.408254623,1,0.020044526,1,-0.00039344,1,0.027935388,1,0.1577426642179489,1,-0.507229686,1,0.055236623,1
0.91989553,-4.869249344,1,-1.217953444,1,-8.380899429,1,0.018244304,1,0.001141285,1,0.021530949,1,0.157760814,1,-0.507248282,1,0.05535337,1
0.923896849,-4.876891613,1,-1.206585765,1,-8.354569435,1,0.020642567,1,0.001108439,1,0.01659395,1,0.1577970832586288,1,-0.507253051,1,0.055435773,1
0.927894294,-4.86932373,1,-1.231829882,1,-8.395669937,1,0.018784119,1,0.005913212,1,0.013739681,1,0.1578322052955627,1,-0.507247269,1,0.055506784,1
0.931893528,-4.881757736,1,-1.26620543,1,-8.431862831,1,0.023314066,1,0.010250936,1,0.010527743,1,0.1578835397958755,1,-0.507225871,1,0.055555549,1
0.935900927,-4.832285404,1,-1.257569909,1,-8.393279076,1,0.018076211,1,0.010291759,1,0.004033583,1,0.1579380035400391,1,-0.507187545,1,0.055599336,1
0.939904273,-4.856399059,1,-1.27757442,1,-8.429156303,1,0.012225087,1,0.014083619,1,0.004172548,1,0.1579789519309998,1,-0.507143855,1,0.055633713,1
0.943903506,-4.818714142,1,-1.285304546,1,-8.396463394,1,0.018115513,1,0.012178626,1,0.000898354,1,0.1580315083265305,1,-0.507091463,1,0.055663329,1
0.947905302,-4.841552734,1,-1.331398368,1,-8.411928177,1,0.010979441,1,0.015831375,1,0.0012762,1,0.1580705791711807,1,-0.507033646,1,0.055683147,1
0.951902986,-4.796805382,1,-1.373815894,1,-8.40267849,1,0.007056943,1,0.017818682,1,0.001121172,1,0.1581067889928818,1,-0.506966889,1,0.05569331,1
0.955902219,-4.819235325,1,-1.427528262,1,-8.463675499,1,0.00435406,1,0.01742461,1,0.00195109,1,0.1581238359212875,1,-0.506895304,1,0.055713054,1
0.959904015,-4.734564304,1,-1.409705043,1,-8.494006157,1,-0.000453278,1,0.019551309,1,0.005298149,1,0.1581230759620667,1,-0.506819129,1,0.055739179,1
0.963901699,-4.751280308,1,-1.37727809,1,-8.47091198,1,0.005184828,1,0.015989034,1,0.003119351,1,0.1581177115440369,1,-0.5067572,1,0.055770323,1
0.96790117,-4.816345692,1,-1.445969701,1,-8.444811821,1,-0.004721913,1,0.013189105,1,0.005590968,1,0.1581041216850281,1,-0.506699145,1,0.055799775,1
0.97190249,-4.808300495,1,-1.41417408,1,-8.466874123,1,-0.006999552,1,0.01622919,1,0.006314848,1,0.1580695062875748,1,-0.506643713,1,0.055831257,1
0.975899637,-4.806685925,1,-1.49239707,1,-8.533507347,1,-0.004981779,1,0.013863256,1,0.011139486,1,0.1580265909433365,1,-0.506596029,1,0.055887252,1
0.97989887,-4.772285938,1,-1.486903906,1,-8.467571259,1,0.002044861,1,0.008719406,1,0.02190531,1,0.1579737663269043,1,-0.506560743,1,0.055970628,1
0.983900428,-4.755983829,1,-1.447199702,1,-8.470147133,1,0.0064518,1,0.005091161,1,0.038194161,1,0.1579175293445587,1,-0.506546199,1,0.056114588,1
0.987898111,-4.765370846,1,-1.486683011,1,-8.43828392,1,0.018292975,1,0.010860915,1,0.051895756,1,0.157864124,1,-0.506542623,1,0.056321621,1
0.991897583,-4.812891006,1,-1.516608,1,-8.461052895,1,0.028395252,1,0.014058771,1,0.073312588,1,0.157811239,1,-0.506538033,1,0.056615226,1
0.995898902,-5.1043396,1,-1.354545355,1,-8.54434967,1,0.031142281,1,0.016677767,1,0.087734148,1,0.1577552855014801,1,-0.506522596,1,0.056985978,1
0.999896348,-4.138680935,1,-1.637553453,1,-8.452311516,1,0.045276318,1,0.017822262,1,0.1056677252054214,1,0.1576824188232422,1,-0.50647074,1,0.05743951,1
1.003895521,-4.947432041,1,-1.233595014,1,-8.290877342,1,0.044911336,1,0.021338055,1,0.1078656315803528,1,0.1576217859983444,1,-0.506473064,1,0.057941023,1
1.007896781,-4.906262875,1,-1.146440864,1,-8.324458122,1,0.050165132,1,0.032974858,1,0.1102765500545502,1,0.1575682312250137,1,-0.506441176,1,0.058450233,1
1.011894584,-4.890154362,1,-0.995193899,1,-8.317973137,1,0.05205851,1,0.031926353,1,0.098611251,1,0.1575323939323425,1,-0.506381452,1,0.058944333,1
1.015893817,-4.918793678,1,-0.955337286,1,-8.362039566,1,0.052934092,1,0.029754911,1,0.085137054,1,0.1575329601764679,1,-0.506312847,1,0.05938457,1
1.019895315,-4.878334045,1,-0.9205966,1,-8.382829666,1,0.054976471,1,0.036447626,1,0.069825068,1,0.1575666964054108,1,-0.506230235,1,0.059760299,1
1.023893237,-4.903309822,1,-0.973611534,1,-8.386889458,1,0.05673492,1,0.039379146,1,0.053907949,1,0.1576403081417084,1,-0.506115437,1,0.060071677,1
1.02789247,-4.94711256,1,-1.000611424,1,-8.385227203,1,0.062063031,1,0.039799057,1,0.042932693,1,0.1577222496271133,1,-0.506070375,1,0.060317822,1
1.031893969,-4.96557188,1,-1.011395097,1,-8.353738785,1,0.061403431,1,0.04868672,1,0.030663906,1,0.1578804105520248,1,-0.505890608,1,0.060222358,1
1.035891414,-4.908618927,1,-1.019518495,1,-8.413784027,1,0.071131065,1,0.049100973,1,0.013382772,1,0.1580835282802582,1,-0.505718946,1,0.060353391,1
1.039890647,-4.958741188,1,-1.016796589,1,-8.388699532,1,0.079856083,1,0.047550961,1,0.001382472,1,0.1583532392978668,1,-0.505529523,1,0.060422976,1
1.043892264,-4.913275719,1,-1.043983698,1,-8.409352303,1,0.086927176,1,0.054033294,1,-0.013314033,1,0.1586781740188599,1,-0.505328655,1,0.060435262,1
1.047889709,-4.85769558,1,-1.153419852,1,-8.458895683,1,0.098427534,1,0.054525942,1,-0.018746465,1,0.1590722352266312,1,-0.50510782,1,0.060398083,1
1.051888943,-4.880254269,1,-1.214869976,1,-8.460349083,1,0.1271113157272339,1,0.056492724,1,-0.01745287,1,0.1595382243394852,1,-0.504880011,1,0.060356662,1
1.055896282,-4.876721382,1,-1.127530694,1,-8.46606636,1,0.1453965455293655,1,0.055824779,1,-0.013200305,1,0.1600935757160187,1,-0.504655123,1,0.060329508,1
1.059899688,-4.849984646,1,-1.118554711,1,-8.443096161,1,0.1611872315406799,1,0.06373547,1,-0.009270187,1,0.1607064306735992,1,-0.504406035,1,0.060333982,1
1.063899159,-4.954681873,1,-1.034729123,1,-8.437858582,1,0.1789665967226028,1,0.059551328,1,-0.014048863,1,0.1613892316818237,1,-0.504161358,1,0.06034404,1
1.067900419,-4.937841415,1,-1.040553689,1,-8.349485397,1,0.1910583823919296,1,0.070763454,1,-0.01733825,1,0.1621452867984772,1,-0.50389868,1,0.060317226,1
1.071897626,-4.831783772,1,-1.034058452,1,-8.544849396,1,0.1975651681423187,1,0.059349202,1,-0.027532728,1,0.1629560589790344,1,-0.503618956,1,0.060248088,1
1.075897336,-4.793606758,1,-1.157500267,1,-8.449370384,1,0.194611982,1,0.062436409,1,-0.041071005,1,0.1637987047433853,1,-0.503358245,1,0.060135927,1
1.079898834,-4.74677372,1,-1.29171598,1,-8.464947701,1,0.1936121135950089,1,0.056808807,1,-0.044442773,1,0.1646509617567062,1,-0.503092945,1,0.059980914,1
1.083896518,-4.700612545,1,-1.346707344,1,-8.506072998,1,0.1837810873985291,1,0.056859232,1,-0.053725354,1,0.1654897332191467,1,-0.502830267,1,0.059806366,1
1.087896347,-4.639238358,1,-1.447644711,1,-8.498118401,1,0.1734853833913803,1,0.057388991,1,-0.043979093,1,0.1662912368774414,1,-0.502571344,1,0.059637923,1
1.091897845,-4.592819214,1,-1.585874557,1,-8.513523102,1,0.1603603810071945,1,0.048299581,1,-0.034690693,1,0.1670317500829697,1,-0.502328634,1,0.059501272,1
1.095895529,-4.615786552,1,-1.809150934,1,-8.558137894,1,0.1501836627721786,1,0.049180172,1,-0.031283081,1,0.1676991432905197,1,-0.5021137,1,0.059388958,1
1.099894762,-4.634492397,1,-1.953873038,1,-8.569049835,1,0.1254316121339798,1,0.048588082,1,-0.029248461,1,0.1682855039834976,1,-0.501913309,1,0.059295982,1
1.103896022,-4.711590767,1,-1.958292365,1,-8.589878082,1,0.1082988381385803,1,0.038627289,1,-0.014436665,1,0.1687903106212616,1,-0.501741529,1,0.05922826,1
1.107893467,-4.727181435,1,-1.852464557,1,-8.572809219,1,0.088420704,1,0.034782469,1,-0.013272281,1,0.1692061275243759,1,-0.501585484,1,0.059192676,1
1.111892939,-4.716936588,1,-1.781306267,1,-8.596436501,1,0.074495286,1,0.031167554,1,-0.007383998,1,0.1695460230112076,1,-0.501451552,1,0.059171077,1
1.115894556,-4.749457836,1,-1.808372736,1,-8.628238678,1,0.059339743,1,0.020423684,1,0.00013263,1,0.1698164492845535,1,-0.501343906,1,0.059172455,1
1.11989224,-4.776955605,1,-1.810854435,1,-8.608906746,1,0.043217652,1,0.014194541,1,0.000295122,1,0.1700301617383957,1,-0.501265645,1,0.059178576,1
1.123891473,-4.706959248,1,-1.79038465,1,-8.583259583,1,0.032889705,1,0.012395122,1,0.008893535,1,0.1701710969209671,1,-0.501206934,1,0.059203506,1
1.127892971,-4.740437984,1,-1.79475522,1,-8.564626694,1,0.016790783,1,0.01096315,1,0.006474146,1,0.1702542901039124,1,-0.501160383,1,0.059240706,1
1.131890416,-4.711864471,1,-1.737260222,1,-8.580626488,1,0.006035381,1,0.004038881,1,0.015298977,1,0.1702791154384613,1,-0.501156926,1,0.059297901,1
1.135889649,-4.745796204,1,-1.633219004,1,-8.536445618,1,-0.001694792,1,-0.002243629,1,0.012408502,1,0.1702617704868317,1,-0.501165092,1,0.059347972,1
1.139891148,-4.742364407,1,-1.572672725,1,-8.574115753,1,-0.011637902,1,-0.000108019,1,0.014983045,1,0.1702054888010025,1,-0.501174212,1,0.05941483,1
1.143888593,-4.725878239,1,-1.580771327,1,-8.570305824,1,-0.013875117,1,-0.009809311,1,0.011865398,1,0.170129195,1,-0.501201689,1,0.059463985,1
1.147887826,-4.710865974,1,-1.552040815,1,-8.554843903,1,-0.016822642,1,-0.007600377,1,0.015241887,1,0.1700469106435776,1,-0.50124526,1,0.059506152,1
1.151889443,-4.707450867,1,-1.559698939,1,-8.554232597,1,-0.021848515,1,-0.013483788,1,0.0071965,1,0.1699464321136475,1,-0.501296103,1,0.059544075,1
1.155886889,-4.707792759,1,-1.480425954,1,-8.508711815,1,-0.022327716,1,-0.014297141,1,0.011491483,1,0.1698439121246338,1,-0.501352251,1,0.059577681,1
1.15988636,-4.779146194,1,-1.360433102,1,-8.498384476,1,-0.024813097,1,-0.015094562,1,0.005953948,1,0.169736385,1,-0.501415372,1,0.059592582,1
1.16388762,-4.757803917,1,-1.261756301,1,-8.530162811,1,-0.023413669,1,-0.015870217,1,-0.001010266,1,0.1696440428495407,1,-0.501481235,1,0.059596285,1
1.167885065,-4.773089886,1,-1.192759991,1,-8.523357391,1,-0.016633876,1,-0.019235887,1,-0.009836214,1,0.1695834100246429,1,-0.501551628,1,0.059556201,1
1.171884298,-4.820559025,1,-1.1275177,1,-8.548223495,1,-0.014454667,1,-0.021813201,1,-0.01774206,1,0.1695588976144791,1,-0.501622021,1,0.059481137,1
1.175891995,-4.819012642,1,-1.138708711,1,-8.526520729,1,-0.004173318,1,-0.022516668,1,-0.024407677,1,0.1695751696825027,1,-0.50168246,1,0.059376281,1
1.17989552,-4.851356983,1,-1.270274282,1,-8.481787682,1,0.002596734,1,-0.022000749,1,-0.027795004,1,0.1696378141641617,1,-0.501750827,1,0.059236474,1
1.18389535,-4.864209175,1,-1.295881033,1,-8.471438408,1,0.001004129,1,-0.022342188,1,-0.039667852,1,0.1697318106889725,1,-0.501811862,1,0.059064209,1
1.187896609,-4.910076618,1,-1.332006931,1,-8.437045097,1,0.006072391,1,-0.013909761,1,-0.048923239,1,0.1698492914438248,1,-0.501852095,1,0.058852002,1
1.191894054,-4.941939354,1,-1.348945618,1,-8.429327011,1,0.006607642,1,-0.014929334,1,-0.051390588,1,0.1699828058481216,1,-0.501879275,1,0.058626957,1
1.195893526,-4.950771332,1,-1.343622923,1,-8.416536331,1,0.005004498,1,-0.009342284,1,-0.057986513,1,0.1701266467571259,1,-0.501884937,1,0.058375824,1
1.199894786,-4.903154373,1,-1.401060462,1,-8.425847054,1,0.003798401,1,-0.006023634,1,-0.055548877,1,0.1702612638473511,1,-0.501871347,1,0.058116075,1
1.203892231,-4.944391727,1,-1.45060873,1,-8.424478531,1,0.000586124,1,0.003096353,1,-0.06336648,1,0.1703995019197464,1,-0.501836479,1,0.057849027,1
1.207891464,-4.967099667,1,-1.590154409,1,-8.396361351,1,-0.007274012,1,0.006874857,1,-0.060506187,1,0.1705183088779449,1,-0.501768172,1,0.057570253,1
1.211893201,-5.01962328,1,-1.662704706,1,-8.371520042,1,-0.015503203,1,0.021053676,1,-0.061451666,1,0.1706065982580185,1,-0.50166297,1,0.057305437,1
1.215891242,-5.023084164,1,-1.770232677,1,-8.339138031,1,-0.023929238,1,0.034488253,1,-0.061339296,1,0.1706530600786209,1,-0.501514375,1,0.057048865,1
1.219890714,-4.967033863,1,-1.784626484,1,-8.32515049,1,-0.032429595,1,0.042127334,1,-0.059163012,1,0.1706514805555344,1,-0.50132668,1,0.056817606,1
1.223892212,-4.929862976,1,-1.718547106,1,-8.26388073,1,-0.044831671,1,0.053664319,1,-0.053002484,1,0.1705879867076874,1,-0.501109123,1,0.056607757,1
1.227889895,-4.795065403,1,-1.669057012,1,-8.277636528,1,-0.050240651,1,0.057754397,1,-0.0452521,1,0.1704836487770081,1,-0.500852168,1,0.056432169,1
1.231889129,-4.694115162,1,-1.721496701,1,-8.330666542,1,-0.056274462,1,0.064483315,1,-0.038416617,1,0.1703360080718994,1,-0.500578582,1,0.056297023,1
1.235890746,-4.68119812,1,-1.721860886,1,-8.384237289,1,-0.068263456,1,0.062784135,1,-0.026208768,1,0.1701336652040482,1,-0.500299394,1,0.056197122,1
1.239888072,-4.644093037,1,-1.747768283,1,-8.386478424,1,-0.07204508,1,0.067191131,1,-0.025058975,1,0.1698901951313019,1,-0.500014842,1,0.056128718,1
1.243887305,-4.569635391,1,-1.646772623,1,-8.340202332,1,-0.073646992,1,0.061947726,1,-0.016410071,1,0.1696216613054276,1,-0.499743283,1,0.056086745,1
1.247888684,-4.371986389,1,-1.510500193,1,-8.406160355,1,-0.070636779,1,0.055250943,1,-0.00527154,1,0.1693285256624222,1,-0.499501318,1,0.056079317,1
1.251885772,-4.279763222,1,-1.583833694,1,-8.600543976,1,-0.074030243,1,0.047025576,1,0.001175695,1,0.1690266132354736,1,-0.499292582,1,0.0561096,1
1.255885363,-4.295622349,1,-1.654345751,1,-8.669593811,1,-0.07930807,1,0.038666986,1,0.012206525,1,0.1686851531267166,1,-0.499128193,1,0.056191232,1
1.259886622,-4.421479702,1,-1.714708328,1,-8.624972343,1,-0.082824945,1,0.024258329,1,0.018408233,1,0.1683192700147629,1,-0.499016017,1,0.056288507,1
1.263883829,-4.685311317,1,-1.642414808,1,-8.533638954,1,-0.091274209,1,0.020739801,1,0.023430275,1,0.1679162532091141,1,-0.498938024,1,0.056396276,1
1.267883301,-4.844582558,1,-1.458044052,1,-8.499223709,1,-0.086000986,1,0.0183059,1,0.028709041,1,0.1674939393997192,1,-0.498883337,1,0.05652684,1
1.271884799,-4.776888371,1,-1.420837402,1,-8.534715652,1,-0.091504447,1,0.009965108,1,0.028339876,1,0.1670789867639542,1,-0.498841703,1,0.056657057,1
1.275882483,-4.697515965,1,-1.304635882,1,-8.596387863,1,-0.081606925,1,0.003956554,1,0.022388168,1,0.1666872650384903,1,-0.498813838,1,0.056777537,1
1.279881954,-4.596149445,1,-1.265736341,1,-8.691596985,1,-0.077978402,1,0.004364182,1,0.026285665,1,0.1663420498371124,1,-0.498829782,1,0.056605697,1
1.283883214,-4.622292042,1,-1.237521887,1,-8.658993721,1,-0.072774731,1,-0.008672256,1,0.015031358,1,0.1660032719373703,1,-0.498852581,1,0.056690615,1
1.287881017,-4.654283047,1,-1.296448112,1,-8.660966873,1,-0.07072974,1,-0.013642709,1,0.016620934,1,0.1656889617443085,1,-0.49890697,1,0.056756873,1
1.29188025,-4.671768665,1,-1.27520442,1,-8.616003036,1,-0.064511731,1,-0.02369385,1,0.015726997,1,0.1654015481472015,1,-0.498990268,1,0.056805648,1
1.295887351,-4.717570782,1,-1.246920705,1,-8.584680557,1,-0.056859341,1,-0.024601728,1,0.008030487,1,0.1651421785354614,1,-0.499088168,1,0.056834068,1
1.299890995,-4.742223263,1,-1.194704771,1,-8.578296661,1,-0.056551889,1,-0.035133056,1,0.007377775,1,0.1649050116539001,1,-0.499201208,1,0.056850482,1
1.303890467,-4.708341599,1,-1.133569598,1,-8.599637032,1,-0.053920567,1,-0.038842082,1,0.008291526,1,0.1646900475025177,1,-0.499345094,1,0.056855042,1
1.307891726,-4.748085976,1,-1.09771502,1,-8.597378731,1,-0.04419357,1,-0.039085466,1,0.000762315,1,0.1645145267248154,1,-0.499494225,1,0.056841623,1
1.311889172,-4.720469475,1,-1.081785798,1,-8.59187603,1,-0.032822173,1,-0.044512648,1,-0.000522883,1,0.1643744707107544,1,-0.499663711,1,0.056811124,1
1.315888405,-4.770251751,1,-1.074629426,1,-8.615680695,1,-0.028014323,1,-0.050981462,1,-0.006629512,1,0.1642698496580124,1,-0.499849558,1,0.056771182,1
1.319890141,-4.762217522,1,-1.125843048,1,-8.620073318,1,-0.018862881,1,-0.059544217,1,-0.008277957,1,0.1642149984836578,1,-0.500056863,1,0.056697745,1
1.323888183,-4.783871651,1,-1.153689384,1,-8.615695953,1,-0.008090165,1,-0.058545873,1,-0.011402934,1,0.164200634,1,-0.5002864,1,0.05661102,1
1.327887654,-4.791399002,1,-1.21887517,1,-8.685202599,1,-0.008119384,1,-0.072621383,1,-0.015631117,1,0.164216474,1,-0.500534952,1,0.056506839,1
1.331889153,-4.677588463,1,-1.304558039,1,-8.748501778,1,0.005283479,1,-0.082201518,1,-0.010596802,1,0.1642728000879288,1,-0.50082624,1,0.056394946,1
1.335886836,-4.707715511,1,-1.483834624,1,-8.839481354,1,0.016356893,1,-0.091160893,1,-0.002328463,1,0.1643564254045486,1,-0.501164854,1,0.05630473,1
1.339886069,-4.594304085,1,-1.662888765,1,-8.916178703,1,0.021343099,1,-0.105013914,1,0.007501549,1,0.1644431203603745,1,-0.501552463,1,0.056241881,1
1.343887329,-4.521657944,1,-1.990103483,1,-8.987607002,1,0.025891043,1,-0.130353868,1,0.02536069,1,0.1645486652851105,1,-0.502025783,1,0.056238856,1
1.347884536,-4.498091698,1,-2.160706758,1,-9.132744789,1,0.044150926,1,-0.158566445,1,0.062010985,1,0.1646302938461304,1,-0.502619863,1,0.056324877,1
1.351883769,-4.156347275,1,-2.524111032,1,-9.580690384,1,0.073580071,1,-0.219478384,1,0.1169788986444473,1,0.1647467762231827,1,-0.503418744,1,0.056581602,1
1.355885625,-3.937101841,1,-2.820108652,1,-9.609042168,1,0.096735656,1,-0.303648025,1,0.1830404847860336,1,0.1648682653903961,1,-0.504538059,1,0.057069592,1
1.359883308,-3.879902601,1,-3.109148264,1,-9.662760735,1,0.069890872,1,-0.404322177,1,0.2357597053050995,1,0.1648546010255814,1,-0.50605315,1,0.057749577,1
1.36388278,-5.081553936,1,-2.840455055,1,-8.868185043,1,0.069633,1,-0.443921506,1,0.2600624263286591,1,0.1647315919399261,1,-0.507941186,1,0.058552667,1
1.36788404,-5.553688526,1,-1.411661029,1,-9.407491684,1,0.1116219758987427,1,-0.427039951,1,0.2188021093606949,1,0.1647118031978607,1,-0.509810507,1,0.059334386,1
1.371881485,-5.313219547,1,-1.057715654,1,-9.308213234,1,0.1607644408941269,1,-0.418888241,1,0.1364979296922684,1,0.1650372892618179,1,-0.511601508,1,0.059815068,1
1.375880718,-4.717155933,1,-1.147128344,1,-9.932496071,1,0.2436070740222931,1,-0.431582928,1,0.099160485,1,0.1657387018203735,1,-0.513329089,1,0.060005806,1
1.379881978,-3.911813974,1,-1.941684365,1,-10.24428177,1,0.3146522045135498,1,-0.482885092,1,0.1037420928478241,1,0.1668159365653992,1,-0.515199184,1,0.060115732,1
1.383879423,-3.65121603,1,-3.105819464,1,-10.12238693,1,0.2948481440544128,1,-0.547181547,1,0.106323317,1,0.1680236011743546,1,-0.517303526,1,0.060212079,1
1.387878895,-3.782241344,1,-3.563717127,1,-10.62070084,1,0.268281877,1,-0.611942172,1,0.1148217990994453,1,0.1691056042909622,1,-0.519655287,1,0.060273346,1
1.391880155,-3.492604256,1,-3.525003195,1,-11.05149364,1,0.2332135885953903,1,-0.690368652,1,0.083736338,1,0.1701405495405197,1,-0.522278428,1,0.060229838,1
1.395877838,-3.601731539,1,-3.836435318,1,-11.22219658,1,0.1874554753303528,1,-0.760479629,1,0.064404935,1,0.1711071580648422,1,-0.525184155,1,0.059987258,1
1.399877071,-3.302798033,1,-4.184874535,1,-11.97524261,1,0.1148429438471794,1,-0.847618103,1,0.062525027,1,0.1718840450048447,1,-0.528385937,1,0.059644908,1
1.40387845,-3.401203871,1,-4.318402767,1,-12.35823154,1,0.05352021,1,-0.932342708,1,0.053009536,1,0.1724546253681183,1,-0.531930506,1,0.059198283,1
1.407875896,-3.906347513,1,-4.460429668,1,-12.27181435,1,-0.02358214,1,-1.020043373,1,0.062863417,1,0.1727875769138336,1,-0.535834491,1,0.058686063,1
1.411875129,-4.166501999,1,-5.823657036,1,-12.42906284,1,-0.20118472,1,-1.105934739,1,0.1212187856435776,1,0.1726015955209732,1,-0.540064692,1,0.058237348,1
1.415882707,-5.814783096,1,-6.317062378,1,-11.82883358,1,-0.432117462,1,-1.211167336,1,0.1982930600643158,1,0.171396479,1,-0.544746876,1,0.058079798,1
1.419886351,-10.20357609,1,-5.289894104,1,-14.68516922,1,-0.478899807,1,-1.366586328,1,0.308602512,1,0.1695070117712021,1,-0.549961507,1,0.05815053,1
1.423885822,-12.14036846,1,-9.126802444,1,-15.29321194,1,-0.838441849,1,-1.240981102,1,0.5019350051879883,1,0.1665765792131424,1,-0.555512488,1,0.059072383,1
1.427887559,-6.370410919,1,-8.477002144,1,-11.45622253,1,-1.353560209,1,-1.104737401,1,0.447345495,1,0.1614521443843842,1,-0.560378075,1,0.06039162,1
1.4318856,-8.026226997,1,-7.136995316,1,-11.57565975,1,-1.658422232,1,-1.126411676,1,0.4059288501739502,1,0.1547537595033646,1,-0.565023124,1,0.061549153,1
1.435884833,-9.875088692,1,-4.746142864,1,-13.34355259,1,-1.752239823,1,-1.220629692,1,0.3797081112861633,1,0.1473372578620911,1,-0.569917381,1,0.062567607,1
1.439886093,-13.35255623,1,-2.809126616,1,-15.89022827,1,-1.607964396,1,-1.112157822,1,0.2928065955638885,1,0.1401323527097702,1,-0.574782073,1,0.063356563,1
1.443883538,-11.40673828,1,-3.231107235,1,-16.53491783,1,-1.39254427,1,-0.890384853,1,0.2241375893354416,1,0.1338671892881393,1,-0.578890562,1,0.063911758,1
1.44788301,-9.463809013,1,-3.132914305,1,-16.88276863,1,-1.283478022,1,-0.677823603,1,0.1811656504869461,1,0.1282304674386978,1,-0.582084179,1,0.064406149,1
1.45188427,-7.456766129,1,-3.662124872,1,-16.64909363,1,-1.165785432,1,-0.571160913,1,0.1537033021450043,1,0.1231351420283318,1,-0.584623456,1,0.064794824,1
1.455881715,-5.118596554,1,-3.868952513,1,-16.21018028,1,-1.10278821,1,-0.525347531,1,0.1450684517621994,1,0.1183239221572876,1,-0.586820364,1,0.065201961,1
1.459881186,-3.484197378,1,-4.824100971,1,-14.49962425,1,-1.046749711,1,-0.665866911,1,0.2442549914121628,1,0.1137509420514107,1,-0.589290142,1,0.065744974,1
1.463882446,-2.602722406,1,-5.463672161,1,-14.46626472,1,-1.090277076,1,-0.788993657,1,0.3499287664890289,1,0.1089096143841743,1,-0.592291772,1,0.066793643,1
1.467879891,-2.505829573,1,-5.902969837,1,-14.20522499,1,-1.195492268,1,-0.913554788,1,0.4516855180263519,1,0.1035047098994255,1,-0.595854461,1,0.068289667,1
1.471879482,-2.189813375,1,-5.606715202,1,-14.24691772,1,-1.270362139,1,-1.018687725,1,0.5487750172615051,1,0.09747576,1,-0.599894941,1,0.070232727,1
1.475880742,-2.281409979,1,-5.103944778,1,-14.68716145,1,-1.300402522,1,-1.132303596,1,0.6507311463356018,1,0.090966307,1,-0.604405522,1,0.072628722,1
1.479878187,-2.480944157,1,-5.954526424,1,-14.83361912,1,-1.35182178,1,-1.209716558,1,0.7300750017166138,1,0.084054261,1,-0.609325886,1,0.075491741,1
1.48387742,-1.49755311,1,-5.956081867,1,-14.63935757,1,-1.400550365,1,-1.204955816,1,0.7734663486480713,1,0.07669241,1,-0.614389062,1,0.078685112,1
1.48787868,-0.959045887,1,-5.446831226,1,-15.23545742,1,-1.400615692,1,-1.232494354,1,0.7971714735031128,1,0.069110066,1,-0.619484782,1,0.08209721,1
1.491876125,-1.069571614,1,-5.638012409,1,-15.74089718,1,-1.381770492,1,-1.240216255,1,0.8155456781387329,1,0.06145722,1,-0.624638796,1,0.085658588,1
1.495875835,-0.803083062,1,-5.747798443,1,-15.77804375,1,-1.369622707,1,-1.210987568,1,0.8191950917243958,1,0.053791557,1,-0.629735649,1,0.089351356,1
1.499877691,0.2633990943431854,1,-5.66988802,1,-15.34402275,1,-1.352131367,1,-1.155319571,1,0.8046765923500061,1,0.046151165,1,-0.634626865,1,0.093075097,1
1.503875613,1.310953140258789,1,-5.515818119,1,-15.17137432,1,-1.287531257,1,-1.115919113,1,0.780453086,1,0.038663067,1,-0.639286816,1,0.096780755,1
1.507874846,1.948238968849182,1,-5.702070713,1,-15.1041193,1,-1.225939155,1,-1.083188772,1,0.7376270294189453,1,0.031479582,1,-0.643782735,1,0.1003808751702309,1
1.511876345,2.822050571,1,-5.681964397,1,-14.8367815,1,-1.171754599,1,-1.045351982,1,0.692949653,1,0.024617244,1,-0.648118317,1,0.1038183569908142,1
1.51587379,3.806429386138916,1,-5.520252705,1,-14.49285126,1,-1.106734037,1,-1.016871691,1,0.6361568570137024,1,0.018111203,1,-0.652295768,1,0.1070427000522614,1
1.519873023,4.361804962158203,1,-5.392179489,1,-14.2519083,1,-1.006470323,1,-1.001202464,1,0.5602818131446838,1,0.012093001,1,-0.656365514,1,0.1099807173013687,1
1.523874521,4.745081424713135,1,-5.644100189,1,-14.0993576,1,-0.915612161,1,-0.967912972,1,0.4802873432636261,1,0.006665152,1,-0.660322845,1,0.1125656887888908,1
1.527871966,5.030400276184082,1,-5.841148376,1,-13.80537128,1,-0.828358829,1,-0.908777237,1,0.3829058408737183,1,0.001844992,1,-0.66408062,1,0.114725761,1
1.5318712,5.213382244110107,1,-5.870402813,1,-13.64736652,1,-0.74468267,1,-0.836104989,1,0.2739895880222321,1,-0.002320411,1,-0.667549908,1,0.1162612736225128,1
1.535878658,5.624218940734863,1,-5.870098591,1,-13.59614849,1,-0.658486009,1,-0.753973961,1,0.1536431610584259,1,-0.005811298,1,-0.670728862,1,0.1173795908689499,1
1.539881945,5.643115520477295,1,-5.922025681,1,-13.3356657,1,-0.59279424,1,-0.65607506,1,0.032961786,1,-0.008633884,1,-0.673551261,1,0.1178715825080872,1
1.543881416,6.068351745605469,1,-5.876858234,1,-13.28722286,1,-0.515098989,1,-0.546112418,1,-0.088852763,1,-0.010777819,1,-0.675950646,1,0.117752768,1
1.547882795,6.368803977966309,1,-5.768456459,1,-13.10630417,1,-0.451012641,1,-0.449565113,1,-0.20861876,1,-0.012249597,1,-0.677957416,1,0.1170184314250946,1
1.551879883,6.443411350250244,1,-5.670403481,1,-13.0854063,1,-0.370433003,1,-0.340011537,1,-0.322374374,1,-0.013055453,1,-0.679550052,1,0.1156800985336304,1
1.555879712,6.526504993438721,1,-5.391869068,1,-13.01086521,1,-0.289458245,1,-0.226159945,1,-0.420574307,1,-0.013188156,1,-0.680704415,1,0.1137838885188103,1
1.559880972,6.545694828033447,1,-5.098897457,1,-12.99470901,1,-0.199555397,1,-0.11020954,1,-0.519080162,1,-0.012652908,1,-0.681407332,1,0.1113765686750412,1
1.563878417,6.519542694091797,1,-4.853823662,1,-12.91925812,1,-0.107554317,1,0.013969575,1,-0.606230617,1,-0.011440722,1,-0.681625843,1,0.1084801629185677,1
1.567877889,6.512569904327393,1,-4.620551109,1,-12.82688713,1,-0.016938848,1,0.1522197127342224,1,-0.689690292,1,-0.00957618,1,-0.68132925,1,0.1051268354058266,1
1.571879148,6.611316680908203,1,-4.498222351,1,-12.70245075,1,0.069816835,1,0.2880865633487701,1,-0.771029472,1,-0.007109737,1,-0.680478871,1,0.1013617292046547,1
1.575876832,6.698484420776367,1,-4.456888676,1,-12.49266243,1,0.1408791840076447,1,0.4144049286842346,1,-0.834466815,1,-0.004078743,1,-0.67909807,1,0.097228199,1
1.579876065,6.754719257354736,1,-4.374545097,1,-12.32736397,1,0.199926347,1,0.5379183292388916,1,-0.89448607,1,-0.00060702,1,-0.677200437,1,0.092778936,1
1.583877325,6.859822273254395,1,-4.18372488,1,-12.10422707,1,0.2523688971996307,1,0.6497641801834106,1,-0.948938787,1,0.00324704,1,-0.674817979,1,0.088058963,1
1.58787477,7.051543235778809,1,-3.954563141,1,-11.84928036,1,0.294628233,1,0.7554570436477661,1,-0.991408765,1,0.007427557,1,-0.671978235,1,0.083104283,1
1.591874003,7.148711681365967,1,-3.681287527,1,-11.60104275,1,0.3382711708545685,1,0.8514420390129089,1,-1.03059566,1,0.01187005,1,-0.668731689,1,0.07797347,1
1.595875382,7.126542568206787,1,-3.424604654,1,-11.4348793,1,0.3789567351341248,1,0.9409189820289612,1,-1.074033499,1,0.016584709,1,-0.665082991,1,0.072682187,1
1.599872828,7.173129081726074,1,-3.199292183,1,-11.19244194,1,0.4216295480728149,1,1.033124208450317,1,-1.097883821,1,0.021526383,1,-0.661055684,1,0.067268521,1
1.603871942,7.107397079467773,1,-3.095197439,1,-11.01583767,1,0.4630186855792999,1,1.124113440513611,1,-1.131328464,1,0.026665915,1,-0.656644464,1,0.061753895,1
1.607873797,7.062208652496338,1,-2.873619318,1,-10.84757042,1,0.4972324371337891,1,1.214141488075256,1,-1.155270219,1,0.032002997,1,-0.65184027,1,0.056154329,1
1.611871719,6.983554840087891,1,-2.724354029,1,-10.67774773,1,0.5320115685462952,1,1.301988959312439,1,-1.184592605,1,0.037475105,1,-0.646649957,1,0.050498992,1
1.615870953,6.868013381958008,1,-2.506841183,1,-10.56946087,1,0.5607036948204041,1,1.402837514877319,1,-1.211113095,1,0.043093387,1,-0.641049743,1,0.044778857,1
1.61987257,6.706879138946533,1,-2.328153372,1,-10.42095184,1,0.5939357876777649,1,1.499392151832581,1,-1.244036436,1,0.048835382,1,-0.635034442,1,0.03900975,1
1.623869896,6.539275646209717,1,-2.095838785,1,-10.25514126,1,0.6241664886474609,1,1.608543753623962,1,-1.270246744,1,0.054706603,1,-0.628561676,1,0.033185784,1
1.627869487,6.527051926,1,-1.945763946,1,-10.062253,1,0.6564062237739563,1,1.710594296455383,1,-1.295859098,1,0.060685173,1,-0.621638298,1,0.027338913,1
1.631870747,6.494193077087402,1,-1.894189596,1,-9.873601913,1,0.6836117506027222,1,1.812327265739441,1,-1.311645508,1,0.066747651,1,-0.614275515,1,0.021506382,1
1.635868192,6.501342773,1,-1.851811647,1,-9.707390785,1,0.7045651078224182,1,1.905529499053955,1,-1.32443428,1,0.072845496,1,-0.606489658,1,0.015717398,1
1.639867663,6.525038242340088,1,-1.786312819,1,-9.594571114,1,0.7267776131629944,1,1.993775606155396,1,-1.329715967,1,0.078939699,1,-0.598308563,1,0.010017764,1
1.643868923,6.445210933685303,1,-1.665699601,1,-9.54550457,1,0.7415828704833984,1,2.065315961837769,1,-1.337563157,1,0.085021347,1,-0.589781761,1,0.004404986,1
1.64786613,6.270553588867188,1,-1.491944671,1,-9.478142738,1,0.7679230570793152,1,2.147620201,1,-1.335022807,1,0.091073431,1,-0.580924094,1,-0.001080835,1
1.651865602,6.007120609283447,1,-1.322354436,1,-9.482859612,1,0.7917568683624268,1,2.231827020645142,1,-1.332051516,1,0.097109742,1,-0.571705103,1,-0.006431112,1
1.655873537,5.776302814483643,1,-1.171233416,1,-9.479016304,1,0.8277212977409363,1,2.322690010070801,1,-1.321540952,1,0.103126623,1,-0.562117398,1,-0.011608036,1
1.659877658,5.623303413391113,1,-1.044365168,1,-9.491132736,1,0.8636393547058105,1,2.423454761505127,1,-1.308140039,1,0.1091382652521133,1,-0.552118421,1,-0.016578931,1
1.663877845,5.598347663879395,1,-0.976304412,1,-9.524134636,1,0.9025769233703613,1,2.525406599,1,-1.274163842,1,0.1151192411780357,1,-0.541712999,1,-0.021294285,1
1.667879462,5.445532799,1,-1.096936584,1,-9.686145782,1,0.962427557,1,2.632967710494995,1,-1.22789526,1,0.121077798,1,-0.530882359,1,-0.025666801,1
1.671877146,4.863142967224121,1,-1.045192599,1,-9.953024864,1,1.038003325462341,1,2.765973567962646,1,-1.171756864,1,0.1270633339881897,1,-0.519582093,1,-0.029623542,1
1.675876617,4.188752174377441,1,-0.77309531,1,-10.08453465,1,1.120105504989624,1,2.927947759628296,1,-1.132700682,1,0.1331351101398468,1,-0.507697284,1,-0.033177428,1
1.679877877,3.745722055435181,1,-0.656018078,1,-10.28758144,1,1.196501135826111,1,3.112618684768677,1,-1.097003937,1,0.1392818242311478,1,-0.495128661,1,-0.036328744,1
1.683875561,3.578263759613037,1,-0.687373519,1,-10.24802971,1,1.263482332229614,1,3.307332038879395,1,-1.066742897,1,0.1455165892839432,1,-0.481811404,1,-0.03911588,1
1.687874794,3.684497117996216,1,-0.609710395,1,-10.26123905,1,1.323998451,1,3.486863613128662,1,-1.045112729,1,0.1518067866563797,1,-0.467752308,1,-0.041541521,1
1.691876054,3.750906229019165,1,-0.565167844,1,-10.15014935,1,1.372817635536194,1,3.659843206,1,-1.025058985,1,0.1581399291753769,1,-0.452985853,1,-0.043653052,1
1.695873499,3.870559215545654,1,-0.461265415,1,-10.0245285,1,1.417886615,1,3.803054332733154,1,-1.011980176,1,0.1644954681396484,1,-0.43758741,1,-0.045449927,1
1.699872971,4.017307758331299,1,-0.401584089,1,-9.898351669,1,1.458196520805359,1,3.931960582733154,1,-0.988355517,1,0.1708748489618301,1,-0.421655953,1,-0.046947025,1
1.703874588,3.948402881622314,1,-0.282817155,1,-9.749873161,1,1.498215556144714,1,4.026597499847412,1,-0.962212205,1,0.1772774159908295,1,-0.405302107,1,-0.048139371,1
1.707872033,3.650837659835815,1,-0.100951448,1,-9.65235424,1,1.541115880012512,1,4.097843647003174,1,-0.945610881,1,0.1837139576673508,1,-0.388633728,1,-0.04905203,1
1.711871266,3.376443386077881,1,-0.06743855,1,-9.555558205,1,1.577089905738831,1,4.157045364379883,1,-0.928413093,1,0.1901911497116089,1,-0.37171641,1,-0.049710497,1
1.715872765,3.01563549,1,-0.049008049,1,-9.480762482,1,1.604110240936279,1,4.190892219543457,1,-0.912211537,1,0.19670324,1,-0.354618013,1,-0.050134122,1
1.71987021,2.613764047622681,1,-0.138744712,1,-9.333655357,1,1.624862909317017,1,4.208717823028564,1,-0.901381195,1,0.2032420039176941,1,-0.337435365,1,-0.05035916,1
1.723869681,2.223644733428955,1,-0.217719808,1,-9.167399406,1,1.629977583885193,1,4.211139202,1,-0.894092858,1,0.2097755372524261,1,-0.320212394,1,-0.050419405,1
1.727870941,1.928941488265991,1,-0.391417146,1,-9.037779808,1,1.619282722473145,1,4.181899070739746,1,-0.879575789,1,0.2162616699934006,1,-0.303056359,1,-0.050343733,1
1.731868386,1.504764318466187,1,-0.578293204,1,-8.940225601,1,1.598146796226501,1,4.133412361,1,-0.862533927,1,0.222642794,1,-0.286052227,1,-0.050124057,1
1.735867858,1.025065064430237,1,-1.005339861,1,-8.96672821,1,1.572334885597229,1,4.064449310302734,1,-0.824946702,1,0.228871763,1,-0.269314855,1,-0.04973105,1
1.739869237,0.3628096878528595,1,-1.371223092,1,-9.233386993,1,1.555977463722229,1,3.984621286392212,1,-0.770618021,1,0.2349614202976227,1,-0.252911448,1,-0.049112298,1
1.743866682,-0.555105627,1,-1.627698541,1,-9.625395775,1,1.535461783409119,1,3.907548666000366,1,-0.711690307,1,0.2409328818321228,1,-0.23687309,1,-0.048236996,1
1.747866154,-1.869557977,1,-1.669760585,1,-9.987336159,1,1.515343785,1,3.831589221954346,1,-0.666838348,1,0.2467820048332214,1,-0.221183479,1,-0.047143303,1
1.751867414,-2.977778435,1,-1.668423414,1,-10.38126659,1,1.496380686759949,1,3.758969545,1,-0.626058519,1,0.2525360584259033,1,-0.205842048,1,-0.045862582,1
1.755864859,-3.841864824,1,-1.794159055,1,-10.70179558,1,1.490367770195007,1,3.678419351577759,1,-0.590126038,1,0.2582225501537323,1,-0.19083342,1,-0.044420529,1
1.75986433,-4.740383148,1,-1.877417922,1,-10.96982098,1,1.489844322,1,3.580877065658569,1,-0.57252723,1,0.263905793,1,-0.1762086,1,-0.042895269,1
1.76386559,-5.520699978,1,-2.19563961,1,-11.05330372,1,1.481144070625305,1,3.475534439086914,1,-0.562001467,1,0.2695858180522919,1,-0.161992759,1,-0.041330952,1
1.767863035,-6.153345585,1,-2.578546286,1,-11.25343418,1,1.454847574234009,1,3.347707271575928,1,-0.545425594,1,0.2752270698547363,1,-0.148246318,1,-0.039769124,1
1.771862268,-6.911697865,1,-3.225938797,1,-11.44163609,1,1.430857062339783,1,3.199310779571533,1,-0.5248487,1,0.2807781100273132,1,-0.135066375,1,-0.03821715,1
1.775869727,-8.003605843,1,-3.696855783,1,-11.66128349,1,1.393964648246765,1,3.029139280319214,1,-0.499974728,1,0.2862303853034973,1,-0.122524716,1,-0.036684923,1
1.77987349,-9.240082741,1,-3.838588953,1,-11.69074345,1,1.360856652259827,1,2.856322288513184,1,-0.488569915,1,0.291575164,1,-0.11063534,1,-0.035090137,1
1.783873558,-10.33912849,1,-3.551429272,1,-11.64108562,1,1.326287627220154,1,2.677407741546631,1,-0.496596634,1,0.296811044,1,-0.099475667,1,-0.033756316,1
1.787874818,-11.3494482,1,-3.331862926,1,-11.66122246,1,1.304494142532349,1,2.503007650375366,1,-0.512660086,1,0.3019657731056213,1,-0.088991448,1,-0.032628436,1
1.791872263,-12.52279663,1,-3.092358828,1,-12.02549267,1,1.319446086883545,1,2.335834503173828,1,-0.538697958,1,0.3071210086345673,1,-0.079130307,1,-0.031717893,1
1.795871496,-14.39394855,1,-2.689086914,1,-12.42702389,1,1.363797307014465,1,2.213020324707031,1,-0.592262864,1,0.3124378025531769,1,-0.069795564,1,-0.031105913,1
1.799872994,-16.41298485,1,-2.195868254,1,-12.87722778,1,1.430598497390747,1,2.162099361419678,1,-0.675201356,1,0.3180099129676819,1,-0.060699474,1,-0.030792756,1
1.80387044,-18.49825859,1,-1.61621666,1,-13.13524914,1,1.489087343215942,1,2.170075893,1,-0.79290843,1,0.3238540887832642,1,-0.051570531,1,-0.030837804,1
1.807869673,-20.30011749,1,-1.03458643,1,-13.16288757,1,1.550369739532471,1,2.241756677627563,1,-0.940807641,1,0.3299567103385925,1,-0.042114288,1,-0.031288397,1
1.811871529,-21.42913246,1,-0.428934574,1,-12.76348495,1,1.597283244132996,1,2.369852066040039,1,-1.104598999,1,0.3362898528575897,1,-0.032074004,1,-0.032147385,1
1.815869451,-21.57967186,1,-0.045987241,1,-11.98208523,1,1.605469346046448,1,2.499071121,1,-1.271051884,1,0.3427410125732422,1,-0.021317679,1,-0.033393849,1
1.819869161,-20.39517784,1,0.1007513403892517,1,-10.75718117,1,1.555132627487183,1,2.586008787155151,1,-1.412346721,1,0.3491071760654449,1,-0.009917742,1,-0.035005435,1
1.823870778,-18.6183033,1,0.1465470045804977,1,-9.283114433,1,1.451299786567688,1,2.589162349700928,1,-1.513892174,1,0.355141819,1,0.001843691,1,-0.03693461,1
1.827868104,-17.03252411,1,0.2227882146835327,1,-7.885595322,1,1.316315174102783,1,2.490238189697266,1,-1.570219994,1,0.3606669306755066,1,0.01355584,1,-0.03915064,1
1.831867695,-15.80087566,1,0.3032839298248291,1,-6.452764511,1,1.163116335868835,1,2.319621801376343,1,-1.578193903,1,0.3655832409858704,1,0.024815187,1,-0.041624784,1
1.835868955,-14.84869385,1,0.2932792901992798,1,-5.122353554,1,0.9832615852355957,1,2.063519239425659,1,-1.528746009,1,0.3698001503944397,1,0.035262186,1,-0.044281997,1
1.839866161,-14.33361816,1,0.2484080195426941,1,-4.030526161,1,0.8015699982643127,1,1.738528251647949,1,-1.4301579,1,0.3732500672340393,1,0.044516962,1,-0.047038332,1
1.843865633,-14.21777534,1,0.2016789764165878,1,-3.031859398,1,0.613731861,1,1.390755891799927,1,-1.275962234,1,0.375936747,1,0.05233543,1,-0.049788445,1
1.847867131,-14.44014549,1,0.2364658862352371,1,-2.348493814,1,0.4398814141750336,1,1.027432918548584,1,-1.101538062,1,0.3778886198997498,1,0.058586683,1,-0.052443232,1
1.851864815,-15.04557991,1,0.4531333446502686,1,-1.957148671,1,0.2873205244541168,1,0.6747005581855774,1,-0.905536175,1,0.3791942000389099,1,0.063229866,1,-0.054921143,1
1.855864048,-15.73566628,1,0.983623743,1,-1.726738453,1,0.1761743277311325,1,0.3393640518188477,1,-0.70419997,1,0.379969448,1,0.066300191,1,-0.057168853,1
1.859865308,-16.44438362,1,1.532829403877258,1,-1.440125823,1,0.098540448,1,0.022234829,1,-0.504538834,1,0.3803723454475403,1,0.067854837,1,-0.059151493,1
1.863862753,-17.02379227,1,2.034196376800537,1,-1.150561333,1,0.068998247,1,-0.272932231,1,-0.311039001,1,0.3805771470069885,1,0.067984022,1,-0.060854472,1
1.867861986,-17.56509972,1,2.255301475524902,1,-0.775815308,1,0.060129195,1,-0.562955499,1,-0.125054598,1,0.380732536,1,0.066757977,1,-0.062279224,1
1.871863246,-18.16351509,1,2.163435697555542,1,-0.40559411,1,0.068916902,1,-0.831081331,1,0.03764689,1,0.3809149265289307,1,0.064234279,1,-0.063477971,1
1.875860691,-18.87197304,1,1.831783652305603,1,-0.164017245,1,0.053270232,1,-1.114546537,1,0.180985764,1,0.3810899257659912,1,0.060453586,1,-0.06450998,1
1.879859924,-19.72719574,1,1.229496836662292,1,0.2360756695270538,1,-0.006138761,1,-1.388372183,1,0.3080471456050873,1,0.3811345100402832,1,0.055427518,1,-0.065455861,1
1.883861542,-20.48164177,1,0.8972220420837402,1,0.7248348593711853,1,-0.092622146,1,-1.64283669,1,0.4051707684993744,1,0.3808944523334503,1,0.049271636,1,-0.066391475,1
1.887858987,-21.09193611,1,0.4622045457363129,1,1.180201530456543,1,-0.212661088,1,-1.888086319,1,0.4882687330245972,1,0.3802368640899658,1,0.04204455,1,-0.067356236,1
1.89185822,-21.59194565,1,0.170492023,1,1.434552788734436,1,-0.345678031,1,-2.123311758,1,0.5489503741264343,1,0.3790813684463501,1,0.033818185,1,-0.068396889,1
1.895865798,-22.38633537,1,0.2241511344909668,1,1.757138252258301,1,-0.475582749,1,-2.356652021,1,0.5913193225860596,1,0.3773995637893677,1,0.024652218,1,-0.069589309,1
1.899869442,-23.17617035,1,0.4622014760971069,1,2.032686710357666,1,-0.5795874,1,-2.582125902,1,0.6087579727172852,1,0.3752546608448029,1,0.01457255,1,-0.070982032,1
1.903868914,-23.95280647,1,0.8088119029998779,1,2.296506643295288,1,-0.660127103,1,-2.787288189,1,0.6095767021179199,1,0.3727436065673828,1,0.003683307,1,-0.072625697,1
1.907870412,-17.18367767,1,-3.339389324,1,-4.735798359,1,-0.972308695,1,-3.062163353,1,0.6524876952171326,1,0.3697293400764465,1,-0.008044023,1,-0.074549042,1
1.911868215,6.584012031555176,1,-1.794507146,1,-4.996764183,1,-1.707183003,1,-4.111236095,1,0.6036646962165833,1,0.3636820316314697,1,-0.02221364,1,-0.077143215,1
1.915867686,-12.60595417,1,-2.050839424,1,-2.079414129,1,-1.534868717,1,-4.715137482,1,0.8306525349617004,1,0.3578664064407349,1,-0.040099591,1,-0.08081995,1
1.919869184,1.142419219017029,1,-4.340354443,1,-11.16884232,1,-1.641457319,1,-4.535419464,1,0.5350164771080017,1,0.3513737320899963,1,-0.058400489,1,-0.084622666,1
1.92386663,2.255330085754395,1,-8.18550396,1,-18.86076736,1,-1.578091145,1,-4.606289864,1,0.4297311902046204,1,0.3455078303813934,1,-0.076060422,1,-0.089110419,1
1.927866101,-3.036203623,1,-11.22085381,1,-18.21674728,1,-2.060351372,1,-4.652819633,1,0.4177806973457336,1,0.338543177,1,-0.094247833,1,-0.093800731,1
1.931867361,4.638157367706299,1,-8.221112251,1,-23.13418198,1,-1.802466631,1,-4.402705193,1,0.5275760889053345,1,0.3310117125511169,1,-0.111906208,1,-0.098019637,1
1.935864568,-1.731629014,1,-9.434126854,1,-25.66129875,1,-2.03294754,1,-4.511646748,1,0.5206719636917114,1,0.324121356,1,-0.129447609,1,-0.101666763,1
1.939864278,-7.823823452,1,-9.987070084,1,-18.5324707,1,-2.346641064,1,-4.443451405,1,0.5417402982711792,1,0.3157270848751068,1,-0.147149891,1,-0.10543032,1
1.943865657,-7.849991798,1,-5.455181122,1,-16.64092064,1,-2.487779379,1,-4.580710411,1,0.6941167712211609,1,0.3065896034240723,1,-0.164985821,1,-0.108588718,1
1.94786334,-10.67365074,1,1.623975754,1,-16.30034447,1,-2.364327669,1,-4.814000607,1,0.8774397969245911,1,0.2971075475215912,1,-0.183925167,1,-0.11127492,1
1.951862574,-15.66435146,1,6.617975234985352,1,-16.89161301,1,-1.884318352,1,-4.810663223,1,0.9780763983726501,1,0.2889820635318756,1,-0.203510955,1,-0.113255836,1
1.955863833,-21.8501606,1,7.583835124969482,1,-16.46851921,1,-1.597376585,1,-4.589256287,1,0.9092380404472351,1,0.2824263572692871,1,-0.222671375,1,-0.115004852,1
1.959861279,-21.08556747,1,8.493764877319336,1,-17.48177338,1,-1.363579631,1,-4.204661846,1,0.9186697006225586,1,0.2768621444702148,1,-0.240559757,1,-0.116374575,1
1.963860512,-22.53646851,1,8.481953620910645,1,-17.68877792,1,-1.09721911,1,-3.870940208,1,0.9976320266723633,1,0.2720840275287628,1,-0.257173479,1,-0.117149085,1
1.967861772,-22.61337471,1,8.578556060791016,1,-17.11235046,1,-0.808674872,1,-3.309420586,1,1.084808468818665,1,0.2681984007358551,1,-0.272193104,1,-0.116967358,1
1.971859217,-18.34500504,1,8.430259704589844,1,-16.49658775,1,-0.484051496,1,-2.755052805,1,1.202956080436707,1,0.2653079330921173,1,-0.285033405,1,-0.115671329,1
1.975858688,-14.15466309,1,5.675595760345459,1,-14.32569313,1,-0.29808256,1,-2.393530846,1,1.306588649749756,1,0.2631050050258636,1,-0.296262741,1,-0.113424994,1
1.979860425,-9.748450279,1,2.809609413146973,1,-11.51805687,1,-0.161850393,1,-2.145449877,1,1.415949345,1,0.2612912356853485,1,-0.306409359,1,-0.110352747,1
1.983858228,-5.402525902,1,0.6785600781440735,1,-9.217061996,1,-0.027119845,1,-2.080579519,1,1.453060865402222,1,0.2598414719104767,1,-0.31601423,1,-0.106777214,1
1.987857461,-2.269211054,1,-1.544462681,1,-7.427546024,1,0.039643895,1,-2.137508392,1,1.419506907463074,1,0.2587468326091766,1,-0.325634539,1,-0.103187822,1
1.991858959,-0.568849623,1,-4.586776733,1,-7.055696011,1,-0.009195565,1,-2.2514925,1,1.311837196350098,1,0.2578063309192657,1,-0.335500509,1,-0.09996032,1
1.995856643,-0.797893047,1,-6.800535202,1,-5.78604126,1,-0.089584708,1,-2.383129597,1,1.225132465362549,1,0.2567292153835297,1,-0.345779747,1,-0.097267456,1
1.999855876,-1.13021493,1,-8.663775444,1,-5.582780361,1,-0.205600053,1,-2.484399557,1,1.101307988166809,1,0.2554004192352295,1,-0.356349528,1,-0.095103092,1
2.003857374,-3.64354682,1,-10.70238018,1,-7.140771389,1,-0.455720574,1,-2.604245901,1,1.087716817855835,1,0.2535035908222198,1,-0.36728853,1,-0.093371302,1
2.007854939,-7.22650671,1,-9.863019943,1,-7.225634575,1,-0.740646482,1,-2.632952929,1,1.166775226593018,1,0.2504137754440308,1,-0.378591716,1,-0.091469944,1
2.011854887,-10.4455328,1,-9.240076065,1,-9.484597206,1,-0.96982348,1,-2.472360373,1,1.242080092430115,1,0.2461548447608948,1,-0.389648825,1,-0.089177206,1
2.015856266,-12.06566429,1,-6.627447605,1,-10.62331295,1,-1.177367687,1,-2.242365122,1,1.318639516830444,1,0.2407128661870956,1,-0.400092125,1,-0.086241513,1
2.019859791,-12.01738262,1,-4.025559425,1,-11.77676392,1,-1.299870849,1,-1.98678112,1,1.398582220077515,1,0.2343579679727554,1,-0.409578621,1,-0.082668237,1
2.023864985,-11.39830971,1,-1.822693944,1,-11.94336891,1,-1.372507215,1,-1.6963557,1,1.516105532646179,1,0.2272368222475052,1,-0.418132901,1,-0.078305833,1
2.027866602,-8.392416954,1,0.6251566410064697,1,-11.5739994,1,-1.336657047,1,-1.465437174,1,1.569480180740356,1,0.2197071462869644,1,-0.425624043,1,-0.073235221,1
2.031864166,-4.297911644,1,0.3239094018936157,1,-10.50389671,1,-1.325752378,1,-1.395289063,1,1.602145314216614,1,0.2121258676052094,1,-0.432512134,1,-0.067508265,1
2.0358634,-1.401981235,1,-1.62748909,1,-8.689803123,1,-1.351076722,1,-1.467953444,1,1.624522209,1,0.2043751031160355,1,-0.439428836,1,-0.061850831,1
2.03986454,-2.449148655,1,-2.285686493,1,-8.635713577,1,-1.375680804,1,-1.595776677,1,1.615531921386719,1,0.1964831054210663,1,-0.446727365,1,-0.056145731,1
2.043862104,-8.403178215,1,-2.607848406,1,-11.70234108,1,-1.423522949,1,-1.402235389,1,1.499119043,1,0.1884878277778625,1,-0.453928232,1,-0.05063799,1
2.047861576,-15.71025085,1,-2.486945868,1,-14.33074093,1,-1.465783358,1,-0.834959447,1,1.295068144798279,1,0.1803529858589172,1,-0.459401309,1,-0.045415733,1
2.051862717,-11.82009602,1,1.328265428543091,1,-10.96885681,1,-1.261460423,1,-0.467836767,1,1.193004369735718,1,0.1726435422897339,1,-0.462714344,1,-0.040466875,1
2.055860281,-6.171610832,1,2.915842294692993,1,-9.625366211,1,-1.137583375,1,-0.446665257,1,1.095125913619995,1,0.1658166795969009,1,-0.465230703,1,-0.03571301,1
2.059859514,-3.115154266,1,1.949183344841003,1,-9.070367813,1,-1.008939862,1,-0.589243412,1,0.949333668,1,0.1596172600984573,1,-0.467971474,1,-0.031597544,1
2.063860655,-5.217478275,1,2.465602159500122,1,-10.94268417,1,-0.918641448,1,-0.551567793,1,0.8963537812232971,1,0.1541497409343719,1,-0.470827341,1,-0.02791412,1
2.067858219,-7.74131918,1,0.5514542460441589,1,-10.51376915,1,-0.844302893,1,-0.422025025,1,0.8260097503662109,1,0.1490017473697662,1,-0.473327279,1,-0.024434904,1
2.071857929,-6.80826664,1,-1.984712362,1,-8.551074982,1,-0.786391735,1,-0.369849056,1,0.7300710082054138,1,0.1443287879228592,1,-0.475273132,1,-0.021203112,1
2.075859547,-7.989785194,1,-1.30221355,1,-9.077525139,1,-0.715563416,1,-0.306634665,1,0.7370201945304871,1,0.1399288475513458,1,-0.477119833,1,-0.018226422,1
2.079856873,-5.835302353,1,-1.213634133,1,-8.691591263,1,-0.725970984,1,-0.255079478,1,0.7213090658187866,1,0.1356297135353088,1,-0.478534251,1,-0.015100025,1
2.083856106,-4.686348438,1,-1.873778343,1,-8.95441246,1,-0.712073803,1,-0.253194243,1,0.6956467628479004,1,0.1313774138689041,1,-0.479953408,1,-0.012098091,1
2.087857723,-4.665915012,1,-1.799414396,1,-8.894950867,1,-0.718277156,1,-0.254549831,1,0.6544996500015259,1,0.127166823,1,-0.481300652,1,-0.009210132,1
2.091855049,-4.805621624,1,-1.272299051,1,-8.498261452,1,-0.721570432,1,-0.239135683,1,0.6234874129295349,1,0.1230375617742538,1,-0.4825899,1,-0.006499512,1
2.095854282,-4.754522324,1,0.2680665552616119,1,-8.958827972,1,-0.689607024,1,-0.224619672,1,0.6011559963226318,1,0.1189907565712929,1,-0.483817756,1,-0.003886822,1
2.099855661,-6.46500206,1,0.5869510769844055,1,-9.204547882,1,-0.608937979,1,-0.225858361,1,0.5555772185325623,1,0.1152406856417656,1,-0.485016704,1,-0.001396103,1
2.103852749,-5.392590046,1,0.1512263268232346,1,-8.969926834,1,-0.560282648,1,-0.20885618,1,0.4983530938625336,1,0.1118512377142906,1,-0.486088365,1,0.000861884,1
2.107852459,-4.795374393,1,0.51730001,1,-9.066131592,1,-0.496619433,1,-0.235876217,1,0.4506379961967468,1,0.1088059842586517,1,-0.487238407,1,0.002877144,1
2.111854076,-5.633543015,1,0.2156246602535248,1,-9.051259041,1,-0.440709561,1,-0.241945416,1,0.4055121243000031,1,0.1060809940099716,1,-0.488374174,1,0.004706712,1
2.115851402,-5.554114342,1,0.052785166,1,-8.768602371,1,-0.427737832,1,-0.234450355,1,0.3791790306568146,1,0.1035850346088409,1,-0.489487857,1,0.00635707,1
2.119850636,-4.871300697,1,0.160124347,1,-9.042951584,1,-0.36888814,1,-0.255126238,1,0.3551348149776459,1,0.1012688055634499,1,-0.490604758,1,0.00789789,1
2.123852253,-4.820787907,1,-0.262766302,1,-8.823513031,1,-0.378150612,1,-0.272178471,1,0.3442196547985077,1,0.099095337,1,-0.491797805,1,0.009362358,1
2.127849817,-5.004477024,1,-0.394941628,1,-8.746686935,1,-0.347912103,1,-0.247010291,1,0.3463102877140045,1,0.09695299,1,-0.492987692,1,0.01081107,1
2.131849289,-5.336977482,1,-0.439252466,1,-8.8840065,1,-0.346782893,1,-0.253824383,1,0.3252190947532654,1,0.094864562,1,-0.494089335,1,0.012235926,1
2.135850668,-5.174802303,1,-0.210672408,1,-8.722073555,1,-0.335114539,1,-0.249798328,1,0.3057531416416168,1,0.092891939,1,-0.495208412,1,0.013529836,1
2.139854431,-4.912828445,1,0.2181781083345413,1,-8.961084366,1,-0.333450288,1,-0.266319185,1,0.2768973708152771,1,0.090994522,1,-0.49633646,1,0.014729097,1
2.143853903,-5.719545364,1,0.7571367025375366,1,-9.111726761,1,-0.30314517,1,-0.270679116,1,0.2630481719970703,1,0.089166,1,-0.497500867,1,0.015865747,1
2.147855043,-4.79265976,1,0.6207131147384644,1,-8.953997612,1,-0.263629973,1,-0.248956978,1,0.2256060242652893,1,0.087568648,1,-0.498621374,1,0.01685567,1
2.151852846,-4.997081757,1,0.1865557283163071,1,-9.087040901,1,-0.239610955,1,-0.285131186,1,0.1954226642847061,1,0.08615993,1,-0.499756187,1,0.017698662,1
2.155852079,-5.046870232,1,0.1409496068954468,1,-8.903784752,1,-0.200197682,1,-0.289326668,1,0.2048044204711914,1,0.084877498,1,-0.500973165,1,0.018493354,1
2.159853458,-4.794744968,1,0.1113852187991142,1,-8.52197361,1,-0.173722044,1,-0.276915073,1,0.2261251956224442,1,0.083724305,1,-0.502205849,1,0.019372728,1
2.163851261,-4.581439018,1,-0.91749388,1,-9.013374329,1,-0.154775009,1,-0.295141697,1,0.2651351690292358,1,0.082580373,1,-0.503407121,1,0.020372681,1
2.167850494,-4.518509865,1,-0.976038098,1,-9.324841499,1,-0.136479989,1,-0.336689353,1,0.3043042123317719,1,0.081430294,1,-0.504751146,1,0.021548826,1
2.171852589,-4.711703777,1,-1.581898212,1,-8.95558548,1,-0.161137015,1,-0.363841057,1,0.322777122,1,0.080202229,1,-0.506233275,1,0.022849213,1
2.175850391,-4.71303463,1,-1.154643655,1,-9.402005196,1,-0.181211069,1,-0.420635104,1,0.3459495007991791,1,0.07882449,1,-0.507895172,1,0.024227591,1
2.179849625,-4.420569897,1,-1.419257283,1,-9.935652733,1,-0.166291296,1,-0.518623829,1,0.3767077326774597,1,0.077419057,1,-0.50986743,1,0.025720356,1
2.183851242,-4.440637589,1,-1.962694287,1,-9.27296257,1,-0.206807628,1,-0.617972732,1,0.3825728595256805,1,0.075913787,1,-0.512244999,1,0.027256506,1
2.187849045,-4.701402187,1,-2.096221685,1,-9.255771637,1,-0.22517015,1,-0.655252695,1,0.3984427452087402,1,0.07430654,1,-0.514916658,1,0.02882665,1
2.191848278,-4.494754314,1,-2.00092864,1,-9.431758881,1,-0.278210908,1,-0.739346147,1,0.4206079542636871,1,0.072481334,1,-0.517817736,1,0.030483088,1
2.195849657,-4.759604931,1,-1.031910777,1,-9.828772545,1,-0.311225057,1,-0.817815721,1,0.4269870221614838,1,0.070418976,1,-0.52103579,1,0.032191545,1
2.199847221,-4.711556911,1,0.8427460193634033,1,-10.18508816,1,-0.207820639,1,-0.920631051,1,0.4567458033561707,1,0.068499267,1,-0.52462703,1,0.033929829,1
2.203846455,-4.634768009,1,-0.621603489,1,-10.21271706,1,-0.190234184,1,-1.031150699,1,0.4492097795009613,1,0.066800922,1,-0.528628647,1,0.035740878,1
2.207847834,-4.40353775,1,-1.341243505,1,-10.68648434,1,-0.259670526,1,-1.169300795,1,0.4120599329471588,1,0.065071471,1,-0.533129811,1,0.037408751,1
2.211845398,-4.383632183,1,0.081503734,1,-11.3417511,1,-0.260861158,1,-1.309798598,1,0.4067889451980591,1,0.063254125,1,-0.538187444,1,0.038928095,1
2.21584487,-3.89345336,1,-0.303635746,1,-11.42300415,1,-0.260775596,1,-1.447265625,1,0.4009670317173004,1,0.06144575,1,-0.543801546,1,0.040413402,1
2.219846249,-4.317327499,1,0.5138301253318787,1,-11.98208618,1,-0.218462452,1,-1.57648468,1,0.401104212,1,0.059717923,1,-0.549936831,1,0.041843478,1
2.223843575,-4.085357189,1,-0.428259492,1,-11.60453892,1,-0.239330858,1,-1.744309068,1,0.4122131764888763,1,0.058017705,1,-0.556652069,1,0.043301146,1
2.227842808,-4.769840717,1,-1.093371153,1,-11.9343605,1,-0.284393907,1,-1.899295211,1,0.4352588653564453,1,0.056178112,1,-0.56400317,1,0.044799358,1
2.231844425,-4.671017647,1,-1.23673737,1,-12.51303291,1,-0.316434056,1,-2.076882124,1,0.452378124,1,0.054124162,1,-0.572057307,1,0.046390861,1
2.23584199,-3.645040274,1,-0.943665683,1,-12.66059399,1,-0.322603434,1,-2.270660162,1,0.4855513274669647,1,0.051922556,1,-0.580852747,1,0.048062533,1
2.239841461,-3.514491796,1,-1.921422482,1,-13.00143719,1,-0.334739238,1,-2.474341393,1,0.5176293849945068,1,0.049595226,1,-0.590449154,1,0.049883857,1
2.24384284,-3.302927732,1,-2.571729898,1,-12.27824402,1,-0.386560887,1,-2.66004777,1,0.5675033330917358,1,0.047043853,1,-0.600782216,1,0.051890094,1
2.247840166,-4.022319317,1,-2.798294544,1,-12.51056194,1,-0.444236189,1,-2.843679905,1,0.6299026608467102,1,0.044069201,1,-0.611884058,1,0.054186177,1
2.251839399,-3.611423731,1,-2.416209936,1,-12.26357365,1,-0.473022461,1,-3.037764788,1,0.703665555,1,0.040677715,1,-0.623742938,1,0.056844838,1
2.255840778,-3.530609369,1,-2.326400042,1,-12.2792387,1,-0.451727092,1,-3.226365328,1,0.7552510499954224,1,0.037058614,1,-0.63636446,1,0.059837781,1
2.259844065,-3.368039131,1,-1.726714253,1,-11.32744408,1,-0.614368558,1,-3.248035908,1,0.7072093486785889,1,0.033072371,1,-0.649558723,1,0.063062005,1
2.263843536,-5.035864353,1,-0.803463757,1,-14.53568935,1,-0.15722324,1,-3.74430871,1,0.8275882601737976,1,0.029572761,1,-0.66387409,1,0.066509888,1
2.267845392,-5.221323967,1,-3.95522666,1,-10.50365448,1,-0.419839144,1,-3.814983845,1,0.9736545085906982,1,0.025898939,1,-0.678858519,1,0.070579469,1
2.271843433,-1.663174152,1,-5.153137684,1,-12.02874565,1,-0.637566507,1,-4.128939629,1,0.8984012007713318,1,0.020992134,1,-0.694872797,1,0.07491938,1
2.275842905,-1.684602857,1,-1.355599284,1,-12.76089096,1,-0.642475426,1,-4.303595066,1,1.024739742279053,1,0.015447143,1,-0.711788237,1,0.079534046,1
2.279844522,-3.261783123,1,-1.175228834,1,-12.42054176,1,-0.587879598,1,-4.524669647,1,1.084789752960205,1,0.009419582,1,-0.729445219,1,0.085165761,1
2.283842325,-2.496882677,1,-1.16245234,1,-11.93293381,1,-0.559709966,1,-4.763871193,1,1.093421578407288,1,0.003259405,1,-0.748024225,1,0.090900235,1
2.287841558,-2.164871931,1,-0.628927886,1,-12.30517197,1,-0.527907491,1,-4.999619961,1,1.129576802253723,1,-0.003144415,1,-0.767573297,1,0.097026542,1
2.291843414,-3.21989584,1,-0.003282427,1,-12.66767693,1,-0.470164061,1,-5.228822708,1,1.176220774650574,1,-0.009791233,1,-0.788002551,1,0.103676401,1
2.295840979,-2.467220783,1,-1.082079172,1,-11.64353275,1,-0.534251809,1,-5.398036003,1,1.221367955207825,1,-0.01699166,1,-0.809185743,1,0.1109589859843254,1
2.299840212,-1.568302631,1,-1.141654372,1,-10.88566875,1,-0.539841652,1,-5.627581596,1,1.224175453186035,1,-0.024879329,1,-0.831124783,1,0.118796781,1
2.303841829,-2.139919281,1,-0.929051101,1,-10.99954891,1,-0.564436138,1,-5.863990307,1,1.267382264137268,1,-0.033385769,1,-0.853958726,1,0.1272680461406708,1
2.307839632,-4.206903934,1,-1.026645184,1,-11.42404175,1,-0.625435054,1,-6.058086395,1,1.277703762054443,1,-0.042802345,1,-0.877603114,1,0.1365445107221603,1
2.311839342,-6.620911598,1,-0.763291895,1,-10.8067646,1,-0.741688013,1,-6.134013176,1,1.253347516059875,1,-0.053213812,1,-0.901739419,1,0.1464420109987259,1
2.315840721,-4.9360466,1,0.08836896,1,-10.0472765,1,-0.821117997,1,-6.256402493,1,1.246982694,1,-0.064733036,1,-0.926159322,1,0.1570036560297012,1
2.319838285,-3.643255472,1,0.9083630442619324,1,-9.778450966,1,-0.819957376,1,-6.437726021,1,1.222691774368286,1,-0.077232771,1,-0.951118886,1,0.1683963388204575,1
2.323837519,-3.684985876,1,1.511464476585388,1,-9.321713448,1,-0.750796914,1,-6.619046688,1,1.192098021507263,1,-0.090448044,1,-0.976740122,1,0.1806488931179047,1
2.327838659,-4.43348074,1,1.827800750732422,1,-8.981367111,1,-0.648786962,1,-6.787305355,1,1.151292801,1,-0.104321167,1,-1.002972364,1,0.1938945204019547,1
2.331836224,-5.50366497,1,-0.088291094,1,-4.754127026,1,-0.766851842,1,-6.946875095,1,1.127531409263611,1,-0.119243376,1,-1.030024052,1,0.2082919478416443,1
2.335835457,-5.604392052,1,1.805537462234497,1,-10.63919067,1,-0.565128684,1,-7.088773727,1,1.170156359672546,1,-0.135951951,1,-1.057269335,1,0.2246528416872025,1
2.339836597,-10.40520382,1,1.916458487510681,1,-8.898264885,1,-0.523374319,1,-6.975842476,1,1.040881395339966,1,-0.153534934,1,-1.084469438,1,0.2421498447656631,1
2.3438344,-8.849340439,1,2.872799634933472,1,-8.935853004,1,-0.390878558,1,-7.018372536,1,0.9919430017471313,1,-0.172063991,1,-1.111399651,1,0.2609118819236755,1
2.347833872,-9.611499786,1,3.686315536499023,1,-9.32519722,1,-0.248364821,1,-7.032134533,1,0.912109375,1,-0.191833004,1,-1.138371587,1,0.2814119458198547,1
2.351835489,-9.845114708,1,3.556530475616455,1,-8.899401665,1,-0.087408789,1,-7.004033089,1,0.8426290154457092,1,-0.21287857,1,-1.165164351,1,0.3036810755729675,1
2.355832815,-9.766545296,1,3.404766082763672,1,-9.022839546,1,0.033627547,1,-6.953711033,1,0.7974445223808289,1,-0.235700041,1,-1.191657901,1,0.3282869160175323,1
2.359832287,-7.957080841,1,2.327562332,1,-8.573027611,1,0.1284919530153275,1,-6.921842098,1,0.7654283046722412,1,-0.261022687,1,-1.217751622,1,0.3557591438293457,1
2.363834143,-7.254801273,1,1.265502572059631,1,-8.293727875,1,0.1892136633396149,1,-6.958422184,1,0.7180677056312561,1,-0.289770007,1,-1.243652225,1,0.3869425058364868,1
2.367831707,-8.543469429,1,0.6288095116615295,1,-8.798773766,1,0.2224890291690826,1,-6.986228943,1,0.6854879856109619,1,-0.323039472,1,-1.269428492,1,0.4228026270866394,1
2.37183094,-10.05484962,1,0.3402369022369385,1,-9.009054184,1,0.1885246932506561,1,-6.881460667,1,0.7242051959037781,1,-0.362428904,1,-1.294635773,1,0.4647939503192902,1
2.375832319,-10.82404518,1,-0.297265112,1,-9.430394173,1,0.1497828662395477,1,-6.773763657,1,0.7436648607254028,1,-0.409969598,1,-1.318843961,1,0.5147305130958557,1
2.379835606,-12.79362202,1,-2.527229071,1,-8.906906128,1,0.03647878,1,-6.569757462,1,0.7689533829689026,1,-0.466924578,1,-1.34174335,1,0.573768675,1
2.383835077,-15.48893261,1,-3.612704992,1,-8.997454643,1,-0.157170594,1,-6.307245255,1,0.8296961784362793,1,-0.535493076,1,-1.36282444,1,0.6437826752662659,1
2.387836456,-16.34270287,1,-3.668529749,1,-8.291545868,1,-0.401193202,1,-5.987332344,1,0.897309422,1,-0.617578983,1,-1.381585717,1,0.7263776659965515,1
2.391833782,-15.0738306,1,-4.43558979,1,-7.55290556,1,-0.642491579,1,-5.733211994,1,0.9878304004669189,1,-0.714930534,1,-1.397697687,1,0.8232175707817078,1
2.395833254,-16.53281021,1,-5.729831696,1,-6.646551132,1,-0.900510907,1,-5.466040611,1,1.057337284088135,1,-0.828526914,1,-1.410933256,1,0.9352875351905823,1
2.399834871,-19.29723549,1,-6.525943756,1,-5.360618114,1,-1.219930887,1,-5.086877346,1,1.148995041847229,1,-0.955963135,1,-1.420779705,1,1.059975743293762,1
2.403832436,-21.83588028,1,-6.403970242,1,-4.73780632,1,-1.525541425,1,-4.659266472,1,1.089555501937866,1,-1.090071559,1,-1.427093148,1,1.189984917640686,1
2.407831907,-21.32014847,1,-7.520323753,1,-2.86212039,1,-1.798282385,1,-4.162126541,1,1.071154713630676,1,-1.221811533,1,-1.430307031,1,1.316347360610962,1
2.411833048,-18.30358315,1,-7.412384033,1,-1.012660623,1,-2.092365742,1,-3.727716446,1,1.141563534736633,1,-1.345538616,1,-1.430522561,1,1.433443784713745,1
2.415830851,-14.70985985,1,-6.96846056,1,-0.50464654,1,-2.376990318,1,-3.371198177,1,1.197666525840759,1,-1.458252192,1,-1.428266644,1,1.538265228271484,1
2.419830322,-11.33043575,1,-6.23382473,1,0.088848919,1,-2.633387089,1,-3.159655571,1,1.218600153923035,1,-1.559550285,1,-1.424255371,1,1.630472302436829,1
2.423831463,-9.831463814,1,-4.994189739,1,0.5991008877754211,1,-2.848603249,1,-3.11733532,1,1.279323339,1,-1.652565479,1,-1.41879499,1,1.713447332382202,1
2.427829027,-11.67676258,1,-0.921386838,1,0.5529589653015137,1,-3.014937639,1,-3.027551889,1,1.346464037895203,1,-1.738300204,1,-1.412040114,1,1.788314461708069,1
2.431828499,-12.06594753,1,0.8205263614654541,1,0.005450211,1,-2.927497387,1,-2.785085917,1,1.300004601478577,1,-1.813376784,1,-1.404444337,1,1.852273703,1
2.435829878,-15.33768654,1,1.826086640357971,1,-5.453487873,1,-2.523409843,1,-2.424968243,1,0.9677015542984009,1,-1.875757933,1,-1.397141099,1,1.904448390007019,1
2.439827442,-24.20567703,1,1.176607370376587,1,-13.20146847,1,-2.077357531,1,-1.692827582,1,0.3927098214626312,1,-1.924503684,1,-1.391849041,1,1.9446491,1
2.443826675,-27.83009911,1,-0.021193573,1,-12.93911552,1,-1.771562696,1,-1.007017851,1,-0.079540104,1,-1.957539916,1,-1.389483929,1,1.970434665679932,1
2.447828293,-32.96871948,1,1.053746581077576,1,-13.32931137,1,-1.473228931,1,-0.453909218,1,-0.351437241,1,-1.980999589,1,-1.389097333,1,1.987704634666443,1
2.451825619,-29.77706146,1,0.4309654831886292,1,-16.03533936,1,-1.178610563,1,0.065558799,1,-0.59572649,1,-1.994473457,1,-1.390546441,1,1.996020317077637,1
2.455824852,-14.99863434,1,-3.152911663,1,-12.53855228,1,-1.004958868,1,0.2692576944828033,1,-0.580835283,1,-2.000124931,1,-1.393102527,1,1.997338533401489,1
2.459826469,-6.628794193,1,-2.68873477,1,-11.0730238,1,-0.771183312,1,-0.04560272,1,-0.469349712,1,-2.005949974,1,-1.395218492,1,1.999630331993103,1
2.463823795,-7.921695232,1,-2.161021471,1,-10.98932552,1,-0.507109821,1,-0.449093044,1,-0.27902019,1,-2.017233372,1,-1.396175861,1,2.008508682250977,1
2.467823505,-10.0275774,1,-2.519751072,1,-12.11312485,1,-0.310207397,1,-0.78622067,1,-0.004597416,1,-2.032899857,1,-1.395617843,1,2.022789239883423,1
2.471825123,-11.16065979,1,-2.026161194,1,-13.50597,1,-0.107517764,1,-1.123509645,1,0.321475476,1,-2.051236868,1,-1.393328547,1,2.040561199188232,1
2.475822687,-11.72333431,1,-2.246192932,1,-15.39382744,1,0.1348607987165451,1,-1.495514989,1,0.6976003050804138,1,-2.071380615,1,-1.389077187,1,2.061074495315552,1
2.479822159,-12.43661022,1,-3.769307375,1,-17.018507,1,0.3219102025032043,1,-1.847542167,1,1.103627800941467,1,-2.092241526,1,-1.382672906,1,2.083244800567627,1
2.483823538,-12.96687889,1,-5.780545712,1,-17.81370926,1,0.394700676,1,-2.164104223,1,1.553209543228149,1,-2.112528086,1,-1.37402606,1,2.105407238006592,1
2.487821102,-13.23195744,1,-8.04013443,1,-18.15785408,1,0.3146250545978546,1,-2.439205885,1,2.047735929489136,1,-2.130999565,1,-1.363068223,1,2.125749349594116,1
2.491820574,-13.44040966,1,-10.40226746,1,-18.30973244,1,0.042692058,1,-2.640991688,1,2.553746700286865,1,-2.146857262,1,-1.349839687,1,2.142757654190063,1
2.495822668,-13.55993462,1,-12.67720604,1,-18.38199425,1,-0.395171791,1,-2.776325941,1,3.033123016357422,1,-2.160024166,1,-1.334531546,1,2.155587911605835,1
2.499826193,-13.84164906,1,-13.83584976,1,-18.47970009,1,-0.955009103,1,-2.836938381,1,3.471380233764648,1,-2.170832872,1,-1.317444086,1,2.163970232009888,1
2.503825903,-14.2302084,1,-14.1884594,1,-18.18063164,1,-1.554944038,1,-2.807968616,1,3.866757392883301,1,-2.179437876,1,-1.298937917,1,2.167692422866821,1
2.507827759,-14.81500626,1,-13.24089622,1,-18.18134117,1,-2.099970818,1,-2.742021322,1,4.169578075408936,1,-2.186268568,1,-1.279386163,1,2.167181015014648,1
2.511825562,-16.13644791,1,-12.1354866,1,-18.07010269,1,-2.54952383,1,-2.582345247,1,4.411385059356689,1,-2.191521883,1,-1.259205818,1,2.162903785705566,1
2.515825033,-16.68660736,1,-10.85292435,1,-17.7796917,1,-2.874141216,1,-2.324942827,1,4.561839580535889,1,-2.19487071,1,-1.238862634,1,2.154954671859741,1
2.519826412,-17.17674446,1,-8.903496742,1,-17.86525726,1,-3.047333479,1,-2.065902948,1,4.602197647094727,1,-2.196609735,1,-1.218838215,1,2.144188404083252,1
2.523823977,-17.0196209,1,-7.109752178,1,-17.97505951,1,-3.068603992,1,-1.807650924,1,4.567920684814453,1,-2.197031975,1,-1.199429393,1,2.131522178649902,1
2.52782321,-16.16449738,1,-4.858976841,1,-17.9341526,1,-2.942320108,1,-1.543340921,1,4.440059185028076,1,-2.196306705,1,-1.180878878,1,2.117737531661987,1
2.531824827,-15.7736063,1,-3.847521305,1,-17.94787979,1,-2.655092001,1,-1.287296414,1,4.289077758789063,1,-2.1938622,1,-1.16332376,1,2.103415250778198,1
2.535822868,-13.27963352,1,-2.599467278,1,-18.52861404,1,-2.261515856,1,-1.104452848,1,4.031107425689697,1,-2.190371037,1,-1.147066832,1,2.088839530944824,1
2.53982234,-15.03344345,1,-3.903855324,1,-17.63528252,1,-1.891438007,1,-0.85217607,1,3.915113925933838,1,-2.185625553,1,-1.131787062,1,2.074470758,1
2.543823957,-13.9774437,1,-4.900194168,1,-17.40895081,1,-1.570363998,1,-0.604811132,1,3.695905447006226,1,-2.179240227,1,-1.117654085,1,2.059750318527222,1
2.547821283,-13.78501225,1,-5.52549839,1,-16.83034515,1,-1.304294586,1,-0.300527245,1,3.470927238464355,1,-2.171520472,1,-1.104813337,1,2.044737100601196,1
2.551820517,-13.36273766,1,-6.308453083,1,-16.29303932,1,-1.093996167,1,0.02776926,1,3.239360570907593,1,-2.162447453,1,-1.093402743,1,2.029168367385864,1
2.555822372,-12.84424305,1,-6.718689442,1,-15.84559441,1,-0.934087455,1,0.360852063,1,2.994806051254272,1,-2.152086496,1,-1.083424926,1,2.01290226,1
2.559820175,-11.49744225,1,-6.861249924,1,-15.32011795,1,-0.818515718,1,0.6951658725738525,1,2.732738018035889,1,-2.140629768,1,-1.074965477,1,1.995931386947632,1
2.563819885,-9.657450676,1,-7.091091156,1,-14.5895462,1,-0.738616705,1,0.9911638498306274,1,2.453825950622559,1,-2.128345251,1,-1.068004727,1,1.978402256965637,1
2.567821264,-7.289515018,1,-7.226400852,1,-13.62040901,1,-0.681569993,1,1.245459079742432,1,2.166941881,1,-2.115529537,1,-1.062476158,1,1.960522294044495,1
2.571819067,-5.010701656,1,-7.113338947,1,-12.86696148,1,-0.661409974,1,1.436809301376343,1,1.880103945732117,1,-2.102521658,1,-1.058284163,1,1.942547559738159,1
2.575818539,-3.007223606,1,-6.788842201,1,-12.03201962,1,-0.647800565,1,1.580674529075623,1,1.586217164993286,1,-2.089695692,1,-1.055318594,1,1.924818396568298,1
2.579820395,-1.444239259,1,-6.169214249,1,-11.22659588,1,-0.617154777,1,1.675604104995728,1,1.286265730857849,1,-2.077252626,1,-1.053506494,1,1.907607555389404,1
2.583818197,-0.224419415,1,-5.412792683,1,-10.37969875,1,-0.56288892,1,1.751924753189087,1,0.9782344698905945,1,-2.065256357,1,-1.052829981,1,1.891081690788269,1
2.587817669,0.4051347374916077,1,-4.657283306,1,-9.732875824,1,-0.482304811,1,1.804055452346802,1,0.67497772,1,-2.053610086,1,-1.05324626,1,1.875264167785645,1
2.591819286,1.095791935920715,1,-3.850443602,1,-9.234309196,1,-0.355414093,1,1.855316758155823,1,0.3692635595798492,1,-2.042187452,1,-1.05474782,1,1.860177397727966,1
2.595816851,1.622747778892517,1,-3.164550543,1,-8.66056633,1,-0.2072891,1,1.908315539360046,1,0.062266272,1,-2.030761242,1,-1.057356834,1,1.845744132995605,1
2.599816799,1.999435186386108,1,-2.441850185,1,-8.086922646,1,-0.025597569,1,1.978316665,1,-0.241669208,1,-2.019081354,1,-1.061074853,1,1.831809401512146,1
2.603818178,1.846700429916382,1,-1.92121017,1,-7.807783604,1,0.1803613901138306,1,2.092523574829102,1,-0.538337886,1,-2.006739378,1,-1.065961123,1,1.818050503730774,1
2.607816219,1.937096476554871,1,-1.379197121,1,-7.614151001,1,0.4030530452728271,1,2.246635675430298,1,-0.834298372,1,-1.993288755,1,-1.072067976,1,1.804040908813477,1
2.611815691,2.262027502059937,1,-1.078439236,1,-7.440913677,1,0.6363133192062378,1,2.419747114181519,1,-1.135713816,1,-1.978348613,1,-1.079437017,1,1.789421319961548,1
2.615817308,2.453966379165649,1,-0.717228234,1,-7.46725893,1,0.8572898507118225,1,2.610950231552124,1,-1.42191422,1,-1.961640477,1,-1.088067651,1,1.773897767066956,1
2.619820833,2.522284984588623,1,-0.410839617,1,-7.493828297,1,1.073356151580811,1,2.818692207336426,1,-1.697744131,1,-1.942802072,1,-1.097896218,1,1.757034659385681,1
2.623820543,2.168634892,1,0.056689374,1,-7.556575775,1,1.279667139053345,1,3.044720649719238,1,-1.963516116,1,-1.921511531,1,-1.108899236,1,1.738462686538696,1
2.627822161,1.702603459358215,1,0.6820522546768188,1,-7.665750504,1,1.483854174613953,1,3.286274671554565,1,-2.203527451,1,-1.897267699,1,-1.120970964,1,1.717615365982056,1
2.631819963,1.405073165893555,1,1.364982367,1,-8.023701668,1,1.680530190467834,1,3.531713008880615,1,-2.415480137,1,-1.869591713,1,-1.133969188,1,1.693988800048828,1
2.635819435,1.019573330879211,1,2.387458086013794,1,-8.364523888,1,1.866971254348755,1,3.777694940567017,1,-2.600967169,1,-1.837986946,1,-1.147676945,1,1.667022824287415,1
2.639821291,0.6771224141120911,1,3.498175859451294,1,-8.80471611,1,2.061442136764526,1,4.036141395568848,1,-2.737633705,1,-1.801821709,1,-1.161887169,1,1.636075973510742,1
2.643819094,0.025913615,1,4.619811534881592,1,-9.437965393,1,2.296172142028809,1,4.308095932006836,1,-2.827951431,1,-1.760185242,1,-1.176272035,1,1.600299000740051,1
2.647818565,-0.840946794,1,5.605442523956299,1,-9.933683395,1,2.557523250579834,1,4.601212501525879,1,-2.886680126,1,-1.712033033,1,-1.1904881,1,1.558775901794434,1
2.651820183,-1.555064321,1,6.461857795715332,1,-10.46965408,1,2.819652795791626,1,4.916654586791992,1,-2.921881199,1,-1.656361938,1,-1.204179406,1,1.510564088821411,1
2.655817986,-2.495466709,1,6.875254154205322,1,-10.68996716,1,3.062313795089722,1,5.273936272,1,-2.911725044,1,-1.5922122,1,-1.216932654,1,1.454588174819946,1
2.659817457,-2.706152678,1,6.886268615722656,1,-11.01113224,1,3.282765865325928,1,5.599572658538818,1,-2.876620293,1,-1.519083381,1,-1.22819972,1,1.390308618545532,1
2.663819313,-2.689233541,1,7.132699012756348,1,-11.24807358,1,3.440914392471313,1,5.914993762969971,1,-2.851632833,1,-1.43730104,1,-1.237486839,1,1.317915678024292,1
2.667816877,-2.690544128,1,7.292119979858398,1,-11.42340088,1,3.558598041534424,1,6.199095249176025,1,-2.821263075,1,-1.34773469,1,-1.244356751,1,1.238062262535095,1
2.671817303,-2.637099743,1,7.471578121185303,1,-11.58754635,1,3.637476205825806,1,6.449482440948486,1,-2.791883945,1,-1.251892686,1,-1.248401523,1,1.152133703231812,1
2.67581892,-2.305826187,1,8.031249046325684,1,-11.78384399,1,3.681118965148926,1,6.653145313262939,1,-2.773063421,1,-1.151857853,1,-1.249327779,1,1.062124013900757,1
2.679816961,-1.643993974,1,8.599062919616699,1,-11.67708492,1,3.715671300888062,1,6.782886505126953,1,-2.760704517,1,-1.050319314,1,-1.247023106,1,0.970663846,1
2.683816433,-1.624124527,1,9.204377174377441,1,-11.35765076,1,3.766801595687866,1,6.881096363067627,1,-2.769201279,1,-0.9497509,1,-1.241552353,1,0.8802998065948486,1
2.68781805,-1.743762016,1,9.386461258,1,-11.38709736,1,3.823198795318604,1,6.930118560791016,1,-2.798291206,1,-0.852058291,1,-1.23311305,1,0.7929959297180176,1
2.691815615,-1.924172044,1,9.147079467773438,1,-11.34704685,1,3.857974529266357,1,6.945025921,1,-2.846218586,1,-0.758773983,1,-1.222010136,1,0.7102780938148499,1
2.695815325,-2.007802963,1,8.736311912536621,1,-11.41789627,1,3.841686248779297,1,6.910317420959473,1,-2.915766001,1,-0.670952082,1,-1.208621621,1,0.6330530643463135,1
2.699816942,-2.152523279,1,8.127054214477539,1,-11.6108427,1,3.768332958221436,1,6.840569972991943,1,-2.999170065,1,-0.589242995,1,-1.193359375,1,0.5617682337760925,1
2.703814983,-2.492226839,1,7.499967575073242,1,-11.93557835,1,3.654727697372437,1,6.772355556488037,1,-3.081533194,1,-0.513741195,1,-1.176519275,1,0.4963085353374481,1
2.707814455,-2.990916729,1,7.288230419158936,1,-12.46501446,1,3.510464191436768,1,6.705283164978027,1,-3.167482615,1,-0.444294512,1,-1.158344865,1,0.4363842904567719,1
2.711815834,-3.60134244,1,7.260187626,1,-13.00954151,1,3.366882562637329,1,6.656579018,1,-3.247730732,1,-0.380532503,1,-1.138996959,1,0.3815532922744751,1
2.715813875,-4.499494076,1,7.439167976379395,1,-13.57605267,1,3.243139743804932,1,6.628237247467041,1,-3.309263229,1,-0.321981192,1,-1.118565321,1,0.3313961029052734,1
2.719813347,-5.451390743,1,7.825129508972168,1,-14.03975391,1,3.151950359344482,1,6.649891853,1,-3.347533703,1,-0.268196255,1,-1.097039342,1,0.2855761051177979,1
2.723814964,-6.147835255,1,8.233996391296387,1,-14.43359947,1,3.113349199295044,1,6.710141181945801,1,-3.364356995,1,-0.218710735,1,-1.074342728,1,0.2438023835420609,1
2.727812529,-6.779738903,1,8.251070022583008,1,-14.50218201,1,3.112023354,1,6.805477142333984,1,-3.362069607,1,-0.173132256,1,-1.050446033,1,0.2058670073747635,1
2.731812,-7.072337151,1,8.620331764221191,1,-14.68058777,1,3.132499933242798,1,6.914269924163818,1,-3.316843987,1,-0.131192788,1,-1.025354028,1,0.1716716289520264,1
2.735813856,-6.976605415,1,8.452738761901855,1,-14.55406094,1,3.172496557235718,1,7.032607555389404,1,-3.244510889,1,-0.092713349,1,-0.999097764,1,0.1411610990762711,1
2.739817381,-6.707727432,1,8.071227073669434,1,-14.35351753,1,3.200445890426636,1,7.139493465423584,1,-3.12801671,1,-0.057556666,1,-0.971783698,1,0.1142758056521416,1
2.743816853,-6.23844099,1,7.631262302398682,1,-14.25658989,1,3.203504562,1,7.224737167358398,1,-2.991898537,1,-0.025648469,1,-0.943580747,1,0.0909288,1
2.74781847,-5.84531498,1,7.372637748718262,1,-14.0654459,1,3.199885129928589,1,7.269516944885254,1,-2.817652225,1,0.003172461,1,-0.914713502,1,0.070947058,1
2.751816273,-5.478415489,1,7.266246795654297,1,-13.76818752,1,3.206053495407104,1,7.304081916809082,1,-2.633402109,1,0.02912974,1,-0.885383368,1,0.054168466,1
2.755815744,-5.449825287,1,7.354075432,1,-13.44758034,1,3.215896606445313,1,7.321867466,1,-2.427128792,1,0.052551847,1,-0.8557446,1,0.040329881,1
2.759817123,-5.802475452,1,7.339735507965088,1,-12.996562,1,3.259404420852661,1,7.329048156738281,1,-2.208127737,1,0.073779911,1,-0.825918913,1,0.029224522,1
2.763814926,-6.901760578,1,6.992540359,1,-12.05922127,1,3.317037343978882,1,7.366425514221191,1,-1.980177641,1,0.093142197,1,-0.795943618,1,0.02065496,1
2.767814636,-8.712180138,1,4.957275867462158,1,-10.52076149,1,3.357539415359497,1,7.452335357666016,1,-1.719210863,1,0.1108179241418839,1,-0.765726089,1,0.014533075,1
2.771816254,-9.424910545,1,2.490879297,1,-9.932730675,1,3.338956117630005,1,7.538204669952393,1,-1.440345764,1,0.126777321,1,-0.735181212,1,0.010805557,1
2.775813818,-9.741109848,1,1.651817798614502,1,-10.25717449,1,3.259035348892212,1,7.559306144714355,1,-1.168324471,1,0.1409708261489868,1,-0.704561949,1,0.009307947,1
2.779813528,-10.8587141,1,1.011571526527405,1,-10.57404804,1,3.138823032,1,7.596342086791992,1,-0.945648849,1,0.1534850597381592,1,-0.673880756,1,0.00935195,1
2.783815145,-11.73786354,1,0.8533716797828674,1,-10.77203178,1,2.993088960647583,1,7.652001381,1,-0.788487315,1,0.1646518260240555,1,-0.643232465,1,0.011157212,1
2.787812948,-12.4988203,1,0.3748383224010468,1,-10.67231369,1,2.865630626678467,1,7.746222496032715,1,-0.685053766,1,0.1746867001056671,1,-0.612387836,1,0.013996706,1
2.79181242,-13.29575634,1,0.1918129771947861,1,-10.7646904,1,2.780974149703979,1,7.837676525115967,1,-0.636436522,1,0.1839575469493866,1,-0.581256092,1,0.017584292,1
2.795813799,-14.08263016,1,0.3660674095153809,1,-10.98086071,1,2.733802080154419,1,7.923009395599365,1,-0.621637046,1,0.1928034573793411,1,-0.549831331,1,0.021656122,1
2.799811602,-14.60594845,1,0.2820269763469696,1,-11.06856346,1,2.714918851852417,1,7.971683979034424,1,-0.634262979,1,0.2014756053686142,1,-0.518165588,1,0.026028244,1
2.803811073,-15.09639835,1,-0.113434851,1,-10.90503407,1,2.717857360839844,1,8.010197639465332,1,-0.664997697,1,0.210151196,1,-0.486332327,1,0.03057543,1
2.807812691,-15.82886028,1,-0.993825436,1,-10.57611942,1,2.728833436965942,1,8.017740249633789,1,-0.720922709,1,0.2189449518918991,1,-0.454415977,1,0.035203099,1
2.811810493,-17.004776,1,-2.087632895,1,-10.0143671,1,2.695075750350952,1,7.987680435180664,1,-0.81076324,1,0.2278770506381989,1,-0.422516704,1,0.039750338,1
2.815809965,-18.39404106,1,-3.439514637,1,-9.275677681,1,2.610839366912842,1,7.925442695617676,1,-0.921093643,1,0.2367997020483017,1,-0.390738368,1,0.04407008,1
2.819811583,-19.90441322,1,-4.607116222,1,-8.633080482,1,2.434465885162354,1,7.802007198,1,-1.065490723,1,0.2454579174518585,1,-0.35924536,1,0.048005082,1
2.823809385,-21.29262161,1,-5.580222607,1,-7.949497223,1,2.189362525939941,1,7.62186861,1,-1.23861146,1,0.2535819709300995,1,-0.3282004,1,0.051359057,1
2.827808857,-22.75277901,1,-5.682150841,1,-7.349447727,1,1.944256782531738,1,7.381404876708984,1,-1.42486918,1,0.2610403001308441,1,-0.297820419,1,0.053985827,1
2.831810474,-24.39400482,1,-4.63336134,1,-7.033703804,1,1.742720962,1,7.064539432525635,1,-1.656362891,1,0.2679215967655182,1,-0.268306285,1,0.055671513,1
2.835808277,-26.1077652,1,-3.148875475,1,-6.88415432,1,1.649681806564331,1,6.696047306060791,1,-1.908182263,1,0.274539977,1,-0.239869758,1,0.056201879,1
2.839807749,-28.38746071,1,-1.720430136,1,-6.63914299,1,1.665249705314636,1,6.284899234771729,1,-2.166102409,1,0.2813107669353485,1,-0.212678611,1,0.055456102,1
2.843809605,-30.4448967,1,-1.028561234,1,-6.043046474,1,1.760338187217712,1,5.840266227722168,1,-2.404818058,1,0.2885390520095825,1,-0.186828554,1,0.053455412,1
2.847807169,-32.34380722,1,0.1096432879567146,1,-5.378381729,1,1.906763911247253,1,5.350444316864014,1,-2.609590769,1,0.2964121997356415,1,-0.162492603,1,0.050258409,1
2.851806641,-33.99230957,1,1.443204879760742,1,-4.624070644,1,2.110714912414551,1,4.826460838317871,1,-2.78535533,1,0.3050719499588013,1,-0.139849365,1,0.045925435,1
2.855808258,-36.29941559,1,2.095194339752197,1,-3.643911362,1,2.378697633743286,1,4.322514533996582,1,-2.915961266,1,0.31472379,1,-0.118953824,1,0.040582709,1
2.859811783,-38.61676788,1,3.02116847,1,-2.767832756,1,2.665294408798218,1,3.807488679885864,1,-2.987277508,1,0.3254911601543427,1,-0.09979374,1,0.034437694,1
2.863811493,-41.28962326,1,4.019272804260254,1,-1.757011056,1,2.931083679199219,1,3.295917272567749,1,-3.030167818,1,0.3373090624809265,1,-0.082437873,1,0.027656233,1
2.86781311,-43.70246124,1,4.137830734,1,-0.466540843,1,3.144452571868896,1,2.800830125808716,1,-2.998473883,1,0.3500292003154755,1,-0.066885367,1,0.020364152,1
2.871810913,-44.63965607,1,3.104148864746094,1,1.131809830665588,1,3.21155858,1,2.324508190155029,1,-2.901657104,1,0.3632422983646393,1,-0.053165358,1,0.012851989,1
2.875810623,-44.77645111,1,2.209187507629395,1,2.463410615921021,1,3.066645860671997,1,1.793293952941895,1,-2.769139767,1,0.376218855,1,-0.041378602,1,0.00524145,1
2.879812002,-44.16722488,1,1.692069530487061,1,4.156900882720947,1,2.750935077667236,1,1.256664872169495,1,-2.592064381,1,0.3881753981113434,1,-0.031697314,1,-0.002450199,1
2.883809805,-43.27627563,1,2.252514600753784,1,5.682616233825684,1,2.305541038513184,1,0.712662935,1,-2.35324049,1,0.3985040485858917,1,-0.024267072,1,-0.010099453,1
2.887809277,-42.29808426,1,2.783162832260132,1,7.442663669586182,1,1.836630463600159,1,0.2353265285491943,1,-2.025242329,1,0.4070267677307129,1,-0.01905462,1,-0.017375372,1
2.891810894,-40.84689331,1,3.868250846862793,1,7.469098567962646,1,1.441766738891602,1,-0.245593086,1,-1.623945832,1,0.4136315584182739,1,-0.016200967,1,-0.024129575,1
2.895808458,-39.63290787,1,5.485007286071777,1,7.875852108001709,1,1.079429864883423,1,-0.588636279,1,-1.194357276,1,0.4187343120574951,1,-0.01543134,1,-0.029949784,1
2.899808168,-38.00817871,1,5.692990779876709,1,8.268312454223633,1,0.7897909879684448,1,-0.895348012,1,-0.704072773,1,0.4225326776504517,1,-0.016594542,1,-0.034642912,1
2.903809786,-36.76526642,1,5.930643081665039,1,7.998795986175537,1,0.5199744701385498,1,-1.131496906,1,-0.249013469,1,0.4252117276191711,1,-0.019509528,1,-0.038023278,1
2.907807827,-35.33137131,1,5.830650329589844,1,7.081082820892334,1,0.2826887965202332,1,-1.33313632,1,0.1816020756959915,1,0.426856667,1,-0.023956047,1,-0.040185694,1
2.911807299,-33.83314133,1,5.700740337371826,1,6.414518356323242,1,0.077392146,1,-1.480425715,1,0.5552066564559937,1,0.4275754392147064,1,-0.029710377,1,-0.041170452,1
2.915808678,-33.22099686,1,5.411225796,1,5.534411430358887,1,-0.057865079,1,-1.548419595,1,0.8596356511116028,1,0.4276086688041687,1,-0.036430374,1,-0.041093055,1
2.91980648,-32.19406891,1,5.025616169,1,5.085222244262695,1,-0.173306853,1,-1.561259866,1,1.063104629516602,1,0.4271126687526703,1,-0.043708093,1,-0.040147256,1
2.923805952,-15.50622654,1,-8.773114204,1,-8.898008347,1,-0.970675111,1,-1.820001245,1,1.263786435127258,1,0.4253987669944763,1,-0.051581524,1,-0.038645945,1
2.927807808,-19.46509171,1,-12.03514194,1,8.697266578674316,1,-4.364910126,1,-3.422595739,1,0.7265263795852661,1,0.4146194159984589,1,-0.062718242,1,-0.03910815,1
2.931805372,-45.29443741,1,-14.46585083,1,23.47954368591309,1,-6.840197563,1,-4.529576778,1,1.129054785,1,0.3921017050743103,1,-0.078946628,1,-0.042081539,1
2.935804844,-6.791657448,1,10.67211055755615,1,11.10871601104736,1,-6.035998344,1,-5.393383026,1,1.141650795936584,1,0.366072953,1,-0.099071436,1,-0.04523265,1
2.9398067,-3.960244179,1,14.51803493499756,1,-4.694595337,1,-6.13594389,1,-6.254239082,1,0.6964550614356995,1,0.3425315618515015,1,-0.122156762,1,-0.049755439,1
2.943804741,-30.02263641,1,17.83800697,1,-18.41128922,1,-4.776395798,1,-6.334031582,1,0.4907776415348053,1,0.3215665221214294,1,-0.147137821,1,-0.055792473,1
2.947804451,-22.50370598,1,16.73854064941406,1,-41.58255768,1,-3.957275391,1,-5.980505943,1,0.075006731,1,0.3048577904701233,1,-0.170936599,1,-0.062586486,1
2.951806307,-17.2617836,1,12.63473415374756,1,-45.09375763,1,-3.092672825,1,-5.77596283,1,-0.076380678,1,0.2929420173168182,1,-0.192989662,1,-0.069351755,1
2.955803871,-23.40850258,1,13.86602497,1,-48.15911102,1,-2.890321493,1,-5.918126583,1,0.6887233257293701,1,0.2815923690795898,1,-0.215970188,1,-0.075425342,1
2.959803581,-26.04367828,1,18.23926544189453,1,-47.90756226,1,-2.325829506,1,-5.899617672,1,1.670356989,1,0.2716077268123627,1,-0.239814594,1,-0.077263959,1
2.963805437,-28.6305294,1,20.10656547546387,1,-41.46845245,1,-1.910320401,1,-5.424197674,1,2.726716995239258,1,0.2625265419483185,1,-0.264148653,1,-0.074744307,1
2.96780324,-24.45379829,1,17.73885345458984,1,-32.70048141,1,-1.479168534,1,-4.959723949,1,3.528148889541626,1,0.2537976205348969,1,-0.287425756,1,-0.067567408,1
2.97180295,-17.06425095,1,10.33379269,1,-22.53104019,1,-1.17543602,1,-4.549133301,1,3.911235570907593,1,0.2454958409070969,1,-0.30953002,1,-0.057261731,1
2.975804329,-9.627171516,1,2.180405855178833,1,-11.08218765,1,-0.923004866,1,-4.329275131,1,3.868696451187134,1,0.2377303093671799,1,-0.330440104,1,-0.045774717,1
2.97980237,-2.552831888,1,-4.435471535,1,-1.26455009,1,-0.931413889,1,-4.223296165,1,3.670375108718872,1,0.2301706820726395,1,-0.350556552,1,-0.03432487,1
2.983808041,-0.732030392,1,-10.5788002,1,3.498652935028076,1,-1.266574621,1,-4.38307476,1,3.269023656845093,1,0.2222113758325577,1,-0.370365769,1,-0.023966815,1
2.987809896,-7.393870831,1,-16.23208237,1,5.027890205383301,1,-1.676898003,1,-4.544117928,1,2.848288297653198,1,0.2131564319133759,1,-0.390511036,1,-0.015279235,1
2.991807938,-21.25575638,1,-17.14040375,1,1.281014680862427,1,-2.156558752,1,-4.460724354,1,2.449832916259766,1,0.2026797533035278,1,-0.410429955,1,-0.008022438,1
2.995807409,-28.01454544,1,-12.56102085,1,-4.037090778,1,-2.534455061,1,-3.880936861,1,2.025568723678589,1,0.1909059137105942,1,-0.428611219,1,-0.002159648,1
2.999809027,-34.05088425,1,-4.122139454,1,-9.760273933,1,-2.767264366,1,-3.012042999,1,1.817554712295532,1,0.1778532415628433,1,-0.443647772,1,0.003382358,1
3.003807068,-30.09719849,1,9.913767815,1,-17.6545372,1,-2.549180984,1,-1.60782361,1,1.866307616233826,1,0.1644647866487503,1,-0.454111159,1,0.009551555,1
3.00780654,-10.83516598,1,19.97725296020508,1,-15.61396599,1,-2.03950119,1,-0.725189447,1,2.273109197616577,1,0.1515496820211411,1,-0.459660649,1,0.017880043,1
3.011808157,-4.909965515,1,13.32072830200195,1,-17.0924015,1,-1.666962266,1,-0.384237051,1,2.424670457839966,1,0.1397228240966797,1,-0.463375926,1,0.027995333,1
3.015806198,-11.19973755,1,3.216141462,1,-16.22691917,1,-1.490210533,1,-0.080653444,1,1.991255044937134,1,0.1290224641561508,1,-0.465329409,1,0.037849799,1
3.01980567,-7.200357914,1,-3.35918808,1,-13.13587093,1,-1.351475,1,-0.380692691,1,1.400195956230164,1,0.1200721189379692,1,-0.467019022,1,0.04521016,1
3.023807526,-17.27197266,1,-2.347366095,1,-15.8989048,1,-1.187369704,1,-0.111125387,1,0.9947887063026428,1,0.1126322522759438,1,-0.468732297,1,0.050299767,1
3.027805328,-3.686212301,1,6.693113327026367,1,-9.209638596,1,-0.933693826,1,-0.297512412,1,1.026825785636902,1,0.1063185334205627,1,-0.469764888,1,0.05469586,1
3.031805038,-3.135332108,1,5.597385883331299,1,-11.61491871,1,-0.721910179,1,-0.323561549,1,1.045774817466736,1,0.1010946407914162,1,-0.471541673,1,0.058042705,1
3.035806656,-6.58532095,1,1.628032803535461,1,-10.80784321,1,-0.460520118,1,-0.276627839,1,0.9604228734970093,1,0.096791744,1,-0.473130554,1,0.06240033,1
3.039804459,-6.513688087,1,-3.317660093,1,-8.934546471,1,-0.365206748,1,-0.334577799,1,0.8376163840293884,1,0.093387261,1,-0.474664748,1,0.06629914,1
3.043804169,-8.333278656,1,-3.792761087,1,-10.96196747,1,-0.381403387,1,-0.313583612,1,0.7954427003860474,1,0.090279303,1,-0.476296902,1,0.069771513,1
3.047806025,-5.514652729,1,-1.1444453,1,-9.959671021,1,-0.413720906,1,-0.330188602,1,0.770477295,1,0.087106347,1,-0.477805853,1,0.073190518,1
3.051803589,-5.548539639,1,2.049265146255493,1,-11.1494875,1,-0.285743028,1,-0.408440918,1,0.653961182,1,0.084275432,1,-0.479551375,1,0.076242492,1
3.055803299,-6.485676765,1,5.631637096405029,1,-11.86533546,1,-0.091474302,1,-0.5076949,1,0.598983109,1,0.082318068,1,-0.481589973,1,0.078831628,1
3.059805393,-5.886732578,1,2.544484138,1,-11.20843029,1,0.047589201,1,-0.565829456,1,0.6023402810096741,1,0.081102721,1,-0.483941585,1,0.081363656,1
3.063803434,-6.004264832,1,-0.901076376,1,-10.67560959,1,0.1454248130321503,1,-0.65938431,1,0.5573881864547729,1,0.080378525,1,-0.486561567,1,0.083757818,1
3.067803144,-4.396296978,1,-2.725850821,1,-10.30822182,1,0.150075838,1,-0.725468278,1,0.564347506,1,0.07993114,1,-0.489512205,1,0.086010061,1
3.071804762,-4.935583591,1,-3.771202564,1,-10.0176754,1,0.097309858,1,-0.786887646,1,0.6078792810440063,1,0.079326399,1,-0.492734373,1,0.088400409,1
3.075802565,-6.508448124,1,-3.414631844,1,-9.647716522,1,0.029807929,1,-0.842355609,1,0.5630291104316711,1,0.078441851,1,-0.496145248,1,0.090798594,1
3.079802036,-7.394878387,1,0.7368943691253662,1,-10.06967926,1,-0.032449402,1,-0.905262351,1,0.5387246608734131,1,0.077343799,1,-0.499809861,1,0.092999384,1
3.083803654,-6.542356491,1,2.563397169113159,1,-10.74675655,1,-0.04988737,1,-0.992838264,1,0.4121889770030975,1,0.076262608,1,-0.503718555,1,0.094844535,1
