Time,inertial-6253.76535:estCompensatedAccelX,inertial-6253.76535:estCompensatedAccelX:valid,inertial-6253.76535:estCompensatedAccelY,inertial-6253.76535:estCompensatedAccelY:valid,inertial-6253.76535:estCompensatedAccelZ,inertial-6253.76535:estCompensatedAccelZ:valid,inertial-6253.76535:estAngularRateX,inertial-6253.76535:estAngularRateX:valid,inertial-6253.76535:estAngularRateY,inertial-6253.76535:estAngularRateY:valid,inertial-6253.76535:estAngularRateZ,inertial-6253.76535:estAngularRateZ:valid,inertial-6253.76535:estRoll,inertial-6253.76535:estRoll:valid,inertial-6253.76535:estPitch,inertial-6253.76535:estPitch:valid,inertial-6253.76535:estYaw,inertial-6253.76535:estYaw:valid
0,-5.308487415,1,-1.74455142,1,-8.047310829,1,0.001399283,1,-0.005491938,1,0.005768289,1,0.2239343971014023,1,-0.592984498,1,0.4256942272186279,1
0.003999488,-5.322145939,1,-1.719448924,1,-8.093270302,1,0.006237325,1,-0.003693854,1,0.004401946,1,0.2239383459091187,1,-0.593010902,1,0.4257187843322754,1
0.008001024,-5.286505222,1,-1.753654838,1,-8.077255249,1,0.002042502,1,-0.006468603,1,0.007781883,1,0.2239431589841843,1,-0.593042016,1,0.4257385432720184,1
0.01199872,-5.264160156,1,-1.732958078,1,-8.105824471,1,0.004463325,1,-0.010686353,1,0.003812439,1,0.2239486426115036,1,-0.593076468,1,0.4257524013519287,1
0.015998209,-5.299245358,1,-1.726471543,1,-8.078491211,1,0.00386274,1,-0.008002501,1,0.006512919,1,0.2239597886800766,1,-0.593112051,1,0.4257717430591583,1
0.019999744,-5.328981876,1,-1.75498724,1,-8.089934349,1,0.002456176,1,-0.009841066,1,0.000351939,1,0.2239694446325302,1,-0.593151331,1,0.4257804751396179,1
0.023997439,-5.287704945,1,-1.717878819,1,-8.085333824,1,0.003728119,1,-0.008613119,1,0.004046421,1,0.223980576,1,-0.593185067,1,0.4257912337779999,1
0.027997185,-5.318165302,1,-1.730543375,1,-8.093075752,1,0.00232028,1,-0.008317046,1,0.001626669,1,0.2239924371242523,1,-0.593222857,1,0.4257968068122864,1
0.03199872,-5.321772575,1,-1.726636171,1,-8.068737984,1,0.002179587,1,-0.010017358,1,0.006691344,1,0.2239900976419449,1,-0.593257904,1,0.4258135557174683,1
0.035996415,-5.356598377,1,-1.719172835,1,-8.085898399,1,-0.000956994,1,-0.006607335,1,0.005618501,1,0.2239958047866821,1,-0.593301117,1,0.4258255064487457,1
0.039995905,-5.309718609,1,-1.725946069,1,-8.060917854,1,-0.000150828,1,-0.003092858,1,0.004427918,1,0.2239881306886673,1,-0.593333721,1,0.4258480072021484,1
0.043997698,-5.340805531,1,-1.748417616,1,-8.056437492,1,0.002685634,1,-0.009920342,1,0.007137494,1,0.2239780575037003,1,-0.593362153,1,0.4258741736412048,1
0.047995392,-5.330467224,1,-1.699462771,1,-8.069317818,1,-0.004483746,1,-0.006731806,1,0.006713952,1,0.2239642441272736,1,-0.593393683,1,0.425905317,1
0.051994879,-5.319530487,1,-1.717323065,1,-8.059195518,1,0.000717424,1,-0.001901928,1,0.009185371,1,0.2239378839731216,1,-0.593417287,1,0.4259353578090668,1
0.056002814,-5.328432083,1,-1.720098495,1,-8.072419167,1,0.003275976,1,-0.008384965,1,0.00522161,1,0.2239208519458771,1,-0.593438029,1,0.4259669184684753,1
0.060006656,-5.354938507,1,-1.715710998,1,-8.052227974,1,-0.002881823,1,-0.002460093,1,0.008170317,1,0.2239001542329788,1,-0.593459845,1,0.4259938895702362,1
0.064006403,-5.325398445,1,-1.70576036,1,-8.075722694,1,0.003039271,1,-0.000189756,1,0.00226539,1,0.2238866090774536,1,-0.593469203,1,0.4260254204273224,1
0.068007939,-5.31276989,1,-1.667632699,1,-8.064669609,1,0.000587639,1,-0.000571995,1,0.005624525,1,0.2238685041666031,1,-0.593480527,1,0.4260536730289459,1
0.07200563,-5.325576305,1,-1.713258028,1,-8.066504478,1,0.002684291,1,0.000363816,1,0.005173043,1,0.2238481640815735,1,-0.5934847,1,0.4260851144790649,1
0.076005124,-5.310571671,1,-1.71916914,1,-8.079414368,1,-0.001609158,1,0.003271025,1,0.009946236,1,0.2238271683454514,1,-0.593480825,1,0.4261189699172974,1
0.080006659,-5.35897398,1,-1.733936191,1,-8.074934959,1,0.000937228,1,8.29007476568222e-05,1,0.005119952,1,0.2238042503595352,1,-0.593475103,1,0.4261505007743835,1
0.08400435,-5.346108913,1,-1.735589623,1,-8.057450294,1,0.00013744,1,0.003349269,1,0.006516306,1,0.2237799763679504,1,-0.593477786,1,0.4261972308158875,1
0.088004097,-5.296566486,1,-1.726937294,1,-8.063357353,1,-0.000836444,1,-0.000248898,1,0.010057008,1,0.2237481623888016,1,-0.593482137,1,0.4262361526489258,1
0.092005633,-5.302455902,1,-1.718050599,1,-8.079497337,1,-0.004224094,1,0.001032224,1,0.006971785,1,0.2237102389335632,1,-0.59348613,1,0.4262815713882446,1
0.09600307,-5.324555397,1,-1.747887492,1,-8.058826447,1,0.001912772,1,0.001610106,1,0.009747208,1,0.2236791104078293,1,-0.593489587,1,0.4263259172439575,1
0.100002557,-5.291748047,1,-1.753843904,1,-8.075113297,1,-0.00520007,1,0.002426854,1,0.012189228,1,0.2236290574073792,1,-0.59348917,1,0.4263766407966614,1
0.104004353,-5.315726757,1,-1.721296668,1,-8.070439339,1,-0.002970034,1,0.008949514,1,0.007366877,1,0.2235879898071289,1,-0.593486845,1,0.426424116,1
0.108002305,-5.324128628,1,-1.707443118,1,-8.084173203,1,-0.004387185,1,0.001288987,1,0.011984228,1,0.2235430181026459,1,-0.59348321,1,0.4264753758907318,1
0.112001792,-5.305592537,1,-1.715319514,1,-8.088387489,1,-0.004382083,1,0.003703375,1,0.009762133,1,0.2234954833984375,1,-0.593486726,1,0.4265238642692566,1
0.116003327,-5.320441246,1,-1.725820065,1,-8.080394745,1,-0.001887213,1,0.003567731,1,0.007552932,1,0.2234514355659485,1,-0.593481421,1,0.4265731573104858,1
0.120001025,-5.327838898,1,-1.670893192,1,-8.091878891,1,-0.009691626,1,0.001281055,1,0.009659353,1,0.2234086990356445,1,-0.593482852,1,0.426613986,1
0.124000765,-5.330955029,1,-1.665296674,1,-8.060481071,1,-0.005362925,1,0.002168463,1,0.010169079,1,0.2233618199825287,1,-0.593477845,1,0.4266573488712311,1
0.128002554,-5.296493053,1,-1.672051668,1,-8.071310043,1,-0.000957371,1,0.00079666,1,0.005695253,1,0.223322719,1,-0.593476295,1,0.4267006814479828,1
0.132000506,-5.322845936,1,-1.675750494,1,-8.078947067,1,0.000422166,1,0.002113356,1,0.009790463,1,0.2232896387577057,1,-0.593472898,1,0.4267399609088898,1
0.136000007,-5.319673061,1,-1.64166069,1,-8.09663868,1,-0.001728425,1,0.003417547,1,0.007286291,1,0.2232614010572433,1,-0.593468726,1,0.4267802834510803,1
0.140001789,-5.318408966,1,-1.713396311,1,-8.081911087,1,-0.003971533,1,0.002239735,1,0.00675938,1,0.2232410460710526,1,-0.593472838,1,0.4268181025981903,1
0.143999487,-5.351058483,1,-1.688635468,1,-8.082029343,1,0.000583301,1,-0.00057676,1,0.006422547,1,0.2232237458229065,1,-0.593473077,1,0.4268539547920227,1
0.147998974,-5.335651398,1,-1.704970241,1,-8.073647499,1,-0.001321521,1,0.00237668,1,0.008033752,1,0.2231969684362411,1,-0.593467474,1,0.4268925786018372,1
0.15200077,-5.308842182,1,-1.706589937,1,-8.073083878,1,-0.00140711,1,0.003570289,1,0.008907593,1,0.2231727093458176,1,-0.593466938,1,0.4269222617149353,1
0.155998468,-5.338578701,1,-1.673315644,1,-8.057405472,1,0.000566673,1,-0.000549108,1,0.005468954,1,0.2231504917144775,1,-0.593458176,1,0.4269563257694244,1
0.159997955,-5.354696751,1,-1.674821258,1,-8.09146595,1,0.0031469,1,0.002711893,1,0.004504863,1,0.223134845,1,-0.59345603,1,0.426982194,1
0.163999483,-5.313800812,1,-1.669618607,1,-8.088050842,1,-0.002495121,1,0.000888948,1,0.007131881,1,0.2231161892414093,1,-0.593447447,1,0.4270201027393341,1
0.167996928,-5.314116955,1,-1.714283228,1,-8.099171638,1,0.000116325,1,0.004587214,1,0.007656557,1,0.2231008410453796,1,-0.593434513,1,0.4270507991313934,1
0.171996668,-5.314878941,1,-1.711675048,1,-8.085073471,1,9.646875696489587e-05,1,0.003644538,1,0.005298479,1,0.2230855375528336,1,-0.593419611,1,0.4270797967910767,1
0.17600435,-5.286882401,1,-1.691673994,1,-8.090816498,1,0.003307911,1,0.001392478,1,0.006380359,1,0.2230773568153381,1,-0.593410909,1,0.4271041452884674,1
0.180007935,-5.299192429,1,-1.732748032,1,-8.084969521,1,0.001915507,1,0.003099645,1,0.006055219,1,0.2230711281299591,1,-0.593395948,1,0.4271345138549805,1
0.184007674,-5.323804379,1,-1.681781888,1,-8.09530735,1,-0.000680404,1,0.003491891,1,0.005827025,1,0.2230632752180099,1,-0.593392491,1,0.427161306,1
0.188009217,-5.305569172,1,-1.694142699,1,-8.040348053,1,0.00226068,1,0.003546075,1,0.004522351,1,0.222733736,1,-0.592710197,1,0.4271754920482635,1
0.192006916,-5.317090988,1,-1.702415347,1,-8.061293602,1,-0.000488005,1,0.00524433,1,0.000999424,1,0.2227233797311783,1,-0.592699289,1,0.4272041022777557,1
0.196006402,-5.278981209,1,-1.675684571,1,-8.082967758,1,0.00413635,1,0.002654992,1,0.003857321,1,0.2227251529693604,1,-0.592690229,1,0.4272217452526093,1
0.200008199,-5.291272163,1,-1.681345344,1,-8.130084991,1,0.004743361,1,0.001552091,1,0.004516694,1,0.2227277755737305,1,-0.592689097,1,0.4272404909133911,1
0.20400615,-5.277702808,1,-1.71671474,1,-8.055586815,1,0.003837343,1,0.000206962,1,0.003039918,1,0.2227357774972916,1,-0.59268558,1,0.4272617101669312,1
0.208005637,-5.283799648,1,-1.730083227,1,-8.053529739,1,0.003895386,1,0.000875358,1,0.003067389,1,0.2227412760257721,1,-0.592683017,1,0.4272739291191101,1
0.212007165,-5.336313248,1,-1.752799869,1,-8.102508545,1,0.002824718,1,5.82581851631403e-05,1,0.002193166,1,0.2227476388216019,1,-0.592687368,1,0.4272947609424591,1
0.216004863,-5.321692467,1,-1.707535505,1,-8.065815926,1,0.002410943,1,0.001361334,1,0.00603698,1,0.2227500975131989,1,-0.592681646,1,0.4273108541965485,1
0.22000435,-5.328215599,1,-1.716021299,1,-8.085686684,1,-0.000893655,1,-0.001322985,1,0.004564025,1,0.2227440923452377,1,-0.592689872,1,0.4273390173912048,1
0.224005893,-5.316877842,1,-1.697448492,1,-8.060658455,1,0.001017575,1,0.00059165,1,0.007223776,1,0.2227340787649155,1,-0.592691302,1,0.427369624,1
0.228003591,-5.305546761,1,-1.675952911,1,-8.047296524,1,0.001633982,1,-0.0010653,1,0.007524384,1,0.2227266579866409,1,-0.5926916,1,0.4273955225944519,1
0.232003078,-5.332294941,1,-1.701398373,1,-8.063715935,1,0.002704962,1,0.003849589,1,0.003617152,1,0.222719669,1,-0.592687428,1,0.4274262189865112,1
0.236004859,-5.320765972,1,-1.704313993,1,-8.061357498,1,0.004091962,1,0.002945712,1,0.007230122,1,0.2227143198251724,1,-0.592690527,1,0.4274560511112213,1
0.240002558,-5.333328247,1,-1.73142004,1,-8.058858871,1,0.004905209,1,0.000435796,1,0.005750755,1,0.2227142304182053,1,-0.592683434,1,0.4274815917015076,1
0.244002044,-5.30373764,1,-1.69036901,1,-8.071917534,1,0.00068887,1,0.005181834,1,0.000626411,1,0.2227126508951187,1,-0.592682123,1,0.4275012016296387,1
0.24800384,-5.329552174,1,-1.725483775,1,-8.063808441,1,-0.001007239,1,0.003241926,1,0.003088848,1,0.2227088660001755,1,-0.592676759,1,0.4275224506855011,1
0.252001524,-5.320996284,1,-1.705786467,1,-8.073045731,1,0.004602273,1,0.005231325,1,0.006051005,1,0.2227006107568741,1,-0.592663586,1,0.4275502860546112,1
0.256001025,-5.313802242,1,-1.683224916,1,-8.080272675,1,0.00172803,1,0.001733569,1,0.004484756,1,0.222694993,1,-0.592659295,1,0.4275758862495422,1
0.260002553,-5.316215038,1,-1.721265197,1,-8.076889038,1,0.003763864,1,0.003506655,1,0.005192785,1,0.2226887196302414,1,-0.592650354,1,0.4276035130023956,1
0.264000267,-5.284853935,1,-1.705951691,1,-8.103954315,1,0.000699948,1,0.005618881,1,0.005773604,1,0.2226827442646027,1,-0.592637897,1,0.4276268184185028,1
0.267999738,-5.296268463,1,-1.719146252,1,-8.094319344,1,0.001205685,1,0.003195987,1,0.003651097,1,0.2226789146661758,1,-0.592633009,1,0.4276553094387054,1
0.272001535,-5.309191704,1,-1.660107732,1,-8.082295418,1,0.001904515,1,0.00140012,1,0.001356661,1,0.2226745635271072,1,-0.592615247,1,0.4276792407035828,1
0.275999218,-5.319832325,1,-1.712144494,1,-8.103466988,1,0.001303735,1,0.003611836,1,0.005073418,1,0.2226710468530655,1,-0.5926072,1,0.4277033805847168,1
0.27999872,-5.303201199,1,-1.695407867,1,-8.057841301,1,0.002844597,1,0.003972189,1,0.00213312,1,0.2226666510105133,1,-0.592597067,1,0.427725077,1
0.284000248,-5.335442066,1,-1.690535307,1,-8.095312119,1,0.003516846,1,0.003767446,1,0.005304512,1,0.2226705402135849,1,-0.592587769,1,0.4277461767196655,1
0.287997693,-5.337235928,1,-1.679232478,1,-8.059234619,1,0.003274597,1,0.003179407,1,0.006208872,1,0.2226702719926834,1,-0.592579007,1,0.4277663826942444,1
0.291997194,-5.280924797,1,-1.678543925,1,-8.083211899,1,0.001426826,1,0.005698514,1,0.002317902,1,0.2226699590682983,1,-0.592564166,1,0.4277909994125366,1
0.296004593,-5.320127964,1,-1.679505229,1,-8.054567337,1,0.00797557,1,0.004499059,1,0.002532396,1,0.222682998,1,-0.592553437,1,0.4277997016906738,1
0.300008446,-5.311629295,1,-1.701269388,1,-8.105507851,1,0.001435941,1,0.001140199,1,-0.001485288,1,0.2226963341236115,1,-0.592536628,1,0.4278107285499573,1
0.304008186,-5.306982517,1,-1.712913156,1,-8.071076393,1,0.005313742,1,0.004460482,1,0.007245417,1,0.2227019667625427,1,-0.592527151,1,0.4278297126293182,1
0.308009714,-5.312753677,1,-1.734882474,1,-8.068658829,1,0.005076566,1,0.003811226,1,0.003448227,1,0.2227157950401306,1,-0.592520416,1,0.4278515577316284,1
0.312007427,-5.292001724,1,-1.668868542,1,-8.100430489,1,0.004530765,1,0.004189752,1,0.005178753,1,0.222724512,1,-0.592511654,1,0.4278740882873535,1
0.316006899,-5.289916515,1,-1.693872809,1,-8.108991623,1,0.00979293,1,0.001003793,1,0.002047603,1,0.2227351367473602,1,-0.592498302,1,0.4278917014598846,1
0.320008457,-5.290303707,1,-1.699591041,1,-8.111444473,1,0.005621315,1,0.001179023,1,0.00285394,1,0.2227594256401062,1,-0.592496037,1,0.4279086887836456,1
0.32400614,-5.321511745,1,-1.68065846,1,-8.093251228,1,0.009082484,1,0.001483867,1,0.001206047,1,0.2227654457092285,1,-0.592494965,1,0.4279188215732574,1
0.328005642,-5.301286697,1,-1.688995957,1,-8.081133842,1,0.002911385,1,-0.001877411,1,0.002644432,1,0.2227796167135239,1,-0.592486084,1,0.4279313981533051,1
0.332007438,-5.308350563,1,-1.711327553,1,-8.082564354,1,0.003706788,1,0.002615811,1,0.001371604,1,0.2227855920791626,1,-0.592486918,1,0.4279473721981049,1
0.336005121,-5.314541817,1,-1.739536285,1,-8.094079018,1,0.007141092,1,-0.001182562,1,0.00151154,1,0.2228041589260101,1,-0.592486262,1,0.4279611110687256,1
0.340004861,-5.253940582,1,-1.707248807,1,-8.134135246,1,0.004096829,1,-0.002136199,1,0.009299599,1,0.2228121757507324,1,-0.592493832,1,0.427979976,1
0.344006389,-5.329805374,1,-1.628689766,1,-8.084224701,1,0.008335177,1,0.001269357,1,0.004704862,1,0.2228172719478607,1,-0.592494249,1,0.4280027747154236,1
0.348004103,-5.377651215,1,-1.736401677,1,-8.025071144,1,0.004234516,1,-0.003633947,1,0.003634233,1,0.2228393107652664,1,-0.592497587,1,0.4280168116092682,1
0.352003336,-5.351457119,1,-1.845909595,1,-8.043022156,1,0.004185906,1,0.002414849,1,0.003301686,1,0.2228517830371857,1,-0.59250021,1,0.4280284643173218,1
0.356004864,-5.274599552,1,-1.769355297,1,-8.120465279,1,0.001392123,1,0.001565588,1,0.005546748,1,0.2228589057922363,1,-0.592493534,1,0.4280447959899902,1
0.360002548,-5.256567001,1,-1.646317005,1,-8.125786781,1,0.005783246,1,-0.002186506,1,0.004914508,1,0.2228585630655289,1,-0.592496991,1,0.4280657768249512,1
0.364002049,-5.307796001,1,-1.633335233,1,-8.127236366,1,0.000918007,1,0.000871734,1,0.004609064,1,0.2228558212518692,1,-0.592500985,1,0.4280909597873688,1
0.368003577,-5.309167862,1,-1.65787518,1,-8.069198608,1,0.004853146,1,-0.000742545,1,0.005653033,1,0.2228648066520691,1,-0.59250623,1,0.4281145930290222,1
0.372001022,-5.320614815,1,-1.714753032,1,-8.076713562,1,0.002491817,1,0.000906645,1,0.000401946,1,0.2228677719831467,1,-0.592509687,1,0.428136945,1
0.376000762,-5.316119671,1,-1.70801115,1,-8.091311455,1,0.007879535,1,0.000977425,1,0.003592443,1,0.222878098,1,-0.592511654,1,0.4281543493270874,1
0.38000229,-5.272161484,1,-1.700031638,1,-8.071127892,1,0.006734473,1,-0.001019263,1,0.002575712,1,0.2229041755199432,1,-0.592521131,1,0.4281569123268127,1
0.384000003,-5.273612499,1,-1.667452455,1,-8.090100288,1,0.007397273,1,0.001154929,1,-0.00181805,1,0.2229304611682892,1,-0.592527151,1,0.428164929,1
0.387999475,-5.293899536,1,-1.664595246,1,-8.114325523,1,0.0092562,1,-0.003557978,1,0.000814646,1,0.2229616791009903,1,-0.592536509,1,0.4281530678272247,1
0.392001033,-5.279662132,1,-1.643806219,1,-8.074952126,1,0.011198394,1,-0.003320759,1,-0.002458265,1,0.223005474,1,-0.592555225,1,0.4281546771526337,1
0.395998716,-5.342200756,1,-1.699352264,1,-8.125859261,1,0.010735951,1,-0.004092895,1,-0.001290462,1,0.2230529934167862,1,-0.592573166,1,0.4281386435031891,1
0.399998218,-5.285545826,1,-1.695879698,1,-8.091625214,1,0.007928821,1,-0.007319634,1,0.000538435,1,0.223099411,1,-0.5925951,1,0.4281266331672668,1
0.403999746,-5.29890728,1,-1.669341803,1,-8.076566696,1,0.012374002,1,-0.004644466,1,-0.003816635,1,0.2231515794992447,1,-0.592621744,1,0.4281092286109924,1
0.407997429,-5.308319569,1,-1.673363566,1,-8.068060875,1,0.009947908,1,-0.009793237,1,-0.002687586,1,0.2232100814580917,1,-0.592644751,1,0.4280830919742584,1
0.411996931,-5.33147192,1,-1.673220158,1,-8.081873894,1,0.01176666,1,-0.005882004,1,-0.003517124,1,0.2232725024223328,1,-0.592664838,1,0.4280681014060974,1
0.416004598,-5.321731091,1,-1.713460207,1,-8.065648079,1,0.014861131,1,-0.009403967,1,0.00139074,1,0.2233436852693558,1,-0.592690945,1,0.4280431866645813,1
0.420008451,-5.351050377,1,-1.768859148,1,-8.05065155,1,0.010650032,1,-0.008322371,1,-0.004581709,1,0.2234019637107849,1,-0.592726886,1,0.428028792,1
0.424008191,-5.354401588,1,-1.810316086,1,-8.050723076,1,0.011162019,1,-0.008984527,1,-0.003609156,1,0.2234638929367065,1,-0.592758954,1,0.4280039072036743,1
0.428009987,-5.336142063,1,-1.732593536,1,-8.091927528,1,0.007098772,1,-0.004216803,1,-0.008244743,1,0.2235152721405029,1,-0.592785716,1,0.4279816448688507,1
0.43200767,-5.345581055,1,-1.78614676,1,-8.076442719,1,0.006426021,1,-0.007370616,1,8.92727985046804e-05,1,0.2235556095838547,1,-0.592808068,1,0.4279619455337524,1
0.436007172,-5.353332043,1,-1.719698071,1,-8.058269501,1,0.005767155,1,-0.007629422,1,0.000812474,1,0.2232126146554947,1,-0.592269838,1,0.4283182621002197,1
0.440008968,-5.330435276,1,-1.703587174,1,-8.086856842,1,0.006571522,1,-0.003935141,1,-2.55E-05,1,0.2232962995767593,1,-0.592192471,1,0.4279372692108154,1
0.444006652,-5.345731735,1,-1.696435571,1,-8.053003311,1,0.006939,1,-0.003443292,1,0.004592189,1,0.223318025,1,-0.592215776,1,0.4279472231864929,1
0.448006153,-5.336505413,1,-1.712303638,1,-8.057790756,1,0.00639589,1,-0.006367941,1,0.000953883,1,0.2233399748802185,1,-0.59222728,1,0.4279524981975555,1
0.452007681,-5.306522846,1,-1.695726395,1,-8.028089523,1,0.004996582,1,-0.00012165,1,6.384233711287379e-05,1,0.223370373,1,-0.592246771,1,0.4279552400112152,1
0.456005365,-5.331207752,1,-1.7374686,1,-8.074970245,1,0.005300872,1,-0.006987435,1,0.00407217,1,0.2233816534280777,1,-0.59225446,1,0.4279630184173584,1
0.460004866,-5.328857899,1,-1.742803574,1,-8.039125443,1,0.00061844,1,-0.002163956,1,0.002937327,1,0.223390594,1,-0.59226495,1,0.4279740750789642,1
0.464006394,-5.330610752,1,-1.797856808,1,-8.035423279,1,0.000228098,1,-0.0005446,1,0.005986257,1,0.2233769744634628,1,-0.59227252,1,0.4279983341693878,1
0.468004107,-5.308653831,1,-1.764951825,1,-8.05829525,1,0.00298567,1,0.00073975,1,0.005362235,1,0.2233636081218719,1,-0.592286229,1,0.4280291199684143,1
0.472004086,-5.338563919,1,-1.759891868,1,-8.056267738,1,-0.001221494,1,0.001712177,1,0.002826086,1,0.2233466953039169,1,-0.592289209,1,0.4280571341514587,1
0.476005644,-5.291380405,1,-1.765422225,1,-8.051815987,1,-0.00010037,1,0.006878707,1,0.00921033,1,0.2233109176158905,1,-0.592281103,1,0.4280945658683777,1
0.480003059,-5.309557438,1,-1.765179396,1,-8.049248695,1,-0.005932842,1,0.002134732,1,0.012657706,1,0.223270372,1,-0.592279077,1,0.4281531572341919,1
0.48400256,-5.330379009,1,-1.71272409,1,-8.094957352,1,-0.003274129,1,0.000684988,1,0.007601358,1,0.2232211977243423,1,-0.592272878,1,0.4282020330429077,1
0.488004088,-5.325897217,1,-1.736689329,1,-8.081537247,1,-0.007480675,1,0.001520784,1,0.013313385,1,0.2231792807579041,1,-0.59227407,1,0.4282444715499878,1
0.492001802,-5.317322254,1,-1.694097161,1,-8.081992149,1,-0.004196214,1,-0.000878901,1,0.009471133,1,0.2231326550245285,1,-0.592275858,1,0.4282933473587036,1
0.496001273,-5.302763939,1,-1.699587941,1,-8.103766441,1,-0.00390137,1,-0.000325495,1,0.00705866,1,0.2230972796678543,1,-0.59229213,1,0.4283334612846375,1
0.500002801,-5.297627926,1,-1.689135432,1,-8.09397316,1,-0.005753834,1,0.00322198,1,0.009938967,1,0.2230614721775055,1,-0.592289329,1,0.4283705949783325,1
0.504000485,-5.310436249,1,-1.709209442,1,-8.124666214,1,-0.00061934,1,0.002199416,1,0.009063103,1,0.2230254709720612,1,-0.592298865,1,0.4284081757068634,1
0.508000016,-5.298649311,1,-1.678094745,1,-8.085066795,1,0.003169137,1,-0.000736318,1,0.007414154,1,0.2230059802532196,1,-0.592306077,1,0.4284461140632629,1
0.512001514,-5.314075947,1,-1.676256418,1,-8.098562241,1,-0.00010049,1,-0.001336424,1,0.010990656,1,0.2229907661676407,1,-0.592318535,1,0.4284812808036804,1
0.515999258,-5.332864285,1,-1.691029668,1,-8.113803864,1,-0.000618544,1,0.001210785,1,0.007015832,1,0.2229678928852081,1,-0.592326403,1,0.4285174310207367,1
0.519998968,-5.308043003,1,-1.67556107,1,-8.088404655,1,-0.001533375,1,-0.001492745,1,0.005994739,1,0.2229472249746323,1,-0.592335284,1,0.4285468757152557,1
0.524000764,-5.338449478,1,-1.69590044,1,-8.089746475,1,0.000258148,1,-0.00220169,1,0.008191174,1,0.2229408323764801,1,-0.592357635,1,0.4285732805728912,1
0.527998447,-5.319009781,1,-1.702914,1,-8.075820923,1,0.003774277,1,-0.002517303,1,0.006117146,1,0.2229298055171967,1,-0.592371941,1,0.428592861,1
0.531997979,-5.308137894,1,-1.692626715,1,-8.075814247,1,-0.003079298,1,-0.003433638,1,0.005420304,1,0.2229252010583878,1,-0.592381358,1,0.4286152422428131,1
0.536005616,-5.331245899,1,-1.734430075,1,-8.070925713,1,0.000461061,1,-0.001203582,1,0.005427688,1,0.2229063957929611,1,-0.59239161,1,0.4286433458328247,1
0.540009201,-5.345129967,1,-1.667126298,1,-8.068541527,1,0.002583075,1,0.00207864,1,0.003042145,1,0.2229006290435791,1,-0.592400491,1,0.4286659955978394,1
0.544008732,-5.327212334,1,-1.692173243,1,-8.077689171,1,0.001077104,1,0.001416843,1,0.004451257,1,0.2229012101888657,1,-0.592400074,1,0.4286822974681854,1
0.54801023,-5.323849678,1,-1.734623075,1,-8.075255394,1,0.002913428,1,0.000124965,1,0.003694264,1,0.2229023426771164,1,-0.592406809,1,0.4286992251873016,1
0.552007914,-5.335514545,1,-1.696280956,1,-8.092726707,1,0.002817488,1,-0.000558571,1,0.002424867,1,0.222903848,1,-0.592412233,1,0.4287188947200775,1
0.556007445,-5.327356339,1,-1.714024901,1,-8.063916206,1,0.004751335,1,0.002301194,1,0.00316286,1,0.2229087948799133,1,-0.592408299,1,0.428736538,1
0.560009241,-5.314628124,1,-1.698177338,1,-8.069694519,1,0.001158529,1,0.001478745,1,0.005560629,1,0.2229143381118774,1,-0.592405736,1,0.4287568628787994,1
0.564006925,-5.289243698,1,-1.68125701,1,-8.069448471,1,0.004948568,1,0.000930501,1,0.002532405,1,0.222911149,1,-0.592406273,1,0.4287749528884888,1
0.568006396,-5.305335045,1,-1.719115973,1,-8.054174423,1,0.003933161,1,0.003364842,1,0.004630801,1,0.2229082435369492,1,-0.592401206,1,0.4287956058979034,1
0.572007954,-5.297969341,1,-1.707239032,1,-8.064678192,1,0.002602963,1,0.000860417,1,0.006137718,1,0.2229117900133133,1,-0.592394412,1,0.4288181066513062,1
0.576005399,-5.324947357,1,-1.72087276,1,-8.032912254,1,0.005819527,1,0.001361143,1,0.00034331,1,0.2229120582342148,1,-0.592394531,1,0.4288345873355865,1
0.580004871,-5.321294785,1,-1.721712947,1,-8.059243202,1,0.002787821,1,0.00120999,1,0.004056768,1,0.2229099571704865,1,-0.592395902,1,0.4288531541824341,1
0.584006429,-5.31816864,1,-1.685157418,1,-8.072693825,1,0.00437441,1,0.00087624,1,0.002197808,1,0.2229139059782028,1,-0.592394114,1,0.4288751184940338,1
0.588004112,-5.348136902,1,-1.6898458,1,-8.070919991,1,0.006116195,1,0.001961678,1,0.001457938,1,0.2229191362857819,1,-0.592388988,1,0.4288893640041351,1
0.592003584,-5.306764126,1,-1.692881346,1,-8.063916206,1,0.004221817,1,0.004093618,1,0.002819124,1,0.222922608,1,-0.592380226,1,0.4289089143276215,1
0.596005142,-5.335335732,1,-1.692851901,1,-8.09029007,1,0.00232455,1,0.001044819,1,0.004053876,1,0.2229296267032623,1,-0.592375636,1,0.4289287626743317,1
0.600002825,-5.353246689,1,-1.701935887,1,-8.056358337,1,0.003627676,1,-0.000213373,1,-0.00051871,1,0.2229454517364502,1,-0.592365146,1,0.4289393424987793,1
0.604002535,-5.310655594,1,-1.690274715,1,-8.087516785,1,0.002132369,1,0.003367037,1,0.001742292,1,0.2229449898004532,1,-0.592353344,1,0.4289563298225403,1
0.608004093,-5.314495087,1,-1.7345649,1,-8.095258713,1,0.008126716,1,0.000940369,1,0.000681214,1,0.2229539006948471,1,-0.592338204,1,0.4289643168449402,1
0.612001777,-5.326650143,1,-1.736935377,1,-8.069268227,1,0.004670899,1,0.006403035,1,0.004833031,1,0.2229733616113663,1,-0.592332244,1,0.4289770424365997,1
0.61600101,-5.298176765,1,-1.73387742,1,-8.048517227,1,0.00421675,1,0.000215978,1,0.004165346,1,0.2229825407266617,1,-0.592324913,1,0.4290058314800262,1
0.620002568,-5.319924831,1,-1.735125542,1,-8.093525887,1,0.002757932,1,0.006401475,1,0.002143671,1,0.2229760587215424,1,-0.592320085,1,0.4290304780006409,1
0.624000251,-5.285197258,1,-1.760481358,1,-8.090564728,1,0.004660882,1,0.002724822,1,0.002588726,1,0.2229821085929871,1,-0.592303038,1,0.4290426075458527,1
0.627999485,-5.338191509,1,-1.749214649,1,-8.091038704,1,0.001707357,1,0.003172012,1,0.006927441,1,0.2229860126972198,1,-0.592297018,1,0.4290637969970703,1
0.632001042,-5.287209511,1,-1.750899673,1,-8.094163895,1,0.000657573,1,0.00453827,1,0.005381711,1,0.2229765653610229,1,-0.592289567,1,0.4290929734706879,1
0.635998726,-5.289929867,1,-1.760432363,1,-8.097072601,1,-0.002396086,1,0.004815473,1,0.00408631,1,0.222964272,1,-0.592282534,1,0.4291093945503235,1
0.639998198,-5.312571526,1,-1.746520042,1,-8.072949409,1,-0.001470978,1,0.004716644,1,0.005286693,1,0.2229446470737457,1,-0.592274964,1,0.4291372299194336,1
0.643999755,-5.337132931,1,-1.715690255,1,-8.069095612,1,-0.002803167,1,0.003447638,1,0.004607006,1,0.2229113429784775,1,-0.592266798,1,0.4291751682758331,1
0.647997439,-5.284317493,1,-1.725034952,1,-8.069213867,1,-0.000700856,1,-0.001214888,1,0.007064499,1,0.2228958308696747,1,-0.592261255,1,0.429197222,1
0.651996911,-5.312929153,1,-1.745620251,1,-8.061268806,1,-0.000199665,1,0.003940274,1,0.00949893,1,0.2228688,1,-0.592255354,1,0.4292358756065369,1
0.656004608,-5.312468052,1,-1.735488534,1,-8.102285385,1,-0.004486479,1,0.004964115,1,0.00929186,1,0.2228334099054337,1,-0.59225297,1,0.4292783737182617,1
0.66000843,-5.329285622,1,-1.711284518,1,-8.076210022,1,-0.00215081,1,4.928139969706535e-05,1,0.006225244,1,0.2228103131055832,1,-0.592250884,1,0.4293117821216583,1
0.664008439,-5.315182209,1,-1.687234879,1,-8.080112457,1,-0.003048377,1,0.002112522,1,0.007723371,1,0.2227823734283447,1,-0.592249155,1,0.4293430149555206,1
0.668010235,-5.296530724,1,-1.702319503,1,-8.095639229,1,-0.002352961,1,0.003328698,1,0.007601771,1,0.222756639,1,-0.592242122,1,0.4293795824050903,1
0.672007918,-5.346536636,1,-1.73020041,1,-8.065681458,1,-0.001221357,1,0.003310791,1,0.003281697,1,0.222729966,1,-0.592240274,1,0.4294158220291138,1
0.67600745,-5.299993515,1,-1.682917356,1,-8.074238777,1,-0.003858889,1,0.001384219,1,0.007692735,1,0.2227029204368591,1,-0.592235982,1,0.429451972,1
0.680008948,-5.322485447,1,-1.72489512,1,-8.071962357,1,-0.003505621,1,0.004631382,1,0.008893023,1,0.2226749658584595,1,-0.592231274,1,0.4294885396957397,1
0.684006631,-5.296212673,1,-1.701768756,1,-8.090798378,1,0.000344735,1,-0.001887348,1,0.007861678,1,0.222656175,1,-0.592223942,1,0.4295286238193512,1
0.688006163,-5.307097435,1,-1.753189683,1,-8.081161499,1,0.001216945,1,0.002184451,1,0.011502112,1,0.2223522365093231,1,-0.591593266,1,0.4295146465301514,1
0.692007661,-5.283313751,1,-1.69222486,1,-8.057145119,1,-0.000234024,1,0.003359928,1,0.006937429,1,0.2223386168479919,1,-0.591588438,1,0.4295480251312256,1
0.696005404,-5.346141815,1,-1.689765453,1,-8.088813782,1,-0.000986207,1,0.002423555,1,0.004688232,1,0.2223242521286011,1,-0.591586053,1,0.4295729994773865,1
0.700004876,-5.346414089,1,-1.702313423,1,-8.102577209,1,-0.000771585,1,0.001339016,1,0.008340324,1,0.2223015129566193,1,-0.591575801,1,0.4296115934848785,1
0.704006374,-5.30081892,1,-1.694887042,1,-8.089215279,1,0.004218495,1,0.00145051,1,0.003214498,1,0.2222857624292374,1,-0.591580689,1,0.4296456873416901,1
0.708004117,-5.331294537,1,-1.703806162,1,-8.080828667,1,0.001052581,1,-0.000303526,1,0.01050793,1,0.2222700715065002,1,-0.591574848,1,0.4296816885471344,1
0.712003589,-5.314371109,1,-1.680550456,1,-8.079862595,1,0.001062163,1,0.001711685,1,0.004380132,1,0.2222603112459183,1,-0.591574907,1,0.429707259,1
0.716005385,-5.331856728,1,-1.678241491,1,-8.070631027,1,0.002249131,1,0.003864412,1,0.005508872,1,0.2222569286823273,1,-0.591571093,1,0.4297322332859039,1
0.720003068,-5.310095787,1,-1.743935347,1,-8.055987358,1,0.002517891,1,0.005358119,1,0.005786411,1,0.2222536653280258,1,-0.591567218,1,0.4297600984573364,1
0.724002302,-5.317281246,1,-1.676416993,1,-8.063369751,1,0.001582228,1,0.003466316,1,0.002820592,1,0.2222377359867096,1,-0.591559172,1,0.429785818,1
0.72800386,-5.333852291,1,-1.723708868,1,-8.113189697,1,0.003077596,1,0.000423852,1,0.007393807,1,0.2222351580858231,1,-0.591560066,1,0.4298140704631805,1
0.732001543,-5.322254658,1,-1.726094127,1,-8.061495781,1,0.000992416,1,0.004114908,1,0.003798788,1,0.2222331464290619,1,-0.591562569,1,0.4298414587974548,1
0.736001015,-5.348563194,1,-1.704792857,1,-8.061342239,1,-0.000314161,1,-0.000166909,1,0.005026881,1,0.2222205251455307,1,-0.591556847,1,0.4298673272132874,1
0.740002573,-5.328829288,1,-1.699760795,1,-8.089430809,1,0.005423212,1,-0.001193138,1,0.003310144,1,0.2222182750701904,1,-0.591562867,1,0.4298993647098541,1
0.744000018,-5.313362122,1,-1.712386727,1,-8.097137451,1,0.002191649,1,0.003715322,1,0.004154664,1,0.2222181856632233,1,-0.591559052,1,0.4299189150333405,1
0.747999489,-5.340513229,1,-1.717807651,1,-8.06311512,1,0.0002021,1,-0.00046329,1,0.004427044,1,0.2222156077623367,1,-0.5915609,1,0.4299417734146118,1
0.752001047,-5.303709984,1,-1.698243737,1,-8.104376793,1,0.003384483,1,0.002228362,1,0.004125712,1,0.222213015,1,-0.59157443,1,0.4299628436565399,1
0.755998492,-5.311077118,1,-1.705286741,1,-8.105122566,1,0.003838719,1,0.001258949,1,0.00423146,1,0.2222162038087845,1,-0.591578424,1,0.4299912452697754,1
0.759998202,-5.311386108,1,-1.713203192,1,-8.046775818,1,0.002651265,1,-0.001300002,1,0.004075299,1,0.2222200185060501,1,-0.591578722,1,0.4300097227096558,1
0.76399976,-5.304381847,1,-1.70983851,1,-8.076258659,1,0.003271708,1,0.00314614,1,0.006482864,1,0.2222188413143158,1,-0.591578126,1,0.4300378262996674,1
0.767997205,-5.300112247,1,-1.714611411,1,-8.080050468,1,0.004881854,1,-0.001799534,1,0.002417037,1,0.2222236096858978,1,-0.591580987,1,0.430059552,1
0.771996915,-5.310022831,1,-1.722550511,1,-8.092313766,1,0.004211887,1,-0.000221696,1,0.003999999,1,0.2222237586975098,1,-0.591586769,1,0.4300799667835236,1
0.776004374,-5.321632862,1,-1.738095284,1,-8.070007324,1,0.004101567,1,-0.003736028,1,0.007543926,1,0.2222291380167007,1,-0.591588914,1,0.4300981760025024,1
0.780007958,-5.276966572,1,-1.683671713,1,-8.051974297,1,0.000695333,1,-0.000671693,1,0.003762542,1,0.2222259640693665,1,-0.591594934,1,0.4301227927207947,1
0.78400743,-5.34746933,1,-1.738508582,1,-8.085269928,1,-0.001784459,1,0.00418209,1,0.009088831,1,0.2222182899713516,1,-0.591592133,1,0.4301536679267883,1
0.788008988,-5.35484457,1,-1.710784554,1,-8.083411217,1,-0.000120358,1,-0.001405948,1,0.00468558,1,0.222203791,1,-0.591596663,1,0.4301818013191223,1
0.792006671,-5.305928707,1,-1.707673669,1,-8.048078537,1,0.001881697,1,0.001434714,1,0.009015916,1,0.2221971154212952,1,-0.591601849,1,0.4302106201648712,1
0.796006143,-5.326370239,1,-1.705567718,1,-8.075131416,1,0.002648387,1,0.004525213,1,0.008042966,1,0.2221850007772446,1,-0.591599107,1,0.4302498996257782,1
0.800007701,-5.344001293,1,-1.697523355,1,-8.066675186,1,0.003271469,1,0.004383228,1,0.007888515,1,0.222174272,1,-0.591591835,1,0.430288553,1
0.804005384,-5.330116749,1,-1.715880632,1,-8.074032784,1,0.001245377,1,0.003026814,1,0.004456467,1,0.222165048,1,-0.591587663,1,0.4303253889083862,1
0.808004856,-5.313504219,1,-1.717580795,1,-8.049044609,1,0.00172905,1,0.004741463,1,0.00959397,1,0.2221585810184479,1,-0.591576934,1,0.4303546845912933,1
0.812006414,-5.306227207,1,-1.687547922,1,-8.099123001,1,-0.001464,1,0.000842132,1,0.006633556,1,0.2221420854330063,1,-0.591579854,1,0.4303890764713287,1
0.816003859,-5.3151474,1,-1.701267719,1,-8.061668396,1,-0.000120842,1,0.002639696,1,0.008225947,1,0.2221215963363647,1,-0.591572702,1,0.4304248094558716,1
0.820003331,-5.317397594,1,-1.679051399,1,-8.069636345,1,0.001952074,1,0.00393459,1,0.007200876,1,0.2221109420061111,1,-0.591579556,1,0.4304531812667847,1
0.824004889,-5.301680088,1,-1.691408396,1,-8.094852448,1,0.00144602,1,0.001879383,1,0.00691783,1,0.2220975607633591,1,-0.591572046,1,0.4304879605770111,1
0.828002572,-5.310560226,1,-1.688517332,1,-8.093548775,1,0.003254643,1,-0.001152241,1,0.007057512,1,0.2220934629440308,1,-0.59157455,1,0.4305079579353333,1
0.832002044,-5.333065987,1,-1.711558223,1,-8.095197678,1,0.002355686,1,0.000797042,1,0.005094834,1,0.2220891565084457,1,-0.591582298,1,0.4305360317230225,1
0.836003602,-5.330624104,1,-1.679234266,1,-8.10324192,1,0.004119492,1,0.000240938,1,0.003788412,1,0.2220909744501114,1,-0.591576755,1,0.4305529296398163,1
0.840001285,-5.296301365,1,-1.685647726,1,-8.063536644,1,0.00307543,1,0.003657614,1,0.00899916,1,0.2220955044031143,1,-0.591576278,1,0.4305743873119354,1
0.844000995,-5.30480957,1,-1.686833978,1,-8.090037346,1,0.003172526,1,6.92363828420639e-05,1,0.00318549,1,0.2220973521471024,1,-0.591575921,1,0.4305963218212128,1
0.848002553,-5.33282423,1,-1.69139123,1,-8.07615757,1,0.003474067,1,0.000222941,1,0.008443145,1,0.2221014797687531,1,-0.591579497,1,0.4306212365627289,1
0.851999998,-5.295960903,1,-1.680387974,1,-8.085047722,1,0.001535396,1,-0.002798087,1,0.000963075,1,0.2221052646636963,1,-0.591582477,1,0.4306401014328003,1
0.85599947,-5.29543972,1,-1.710731626,1,-8.094468117,1,0.003949638,1,-0.001151144,1,0.005507811,1,0.2221145927906036,1,-0.591587424,1,0.4306506514549255,1
0.860001028,-5.303766251,1,-1.692915559,1,-8.057639122,1,0.003998651,1,0.003605635,1,0.002283078,1,0.2221177965402603,1,-0.591587365,1,0.430671901,1
0.863998473,-5.304614067,1,-1.705205679,1,-8.084699631,1,0.002453592,1,-0.002072287,1,0.0055845,1,0.2221235334873199,1,-0.591591477,1,0.4306884109973907,1
0.867997944,-5.333445072,1,-1.703989625,1,-8.078852654,1,0.002448035,1,0.000803371,1,0.004341581,1,0.2221240848302841,1,-0.591594934,1,0.4307103455066681,1
0.871999741,-5.292441368,1,-1.764042377,1,-8.098540306,1,0.002540177,1,-0.001216881,1,0.004171146,1,0.2221250087022781,1,-0.591598868,1,0.4307264089584351,1
0.875997722,-5.303323746,1,-1.714830279,1,-8.071242332,1,0.00059007,1,0.000722223,1,0.004001615,1,0.2221225649118423,1,-0.591605306,1,0.430745929,1
0.879997194,-5.302565575,1,-1.737975836,1,-8.067131042,1,0.004354578,1,-0.001203864,1,0.004555153,1,0.2221277505159378,1,-0.591608882,1,0.4307647347450256,1
0.883998454,-5.304263592,1,-1.735988498,1,-8.082445145,1,0.000233711,1,0.002446475,1,0.004611223,1,0.2221124917268753,1,-0.591613173,1,0.4307904243469238,1
0.887996137,-5.315757751,1,-1.691104054,1,-8.06846714,1,0.001153691,1,-0.001462775,1,0.007069709,1,0.2221030741930008,1,-0.591622531,1,0.4308182895183563,1
0.891995668,-5.288056374,1,-1.707816601,1,-8.069782257,1,0.002574137,1,-0.00120468,1,0.00594578,1,0.2220923602581024,1,-0.591628313,1,0.4308460056781769,1
0.895997167,-5.289815903,1,-1.713920712,1,-8.070848465,1,-0.000359928,1,0.003495744,1,0.005459294,1,0.2220786362886429,1,-0.591636777,1,0.4308731555938721,1
0.900000751,-5.3560853,1,-1.700376987,1,-8.059615135,1,0.000551925,1,-0.003458004,1,0.003903716,1,0.2220618724822998,1,-0.591634691,1,0.4309009909629822,1
0.904000282,-5.308823109,1,-1.701046109,1,-8.072050095,1,0.003689675,1,0.001865838,1,0.005884023,1,0.2220550626516342,1,-0.591636598,1,0.4309232532978058,1
0.908001781,-5.32071352,1,-1.719163775,1,-8.071710587,1,0.000802622,1,-0.001174911,1,0.009798191,1,0.2220495343208313,1,-0.591646254,1,0.4309510290622711,1
0.911999464,-5.306671619,1,-1.706320405,1,-8.049495697,1,-0.001168545,1,0.002071906,1,0.006599225,1,0.2220316380262375,1,-0.591643691,1,0.4309850335121155,1
0.915998995,-5.303790092,1,-1.731002331,1,-8.086437225,1,0.003426053,1,-0.000457136,1,0.006619896,1,0.2220173180103302,1,-0.591648102,1,0.4310169517993927,1
0.920000494,-5.304233551,1,-1.732669592,1,-8.096523285,1,-0.000910524,1,0.00119182,1,0.005884235,1,0.2220055758953094,1,-0.591651201,1,0.4310442805290222,1
0.923998237,-5.319026947,1,-1.736539006,1,-8.076208115,1,-0.00034923,1,-0.002592302,1,0.004794021,1,0.2219874411821365,1,-0.591650963,1,0.4310788512229919,1
0.92799741,-5.317615032,1,-1.705442429,1,-8.066355705,1,-0.00122984,1,-6.23E-05,1,0.006250683,1,0.2219700962305069,1,-0.591659904,1,0.4311070144176483,1
0.931998968,-5.316266537,1,-1.709702849,1,-8.09535408,1,-0.00127047,1,0.000457151,1,0.008538385,1,0.2219487130641937,1,-0.591660023,1,0.4311390519142151,1
0.935996413,-5.312420368,1,-1.703044176,1,-8.050766945,1,-0.002093743,1,0.000316829,1,0.006979182,1,0.2215928882360458,1,-0.591141641,1,0.4315138459205627,1
0.939995885,-5.313094616,1,-1.700849891,1,-8.070094109,1,-0.002341708,1,0.000986167,1,0.002677831,1,0.2216363400220871,1,-0.591049254,1,0.4311639070510864,1
0.943997443,-5.277179718,1,-1.723340392,1,-8.10837841,1,-0.000193863,1,0.005394375,1,0.009370517,1,0.2216133624315262,1,-0.59104538,1,0.4312017261981964,1
0.947994888,-5.307419777,1,-1.713876128,1,-8.108343124,1,0.002683045,1,0.000816297,1,0.003892285,1,0.2216015309095383,1,-0.591036677,1,0.4312301278114319,1
0.951994359,-5.330255508,1,-1.711786389,1,-8.089520454,1,0.002539494,1,0.002152452,1,0.006872982,1,0.2215942889451981,1,-0.591031015,1,0.4312553703784943,1
0.955995917,-5.318570137,1,-1.662907124,1,-8.088689804,1,0.004150119,1,0.002157799,1,0.00410704,1,0.2215878665447235,1,-0.591030359,1,0.431283176,1
0.959993362,-5.303124905,1,-1.722646356,1,-8.075307846,1,0.002679266,1,0.000946455,1,0.008350847,1,0.2215796411037445,1,-0.591032028,1,0.4313157200813293,1
0.963993073,-5.300269127,1,-1.68649447,1,-8.083529472,1,0.00580915,1,0.00110789,1,0.006966287,1,0.221585825,1,-0.591029704,1,0.4313382506370544,1
0.96799463,-5.329467773,1,-1.684515595,1,-8.07848835,1,0.005306927,1,-0.001525059,1,-0.000771836,1,0.2215877771377563,1,-0.591032088,1,0.4313619136810303,1
0.971992314,-5.295957565,1,-1.716304421,1,-8.087659836,1,0.00062178,1,0.000772892,1,0.004084083,1,0.2215950638055801,1,-0.591033161,1,0.4313740730285645,1
0.975991786,-5.298146248,1,-1.669910908,1,-8.076160431,1,0.005343355,1,0.000919153,1,0.003370455,1,0.2216013967990875,1,-0.591027141,1,0.4313896298408508,1
0.979993105,-5.287487507,1,-1.688177943,1,-8.100678444,1,0.002139068,1,0.00025272,1,0.003287424,1,0.2216086983680725,1,-0.591035962,1,0.4314087629318237,1
0.983990788,-5.295252323,1,-1.739402175,1,-8.093412399,1,0.00290294,1,-0.000239752,1,0.006524344,1,0.2216140031814575,1,-0.591031492,1,0.43142885,1
0.98799026,-5.303047657,1,-1.736862659,1,-8.05988121,1,0.003761464,1,-0.000721754,1,0.004572518,1,0.2216156721115112,1,-0.591036916,1,0.431449682,1
0.99199158,-5.323382378,1,-1.695621967,1,-8.077255249,1,0.002295018,1,-0.001702815,1,0.00742043,1,0.2216162979602814,1,-0.591037154,1,0.4314790964126587,1
0.995989263,-5.323698997,1,-1.70380044,1,-8.045089722,1,0.003233583,1,0.002264406,1,0.005435058,1,0.2216087281703949,1,-0.591039419,1,0.431505561,1
0.999988496,-5.31913805,1,-1.715027928,1,-8.099049568,1,0.001992165,1,0.004669114,1,0.004273079,1,0.2216047644615173,1,-0.591036141,1,0.4315283298492432,1
1.003990293,-5.303935051,1,-1.692080259,1,-8.072537422,1,0.003174378,1,0.000717952,1,0.003427648,1,0.2215992510318756,1,-0.591025472,1,0.431551456,1
1.007988214,-5.282449722,1,-1.738790393,1,-8.070679665,1,0.001955956,1,0.004294172,1,0.003649094,1,0.2216007560491562,1,-0.591021597,1,0.4315712451934814,1
1.011987686,-5.313643456,1,-1.694164991,1,-8.069060326,1,0.000316335,1,0.003921824,1,0.004416403,1,0.2215897887945175,1,-0.591010332,1,0.4315987825393677,1
1.015989304,-5.335619926,1,-1.741317511,1,-8.064788818,1,0.004530935,1,0.005275236,1,0.004641716,1,0.2215860635042191,1,-0.590999544,1,0.4316139221191406,1
1.01999259,-5.303593159,1,-1.701059461,1,-8.073385239,1,0.002036109,1,0.004623073,1,0.008463887,1,0.2215772122144699,1,-0.590991259,1,0.4316394627094269,1
1.023992062,-5.308773518,1,-1.702176929,1,-8.075881004,1,-0.000988681,1,0.003626501,1,0.004697965,1,0.2215645015239716,1,-0.590984285,1,0.4316732883453369,1
1.02799356,-5.327800274,1,-1.734693646,1,-8.055582047,1,-0.000228999,1,0.004211114,1,0.006257241,1,0.2215592265129089,1,-0.590968251,1,0.431702048,1
1.031991005,-5.315302372,1,-1.732908845,1,-8.078353882,1,-0.004608117,1,0.005498961,1,0.006206401,1,0.221541628,1,-0.590958357,1,0.4317402839660645,1
1.035990477,-5.281420231,1,-1.724722743,1,-8.09595871,1,0.003244364,1,0.003918521,1,0.007797812,1,0.2215307950973511,1,-0.590946198,1,0.4317716658115387,1
1.039992094,-5.33567667,1,-1.744956493,1,-8.103066444,1,0.001809638,1,0.002993904,1,0.004903038,1,0.2215199172496796,1,-0.590931654,1,0.4317997694015503,1
1.043989539,-5.309073448,1,-1.678688884,1,-8.112199783,1,-9.20E-05,1,0.001247699,1,0.00395193,1,0.2215095907449722,1,-0.590922177,1,0.4318264722824097,1
1.047989011,-5.33215332,1,-1.674008608,1,-8.115318298,1,0.004039708,1,0.001795411,1,0.004813434,1,0.2215085625648499,1,-0.590925336,1,0.4318506419658661,1
1.051990509,-5.302544117,1,-1.668169379,1,-8.11869812,1,0.001106806,1,-0.000322413,1,0.002880293,1,0.2215032279491425,1,-0.590925276,1,0.431880772,1
1.055988193,-5.289976597,1,-1.708631992,1,-8.097803116,1,0.004905561,1,0.000825762,1,0.0025922,1,0.2215131372213364,1,-0.590924084,1,0.4318943917751312,1
1.059987664,-5.321066856,1,-1.678212881,1,-8.08276844,1,0.003152496,1,-0.002342997,1,0.005954964,1,0.2215208411216736,1,-0.590933323,1,0.4319148659706116,1
1.063989282,-5.288696289,1,-1.694610953,1,-8.113615036,1,0.007493015,1,-0.002636191,1,0.002975303,1,0.2215313464403152,1,-0.590944648,1,0.4319310784339905,1
1.067986965,-5.313251019,1,-1.715647936,1,-8.133200645,1,0.001673935,1,-0.004077125,1,0.000570984,1,0.2215496301651001,1,-0.590957761,1,0.4319446384906769,1
1.071986437,-5.284320354,1,-1.696044207,1,-8.096446991,1,0.006422141,1,-0.007325306,1,0.006418505,1,0.2215665876865387,1,-0.590971887,1,0.4319503903388977,1
1.075987935,-5.299943924,1,-1.705331564,1,-8.101344109,1,0.004832533,1,-0.004563111,1,0.007453302,1,0.2215783149003983,1,-0.590979218,1,0.4319704473018646,1
1.079985619,-5.284022808,1,-1.726207733,1,-8.062981606,1,0.00347944,1,-0.006437001,1,0.00377535,1,0.2215863764286041,1,-0.591005087,1,0.4319796562194824,1
1.083985209,-5.326646805,1,-1.741564989,1,-8.058222771,1,0.004806523,1,0.000542078,1,0.005117291,1,0.221600205,1,-0.591011286,1,0.4319993853569031,1
1.087986708,-5.327022552,1,-1.732409358,1,-8.095227242,1,0.001916937,1,-0.002949305,1,0.006323369,1,0.2216034233570099,1,-0.591031611,1,0.4320198595523834,1
1.091984391,-5.302113056,1,-1.74100399,1,-8.072980881,1,0.001966392,1,-0.001300304,1,0.005869969,1,0.2216088473796844,1,-0.591047645,1,0.4320393204689026,1
1.095983863,-5.343951225,1,-1.747400641,1,-8.065141678,1,0.001346588,1,-0.001964768,1,0.003224081,1,0.2216093838214874,1,-0.591062069,1,0.4320566654205322,1
1.099985361,-5.30394268,1,-1.767285466,1,-8.051399231,1,0.000829948,1,-0.003424307,1,0.007668587,1,0.2216009050607681,1,-0.59107101,1,0.4320773184299469,1
1.103982806,-5.317196846,1,-1.733210087,1,-8.054018974,1,-0.002512242,1,-0.005764768,1,0.008171503,1,0.2215803265571594,1,-0.591090202,1,0.4321066439151764,1
1.107982278,-5.328603745,1,-1.734576821,1,-8.080159187,1,0.000134296,1,0.000784666,1,0.004038224,1,0.2215664088726044,1,-0.591096818,1,0.4321334660053253,1
1.111983895,-5.319917679,1,-1.715919852,1,-8.071883202,1,0.002720805,1,0.001101582,1,0.008484674,1,0.2215468883514404,1,-0.591107011,1,0.4321659207344055,1
1.11598134,-5.310807228,1,-1.682049394,1,-8.046401024,1,-0.004145795,1,-0.001426177,1,0.005691499,1,0.2215307354927063,1,-0.591109991,1,0.4321948885917664,1
1.119980812,-5.304358959,1,-1.674800158,1,-8.089159966,1,0.001319617,1,0.002779911,1,0.001706877,1,0.2215178459882736,1,-0.591109097,1,0.4322192072868347,1
1.12398231,-5.301129341,1,-1.674955368,1,-8.099184036,1,-0.000649384,1,0.004314696,1,0.005990627,1,0.2214972823858261,1,-0.591103613,1,0.4322492480278015,1
1.127979755,-5.333686829,1,-1.685700297,1,-8.067278862,1,0.004417575,1,0.000364224,1,0.003762192,1,0.221485972,1,-0.591102064,1,0.432277501,1
1.131979227,-5.309871674,1,-1.703424096,1,-8.053752899,1,0.003740506,1,0.003128658,1,0.003957284,1,0.2214874029159546,1,-0.591094971,1,0.4323004484176636,1
1.135980844,-5.353251457,1,-1.678346276,1,-8.072543144,1,0.00061688,1,-0.001392864,1,0.001673152,1,0.2214905321598053,1,-0.591090083,1,0.432315856,1
1.139984131,-5.285007,1,-1.696839809,1,-8.089212418,1,0.003684924,1,0.00514097,1,0.005568535,1,0.2214915901422501,1,-0.591081321,1,0.4323374330997467,1
1.143983841,-5.298993587,1,-1.6994313,1,-8.09727478,1,0.002961746,1,0.0061476,1,0.002026031,1,0.2214937210083008,1,-0.59107101,1,0.432362437,1
1.147985458,-5.308653831,1,-1.72966516,1,-8.082875252,1,0.001527887,1,0.000879952,1,0.000318419,1,0.2214941531419754,1,-0.591063917,1,0.4323817491531372,1
1.151983142,-5.308578491,1,-1.719336987,1,-8.08362484,1,0.002200327,1,0.00681953,1,0.006063535,1,0.221499115,1,-0.591055751,1,0.4323986172676086,1
1.155982614,-5.288059235,1,-1.695170045,1,-8.077365875,1,0.006389704,1,-0.000537345,1,-0.002468028,1,0.221498117,1,-0.591048658,1,0.4324206709861755,1
1.159984112,-5.33620739,1,-1.717924714,1,-8.080778122,1,0.00205591,1,0.002551752,1,0.005321678,1,0.2214979231357574,1,-0.591040254,1,0.4324395060539246,1
1.163981795,-5.295187473,1,-1.715927124,1,-8.087445259,1,0.002045814,1,0.003869361,1,0.004333925,1,0.2214985191822052,1,-0.591032982,1,0.4324639141559601,1
1.167981267,-5.308667183,1,-1.751789451,1,-8.092054367,1,0.000658831,1,-0.000156723,1,0.003434458,1,0.2214861512184143,1,-0.591024399,1,0.4324903786182404,1
1.171982646,-5.327514648,1,-1.738608718,1,-8.07714653,1,0.002986128,1,0.001511733,1,0.007690835,1,0.2214794158935547,1,-0.591024101,1,0.4325193464756012,1
1.17598033,-5.267928123,1,-1.699537158,1,-8.097043991,1,0.000841516,1,0.002396003,1,0.004873308,1,0.2214693427085876,1,-0.591024101,1,0.4325405359268188,1
1.179979801,-5.314479351,1,-1.674222589,1,-8.082655907,1,0.002224828,1,0.00443713,1,0.006799753,1,0.2214584797620773,1,-0.591027319,1,0.4325707256793976,1
1.183981538,-5.331283569,1,-1.712886691,1,-8.099004745,1,0.00143172,1,8.183671161532402e-05,1,0.003394833,1,0.2214524745941162,1,-0.591023326,1,0.4325917959213257,1
1.187979221,-5.302147865,1,-1.7073282,1,-8.082862854,1,0.000557123,1,0.001442151,1,0.0043712,1,0.2211704254150391,1,-0.590399265,1,0.4325475692749023,1
1.191978693,-5.310982227,1,-1.719168067,1,-8.077613831,1,0.000543101,1,0.001157558,1,0.003482107,1,0.2211636751890182,1,-0.59039104,1,0.4325747191905975,1
1.19598031,-5.322871685,1,-1.697300911,1,-8.086522102,1,-0.00027337,1,0.005689452,1,0.005153292,1,0.221151665,1,-0.590383947,1,0.4325936734676361,1
1.199977756,-5.358633041,1,-1.762933493,1,-8.08455658,1,0.001976584,1,0.002260512,1,0.006355839,1,0.2211389094591141,1,-0.590378761,1,0.4326253533363342,1
1.203976989,-5.302698135,1,-1.722825408,1,-8.078123093,1,-0.000477431,1,0.002192138,1,0.005503155,1,0.2211285978555679,1,-0.59037745,1,0.4326488375663757,1
1.207978725,-5.323511124,1,-1.724716663,1,-8.108023643,1,-0.002490524,1,0.002558149,1,0.004212695,1,0.2211162149906158,1,-0.590366781,1,0.4326716959476471,1
1.211976409,-5.316431046,1,-1.706135273,1,-8.082048416,1,-0.000551764,1,0.000989618,1,0.00549457,1,0.2210956960916519,1,-0.59037137,1,0.4327035546302795,1
1.215975881,-5.287166595,1,-1.73403585,1,-8.103136063,1,0.003503562,1,0.002202616,1,0.002745836,1,0.2210894674062729,1,-0.59036231,1,0.4327235519886017,1
1.219977498,-5.29653883,1,-1.716811299,1,-8.101361275,1,-0.002285735,1,0.000698715,1,0.007282141,1,0.2210745513439178,1,-0.590364516,1,0.4327511489391327,1
1.223974943,-5.307088375,1,-1.713127971,1,-8.104307175,1,0.00022265,1,-0.001809492,1,0.007783191,1,0.2210635095834732,1,-0.59036696,1,0.4327722787857056,1
1.227974415,-5.298555374,1,-1.719186068,1,-8.082676888,1,-0.000116782,1,0.000405556,1,0.004250176,1,0.2210487127304077,1,-0.590379179,1,0.432803214,1
1.231975913,-5.302599907,1,-1.716500998,1,-8.082314491,1,-0.000737983,1,-0.000508026,1,0.002400266,1,0.22103259,1,-0.590373993,1,0.4328314065933228,1
1.235973597,-5.313183308,1,-1.714229941,1,-8.069766998,1,0.001652968,1,0.001880126,1,0.005553279,1,0.2210229486227036,1,-0.59038043,1,0.4328577816486359,1
1.239973068,-5.296720028,1,-1.644654989,1,-8.083656311,1,0.000821206,1,0.002502331,1,0.006442047,1,0.2210117876529694,1,-0.590379477,1,0.4328822791576385,1
1.243974686,-5.314581394,1,-1.686270714,1,-8.081110954,1,0.000713561,1,0.001131026,1,0.004834915,1,0.2209980636835098,1,-0.590374112,1,0.432916522,1
1.247972608,-5.276964664,1,-1.668217897,1,-8.08572197,1,0.002375261,1,0.000534621,1,0.010136165,1,0.2209808975458145,1,-0.590371013,1,0.4329489171504974,1
1.251972079,-5.310994625,1,-1.718980074,1,-8.076607704,1,-0.001194076,1,0.002258593,1,0.006876561,1,0.2209639847278595,1,-0.590373516,1,0.4329785406589508,1
1.255973577,-5.28310442,1,-1.672443986,1,-8.076568604,1,-3.26E-05,1,0.005601306,1,0.005840624,1,0.2209528535604477,1,-0.590361953,1,0.4330053329467773,1
1.259977221,-5.288716793,1,-1.705999017,1,-8.090120316,1,0.006441249,1,0.001196897,1,0.002594205,1,0.2209462821483612,1,-0.590367556,1,0.4330353438854218,1
1.263976693,-5.327095032,1,-1.686029434,1,-8.123766899,1,0.002873845,1,-0.001085555,1,0.003651304,1,0.2209393233060837,1,-0.590368629,1,0.4330551624298096,1
1.267978191,-5.288084507,1,-1.68398726,1,-8.057169914,1,0.003637239,1,0.001664591,1,0.003829161,1,0.2209374308586121,1,-0.590363383,1,0.4330709278583527,1
1.271976233,-5.312297344,1,-1.674781322,1,-8.087258339,1,0.004972879,1,-0.002012609,1,-0.001381665,1,0.2209537178277969,1,-0.590363026,1,0.433081329,1
1.275975704,-5.343719006,1,-1.672505498,1,-8.06170845,1,0.006496742,1,-0.000568147,1,0.000319492,1,0.2209695279598236,1,-0.590367675,1,0.4330938458442688,1
1.279977441,-5.28289938,1,-1.709247231,1,-8.093680382,1,0.006722284,1,0.001555676,1,0.003019373,1,0.2209955900907516,1,-0.590366542,1,0.4331007599830627,1
1.283975124,-5.308982372,1,-1.686350346,1,-8.108217239,1,0.0017937,1,0.006393608,1,0.002327092,1,0.2210110425949097,1,-0.590367973,1,0.4331095218658447,1
1.287974715,-5.299658298,1,-1.729460955,1,-8.091205597,1,0.006237105,1,-0.000299299,1,0.006618575,1,0.2210251092910767,1,-0.59036541,1,0.433125913,1
1.291976452,-5.31342411,1,-1.732237577,1,-8.101478577,1,0.006155638,1,-0.00112401,1,-0.000838628,1,0.2210353016853333,1,-0.590371132,1,0.4331390559673309,1
1.295974135,-5.300438404,1,-1.727744102,1,-8.089998245,1,0.002393398,1,-0.001425286,1,0.003092495,1,0.2210522592067719,1,-0.590373695,1,0.4331526756286621,1
1.299973369,-5.309096813,1,-1.707112193,1,-8.082755089,1,0.004698694,1,-0.00371608,1,0.00383765,1,0.2210547626018524,1,-0.590375662,1,0.4331697225570679,1
1.303974867,-5.310144901,1,-1.7098068,1,-8.077954292,1,0.006077836,1,-0.000936474,1,0.00477263,1,0.2210682779550552,1,-0.590386987,1,0.4331841170787811,1
1.307972312,-5.315526009,1,-1.703232765,1,-8.090075493,1,0.002317997,1,-0.000715358,1,0.00307509,1,0.221077099,1,-0.590394318,1,0.4332011342048645,1
1.311971784,-5.331133366,1,-1.730889559,1,-8.050170898,1,0.003862812,1,-0.00219697,1,0.003380609,1,0.2210771590471268,1,-0.590396225,1,0.4332198798656464,1
1.315973639,-5.324152946,1,-1.71697998,1,-8.086647034,1,0.001487661,1,0.003891855,1,0.007053161,1,0.2210702747106552,1,-0.590399206,1,0.4332419037818909,1
1.319971323,-5.293516159,1,-1.758161306,1,-8.088055611,1,0.002777502,1,0.001763863,1,0.002873558,1,0.221065342,1,-0.590395927,1,0.4332756400108337,1
1.323970795,-5.323335171,1,-1.713852525,1,-8.101921082,1,0.000659854,1,0.003303488,1,0.0058039,1,0.2210589051246643,1,-0.590399265,1,0.4332974553108215,1
1.327972293,-5.305112362,1,-1.720878959,1,-8.04331398,1,0.003448981,1,0.001468301,1,0.006288045,1,0.2210510075092316,1,-0.590401053,1,0.4333311319351196,1
1.331969738,-5.315428257,1,-1.715469122,1,-8.088731766,1,-0.00157072,1,0.004074129,1,0.006821747,1,0.2210448235273361,1,-0.590396285,1,0.4333615303039551,1
1.335969329,-5.293094158,1,-1.73069191,1,-8.078435898,1,0.000404607,1,-0.000406311,1,0.008037923,1,0.221028209,1,-0.590395808,1,0.4333983063697815,1
1.339970827,-5.30991888,1,-1.725497842,1,-8.073807716,1,-0.001857367,1,0.002673455,1,0.005723625,1,0.2210050523281097,1,-0.590390682,1,0.4334383606910706,1
1.343968511,-5.315410614,1,-1.708279848,1,-8.073389053,1,0.000526869,1,0.002648154,1,0.007240125,1,0.220990002,1,-0.590388536,1,0.4334753155708313,1
1.347967982,-5.305971146,1,-1.72974062,1,-8.068339348,1,0.000233472,1,0.000903604,1,0.003966644,1,0.2209723591804504,1,-0.590381503,1,0.433503121,1
1.351969481,-5.323991299,1,-1.71724534,1,-8.11161232,1,-3.52E-05,1,0.003932685,1,0.00598376,1,0.2209548950195313,1,-0.590375245,1,0.433538944,1
1.355967283,-5.297583103,1,-1.702974796,1,-8.076131821,1,-5.18E-06,1,0.002929077,1,0.00668595,1,0.2209439426660538,1,-0.590370417,1,0.4335693717002869,1
1.359967232,-5.30254221,1,-1.700081587,1,-8.079004288,1,0.002643808,1,0.002006491,1,0.006444486,1,0.2209236770868301,1,-0.590365827,1,0.4336037039756775,1
1.36396873,-5.313625336,1,-1.717676878,1,-8.108048439,1,0.001571639,1,0.003191067,1,0.005540267,1,0.2209154218435287,1,-0.590362072,1,0.4336334466934204,1
1.367966413,-5.287590504,1,-1.691200495,1,-8.067874908,1,0.000120479,1,-0.000317635,1,0.007106157,1,0.2208977788686752,1,-0.590364277,1,0.4336708784103394,1
1.371965647,-5.332305908,1,-1.671388745,1,-8.10342598,1,0.002659223,1,0.001303372,1,0.00517535,1,0.2208992391824722,1,-0.590371132,1,0.4336894452571869,1
1.375967264,-5.316808701,1,-1.692338228,1,-8.08983326,1,0.004871688,1,0.001638047,1,0.009000776,1,0.2208881676197052,1,-0.590378761,1,0.433724046,1
1.379970789,-5.33899641,1,-1.705988407,1,-8.096458435,1,0.002108174,1,-0.003387635,1,0.006824688,1,0.2208916991949081,1,-0.590388715,1,0.4337507486343384,1
1.383970261,-5.298665524,1,-1.689344406,1,-8.088758469,1,0.003874116,1,0.001256148,1,0.006022435,1,0.2208895534276962,1,-0.590399504,1,0.4337813258171082,1
1.387971878,-5.308561325,1,-1.686912775,1,-8.070558548,1,0.00686929,1,-0.001285677,1,0.002688221,1,0.220901221,1,-0.590408623,1,0.433792382,1
1.391969323,-5.329383373,1,-1.719959617,1,-8.100224495,1,0.007800447,1,-0.003043075,1,0.002346561,1,0.2209119945764542,1,-0.590420485,1,0.4338146448135376,1
1.395968795,-5.279310226,1,-1.705917716,1,-8.073275566,1,0.005576544,1,-0.000442582,1,0.002224037,1,0.22093074,1,-0.59043014,1,0.4338211715221405,1
1.399970293,-5.287520885,1,-1.734530091,1,-8.119051933,1,0.005974685,1,-0.005431382,1,0.005093698,1,0.22094588,1,-0.590447187,1,0.4338342547416687,1
1.403967738,-5.295512676,1,-1.73408401,1,-8.086339951,1,0.002917705,1,-0.000476237,1,0.002280686,1,0.220955878,1,-0.590458214,1,0.4338462948799133,1
1.407967448,-5.293275356,1,-1.704432964,1,-8.09480381,1,0.005954579,1,-0.008287958,1,0.002987926,1,0.2209677845239639,1,-0.590474725,1,0.4338634610176086,1
1.411969066,-5.298569202,1,-1.703169107,1,-8.074737549,1,0.00455189,1,-0.001370182,1,0.00516308,1,0.2209805250167847,1,-0.59049052,1,0.4338753819465637,1
1.415966749,-5.292917728,1,-1.736355305,1,-8.052890778,1,0.002641818,1,-0.00224782,1,0.003996393,1,0.2209846079349518,1,-0.59050107,1,0.4338889420032501,1
1.419966221,-5.324332237,1,-1.747169852,1,-8.087617874,1,0.001996607,1,-0.002849093,1,0.001771871,1,0.2209911346435547,1,-0.590516806,1,0.4339041709899902,1
1.423967719,-5.331773758,1,-1.750232458,1,-8.081494331,1,0.001382402,1,-0.004633933,1,0.004462341,1,0.2209903001785278,1,-0.590524077,1,0.4339184165000916,1
1.427965164,-5.32037878,1,-1.71326828,1,-8.065631866,1,-0.001449222,1,-0.003540349,1,0.001333313,1,0.2209891676902771,1,-0.59054023,1,0.4339300990104675,1
1.431964636,-5.322515011,1,-1.708753347,1,-8.049126625,1,0.000306686,1,0.001720547,1,0.009072941,1,0.2209781557321548,1,-0.590553105,1,0.4339579343795776,1
1.435966253,-5.300304413,1,-1.736919284,1,-8.049372673,1,0.002319835,1,0.000107852,1,0.006825886,1,0.2206616848707199,1,-0.590053856,1,0.434284121,1
1.439963937,-5.308550358,1,-1.713671923,1,-8.06969738,1,0.001396942,1,-0.001047676,1,0.004260617,1,0.2207043319940567,1,-0.589966178,1,0.433911145,1
1.443963408,-5.317308426,1,-1.718815684,1,-8.066827774,1,-0.003610659,1,-0.001897657,1,0.006253893,1,0.2206894606351852,1,-0.589980364,1,0.4339377284049988,1
1.447964907,-5.272184849,1,-1.70143199,1,-8.097312927,1,-0.001581089,1,0.000972675,1,0.005617059,1,0.2206741869449615,1,-0.589981675,1,0.4339671432971954,1
1.45196259,-5.328612328,1,-1.683788419,1,-8.070619583,1,-6.74E-05,1,-0.000789913,1,0.008226783,1,0.2206560522317886,1,-0.589986622,1,0.4339907169342041,1
1.455962062,-5.290275574,1,-1.676118731,1,-8.062394142,1,0.001346718,1,-0.000403607,1,0.007924454,1,0.2206438928842545,1,-0.589995921,1,0.4340192079544067,1
1.459963679,-5.328379631,1,-1.729613662,1,-8.08012867,1,0.001000473,1,-0.001572985,1,0.005075484,1,0.2206287831068039,1,-0.589997292,1,0.4340512454509735,1
1.463961363,-5.314485073,1,-1.71090281,1,-8.044798851,1,0.001187208,1,0.000511192,1,0.006798846,1,0.2206168323755264,1,-0.590003192,1,0.4340783655643463,1
1.467960835,-5.29407692,1,-1.708252907,1,-8.053761482,1,-0.001354508,1,-0.001537727,1,0.002184688,1,0.2206107527017593,1,-0.590009034,1,0.4341027736663818,1
1.471962333,-5.310776234,1,-1.694883823,1,-8.081104279,1,0.003270474,1,-0.000208857,1,0.004273568,1,0.2206015139818192,1,-0.590019345,1,0.4341259002685547,1
1.475960016,-5.312906265,1,-1.689664245,1,-8.091976166,1,-0.000351783,1,-0.003334883,1,0.005058159,1,0.2205935418605804,1,-0.590017855,1,0.434155136,1
1.479959607,-5.274232864,1,-1.727842689,1,-8.087218285,1,-0.001364461,1,-0.000244529,1,0.005232082,1,0.220598578,1,-0.590025008,1,0.4341680109500885,1
1.483961105,-5.297904015,1,-1.722790956,1,-8.089530945,1,0.008062897,1,-0.002824075,1,0.004626701,1,0.2205978184938431,1,-0.59002912,1,0.4341928362846375,1
1.487958789,-5.282907486,1,-1.737604141,1,-8.078733444,1,0.0044815,1,0.00237494,1,0.004008478,1,0.2206094264984131,1,-0.590033054,1,0.4342044293880463,1
1.491958261,-5.302666664,1,-1.715951085,1,-8.077080727,1,0.001971042,1,0.00118854,1,0.007871368,1,0.2206114381551743,1,-0.590042531,1,0.434228778,1
1.495960116,-5.271593094,1,-1.708550572,1,-8.087679863,1,0.003279987,1,0.001555454,1,0.00681488,1,0.2206090986728668,1,-0.590046287,1,0.4342573881149292,1
1.499963403,-5.310838699,1,-1.705326796,1,-8.094854355,1,-0.000810913,1,0.000869593,1,0.006860769,1,0.2205972224473953,1,-0.590050638,1,0.4342840015888214,1
1.503963113,-5.296955585,1,-1.722859502,1,-8.074822426,1,0.003469035,1,0.003934887,1,0.007475977,1,0.2205893993377686,1,-0.590055227,1,0.4343127906322479,1
1.507964969,-5.309302807,1,-1.706227422,1,-8.06765461,1,0.002150469,1,0.002027872,1,0.0056165,1,0.2205827683210373,1,-0.590052009,1,0.4343439936637878,1
1.511962652,-5.308120728,1,-1.692047715,1,-8.076622009,1,0.002299628,1,-2.30E-05,1,0.007087412,1,0.2205644696950912,1,-0.590061128,1,0.4343723356723785,1
1.515962124,-5.30136776,1,-1.693977594,1,-8.077343941,1,0.002986955,1,0.002963329,1,0.004628486,1,0.2205531448125839,1,-0.590064645,1,0.434403658,1
1.519963622,-5.314536095,1,-1.687335253,1,-8.098231316,1,0.001596033,1,-0.001630066,1,0.005631793,1,0.2205477505922318,1,-0.590068877,1,0.4344302117824554,1
1.523961067,-5.311383247,1,-1.702326417,1,-8.082562447,1,0.001939327,1,0.001359935,1,0.005100954,1,0.220545158,1,-0.590073287,1,0.4344549477100372,1
1.527960539,-5.321881294,1,-1.712870479,1,-8.068268776,1,0.000403116,1,-0.000143754,1,0.005771448,1,0.2205341905355453,1,-0.590076447,1,0.4344853460788727,1
1.531962156,-5.323165417,1,-1.716849208,1,-8.115221977,1,0.001160554,1,0.001045977,1,0.006514738,1,0.2205243110656738,1,-0.590077519,1,0.4345154762268066,1
1.535960078,-5.293642521,1,-1.688853145,1,-8.075397491,1,0.003468031,1,0.000289008,1,0.003524307,1,0.2205161452293396,1,-0.59008795,1,0.4345409572124481,1
1.53995955,-5.308310032,1,-1.715437055,1,-8.100712776,1,0.002957951,1,-0.000780883,1,0.005976124,1,0.2205139547586441,1,-0.590094805,1,0.4345682859420776,1
1.543961048,-5.317060947,1,-1.717402101,1,-8.083528519,1,0.003805802,1,-0.001004854,1,0.00540089,1,0.2205126881599426,1,-0.590102553,1,0.4345919191837311,1
1.547958732,-5.298224926,1,-1.68551445,1,-8.090946198,1,0.005779895,1,-0.000600172,1,0.004080201,1,0.2205182909965515,1,-0.590109825,1,0.4346051812171936,1
1.551958323,-5.297934532,1,-1.716501117,1,-8.084666252,1,0.000745742,1,-0.002669929,1,0.005488016,1,0.2205227017402649,1,-0.590114295,1,0.4346281290054321,1
1.555959821,-5.325121403,1,-1.727528572,1,-8.077656746,1,0.003096197,1,-0.001425786,1,0.006414973,1,0.2205172628164291,1,-0.590130687,1,0.4346528351306915,1
1.559957504,-5.287075043,1,-1.747165799,1,-8.074816704,1,0.001768639,1,0.00104644,1,0.004765394,1,0.2205090075731277,1,-0.590134919,1,0.4346742033958435,1
1.563956976,-5.295759678,1,-1.693483114,1,-8.064376831,1,0.000147803,1,0.000380115,1,0.002714095,1,0.2204987853765488,1,-0.590149045,1,0.434697688,1
1.567958474,-5.306641102,1,-1.736315966,1,-8.091941833,1,0.00229696,1,-0.000700803,1,0.005087108,1,0.2204889506101608,1,-0.590148091,1,0.4347236454486847,1
1.571955919,-5.30322504,1,-1.704118133,1,-8.07339859,1,0.000159496,1,0.000795934,1,0.007795392,1,0.2204758524894714,1,-0.59015733,1,0.4347504377365112,1
1.575955153,-5.286731243,1,-1.707193494,1,-8.081039429,1,0.002013104,1,0.00139018,1,0.007762295,1,0.220464751,1,-0.590163708,1,0.4347729682922363,1
1.579957008,-5.325070381,1,-1.692547083,1,-8.079277039,1,-0.001185126,1,0.000840655,1,0.010474569,1,0.2204495817422867,1,-0.590165019,1,0.4348102211952209,1
1.58395493,-5.348134995,1,-1.683608055,1,-8.09505558,1,0.001465427,1,0.004513237,1,0.007961011,1,0.2204299867153168,1,-0.590166628,1,0.4348363280296326,1
1.587954164,-5.320104122,1,-1.692201853,1,-8.075381279,1,0.001063709,1,0.003623754,1,0.0064668,1,0.2204228788614273,1,-0.590162754,1,0.4348646104335785,1
1.591955662,-5.297190666,1,-1.723571658,1,-8.085701942,1,0.002053591,1,0.003705019,1,0.007535687,1,0.2204101532697678,1,-0.590162039,1,0.4348952770233154,1
1.595953107,-5.283865452,1,-1.722470641,1,-8.126384735,1,0.002151477,1,0.002502503,1,0.004400142,1,0.2203972786664963,1,-0.590161264,1,0.4349182546138763,1
1.599952698,-5.274677753,1,-1.7046597,1,-8.099782944,1,-0.001471479,1,-0.004113377,1,0.004892978,1,0.2203844338655472,1,-0.590166986,1,0.4349439740180969,1
1.603954196,-5.284090042,1,-1.71446991,1,-8.080235481,1,0.004323176,1,0.000253028,1,0.001309374,1,0.2203790098428726,1,-0.590169609,1,0.434961349,1
1.60795188,-5.264671326,1,-1.710869908,1,-8.08699131,1,0.002334594,1,0.000823317,1,0.007005139,1,0.2203755229711533,1,-0.590179265,1,0.4349824786186218,1
1.611951351,-5.301538467,1,-1.672165275,1,-8.08266449,1,-1.82E-07,1,-0.000337622,1,0.007010241,1,0.220359206,1,-0.590189517,1,0.435021698,1
1.615952849,-5.331316948,1,-1.667760968,1,-8.103793144,1,0.00191664,1,-0.002579265,1,0.001812069,1,0.2203566133975983,1,-0.590196311,1,0.4350354969501495,1
1.619956493,-5.308997631,1,-1.661244988,1,-8.082709312,1,0.001576151,1,-0.00059377,1,0.007081117,1,0.2203561365604401,1,-0.590207934,1,0.435055286,1
1.623955965,-5.31712389,1,-1.672032833,1,-8.099391937,1,0.005609494,1,-0.002060395,1,0.005953461,1,0.220365047,1,-0.590220213,1,0.4350766539573669,1
1.627957463,-5.292994976,1,-1.721185923,1,-8.067709923,1,0.005126046,1,-0.00096415,1,0.006868802,1,0.2203723639249802,1,-0.590231836,1,0.4350965619087219,1
1.631955147,-5.305605412,1,-1.706863046,1,-8.097205162,1,0.001928034,1,-9.17E-05,1,0.002296081,1,0.2203723639249802,1,-0.590241432,1,0.4351134300231934,1
1.635954738,-5.322916508,1,-1.7284621,1,-8.083871841,1,0.004018793,1,-0.000851112,1,0.006511672,1,0.2203828096389771,1,-0.590249777,1,0.4351333975791931,1
1.639956236,-5.33149147,1,-1.757576942,1,-8.104485512,1,0.00504742,1,-0.002890653,1,0.005302394,1,0.2203904688358307,1,-0.590258658,1,0.4351519048213959,1
1.643953919,-5.301578045,1,-1.723284602,1,-8.102675438,1,-0.00138747,1,-0.001617976,1,0.004290518,1,0.2203932702541351,1,-0.590271115,1,0.4351774454116821,1
1.647953391,-5.318602562,1,-1.737166047,1,-8.065534592,1,0.002488262,1,-0.005251952,1,0.008402839,1,0.2203874886035919,1,-0.590282142,1,0.4352008104324341,1
1.651954889,-5.297978878,1,-1.713594079,1,-8.093711853,1,0.001995716,1,-0.002229406,1,0.006870775,1,0.2203767001628876,1,-0.590298533,1,0.4352352917194366,1
1.655952692,-5.289943695,1,-1.705253005,1,-8.085097313,1,0.000326379,1,-0.005827009,1,0.003977341,1,0.2203732281923294,1,-0.590319574,1,0.4352608323097229,1
1.659952164,-5.285311222,1,-1.70240891,1,-8.083810806,1,0.00539166,1,0.000323916,1,0.008165866,1,0.2203687280416489,1,-0.590338469,1,0.4352960884571075,1
1.663953662,-5.28775835,1,-1.687187076,1,-8.108326912,1,0.002716927,1,-0.003597154,1,0.007595145,1,0.220367357,1,-0.59035778,1,0.4353228509426117,1
1.667951107,-5.295848846,1,-1.687786937,1,-8.05588913,1,-0.001822396,1,-0.000674654,1,0.008797673,1,0.220355287,1,-0.59036094,1,0.4353466033935547,1
1.671950579,-5.330899715,1,-1.723311782,1,-8.076505661,1,0.004446326,1,-0.002478009,1,0.004882254,1,0.2203491628170013,1,-0.590372503,1,0.4353746473789215,1
1.675952077,-5.290204525,1,-1.701779127,1,-8.092531204,1,0.003357216,1,-0.001086315,1,0.00646285,1,0.2203406244516373,1,-0.590378344,1,0.4354040920734406,1
1.679949522,-5.307720184,1,-1.733555317,1,-8.069190025,1,0.004858184,1,-0.000723022,1,0.002745403,1,0.2203345000743866,1,-0.590386033,1,0.4354316592216492,1
1.683949113,-5.236673832,1,-1.644529462,1,-8.072146416,1,-0.003262667,1,-0.002256189,1,0.004190681,1,0.2203214317560196,1,-0.590392768,1,0.4354539811611176,1
1.687950611,-5.330194473,1,-1.736238241,1,-8.131736755,1,0.004353374,1,-0.001007173,1,0.004731277,1,0.2200847119092941,1,-0.589799345,1,0.4353715777397156,1
1.691948056,-5.31224823,1,-1.713097334,1,-8.06733036,1,-6.27E-05,1,0.001120208,1,0.009321327,1,0.2200747132301331,1,-0.589802206,1,0.4354073107242584,1
1.695947528,-5.308456898,1,-1.70772624,1,-8.073691368,1,0.000310266,1,-0.001306741,1,0.007375021,1,0.2200649678707123,1,-0.589803219,1,0.4354385137557983,1
1.699949026,-5.316141129,1,-1.670951009,1,-8.086685181,1,0.001919748,1,0.004031446,1,0.005136819,1,0.2200471609830856,1,-0.589802861,1,0.4354693293571472,1
1.703946471,-5.335906982,1,-1.718841076,1,-8.088832855,1,-0.001780099,1,0.000734228,1,0.008314093,1,0.2200340628623962,1,-0.589798093,1,0.4355012178421021,1
1.707945943,-5.322629929,1,-1.699894309,1,-8.064181328,1,0.000454559,1,0.003233639,1,0.003395929,1,0.2200100123882294,1,-0.589796066,1,0.4355347156524658,1
1.71194756,-5.3202281,1,-1.716145873,1,-8.063835144,1,0.000333926,1,0.004683091,1,0.006022554,1,0.2199939340353012,1,-0.589782894,1,0.4355586767196655,1
1.715945482,-5.348500252,1,-1.687856197,1,-8.085214615,1,-0.001796211,1,-0.00051976,1,0.00595426,1,0.2199771404266357,1,-0.589776397,1,0.4355924129486084,1
1.719944954,-5.306725025,1,-1.727949858,1,-8.082234383,1,0.000734559,1,0.006336,1,0.006146857,1,0.2199609577655792,1,-0.589767337,1,0.4356234073638916,1
1.723946452,-5.291861057,1,-1.706897855,1,-8.100234032,1,0.007869657,1,-0.000264443,1,0.004239599,1,0.2199531048536301,1,-0.589764118,1,0.4356521964073181,1
1.727944136,-5.27712965,1,-1.71366179,1,-8.094227791,1,-0.000159599,1,0.001222897,1,0.006616441,1,0.2199392467737198,1,-0.589761019,1,0.4356853663921356,1
1.731943727,-5.287803173,1,-1.710787296,1,-8.088723183,1,0.003856868,1,0.003677886,1,0.004165673,1,0.2199282944202423,1,-0.5897578,1,0.4357115924358368,1
1.735945225,-5.306809425,1,-1.676171064,1,-8.080342293,1,0.002316942,1,0.002417178,1,0.008895872,1,0.2199169993400574,1,-0.589755833,1,0.4357410669326782,1
1.73994875,-5.297992229,1,-1.732099056,1,-8.100862503,1,0.001373844,1,0.001216183,1,0.001720722,1,0.2199094891548157,1,-0.58975935,1,0.4357671439647675,1
1.74394834,-5.306245327,1,-1.681390643,1,-8.068081856,1,0.001145757,1,-0.00151967,1,0.004870778,1,0.2199074029922485,1,-0.589765966,1,0.4357852339744568,1
1.747949839,-5.296624184,1,-1.704634428,1,-8.090021133,1,0.001250275,1,0.001896929,1,0.00664833,1,0.2198957949876785,1,-0.589770973,1,0.4358084201812744,1
1.751947522,-5.308724403,1,-1.709026217,1,-8.082361221,1,0.00271517,1,-0.003695119,1,0.002266416,1,0.2198882102966309,1,-0.589778543,1,0.4358367621898651,1
1.755946994,-5.296638489,1,-1.682517529,1,-8.079227448,1,0.001482311,1,-0.001778607,1,0.004715209,1,0.2198822349309921,1,-0.589785695,1,0.435859352,1
1.75994885,-5.324365616,1,-1.71438241,1,-8.111199379,1,0.005668064,1,-0.000950145,1,0.007219817,1,0.2198777943849564,1,-0.589795291,1,0.4358845353126526,1
1.763946533,-5.29720211,1,-1.720459223,1,-8.097162247,1,-0.000758772,1,-0.001288717,1,0.004244996,1,0.2198749631643295,1,-0.589795947,1,0.4359101951122284,1
1.767946005,-5.323190689,1,-1.697338223,1,-8.077866554,1,-0.000160995,1,-0.001255787,1,0.008305336,1,0.2198622822761536,1,-0.589809179,1,0.4359361827373505,1
1.771947742,-5.307907581,1,-1.674558997,1,-8.056791306,1,0.000771017,1,-0.000895648,1,0.007158558,1,0.2198536247014999,1,-0.589825928,1,0.4359597861766815,1
1.775945425,-5.299649715,1,-1.70466733,1,-8.080801964,1,0.002486136,1,0.000296997,1,0.006973171,1,0.2198388874530792,1,-0.589832902,1,0.435988724,1
1.779945016,-5.294525146,1,-1.694158673,1,-8.083692551,1,0.000337711,1,-0.003326134,1,0.006739703,1,0.2198292762041092,1,-0.589851022,1,0.4360175430774689,1
1.783946514,-5.294366837,1,-1.726785302,1,-8.095746994,1,0.004453799,1,-0.001286588,1,0.007235554,1,0.2198186367750168,1,-0.589867473,1,0.4360476732254028,1
1.787943959,-5.302465439,1,-1.740612268,1,-8.075398445,1,2.605436748126522e-05,1,0.003440468,1,0.00834052,1,0.2198051512241364,1,-0.589869678,1,0.4360768795013428,1
1.791943669,-5.299700737,1,-1.735644698,1,-8.077346802,1,0.001074962,1,0.000950241,1,0.004334618,1,0.2197851538658142,1,-0.589883566,1,0.4361096620559692,1
1.795945525,-5.323208332,1,-1.722457647,1,-8.101160049,1,0.001437235,1,0.000627672,1,0.007615509,1,0.2197669297456741,1,-0.589889348,1,0.4361462593078613,1
1.799943209,-5.312839508,1,-1.682269573,1,-8.07965374,1,0.000150197,1,0.000755104,1,0.007767187,1,0.2197472304105759,1,-0.589896083,1,0.4361820220947266,1
1.803942919,-5.297954559,1,-1.733483911,1,-8.090798378,1,0.003639359,1,5.279271863400936e-05,1,0.007331061,1,0.2197293490171432,1,-0.589903295,1,0.4362251162528992,1
1.807944417,-5.262217999,1,-1.725899935,1,-8.062677383,1,-0.00036254,1,0.000404764,1,0.005079556,1,0.2197181284427643,1,-0.589914382,1,0.4362525939941406,1
1.811942101,-5.333518982,1,-1.703992248,1,-8.087679863,1,0.001448395,1,0.000770484,1,0.005561259,1,0.2197051048278809,1,-0.589912534,1,0.4362886846065521,1
1.815941691,-5.335453987,1,-1.736279249,1,-8.088284492,1,0.003161109,1,-0.000201531,1,0.010572777,1,0.219698355,1,-0.589912534,1,0.4363132417201996,1
1.819943428,-5.323245525,1,-1.690979481,1,-8.098741531,1,0.001870036,1,-0.003766025,1,0.007281788,1,0.2196794450283051,1,-0.589922071,1,0.4363559484481812,1
1.82394135,-5.354404449,1,-1.691224098,1,-8.106023788,1,0.003955357,1,-0.001628238,1,0.010232532,1,0.2196696400642395,1,-0.589936495,1,0.4363909959793091,1
1.827940822,-5.308558464,1,-1.701128125,1,-8.104434013,1,0.003021926,1,0.000712911,1,0.009669174,1,0.2196650207042694,1,-0.58994633,1,0.4364246726036072,1
1.831942439,-5.288820267,1,-1.681025028,1,-8.085726738,1,0.001652282,1,-0.001358074,1,0.005324946,1,0.2196548879146576,1,-0.589960337,1,0.4364622235298157,1
1.835940123,-5.303738117,1,-1.715067744,1,-8.070010185,1,0.000759299,1,-0.000258243,1,0.004221168,1,0.2196406871080399,1,-0.589971304,1,0.4364937841892242,1
1.839939594,-5.289824009,1,-1.716316342,1,-8.098817825,1,0.005006109,1,-0.00332724,1,0.004169305,1,0.2196396589279175,1,-0.589987874,1,0.4365136623382568,1
1.843941092,-5.33878994,1,-1.707239151,1,-8.084752083,1,0.00557534,1,-0.002107502,1,0.006774917,1,0.219638318,1,-0.590009272,1,0.4365389347076416,1
1.847938776,-5.271255016,1,-1.703712225,1,-8.069293976,1,0.004603677,1,-0.005815153,1,0.006189581,1,0.2196429371833801,1,-0.590026975,1,0.4365572333335876,1
1.851938248,-5.323884964,1,-1.683433056,1,-8.077569008,1,0.004946282,1,-0.002600237,1,0.001380782,1,0.2196488827466965,1,-0.590045214,1,0.4365750253200531,1
1.855940104,-5.30934,1,-1.694009423,1,-8.073598862,1,0.003114467,1,-0.001778514,1,0.006302722,1,0.2196533232927322,1,-0.590063691,1,0.4365949034690857,1
1.859937787,-5.317346096,1,-1.734316707,1,-8.071512222,1,0.004786885,1,-0.004183516,1,0.001523455,1,0.219671294,1,-0.590081513,1,0.4366128146648407,1
1.863943219,-5.32863903,1,-1.737684488,1,-8.079339981,1,0.004722345,1,0.000880416,1,0.002314585,1,0.2196748405694962,1,-0.590098202,1,0.4366270899772644,1
1.867944956,-5.305176735,1,-1.713057756,1,-8.089752197,1,0.004480059,1,0.000449104,1,0.002931638,1,0.2196869850158691,1,-0.590107441,1,0.4366438388824463,1
1.871942639,-5.312418461,1,-1.744151831,1,-8.096466064,1,0.000658055,1,-0.002186317,1,0.006623726,1,0.2196909934282303,1,-0.590121388,1,0.4366616606712341,1
1.875942349,-5.251465797,1,-1.713344812,1,-8.107931137,1,0.005380787,1,-0.004985698,1,0.004003593,1,0.2196912467479706,1,-0.590138435,1,0.4366834163665771,1
1.879943967,-5.287487507,1,-1.75204277,1,-8.062130928,1,0.003561784,1,-0.004758353,1,0.00803426,1,0.2196913063526154,1,-0.59016484,1,0.4367111027240753,1
1.88394165,-5.285043716,1,-1.732300878,1,-8.075883865,1,0.004998774,1,-0.003178255,1,0.00913787,1,0.2196938544511795,1,-0.590185463,1,0.4367454051971436,1
1.887941122,-5.358388424,1,-1.654254079,1,-8.121380806,1,0.003005334,1,-0.003015786,1,0.004674219,1,0.2196983397006989,1,-0.590203106,1,0.4367718696594238,1
1.891942859,-5.319384575,1,-1.66149509,1,-8.072151184,1,0.004659736,1,-0.000692736,1,0.004897384,1,0.2197071313858032,1,-0.590207458,1,0.4367982447147369,1
1.8959409,-5.33409071,1,-1.659300327,1,-8.081807137,1,0.00518777,1,-0.003363875,1,0.003416058,1,0.2197101563215256,1,-0.590221345,1,0.4368191957473755,1
1.899940372,-5.308931828,1,-1.729795218,1,-8.063922882,1,0.005863417,1,-0.003202163,1,0.001069394,1,0.2197266221046448,1,-0.59024471,1,0.4368279576301575,1
1.90394187,-5.316999435,1,-1.758423924,1,-8.066000938,1,0.005363485,1,-0.003587882,1,0.008204792,1,0.21973525,1,-0.590260208,1,0.4368463158607483,1
1.907939553,-5.313217163,1,-1.71288228,1,-8.040529251,1,0.001658695,1,-0.008215191,1,0.003056819,1,0.2197418212890625,1,-0.590285182,1,0.4368590712547302,1
1.911939025,-5.30318594,1,-1.735674381,1,-8.077161789,1,0.000462839,1,-0.003514362,1,0.0047944,1,0.2197390198707581,1,-0.590310872,1,0.4368696510791779,1
1.915940642,-5.309027195,1,-1.703257918,1,-8.099417686,1,0.001635334,1,-0.005560995,1,0.001568449,1,0.2197304964065552,1,-0.590342462,1,0.4368888735771179,1
1.919938326,-5.307274342,1,-1.681001425,1,-8.077525139,1,0.000305372,1,-0.00129157,1,0.004410995,1,0.2197342067956924,1,-0.590357006,1,0.4368981420993805,1
1.923937798,-5.315624237,1,-1.734517336,1,-8.070485115,1,0.003206861,1,-0.005395046,1,0.005411623,1,0.2197385132312775,1,-0.590379894,1,0.4369076192378998,1
1.927939296,-5.308936596,1,-1.721656084,1,-8.087233543,1,4.624949360731989e-05,1,-0.004802115,1,0.00686814,1,0.2197338342666626,1,-0.590401232,1,0.4369340538978577,1
1.931936979,-5.293707371,1,-1.691578984,1,-8.113233566,1,0.001605978,1,-0.001766808,1,0.006608152,1,0.2197321951389313,1,-0.590415537,1,0.4369587600231171,1
1.93593657,-5.31224823,1,-1.746320844,1,-8.082580566,1,0.001465474,1,-0.007820982,1,0.007114812,1,0.2194504886865616,1,-0.589951515,1,0.4372557699680328,1
1.939938307,-5.302388668,1,-1.745904565,1,-8.097137451,1,0.000207811,1,-0.006714492,1,0.004209965,1,0.2194930016994476,1,-0.589881182,1,0.4368848204612732,1
1.94393599,-5.343306065,1,-1.708199978,1,-8.079985619,1,0.001937387,1,-0.006001091,1,0.006261485,1,0.2194880396127701,1,-0.589899778,1,0.4369058609008789,1
1.947935462,-5.314239502,1,-1.666875839,1,-8.069893837,1,0.006157848,1,-0.00347281,1,0.010974648,1,0.2194768041372299,1,-0.589920223,1,0.4369367063045502,1
1.951937079,-5.308414459,1,-1.686841011,1,-8.094688416,1,0.000175829,1,-0.003034546,1,0.00596687,1,0.2194760590791702,1,-0.589942694,1,0.4369591772556305,1
1.955934763,-5.277968407,1,-1.715058446,1,-8.090592384,1,0.005070308,1,-0.005024952,1,0.00259915,1,0.2194670587778091,1,-0.589968681,1,0.4369840621948242,1
1.959934235,-5.328772068,1,-1.730543375,1,-8.094000816,1,-0.000162234,1,-0.006625318,1,0.006714987,1,0.2194688618183136,1,-0.589989901,1,0.4370073080062866,1
1.963935733,-5.293158531,1,-1.711680532,1,-8.066218376,1,0.000728799,1,-0.003024376,1,0.00619088,1,0.2194485366344452,1,-0.590003729,1,0.4370378255844116,1
1.967933178,-5.335132599,1,-1.693904281,1,-8.078384399,1,0.005046786,1,-0.005613261,1,0.004191407,1,0.2194362431764603,1,-0.590027094,1,0.4370650053024292,1
1.971932888,-5.288003445,1,-1.714767575,1,-8.104018211,1,0.001361282,1,-0.002278134,1,0.006309101,1,0.2194403558969498,1,-0.590042889,1,0.4370876252651215,1
1.975934505,-5.349250793,1,-1.672377706,1,-8.093566895,1,0.004298707,1,-0.004522044,1,0.008853403,1,0.2194373607635498,1,-0.590069532,1,0.4371107220649719,1
1.979931951,-5.292052269,1,-1.686656833,1,-8.064661026,1,0.003724312,1,0.000284487,1,0.006136908,1,0.2194386273622513,1,-0.59009105,1,0.4371332228183746,1
1.983937502,-5.278168201,1,-1.749003887,1,-8.105077744,1,0.001954942,1,-0.001930797,1,0.002322135,1,0.2194467335939407,1,-0.590104103,1,0.4371500611305237,1
1.987939358,-5.30729723,1,-1.750937223,1,-8.039446831,1,0.002293758,1,-0.004439512,1,0.006607147,1,0.219445139,1,-0.590122342,1,0.4371713995933533,1
1.991937041,-5.319422245,1,-1.727747202,1,-8.085398674,1,0.001628564,1,-0.004677595,1,0.003165632,1,0.2194394171237946,1,-0.59013778,1,0.437194824,1
1.995936513,-5.300105095,1,-1.708416939,1,-8.10515976,1,0.002216014,1,-0.006839365,1,0.009871188,1,0.2194248884916306,1,-0.590158165,1,0.4372225403785706,1
1.999938011,-5.313074112,1,-1.712392092,1,-8.06388092,1,0.002143844,1,-0.004909378,1,0.0027448,1,0.2194094210863113,1,-0.590174139,1,0.4372530281543732,1
2.003935814,-5.292685986,1,-1.714894652,1,-8.073679924,1,0.000417703,1,-0.00609276,1,0.0088725,1,0.2194029539823532,1,-0.590202808,1,0.4372760355472565,1
2.007935286,-5.325547218,1,-1.706608415,1,-8.06583786,1,-0.001114416,1,-0.002750644,1,0.002304993,1,0.2193857133388519,1,-0.590225697,1,0.4373025596141815,1
2.011936665,-5.295107365,1,-1.707740068,1,-8.08998394,1,0.003792526,1,-0.005225463,1,0.005697502,1,0.2193777561187744,1,-0.590243697,1,0.4373292922973633,1
2.015934467,-5.31047678,1,-1.725021243,1,-8.102375031,1,0.0009709,1,-0.002479984,1,0.00521941,1,0.2193711251020432,1,-0.590261817,1,0.4373536109924316,1
2.019933939,-5.332014561,1,-1.677756786,1,-8.10020256,1,0.00149666,1,-0.004500601,1,0.006647991,1,0.2193641662597656,1,-0.590281546,1,0.4373794198036194,1
2.023935556,-5.315840244,1,-1.668159246,1,-8.079792023,1,0.001191902,1,-0.003691832,1,0.007894769,1,0.2193553894758224,1,-0.590311885,1,0.437406063,1
2.027933121,-5.310964108,1,-1.679791451,1,-8.088645935,1,0.00040447,1,-0.005272942,1,0.005529476,1,0.2193509191274643,1,-0.590335488,1,0.4374258518218994,1
2.031932592,-5.304759502,1,-1.7188344,1,-8.081119537,1,0.004443807,1,-0.010064826,1,0.006640133,1,0.2193524837493896,1,-0.590368271,1,0.4374471306800842,1
2.03593421,-5.33503294,1,-1.687896729,1,-8.09607029,1,0.006669211,1,-0.006113072,1,0.00033552,1,0.219359428,1,-0.590403676,1,0.4374650418758392,1
2.039932013,-5.31043148,1,-1.69086957,1,-8.090507507,1,0.007218273,1,-0.006625578,1,0.006320205,1,0.2193692028522491,1,-0.590429068,1,0.4374837875366211,1
2.043931484,-5.296813965,1,-1.695901036,1,-8.086723328,1,0.002878729,1,-0.003630088,1,0.003333264,1,0.2193804681301117,1,-0.590454876,1,0.4374989867210388,1
2.047932863,-5.319228172,1,-1.715540528,1,-8.080093384,1,0.001664128,1,-0.004530967,1,0.00860003,1,0.219385028,1,-0.590472698,1,0.4375261664390564,1
2.051930428,-5.327684879,1,-1.692233682,1,-8.072032928,1,-0.0010244,1,-0.007834177,1,0.005039784,1,0.2193818986415863,1,-0.590504587,1,0.437543124,1
2.055929899,-5.355212688,1,-1.709923625,1,-8.071103096,1,0.004496045,1,-0.002920831,1,0.005694638,1,0.2193836569786072,1,-0.590524852,1,0.4375564157962799,1
2.059931278,-5.321419716,1,-1.702141404,1,-8.082870483,1,0.0020273,1,-0.003837926,1,0.005545896,1,0.2193861305713654,1,-0.59054023,1,0.4375820755958557,1
2.063929081,-5.305692196,1,-1.73617506,1,-8.050620079,1,0.001733311,1,-0.004008159,1,0.006874399,1,0.2193781584501266,1,-0.590560973,1,0.4376119673252106,1
2.067929029,-5.325083256,1,-1.710966945,1,-8.073505402,1,-0.000116544,1,-0.000748883,1,0.005805111,1,0.2193681001663208,1,-0.590575039,1,0.4376401305198669,1
2.071930647,-5.328392029,1,-1.673524857,1,-8.068315506,1,0.003545836,1,0.0008879,1,0.005031551,1,0.2193592637777328,1,-0.590588987,1,0.4376584887504578,1
2.075927973,-5.319175243,1,-1.68685174,1,-8.084568977,1,0.002095567,1,-0.003092284,1,0.007414662,1,0.2193611413240433,1,-0.590597034,1,0.4376805424690247,1
2.079927444,-5.329139709,1,-1.685208201,1,-8.061545372,1,0.002731971,1,0.001955207,1,0.009716261,1,0.2193562388420105,1,-0.590609491,1,0.4377126097679138,1
2.083929062,-5.332809925,1,-1.683924198,1,-8.087964058,1,0.004281216,1,0.00101955,1,0.008029194,1,0.2193521857261658,1,-0.590612531,1,0.4377440810203552,1
2.087926626,-5.297690868,1,-1.682077527,1,-8.100151062,1,0.005249376,1,0.003306803,1,0.00427951,1,0.2193471491336823,1,-0.590619624,1,0.4377658069133759,1
2.091926098,-5.313994884,1,-1.670479059,1,-8.075145721,1,0.003733463,1,-0.001933977,1,0.005344135,1,0.2193571329116821,1,-0.590622306,1,0.4377837181091309,1
2.095927477,-5.303562164,1,-1.674071908,1,-8.090928078,1,0.000792982,1,-0.000210463,1,0.004392928,1,0.2193586677312851,1,-0.590630293,1,0.437805563,1
2.09992528,-5.302116871,1,-1.652812719,1,-8.061191559,1,0.002939387,1,0.000258653,1,0.003938456,1,0.2193703055381775,1,-0.590630591,1,0.4378143846988678,1
2.10393095,-5.305113316,1,-1.69714582,1,-8.060266495,1,0.00909686,1,-0.000399554,1,0.001561445,1,0.2193856984376907,1,-0.590638638,1,0.4378221929073334,1
2.107932329,-5.305783749,1,-1.677146554,1,-8.085536957,1,0.003725009,1,0.001524767,1,0.003263497,1,0.2194070518016815,1,-0.590640664,1,0.4378345906734467,1
2.111930132,-5.319049358,1,-1.691773176,1,-8.095466614,1,0.008605493,1,-0.001066161,1,-0.000263314,1,0.2194209694862366,1,-0.590645075,1,0.4378465414047241,1
2.115929604,-5.318415165,1,-1.683175921,1,-8.054940224,1,0.00687824,1,0.000293392,1,0.000671288,1,0.2194459438323975,1,-0.590648592,1,0.4378563761711121,1
2.119931221,-5.315207481,1,-1.689820528,1,-8.066408157,1,0.006040032,1,0.001066094,1,0.002403131,1,0.2194651961326599,1,-0.590641618,1,0.437872589,1
2.123928785,-5.300964832,1,-1.734887004,1,-8.083571434,1,0.006697062,1,0.00462835,1,0.004050704,1,0.2194894850254059,1,-0.590637803,1,0.4378898441791534,1
2.127928257,-5.313137531,1,-1.738665342,1,-8.084363937,1,0.003085194,1,-0.001906962,1,0.002259877,1,0.219501331,1,-0.590644121,1,0.4379006028175354,1
2.131930113,-5.332771778,1,-1.753074288,1,-8.094380379,1,0.006024955,1,0.001747136,1,0.007619858,1,0.2195133566856384,1,-0.590641916,1,0.4379198849201202,1
2.135927916,-5.286386013,1,-1.734839559,1,-8.064036369,1,0.005599276,1,0.002251953,1,0.003385817,1,0.2195188403129578,1,-0.590638399,1,0.4379386007785797,1
2.139927149,-5.325003147,1,-1.753152728,1,-8.084205627,1,0.005509719,1,0.00116921,1,0.001826087,1,0.2195300310850143,1,-0.590634584,1,0.4379522502422333,1
2.143928528,-5.312936306,1,-1.720101833,1,-8.09030056,1,0.004288762,1,-0.00147039,1,0.004063695,1,0.2195295393466949,1,-0.590636909,1,0.4379747807979584,1
2.147926092,-5.330507278,1,-1.744648099,1,-8.100345612,1,0.002911396,1,0.000770096,1,0.003853235,1,0.2195369303226471,1,-0.590643466,1,0.4379923343658447,1
2.151925564,-5.318018913,1,-1.710448384,1,-8.10823822,1,0.008728795,1,-0.001930193,1,0.003366947,1,0.2195377051830292,1,-0.59064883,1,0.4380104243755341,1
2.155926943,-5.302466869,1,-1.722856641,1,-8.081309319,1,0.001030753,1,-0.002305838,1,0.00604159,1,0.2195315808057785,1,-0.590661943,1,0.438034713,1
2.159924507,-5.311813354,1,-1.715476751,1,-8.058648109,1,0.000916224,1,-0.002130577,1,0.002317424,1,0.2195289880037308,1,-0.590675354,1,0.4380574226379395,1
2.163924217,-5.35196352,1,-1.717826962,1,-8.059019089,1,0.003212582,1,-0.002272137,1,0.008022968,1,0.2195218652486801,1,-0.590696752,1,0.4380765855312347,1
2.167925835,-5.309397221,1,-1.726765037,1,-8.057266235,1,-0.001496419,1,-0.002202698,1,0.00607737,1,0.2195145189762115,1,-0.590709448,1,0.4381069540977478,1
2.171923161,-5.333395481,1,-1.716792464,1,-8.088553429,1,0.000463583,1,-0.002083259,1,0.004023506,1,0.219504327,1,-0.590721548,1,0.4381306171417236,1
2.175922632,-5.316322803,1,-1.711415291,1,-8.065533638,1,0.0029118,1,-0.001840406,1,0.005408373,1,0.2195008248090744,1,-0.590732992,1,0.4381589293479919,1
2.17992425,-5.311719894,1,-1.687857866,1,-8.080039978,1,0.004914423,1,-0.001676305,1,0.003532746,1,0.219492644,1,-0.590743303,1,0.4381881058216095,1
2.183921576,-5.331318855,1,-1.68661797,1,-8.0853405,1,0.000605229,1,-0.004414253,1,0.011524015,1,0.2194847613573074,1,-0.590763748,1,0.4382196664810181,1
2.187921047,-5.313127995,1,-1.709676504,1,-8.072126389,1,0.003002805,1,-0.00207055,1,0.003915866,1,0.2192593365907669,1,-0.590199649,1,0.4381190538406372,1
2.191922665,-5.305098057,1,-1.733247399,1,-8.063885689,1,-0.001715282,1,-0.001787534,1,0.007116537,1,0.219244659,1,-0.590211809,1,0.4381498992443085,1
2.195920706,-5.329473495,1,-1.708837628,1,-8.075771332,1,-0.00055151,1,-0.001481172,1,0.008320244,1,0.219225213,1,-0.59022671,1,0.4381884336471558,1
2.199920177,-5.307303905,1,-1.67198813,1,-8.084925652,1,0.004565087,1,-0.003534585,1,0.005019392,1,0.2192135006189346,1,-0.590239644,1,0.4382208585739136,1
2.203922033,-5.294066906,1,-1.649171591,1,-8.069314957,1,0.005357507,1,-0.000306044,1,0.007042076,1,0.2192104309797287,1,-0.590247273,1,0.4382443428039551,1
2.207919836,-5.313468933,1,-1.671263695,1,-8.07171917,1,0.004436349,1,-0.001642394,1,0.004145618,1,0.2192095369100571,1,-0.590264678,1,0.4382688999176025,1
2.211919308,-5.300262451,1,-1.720293045,1,-8.058914185,1,0.009072442,1,0.001431461,1,0.004473458,1,0.2192140221595764,1,-0.590266645,1,0.438287079,1
2.215921164,-5.302643299,1,-1.684706569,1,-8.025129318,1,0.004674197,1,0.000179005,1,0.005269005,1,0.2192171812057495,1,-0.590271115,1,0.4383052289485931,1
2.219918966,-5.298267365,1,-1.717290998,1,-8.048602104,1,0.003961384,1,-0.001481494,1,0.001595713,1,0.2192190289497375,1,-0.590284169,1,0.4383260011672974,1
2.22392416,-5.285498619,1,-1.716683626,1,-8.064126968,1,0.003938859,1,-0.001235394,1,0.005056365,1,0.2192261815071106,1,-0.590296447,1,0.4383398294448853,1
2.227926016,-5.328579426,1,-1.698569298,1,-8.066438675,1,0.000600016,1,0.000142877,1,0.000863664,1,0.2192181050777435,1,-0.590293646,1,0.4383610188961029,1
2.231923819,-5.342422962,1,-1.680831552,1,-8.048417091,1,0.005094292,1,0.002911181,1,0.0035167,1,0.2192257195711136,1,-0.59029597,1,0.4383697807788849,1
2.23592329,-5.323842525,1,-1.716791153,1,-8.095466614,1,0.003743522,1,0.000406845,1,0.00484579,1,0.219231516,1,-0.590294302,1,0.4383862912654877,1
2.239924908,-5.293199062,1,-1.729874134,1,-8.057863235,1,0.002569499,1,0.00364779,1,0.001694365,1,0.2192358523607254,1,-0.590293646,1,0.4384066164493561,1
2.24392271,-5.309551716,1,-1.736988306,1,-8.078062057,1,0.002291786,1,0.00076957,1,0.006151404,1,0.2192310392856598,1,-0.590284765,1,0.4384296536445618,1
2.247922182,-5.328685284,1,-1.73337245,1,-8.060992241,1,0.001067162,1,0.006523454,1,0.00266379,1,0.2192267626523972,1,-0.590277672,1,0.4384534358978271,1
2.251924038,-5.363725662,1,-1.693626881,1,-8.07596302,1,0.001138601,1,0.003017693,1,0.005431939,1,0.2192201316356659,1,-0.590261102,1,0.4384648203849792,1
2.255921602,-5.377277851,1,-1.657998085,1,-8.084013939,1,0.00231987,1,0.007236705,1,0.003050386,1,0.2192101329565048,1,-0.590241969,1,0.4384937584400177,1
2.259921312,-5.320817471,1,-1.651284575,1,-8.088827133,1,0.003591612,1,0.000384532,1,0.004379902,1,0.2192019522190094,1,-0.590227664,1,0.4385218024253845,1
2.26392293,-5.341905594,1,-1.64627099,1,-8.082853317,1,0.003219281,1,0.005918506,1,0.003509654,1,0.2192021161317825,1,-0.590210795,1,0.4385380148887634,1
2.267920494,-5.319276333,1,-1.648809075,1,-8.087585449,1,0.002728826,1,0.003338743,1,0.00568434,1,0.2192021757364273,1,-0.590197444,1,0.4385591745376587,1
2.271920204,-5.332861423,1,-1.684069276,1,-8.09783268,1,0.003759281,1,0.0054436,1,0.003042426,1,0.2192080616950989,1,-0.590185463,1,0.4385768473148346,1
2.275921583,-5.310688496,1,-1.727571607,1,-8.088500977,1,0.004640366,1,0.007819788,1,0.002841665,1,0.2192139178514481,1,-0.590170979,1,0.4385953843593597,1
2.279919386,-5.30140543,1,-1.719709992,1,-8.100204468,1,0.006598824,1,0.003682726,1,0.006233108,1,0.2192270010709763,1,-0.590152442,1,0.438611776,1
2.283918858,-5.299795151,1,-1.732915759,1,-8.097033501,1,0.003403956,1,0.00426345,1,0.005826117,1,0.2192381173372269,1,-0.590150595,1,0.4386312961578369,1
2.287920475,-5.308256149,1,-1.753412366,1,-8.081357002,1,0.004430028,1,-0.000973645,1,0.003884917,1,0.2192410081624985,1,-0.590145946,1,0.4386517405509949,1
2.291918039,-5.329946995,1,-1.758193851,1,-8.064769745,1,0.004817614,1,0.000350077,1,0.007000764,1,0.219249889,1,-0.590144455,1,0.4386647343635559,1
2.295917511,-5.273578644,1,-1.744647145,1,-8.100355148,1,-0.000975976,1,-0.003113799,1,0.004559065,1,0.2192444056272507,1,-0.590147674,1,0.438693106,1
2.299919128,-5.292778015,1,-1.746265531,1,-8.067410469,1,-0.000525,1,0.001922186,1,0.008167593,1,0.2192306369543076,1,-0.59015429,1,0.438721627,1
2.303916693,-5.312573433,1,-1.731743455,1,-8.053309441,1,0.002464011,1,-0.000987792,1,0.006849092,1,0.2192176729440689,1,-0.590158165,1,0.4387499392032623,1
2.307916403,-5.351376057,1,-1.726660252,1,-8.090669632,1,-0.001510402,1,0.000809826,1,0.008577366,1,0.2191999852657318,1,-0.590161145,1,0.4387831091880798,1
2.31191802,-5.304231644,1,-1.733725071,1,-8.084213257,1,-0.002739159,1,0.000278808,1,0.007593445,1,0.2191752344369888,1,-0.590161264,1,0.4388163089752197,1
2.315915823,-5.326180458,1,-1.691427469,1,-8.082476616,1,0.001323008,1,-0.000370178,1,0.007514516,1,0.2191581875085831,1,-0.590165079,1,0.4388421177864075,1
2.319915295,-5.317463875,1,-1.713122606,1,-8.067371368,1,-0.001524594,1,0.001381825,1,0.005854137,1,0.2191368937492371,1,-0.590162277,1,0.4388806819915771,1
2.323916912,-5.339031696,1,-1.737126708,1,-8.10827446,1,-0.000657403,1,0.000365575,1,0.011460498,1,0.2191179990768433,1,-0.590163469,1,0.4389197528362274,1
2.327914476,-5.318265438,1,-1.73239243,1,-8.073929787,1,-0.000427953,1,-0.001126764,1,0.005196749,1,0.2190983,1,-0.59016645,1,0.4389573335647583,1
2.331914186,-5.311125278,1,-1.699358344,1,-8.072645187,1,-2.74E-05,1,-0.001769996,1,0.006280008,1,0.2190830409526825,1,-0.59017396,1,0.4389854371547699,1
2.335915804,-5.307403564,1,-1.692808986,1,-8.087054253,1,0.0024618,1,9.063445031642914e-05,1,0.004950052,1,0.2190592139959335,1,-0.590172112,1,0.4390212297439575,1
2.339913368,-5.312580585,1,-1.663600206,1,-8.076498032,1,0.003129675,1,-0.000138889,1,0.00477303,1,0.2190541923046112,1,-0.59017086,1,0.4390453696250916,1
2.343919039,-5.334991932,1,-1.678533435,1,-8.095011711,1,-0.000565561,1,-0.000505746,1,0.008749137,1,0.2190417945384979,1,-0.59017235,1,0.4390772581100464,1
2.347920895,-5.319103241,1,-1.696748018,1,-8.053413391,1,0.000396068,1,0.006096958,1,0.004853643,1,0.2190284430980682,1,-0.590167463,1,0.4391059279441833,1
2.351918697,-5.340967178,1,-1.717546821,1,-8.08544445,1,0.006195647,1,0.000699924,1,0.005410882,1,0.2190261632204056,1,-0.590175807,1,0.4391339421272278,1
2.355918169,-5.312134266,1,-1.694346666,1,-8.081087112,1,0.004806951,1,-0.001753898,1,0.005454865,1,0.2190309166908264,1,-0.590172827,1,0.4391547441482544,1
2.359919548,-5.300903797,1,-1.663160801,1,-8.096668243,1,0.002589442,1,-0.001620304,1,0.001478495,1,0.2190354913473129,1,-0.590178072,1,0.4391765594482422,1
2.363917112,-5.334640503,1,-1.663102388,1,-8.085659981,1,0.006708345,1,-0.001671005,1,0.001958738,1,0.2190473228693008,1,-0.590183437,1,0.4391895830631256,1
2.367916584,-5.311796665,1,-1.714773178,1,-8.086629868,1,0.006104393,1,-0.002883211,1,0.001681533,1,0.2190598398447037,1,-0.590191185,1,0.4392029643058777,1
2.371917963,-5.318344116,1,-1.713285804,1,-8.073225021,1,0.006472656,1,0.000335036,1,0.000221073,1,0.2190732359886169,1,-0.59020406,1,0.4392193555831909,1
2.375916004,-5.322154522,1,-1.728129745,1,-8.083226204,1,0.002129828,1,0.000940602,1,0.002892212,1,0.2190851122140884,1,-0.59020865,1,0.4392356872558594,1
2.379915476,-5.339705944,1,-1.709759593,1,-8.075919151,1,0.00594811,1,0.00190427,1,0.007570332,1,0.2190910279750824,1,-0.59021616,1,0.4392588436603546,1
2.383917093,-5.291224957,1,-1.759427428,1,-8.073903084,1,0.005114427,1,0.001176193,1,0.003637081,1,0.2190959304571152,1,-0.590213716,1,0.4392815828323364,1
2.387914658,-5.309367657,1,-1.734893322,1,-8.07643795,1,0.003177708,1,0.000540931,1,0.006640977,1,0.2190994024276733,1,-0.590214014,1,0.4393019378185272,1
2.391914129,-5.34192276,1,-1.704884648,1,-8.053775787,1,-0.001373473,1,0.00372176,1,0.00547297,1,0.2190885245800018,1,-0.590210199,1,0.4393329322338104,1
2.395915747,-5.373772144,1,-1.747376323,1,-8.058476448,1,-0.001253636,1,0.001616537,1,0.008473517,1,0.2190724313259125,1,-0.590214431,1,0.4393660426139832,1
2.399913549,-5.335708141,1,-1.73788929,1,-8.070983887,1,-0.000381411,1,0.005154937,1,0.007304914,1,0.2190558165311813,1,-0.590207458,1,0.4394013583660126,1
2.403913021,-5.29501009,1,-1.732120514,1,-8.067160606,1,0.003098566,1,0.002415709,1,0.00891693,1,0.2190300822257996,1,-0.590199769,1,0.4394453763961792,1
2.407914639,-5.299064636,1,-1.706425309,1,-8.082383156,1,-0.00045611,1,0.003028726,1,0.009373473,1,0.2190094441175461,1,-0.590200484,1,0.4394820630550385,1
2.411912441,-5.338404655,1,-1.675389886,1,-8.070679665,1,-0.001775712,1,0.002448984,1,0.00490733,1,0.2189848870038986,1,-0.59019506,1,0.4395214915275574,1
2.415911913,-5.316658497,1,-1.694680691,1,-8.088602066,1,0.002658283,1,0.002094154,1,0.009134646,1,0.218957707,1,-0.590186,1,0.4395699501037598,1
2.419913769,-5.29892683,1,-1.704472065,1,-8.091229439,1,7.87072058301419e-05,1,0.005969109,1,0.006515009,1,0.2189442664384842,1,-0.590175867,1,0.4395987093448639,1
2.423911572,-5.338968277,1,-1.680979252,1,-8.101122856,1,-0.000918871,1,0.00266382,1,0.001696847,1,0.2189259976148605,1,-0.590168774,1,0.4396322071552277,1
2.427911282,-5.295054436,1,-1.686745167,1,-8.084432602,1,0.001177893,1,0.001101032,1,0.002468945,1,0.2189143151044846,1,-0.590156615,1,0.4396629929542542,1
2.431912661,-5.281110287,1,-1.709596157,1,-8.111544609,1,0.00061592,1,0.002611025,1,0.004673422,1,0.2189006060361862,1,-0.590146601,1,0.4396888017654419,1
2.435910225,-5.280680656,1,-1.671059608,1,-8.097436905,1,0.001869284,1,0.002524902,1,0.004675207,1,0.2186252176761627,1,-0.589676738,1,0.4399796426296234,1
2.439909935,-5.28819561,1,-1.685652971,1,-8.11815834,1,0.007832585,1,0.002272896,1,0.00491361,1,0.2186829298734665,1,-0.589586854,1,0.4396011531352997,1
2.443911314,-5.297740936,1,-1.632442713,1,-8.08820343,1,0.005135139,1,0.002514364,1,0.00350801,1,0.2186921387910843,1,-0.589584768,1,0.4396186769008636,1
2.447909117,-5.312572002,1,-1.648145437,1,-8.110843658,1,0.004410503,1,-0.003794722,1,-0.000110608,1,0.2187156826257706,1,-0.589580655,1,0.4396315515041351,1
2.451908588,-5.318826675,1,-1.670531869,1,-8.101590157,1,0.011561751,1,0.00098721,1,-0.001579702,1,0.2187445014715195,1,-0.589586258,1,0.4396358728408813,1
2.455910206,-5.304080963,1,-1.71333766,1,-8.072220802,1,0.007508204,1,-0.002360739,1,0.001485472,1,0.2187783867120743,1,-0.589587688,1,0.4396384358406067,1
2.45990777,-5.303287506,1,-1.719942808,1,-8.08996582,1,0.009268165,1,0.003221686,1,0.003639927,1,0.2188151329755783,1,-0.58959496,1,0.4396408498287201,1
2.463913441,-5.313592911,1,-1.745997667,1,-8.069308281,1,0.00829539,1,-0.001049387,1,0.000522389,1,0.2188479453325272,1,-0.589592516,1,0.4396467208862305,1
2.467915058,-5.327101707,1,-1.756063581,1,-8.073579788,1,0.010575541,1,0.000189145,1,0.00215877,1,0.2188760936260223,1,-0.589598536,1,0.4396524429321289,1
2.471912861,-5.329215527,1,-1.775250554,1,-8.055792809,1,0.006045609,1,0.001320773,1,0.00164028,1,0.2188933193683624,1,-0.589601874,1,0.4396652579307556,1
2.475912333,-5.370655537,1,-1.7278651,1,-8.065372467,1,0.005090712,1,-0.002348205,1,0.002075557,1,0.2189042717218399,1,-0.589610636,1,0.4396795332431793,1
2.47991395,-5.319983959,1,-1.711465597,1,-8.052297592,1,0.001030319,1,0.001117237,1,0.003527573,1,0.2189113646745682,1,-0.589615583,1,0.4396975934505463,1
2.483911991,-5.326982021,1,-1.76314199,1,-8.071803093,1,0.001038437,1,0.006007765,1,0.007532853,1,0.218894824,1,-0.589609325,1,0.4397282302379608,1
2.487911463,-5.333088398,1,-1.772633791,1,-8.040328026,1,0.002419014,1,-0.000302916,1,0.007957444,1,0.2188797891139984,1,-0.589603305,1,0.4397648870944977,1
2.491912842,-5.290419102,1,-1.767681479,1,-8.066487312,1,-0.004789963,1,0.003925166,1,0.008405739,1,0.2188583612442017,1,-0.589609563,1,0.4397953450679779,1
2.495910645,-5.336007118,1,-1.744277835,1,-8.053100586,1,-0.000884349,1,0.002279803,1,0.01082541,1,0.2188273966312408,1,-0.589602649,1,0.4398375749588013,1
2.499910116,-5.305090427,1,-1.723075867,1,-8.032822609,1,-0.003782894,1,0.006455431,1,0.005123937,1,0.2187909036874771,1,-0.589592934,1,0.439880908,1
2.503911972,-5.277267933,1,-1.696011662,1,-8.077188492,1,-0.003589106,1,0.003167073,1,0.009247032,1,0.2187467664480209,1,-0.58958596,1,0.4399282932281494,1
2.507909536,-5.311408997,1,-1.719219089,1,-8.075372696,1,-0.001242885,1,0.004836041,1,0.005964014,1,0.2187203466892242,1,-0.589566171,1,0.4399690926074982,1
2.511909008,-5.3505826,1,-1.72360611,1,-8.090643883,1,-0.003884073,1,0.003963897,1,0.008741945,1,0.2186869233846664,1,-0.589558542,1,0.4400051832199097,1
2.515910864,-5.283570766,1,-1.681472659,1,-8.075385094,1,-5.29E-05,1,0.007307235,1,0.005764029,1,0.2186610400676727,1,-0.589535475,1,0.4400453567504883,1
2.519908905,-5.320371628,1,-1.622215271,1,-8.093496323,1,-0.002300228,1,0.007274573,1,-0.000363873,1,0.2186360210180283,1,-0.589512825,1,0.4400773048400879,1
2.523908377,-5.346710205,1,-1.570731044,1,-8.09116745,1,0.0053122,1,0.005443378,1,0.005149188,1,0.2186295688152313,1,-0.589489281,1,0.4400970339775085,1
2.527910233,-5.327212811,1,-1.618601203,1,-8.08591938,1,0.006755913,1,0.003700953,1,0.000241425,1,0.2186289727687836,1,-0.589470625,1,0.440123439,1
2.531907797,-5.294425964,1,-1.669440269,1,-8.107083321,1,0.006984454,1,0.00684193,1,8.809770224615932e-05,1,0.2186517268419266,1,-0.589451194,1,0.4401295185089111,1
2.535907507,-5.296581268,1,-1.675291896,1,-8.080366135,1,0.007264871,1,0.004386881,1,-0.001170602,1,0.2186808586120605,1,-0.589431822,1,0.4401291310787201,1
2.539909124,-5.312544346,1,-1.714506626,1,-8.101540565,1,0.008893184,1,0.005736605,1,0.001949151,1,0.2187113463878632,1,-0.589415789,1,0.4401386678218842,1
2.54390645,-5.275335312,1,-1.69836688,1,-8.105563164,1,0.006894128,1,8.692708797752857e-05,1,-0.0009603,1,0.2187426686286926,1,-0.589398026,1,0.4401405155658722,1
2.54790616,-5.299695969,1,-1.746805191,1,-8.069724083,1,0.008424181,1,0.003180143,1,0.000177117,1,0.218779594,1,-0.58939445,1,0.4401381015777588,1
2.551907778,-5.305239201,1,-1.766665936,1,-8.069101334,1,0.007087001,1,-0.000322563,1,0.001210978,1,0.2187987416982651,1,-0.58938098,1,0.440136045,1
2.555905819,-5.301206589,1,-1.758677959,1,-8.063770294,1,0.002430685,1,0.005068834,1,-0.001848902,1,0.2188145518302917,1,-0.589370608,1,0.4401463866233826,1
2.559905529,-5.32107687,1,-1.711124778,1,-8.083720207,1,0.007147024,1,0.007167021,1,0.00210822,1,0.2188282310962677,1,-0.589349508,1,0.4401635527610779,1
2.563907146,-5.311267853,1,-1.732335329,1,-8.050274849,1,-0.00190507,1,0.001337588,1,0.001057549,1,0.2188227027654648,1,-0.589341462,1,0.4401757717132568,1
2.567904711,-5.27623415,1,-1.72485137,1,-8.081357956,1,0.002964248,1,0.006882402,1,-0.002121584,1,0.2188296914100647,1,-0.589319408,1,0.4401956796646118,1
2.571904182,-5.299562454,1,-1.741422892,1,-8.076739311,1,0.001591009,1,0.005097732,1,0.001674242,1,0.2188346236944199,1,-0.589298844,1,0.4402124285697937,1
2.5759058,-5.322244644,1,-1.709534764,1,-8.095809937,1,0.001623971,1,0.005919096,1,0.002057214,1,0.2188180834054947,1,-0.589284062,1,0.4402410984039307,1
2.579903603,-5.322704315,1,-1.732055902,1,-8.10077095,1,-0.001990055,1,0.006448253,1,0.001405083,1,0.2188213765621185,1,-0.589263082,1,0.4402569532394409,1
2.583909035,-5.317741871,1,-1.690522432,1,-8.078327179,1,0.004364586,1,0.010516651,1,0.00121423,1,0.2188126146793365,1,-0.589240015,1,0.4402812123298645,1
2.587910652,-5.306520462,1,-1.682282805,1,-8.090208054,1,0.002879272,1,0.006523341,1,0.002022023,1,0.2188175320625305,1,-0.589219332,1,0.4402962625026703,1
2.591908455,-5.305366516,1,-1.686233044,1,-8.064640045,1,0.004128432,1,0.004397435,1,0.001123717,1,0.2188204377889633,1,-0.589203835,1,0.4403065145015717,1
2.595908165,-5.259972095,1,-1.679687381,1,-8.105252266,1,-0.001985651,1,0.005754714,1,0.002020583,1,0.2188287526369095,1,-0.589191437,1,0.4403200745582581,1
2.599909782,-5.309280872,1,-1.650956154,1,-8.126116753,1,0.00412981,1,0.004060815,1,0.001653471,1,0.2188217490911484,1,-0.589178205,1,0.4403440058231354,1
2.603907585,-5.32970953,1,-1.68208909,1,-8.074420929,1,0.004050762,1,0.004721303,1,0.00250055,1,0.2188321202993393,1,-0.58916688,1,0.440360814,1
2.607907057,-5.388676643,1,-1.807545543,1,-8.014512062,1,0.001951381,1,0.002568083,1,-0.001824314,1,0.2188405394554138,1,-0.589150786,1,0.4403685927391052,1
2.611908674,-5.327858925,1,-1.881604552,1,-8.036214828,1,0.000844713,1,0.004435908,1,0.001955135,1,0.2188401818275452,1,-0.589130521,1,0.4403794407844543,1
2.615906239,-5.326407909,1,-1.821817994,1,-8.070503235,1,0.002830985,1,0.00420099,1,-0.000278991,1,0.2188412994146347,1,-0.589113772,1,0.4403913021087646,1
2.61990571,-5.247850895,1,-1.669829607,1,-8.098381996,1,-0.000147934,1,0.012498552,1,0.003651623,1,0.2188206613063812,1,-0.589087486,1,0.4404161274433136,1
2.623907328,-5.275623798,1,-1.65434444,1,-8.119825363,1,-0.001175447,1,0.005333679,1,0.004703885,1,0.2187923491001129,1,-0.589060724,1,0.4404566287994385,1
2.62790513,-5.298856258,1,-1.695230246,1,-8.105674744,1,0.002127423,1,0.005855169,1,0.003277899,1,0.2187891453504562,1,-0.589042485,1,0.4404797554016113,1
2.63190484,-5.331717014,1,-1.73798871,1,-8.053209305,1,0.001838189,1,0.007987021,1,0.002738463,1,0.2187723815441132,1,-0.58902514,1,0.4405055642127991,1
2.635906219,-5.33139658,1,-1.703173518,1,-8.100734711,1,0.003772773,1,0.007560667,1,0.006489723,1,0.2187693417072296,1,-0.589001358,1,0.440522701,1
2.639904022,-5.286412716,1,-1.675851226,1,-8.090092659,1,-0.00017445,1,0.004976871,1,0.00466071,1,0.2187640368938446,1,-0.588979542,1,0.4405460953712463,1
2.643903971,-5.301503181,1,-1.622164369,1,-8.077122688,1,0.001667689,1,0.004522744,1,0.005173919,1,0.2187516242265701,1,-0.588954687,1,0.4405796527862549,1
2.647905588,-5.350365639,1,-1.706305742,1,-8.07121563,1,0.00109823,1,0.006274519,1,0.000195143,1,0.2187516838312149,1,-0.588932574,1,0.4405969083309174,1
2.651902914,-5.355644703,1,-1.771468759,1,-8.068422318,1,0.001430133,1,0.007765188,1,0.0049973,1,0.2187532484531403,1,-0.588903248,1,0.4406157433986664,1
2.655902386,-5.308766842,1,-1.749570608,1,-8.044092178,1,-0.000297105,1,0.006358397,1,-0.000119585,1,0.2187499850988388,1,-0.588878036,1,0.4406336843967438,1
2.659904003,-5.3050313,1,-1.694955468,1,-8.078577042,1,0.000992027,1,0.005893256,1,0.004139447,1,0.2187423557043076,1,-0.588852525,1,0.4406556785106659,1
2.663901806,-5.311644077,1,-1.656746507,1,-8.112084389,1,0.005307068,1,0.008971436,1,0.006417289,1,0.2187321335077286,1,-0.588820696,1,0.4406903684139252,1
2.667901278,-5.28557682,1,-1.649389625,1,-8.109471321,1,0.001216207,1,0.013012044,1,0.0043698,1,0.2187270224094391,1,-0.588793159,1,0.440718412,1
2.671902657,-5.296327591,1,-1.678958654,1,-8.072731972,1,0.002925674,1,0.002968735,1,0.005388472,1,0.2187299877405167,1,-0.588767529,1,0.4407347738742828,1
2.675900459,-5.328761578,1,-1.74509418,1,-8.087837219,1,0.001871808,1,0.00813367,1,0.004424686,1,0.2187244594097137,1,-0.588739812,1,0.4407648742198944,1
2.679899931,-5.306556702,1,-1.714143395,1,-8.101858139,1,0.003458657,1,0.007460159,1,0.003494096,1,0.2187220752239227,1,-0.588717282,1,0.4407992362976074,1
2.683901548,-5.258174896,1,-1.755261064,1,-8.129597664,1,0.003786072,1,0.004446201,1,0.006799529,1,0.2187230885028839,1,-0.588700771,1,0.4408280253410339,1
2.687899113,-5.301679611,1,-1.723042607,1,-8.122980118,1,0.003389449,1,0.00451817,1,0.004886246,1,0.218523845,1,-0.588135481,1,0.4406945109367371,1
2.691898584,-5.290688038,1,-1.716407776,1,-8.119567871,1,0.00640757,1,0.002988652,1,0.003244574,1,0.2185224592685699,1,-0.588121653,1,0.4407203793525696,1
2.69590044,-5.289577961,1,-1.707781076,1,-8.125747681,1,0.002741572,1,0.00258525,1,0.006044848,1,0.2185219675302505,1,-0.588117301,1,0.4407460689544678,1
2.699898005,-5.263844013,1,-1.711529016,1,-8.0782938,1,-0.000194149,1,0.000711646,1,0.00409166,1,0.2185176908969879,1,-0.588107228,1,0.4407763481140137,1
2.703903675,-5.302643299,1,-1.696213126,1,-8.09747982,1,0.000844856,1,0.001587717,1,0.002571722,1,0.2185113281011581,1,-0.588113725,1,0.4407999515533447,1
2.707905531,-5.27875185,1,-1.679014087,1,-8.073893547,1,0.003667889,1,0.001768261,1,0.00453441,1,0.218503326,1,-0.588107109,1,0.4408196210861206,1
2.711903334,-5.275788784,1,-1.695275664,1,-8.072331429,1,0.00528245,1,0.003330731,1,0.001625035,1,0.2185065746307373,1,-0.5881024,1,0.4408376514911652,1
2.715902805,-5.266022205,1,-1.694762468,1,-8.107228279,1,0.004338967,1,0.001789844,1,0.003228794,1,0.2185081094503403,1,-0.588097215,1,0.4408569037914276,1
2.719904423,-5.328644753,1,-1.703356624,1,-8.063850403,1,0.00213954,1,0.00245792,1,0.002915445,1,0.2185172736644745,1,-0.588095367,1,0.4408814311027527,1
2.723902225,-5.310493469,1,-1.680400014,1,-8.081394196,1,0.003785288,1,0.002138325,1,0.002541722,1,0.2185253351926804,1,-0.588091195,1,0.4408940672874451,1
2.727901936,-5.307684898,1,-1.692832351,1,-8.081018448,1,0.004786643,1,0.002230288,1,0.005606303,1,0.218538374,1,-0.588078499,1,0.4409095048904419,1
2.731903553,-5.328321934,1,-1.710561872,1,-8.075966835,1,0.004071181,1,0.001984017,1,0.003295779,1,0.2185469418764114,1,-0.588077307,1,0.4409228563308716,1
2.735901117,-5.276035309,1,-1.678634763,1,-8.074661255,1,0.004536772,1,-0.000931406,1,0.00156815,1,0.2185648828744888,1,-0.588068783,1,0.4409288763999939,1
2.739900589,-5.311534882,1,-1.657665968,1,-8.079470634,1,0.01106715,1,0.007281629,1,0.000565876,1,0.2185821980237961,1,-0.588055372,1,0.4409372806549072,1
2.743902206,-5.288664818,1,-1.638826609,1,-8.078043938,1,0.007710366,1,0.001593856,1,0.003084681,1,0.2186193913221359,1,-0.588038325,1,0.4409494400024414,1
2.747899532,-5.28553009,1,-1.689488173,1,-8.07686615,1,0.009092649,1,0.000688051,1,-0.000598346,1,0.2186509668827057,1,-0.588031054,1,0.4409503638744354,1
2.751899481,-5.302681446,1,-1.702580571,1,-8.084223747,1,0.01032698,1,0.005906237,1,0.0012402,1,0.2186913192272186,1,-0.588023365,1,0.4409515261650085,1
2.75590086,-5.304337502,1,-1.700707436,1,-8.075577736,1,0.008666106,1,0.003127138,1,-0.00086991,1,0.2187283635139465,1,-0.588008404,1,0.4409528970718384,1
2.759898663,-5.297772408,1,-1.744461775,1,-8.122437477,1,0.010257525,1,-0.000669588,1,-2.77E-05,1,0.2187637239694595,1,-0.588003397,1,0.4409554600715637,1
2.763898134,-5.285232544,1,-1.755057693,1,-8.072788239,1,0.007974194,1,0.003667877,1,0.002900772,1,0.2187885940074921,1,-0.587993085,1,0.4409677982330322,1
2.767899752,-5.301698208,1,-1.772567868,1,-8.076133728,1,0.004428789,1,0.004516469,1,0.001208621,1,0.2188116759061813,1,-0.587980151,1,0.4409786760807037,1
2.771897554,-5.285240173,1,-1.817928553,1,-8.073330879,1,0.006714945,1,0.003621495,1,0.006399754,1,0.2188218683004379,1,-0.587964654,1,0.4409988522529602,1
2.775897026,-5.315814018,1,-1.757845163,1,-8.067594528,1,0.001183633,1,0.005674427,1,0.004575942,1,0.2188223600387573,1,-0.587956488,1,0.4410253167152405,1
2.779898643,-5.283314228,1,-1.764476895,1,-8.103016853,1,0.000622825,1,0.004979627,1,0.007407671,1,0.2187993973493576,1,-0.587947369,1,0.4410646557807922,1
2.783896208,-5.278097153,1,-1.71153605,1,-8.107085228,1,-0.002269402,1,0.001192901,1,0.005728525,1,0.2187839150428772,1,-0.587936997,1,0.4410970211029053,1
2.787895918,-5.309260845,1,-1.724179626,1,-8.07919693,1,0.000237001,1,0.002441064,1,0.00652276,1,0.218758687,1,-0.587930679,1,0.4411301612854004,1
2.791897535,-5.307284355,1,-1.725946665,1,-8.069915771,1,-0.001731057,1,0.002313853,1,0.006048742,1,0.2187430560588837,1,-0.587917924,1,0.441153884,1
2.795895338,-5.268960476,1,-1.715997338,1,-8.100136757,1,-0.00407256,1,0.006706291,1,0.003389331,1,0.2187069803476334,1,-0.5879094,1,0.4411962032318115,1
2.79989481,-5.280525684,1,-1.770369411,1,-8.071395874,1,-0.001201113,1,0.003650402,1,0.00761349,1,0.2186788469552994,1,-0.587895036,1,0.4412244558334351,1
2.803896666,-5.295697212,1,-1.742703319,1,-8.091389656,1,-0.001196718,1,0.002168667,1,0.010041539,1,0.2186591029167175,1,-0.587882996,1,0.4412565529346466,1
2.80789423,-5.283380508,1,-1.69755733,1,-8.109297752,1,-0.002260412,1,0.005230553,1,0.007376981,1,0.2186334431171417,1,-0.587875366,1,0.4412907361984253,1
2.81189394,-5.318547249,1,-1.704489708,1,-8.109235764,1,-0.000166197,1,0.0021084,1,0.008234814,1,0.2186122536659241,1,-0.587863386,1,0.44132477,1
2.815895796,-5.324461937,1,-1.67298317,1,-8.099684715,1,-0.002998531,1,0.004799683,1,0.005716268,1,0.2185832560062408,1,-0.587855637,1,0.4413595497608185,1
2.819893599,-5.301528931,1,-1.679361463,1,-8.100208282,1,-0.00477498,1,0.006399778,1,0.007140243,1,0.2185623198747635,1,-0.587849021,1,0.4413856863975525,1
2.823899508,-5.349358082,1,-1.66400373,1,-8.082063675,1,0.001032266,1,0.001238204,1,0.00169094,1,0.2185438126325607,1,-0.587841511,1,0.4414106011390686,1
2.827901125,-5.2901721,1,-1.662248611,1,-8.090891838,1,0.004936392,1,0.000559631,1,0.002276497,1,0.2185404747724533,1,-0.587832987,1,0.4414317309856415,1
2.831898928,-5.32540369,1,-1.672718287,1,-8.074325562,1,0.002086777,1,0.002061334,1,0.001478875,1,0.2185411155223846,1,-0.587823391,1,0.4414448738098145,1
2.835898399,-5.325559139,1,-1.705316067,1,-8.09141922,1,0.005228085,1,0.004574893,1,0.004923993,1,0.2185436189174652,1,-0.587814927,1,0.4414599239826202,1
2.839900017,-5.289783478,1,-1.693456411,1,-8.077968597,1,0.004236402,1,0.005324655,1,0.002420199,1,0.2185490131378174,1,-0.587792575,1,0.4414770007133484,1
2.843897343,-5.329099178,1,-1.704629421,1,-8.072740555,1,0.004032086,1,0.003381188,1,-0.000566744,1,0.2185511738061905,1,-0.587784171,1,0.4414931535720825,1
2.847896814,-5.329046726,1,-1.677528381,1,-8.064538002,1,0.00680374,1,0.00733468,1,0.002466098,1,0.2185664772987366,1,-0.587768972,1,0.4415015876293182,1
2.851898432,-5.319159508,1,-1.660320759,1,-8.073368073,1,0.005027955,1,0.006616754,1,0.004760517,1,0.218572199,1,-0.587747812,1,0.4415218234062195,1
2.855895996,-5.308176041,1,-1.688967943,1,-8.085048676,1,0.009737398,1,0.00504391,1,-0.002218886,1,0.2185995727777481,1,-0.587727904,1,0.4415284097194672,1
2.859895468,-5.267096519,1,-1.713903904,1,-8.0944767,1,0.0083762,1,0.006738356,1,-0.000215531,1,0.2186311483383179,1,-0.587705612,1,0.4415359199047089,1
2.863897562,-5.310946465,1,-1.70080483,1,-8.085554123,1,0.010723703,1,0.008968234,1,0.003157581,1,0.2186577022075653,1,-0.587680578,1,0.4415469169616699,1
2.867895842,-5.307213783,1,-1.707724929,1,-8.079899788,1,0.007112463,1,0.003582001,1,-0.001108164,1,0.2186887264251709,1,-0.587653399,1,0.4415513575077057,1
2.871895552,-5.289467335,1,-1.724568605,1,-8.086594582,1,0.009106196,1,0.008934478,1,-0.000640094,1,0.2187169939279556,1,-0.587632895,1,0.4415543079376221,1
2.875897169,-5.299498558,1,-1.708454251,1,-8.052817345,1,0.009035727,1,0.006386934,1,-0.002477672,1,0.2187415361404419,1,-0.587605,1,0.4415598213672638,1
2.879894972,-5.317298889,1,-1.732561111,1,-8.073933601,1,0.010192202,1,0.006955034,1,-0.000518172,1,0.2187861502170563,1,-0.58757621,1,0.4415616989135742,1
2.883894444,-5.29801321,1,-1.690040946,1,-8.067595482,1,0.00897455,1,0.00947475,1,-0.002144398,1,0.2188271433115005,1,-0.587537766,1,0.4415543675422668,1
2.887896299,-5.331623554,1,-1.699602604,1,-8.083017349,1,0.007046144,1,0.008690778,1,-0.004241335,1,0.2188593447208405,1,-0.587504208,1,0.4415575861930847,1
2.891894102,-5.318303585,1,-1.699263573,1,-8.042759895,1,0.013759121,1,0.012455237,1,-0.004389461,1,0.2189054489135742,1,-0.587461114,1,0.4415498375892639,1
2.895893574,-5.264148712,1,-1.776450753,1,-8.085314751,1,0.01103792,1,0.016744912,1,-0.002371964,1,0.2189467996358871,1,-0.587406993,1,0.4415436983108521,1
2.899895191,-5.30703783,1,-1.669269562,1,-8.088550568,1,0.012150377,1,0.01267765,1,-0.002508525,1,0.2189944088459015,1,-0.587347567,1,0.4415355324745178,1
2.903892994,-5.338095188,1,-1.684040904,1,-8.055436134,1,0.014060929,1,0.013894998,1,-0.006129345,1,0.2190409600734711,1,-0.587292075,1,0.4415306746959686,1
2.907892466,-5.373197556,1,-1.781558037,1,-8.059677124,1,0.012845069,1,0.014997164,1,-0.004994675,1,0.2190988212823868,1,-0.587230206,1,0.4415151476860046,1
2.911894083,-5.338843346,1,-1.735583305,1,-8.066599846,1,0.011989238,1,0.017935218,1,-0.004776607,1,0.2191517055034637,1,-0.587160587,1,0.441508949,1
2.915891647,-5.293275833,1,-1.657158256,1,-8.073793411,1,0.016282359,1,0.01640071,1,-0.008564422,1,0.2192152291536331,1,-0.587083697,1,0.4415010213851929,1
2.919891357,-5.323937893,1,-1.592014909,1,-8.086956024,1,0.0192398,1,0.020614805,1,-0.00768023,1,0.2192936092615128,1,-0.587002099,1,0.4414798319339752,1
2.923892975,-5.334405899,1,-1.74399066,1,-8.070207596,1,0.017955529,1,0.019057361,1,-0.004458291,1,0.2193676978349686,1,-0.586919308,1,0.4414682686328888,1
2.927890778,-5.291466713,1,-1.773596048,1,-8.063126564,1,0.014921511,1,0.019581538,1,-0.009765824,1,0.219443291,1,-0.586825252,1,0.4414528012275696,1
2.931890488,-5.304912567,1,-1.659934044,1,-8.084442139,1,0.018833747,1,0.026339307,1,-0.010810627,1,0.219518319,1,-0.586725473,1,0.4414359927177429,1
2.935891867,-5.330434799,1,-1.6289047,1,-8.080803871,1,0.020747133,1,0.023444872,1,-0.007722232,1,0.2193579822778702,1,-0.586199641,1,0.4416525065898895,1
2.939889431,-5.346322536,1,-1.705093026,1,-8.042779922,1,0.022779776,1,0.024362234,1,-0.008332019,1,0.2195042222738266,1,-0.586006522,1,0.441235214,1
2.943888903,-5.280698776,1,-1.795197606,1,-8.069940567,1,0.022334404,1,0.031215768,1,-0.010833693,1,0.2196007370948792,1,-0.585889459,1,0.4412129521369934,1
2.947896242,-5.284229279,1,-1.704107285,1,-8.093251228,1,0.024076311,1,0.027642481,1,-0.009611439,1,0.219703883,1,-0.585763752,1,0.4411954879760742,1
2.951900244,-5.297646999,1,-1.679688454,1,-8.07498455,1,0.021459797,1,0.02630279,1,-0.010296035,1,0.2198034226894379,1,-0.585653782,1,0.4411780834197998,1
2.955899954,-5.289267063,1,-1.722023726,1,-8.099662781,1,0.024009233,1,0.029418072,1,-0.009310692,1,0.2198988348245621,1,-0.585530937,1,0.441165954,1
2.959901333,-5.284408092,1,-1.772503734,1,-8.097253799,1,0.022795744,1,0.030141478,1,-0.011837301,1,0.2200026959180832,1,-0.585411549,1,0.4411481320858002,1
2.963899374,-5.290926933,1,-1.743416548,1,-8.100810051,1,0.023610635,1,0.032314096,1,-0.011596452,1,0.2201037555932999,1,-0.58528322,1,0.4411259889602661,1
2.967899084,-5.283987045,1,-1.681781411,1,-8.127156258,1,0.0239379,1,0.026711173,1,-0.010550177,1,0.2201913148164749,1,-0.585159183,1,0.4411176741123199,1
2.971900702,-5.282135487,1,-1.630765319,1,-8.125847816,1,0.022622311,1,0.030545006,1,-0.005359938,1,0.2202869206666946,1,-0.585039914,1,0.4411093,1
2.975898743,-5.288726807,1,-1.678049922,1,-8.104249001,1,0.02673592,1,0.029343035,1,-0.009522775,1,0.2203889489173889,1,-0.584922254,1,0.441099077,1
2.979898214,-5.29243803,1,-1.733037114,1,-8.112250328,1,0.02225408,1,0.027419761,1,-0.012125378,1,0.2205032110214233,1,-0.584804654,1,0.4410837888717651,1
2.983899593,-5.268282413,1,-1.77290082,1,-8.105283737,1,0.025413366,1,0.028195426,1,-0.008161266,1,0.2206104844808578,1,-0.584674597,1,0.4410707354545593,1
2.987897396,-5.29981184,1,-1.768497467,1,-8.084558487,1,0.021777747,1,0.028634371,1,-0.008703426,1,0.2207118719816208,1,-0.584557772,1,0.441054106,1
2.991896868,-5.274537563,1,-1.753962636,1,-8.064193726,1,0.023789907,1,0.029168451,1,-0.009202086,1,0.220811591,1,-0.584433556,1,0.4410397708415985,1
2.995898962,-5.229047298,1,-1.75680089,1,-8.10223484,1,0.022089191,1,0.029271979,1,-0.006391489,1,0.2209116518497467,1,-0.584311724,1,0.4410260617733002,1
2.999896765,-5.278928757,1,-1.710259676,1,-8.088582039,1,0.024525624,1,0.030334871,1,-0.004556772,1,0.2210050374269485,1,-0.584186256,1,0.4410190880298615,1
3.003896236,-5.258645058,1,-1.745223403,1,-8.105402946,1,0.025398487,1,0.033244222,1,-0.008434509,1,0.2210975140333176,1,-0.584057212,1,0.441015214,1
3.007897854,-5.279714108,1,-1.706256986,1,-8.085753441,1,0.01883731,1,0.029210314,1,-0.011127192,1,0.2211985141038895,1,-0.583927274,1,0.4410069584846497,1
3.011895657,-5.243796825,1,-1.716988325,1,-8.105647087,1,0.025334489,1,0.032593366,1,-0.011522154,1,0.2213005870580673,1,-0.583792865,1,0.4409912824630737,1
3.015895367,-5.253877163,1,-1.735023141,1,-8.083535194,1,0.027582834,1,0.029185874,1,-0.010119614,1,0.2214100062847137,1,-0.583661973,1,0.440973312,1
3.019896746,-5.258821964,1,-1.719342947,1,-8.081706047,1,0.02091038,1,0.033857748,1,-0.011462361,1,0.2215137779712677,1,-0.583523929,1,0.4409607946872711,1
3.02389431,-5.261457443,1,-1.745184541,1,-8.111480713,1,0.024635319,1,0.028042296,1,-0.011380378,1,0.2216163575649261,1,-0.583390713,1,0.4409492313861847,1
3.027893782,-5.252142906,1,-1.751618981,1,-8.131121635,1,0.026873665,1,0.035290889,1,-0.007217138,1,0.2217277139425278,1,-0.583262444,1,0.440934032,1
3.031895399,-5.258437634,1,-1.74388361,1,-8.105796814,1,0.025350712,1,0.032341417,1,-0.013918424,1,0.221843421,1,-0.583129346,1,0.4409116506576538,1
3.035892963,-5.303221226,1,-1.813028336,1,-8.081829071,1,0.023263369,1,0.033462144,1,-0.011478567,1,0.2219561785459518,1,-0.582996607,1,0.4408888220787048,1
3.039892673,-5.248973846,1,-1.747342825,1,-8.148570061,1,0.029126452,1,0.033239186,1,-0.009574366,1,0.2220662385225296,1,-0.582858026,1,0.4408762454986572,1
3.043894291,-5.286723137,1,-1.707081914,1,-8.109009743,1,0.025422074,1,0.031131921,1,-0.012175513,1,0.2221839129924774,1,-0.582718074,1,0.4408559203147888,1
3.047891855,-5.291893482,1,-1.738458276,1,-8.09858036,1,0.027138019,1,0.033002563,1,-0.014129037,1,0.2222973108291626,1,-0.582582891,1,0.4408401846885681,1
3.051891565,-5.263117313,1,-1.769309998,1,-8.100561142,1,0.024976889,1,0.032627515,1,-0.010968633,1,0.2224175035953522,1,-0.582436144,1,0.4408240914344788,1
3.055892944,-5.217504501,1,-1.754056334,1,-8.125416756,1,0.029051572,1,0.034152359,1,-0.010033622,1,0.2225355803966522,1,-0.58230567,1,0.4408090710639954,1
3.059890747,-5.215254784,1,-1.705961347,1,-8.112841606,1,0.025527297,1,0.035065576,1,-0.007689362,1,0.2226473987102509,1,-0.582167447,1,0.4408025443553925,1
3.063890219,-5.252944469,1,-1.676614761,1,-8.109378815,1,0.030115481,1,0.029764457,1,-0.012633729,1,0.2227718383073807,1,-0.582031608,1,0.440787286,1
3.067897797,-5.277163982,1,-1.735750437,1,-8.074804306,1,0.024838204,1,0.031560518,1,-0.007694751,1,0.22287856,1,-0.5819031,1,0.4407780766487122,1
3.071901798,-5.293889999,1,-1.803440571,1,-8.095741272,1,0.027072512,1,0.032954901,1,-0.010049585,1,0.2229805588722229,1,-0.581769168,1,0.4407820105552673,1
3.075901508,-5.229818344,1,-1.803398013,1,-8.109544754,1,0.029292516,1,0.030776905,1,-0.006177115,1,0.2230853885412216,1,-0.581636429,1,0.4407842755317688,1
3.079903126,-5.265413761,1,-1.817418933,1,-8.109714508,1,0.026090113,1,0.030697411,1,-0.007785444,1,0.223190963,1,-0.581504583,1,0.4407828748226166,1
3.083900928,-5.24507618,1,-1.842764139,1,-8.099100113,1,0.019126767,1,0.03308744,1,-0.007726574,1,0.2232736349105835,1,-0.581370771,1,0.4407941699028015,1
