Time,inertial-6253.76535:scaledAccelX,inertial-6253.76535:scaledAccelY,inertial-6253.76535:scaledAccelZ,inertial-6253.76535:scaledGyroX,inertial-6253.76535:scaledGyroY,inertial-6253.76535:scaledGyroZ,inertial-6253.76535:scaledMagX,inertial-6253.76535:scaledMagY,inertial-6253.76535:scaledMagZ,inertial-6253.76535:roll,inertial-6253.76535:pitch,inertial-6253.76535:yaw
0,0.559487641,0.058395181,-0.829108179,0.00456349,-0.004998983,0.004952303,-0.252959847,-0.27071169,0.264494002,-0.055072404,0.587399006,1.791074157
0.004995328,0.557321548,0.057390183,-0.82934767,0.003676885,-0.003009127,0.003837638,-0.252895862,-0.270711988,0.264519274,-0.055057582,0.587385654,1.791084647
0.009991936,0.557652652,0.057505697,-0.829457998,0.004702132,-0.002476822,0.006222462,-0.252874643,-0.270712078,0.264527649,-0.055039238,0.587382913,1.791100144
0.014989568,0.558727086,0.057665285,-0.829261065,0.004052258,-0.003182583,0.006118063,-0.253324211,-0.270771861,0.264419138,-0.055020116,0.587371469,1.7911129
0.019982591,0.557193756,0.057717025,-0.828416526,0.003895385,-0.002186456,0.006362926,-0.253473282,-0.27079168,0.264383137,-0.055004101,0.587365627,1.791132689
0.024976129,0.55654335,0.058409762,-0.82760334,0.004596846,-0.004420414,0.006087712,-0.253587961,-0.270806938,0.264355451,-0.054992262,0.587352276,1.791152716
0.029970689,0.557594836,0.058766078,-0.828757167,0.004256389,-0.002259092,0.005109295,-0.253626019,-0.270811975,0.264346272,-0.054978482,0.587350428,1.791165948
0.034966271,0.557349741,0.056870118,-0.829552293,0.004471677,-0.004410557,0.007364949,-0.253655732,-0.270765871,0.264244825,-0.054953907,0.587334514,1.791196108
0.03996288,0.556990027,0.058336966,-0.830117524,0.003648375,-0.004057792,0.008375454,-0.253665686,-0.270738214,0.264187843,-0.054933362,0.587322474,1.791223645
0.044960514,0.557787716,0.057055872,-0.829128265,0.002958144,-0.004606367,0.004815612,-0.253673375,-0.270716935,0.264143974,-0.054928303,0.587304115,1.791238904
0.049953278,0.557397068,0.057536602,-0.828717351,0.002909192,-0.002556348,0.005799101,-0.253675908,-0.270709872,0.26412943,-0.05491313,0.587302029,1.79125905
0.054946817,0.556790411,0.058616102,-0.828690588,0.002370858,-0.002077396,0.006576402,-0.253507763,-0.270649225,0.26419425,-0.054902297,0.587297976,1.791280508
0.059941631,0.558131278,0.05712118,-0.828955352,0.003416776,-0.001317966,0.006297669,-0.253280491,-0.270573437,0.264292389,-0.054885022,0.587299764,1.791291833
0.064937472,0.558370471,0.05822264,-0.828437805,0.00297784,-0.000697017,0.006223876,-0.253105611,-0.270515144,0.264367908,-0.05487667,0.587305486,1.791299224
0.069934592,0.559174359,0.056309931,-0.828317881,0.003958214,-0.000794807,0.004579636,-0.253047615,-0.270495802,0.264392942,-0.054858044,0.587310076,1.791305661
0.074932478,0.558813751,0.057476703,-0.828574061,0.002718158,-0.002428169,0.006325064,-0.253003001,-0.270480901,0.264412194,-0.054859277,0.587304592,1.791308403
0.079925507,0.558479965,0.057064559,-0.828124404,0.001971228,-0.003374485,0.004695021,-0.253039151,-0.270424098,0.26441896,-0.054855172,0.587296844,1.79131484
0.084919043,0.558998227,0.057123449,-0.828254461,0.003521714,-0.002306978,0.005084739,-0.253066957,-0.270380378,0.264424205,-0.054835636,0.587300599,1.791322589
0.089913853,0.558504522,0.056760348,-0.829434216,0.001659379,-0.000903149,0.005302228,-0.253076196,-0.270365894,0.264425933,-0.054838438,0.587304831,1.791330457
0.094909437,0.55811131,0.058684286,-0.828355908,0.002129815,-0.001780464,0.004174483,-0.253083289,-0.270354748,0.264427274,-0.05483612,0.587304711,1.791336536
0.099906556,0.558092117,0.060493641,-0.82659924,0.002613343,-0.002206152,0.004498987,-0.253054321,-0.270526201,0.264295846,-0.054840308,0.587302744,1.791328311
0.10490419,0.559409738,0.059292566,-0.828220785,0.002699654,-0.002685853,0.005874602,-0.253000349,-0.270835221,0.264061451,-0.054828957,0.587303817,1.791336656
0.109897219,0.558238029,0.057083331,-0.827748358,0.003542522,-0.000835748,0.006433921,-0.252982467,-0.270937711,0.263983727,-0.054820035,0.587308943,1.791346312
0.114891008,0.560011029,0.055556498,-0.828127682,0.002580467,-0.002435082,0.005792994,-0.252968699,-0.271016568,0.263923883,-0.054806203,0.587303698,1.791347861
0.119886078,0.558151364,0.055275481,-0.829143226,0.002142938,-0.002806649,0.003838812,-0.252964139,-0.271042705,0.263904065,-0.054802567,0.587293923,1.791345477
0.124881662,0.558702052,0.056825042,-0.829167604,0.003440546,-0.001424326,0.003830543,-0.2530379,-0.270639837,0.265631229,-0.05479721,0.587303281,1.791336298
0.129884675,0.558177531,0.057278253,-0.828742027,0.000585365,-0.003410465,0.003575583,-0.253062367,-0.270506263,0.26620391,-0.054808896,0.58728981,1.791327715
0.134882823,0.558254778,0.057719994,-0.826480448,0.002731882,-0.002271369,0.004617434,-0.253081173,-0.270403504,0.266644567,-0.054804254,0.587288618,1.791314602
0.139875844,0.556342423,0.058702104,-0.827204943,0.002699304,-0.002039115,0.004694799,-0.253087401,-0.27036944,0.266790658,-0.054801509,0.587284565,1.791312933
0.144869372,0.557800114,0.056521818,-0.82863456,0.003594517,-0.002951419,0.00416746,-0.252940565,-0.270397872,0.266806901,-0.054790989,0.587277174,1.7913028
0.149863929,0.559022367,0.056420721,-0.828459918,0.001663768,-0.002759573,0.003031855,-0.252854347,-0.27042082,0.266788483,-0.054800179,0.587274492,1.791283011
0.154860288,0.559274554,0.056774303,-0.829809606,0.000333492,-0.001617929,0.003392824,-0.252788007,-0.270438492,0.266774297,-0.054811388,0.587273836,1.791274548
0.159857154,0.559339225,0.059636183,-0.828781664,0.000904646,-0.002198036,0.00407479,-0.252766013,-0.270444363,0.266769618,-0.054822709,0.587273359,1.791253805
0.164855033,0.55965662,0.058488242,-0.828345776,0.002358729,-0.0014082,0.004648426,-0.252864093,-0.270278156,0.266233444,-0.054815531,0.587276578,1.791256309
0.169847801,0.561306536,0.057990439,-0.829717755,0.002039243,-0.001082662,0.004175739,-0.253012627,-0.270050883,0.265518606,-0.054820251,0.587279081,1.791250944
0.174841598,0.559496999,0.057673577,-0.827646494,0.001393782,-0.000173524,0.004490866,-0.253126919,-0.269876033,0.264968574,-0.054825284,0.587295234,1.791247249
0.179836154,0.559665918,0.056288492,-0.829439402,0.00121352,-0.001031908,0.00470212,-0.253164798,-0.269818038,0.264786214,-0.054821484,0.587290764,1.791252851
0.184832007,0.559178233,0.057348777,-0.826810539,0.000957524,-0.002256088,0.005814385,-0.253193945,-0.269773424,0.264645904,-0.054816332,0.587291658,1.791263938
0.189828604,0.560211897,0.058414955,-0.827962637,0.001627153,-0.000969199,0.00414463,-0.25324744,-0.270215631,0.264605403,-0.054821752,0.587296963,1.791253924
0.194827259,0.559337199,0.057837378,-0.827236414,0.000363283,-0.001017168,0.004216088,-0.253288597,-0.270555854,0.26457423,-0.054834992,0.587308943,1.791250825
0.199820802,0.558351517,0.058332197,-0.826955497,0.002086399,-5.17E-07,0.003307678,-0.253302246,-0.270668685,0.264563888,-0.05483555,0.587312758,1.791246414
0.204814598,0.558744669,0.058128111,-0.828474462,0.001134433,-0.00148596,0.004648749,-0.253312737,-0.2707555,0.264555931,-0.054846026,0.587311983,1.791253209
0.209809154,0.559086025,0.058021687,-0.827874124,0.001994716,-0.002457674,0.004177771,-0.253345877,-0.270697266,0.264526248,-0.054849785,0.587313175,1.79124558
0.214804992,0.558652043,0.059605271,-0.827102959,0.001580886,-0.001530402,0.003414118,-0.253401399,-0.270564526,0.264476061,-0.054853454,0.587314188,1.79124856
0.219801605,0.556880236,0.0559422,-0.826904953,0.000799702,-0.003478061,0.004511095,-0.253419787,-0.270520508,0.264459431,-0.054856449,0.587311685,1.791251421
0.224799484,0.558041036,0.055865634,-0.829074919,9.20E-05,-0.001746907,0.003149615,-0.253433943,-0.270486623,0.264446616,-0.054862309,0.587308884,1.791248202
0.229792252,0.558979928,0.057266902,-0.829071999,0.001117259,-0.002629454,0.003316866,-0.253438622,-0.270475388,0.264442384,-0.054864168,0.587303638,1.791253448
0.234786302,0.558848441,0.056114659,-0.829860866,0.002268993,-0.001776242,0.003382713,-0.253373951,-0.270602137,0.264564008,-0.054862931,0.587308645,1.791251183
0.239781126,0.559307814,0.057971016,-0.829797089,0.00133707,-0.002027975,0.003403889,-0.253352493,-0.270644158,0.26460433,-0.054882966,0.587307155,1.791242242
0.244776964,0.557840765,0.057403255,-0.830312431,-0.000583197,0.000623535,0.002090071,-0.253336012,-0.270676494,0.264635354,-0.054903187,0.587315142,1.791235924
0.249774083,0.55613178,0.058564104,-0.826649368,0.000215732,0.000634808,0.002855555,-0.253330559,-0.270687222,0.264645636,-0.054917641,0.587319672,1.791232944
0.254771978,0.557436943,0.056602184,-0.828135967,0.001684958,7.16E-05,0.002555815,-0.252775103,-0.270750612,0.265347242,-0.054919098,0.587325275,1.791213393
0.259764999,0.557588279,0.057791993,-0.828868926,0.000959471,-0.000320736,0.003407913,-0.252454549,-0.270785242,0.265751541,-0.054931123,0.587329924,1.791193247
0.264765173,0.557900131,0.056727283,-0.829942346,0.000343763,0.000192782,0.002242204,-0.252207875,-0.270811915,0.266062617,-0.054945234,0.587331712,1.791173458
0.269760519,0.556861401,0.056548387,-0.829829931,0.000250414,-0.001725805,0.003063553,-0.252126098,-0.270820767,0.266165793,-0.054953616,0.587327302,1.791167259
0.274756342,0.555861413,0.05890521,-0.828739107,-0.000246196,0.000559774,0.002975425,-0.252291232,-0.270740867,0.265769005,-0.054975983,0.587334394,1.791152
0.279753208,0.555546999,0.059606671,-0.829541862,0.000921676,-0.000605247,0.001222525,-0.252575934,-0.270626932,0.265157282,-0.054992285,0.587339401,1.791149616
0.284751624,0.558545232,0.059443593,-0.82849282,0.002815976,0.001038163,0.002898089,-0.252795011,-0.270539254,0.264686614,-0.054995988,0.587347031,1.791138887
0.289744884,0.558066607,0.059835397,-0.827271521,0.00027692,-0.001300687,0.003414203,-0.252867639,-0.270510197,0.26453054,-0.05501068,0.58735013,1.791134
0.294738948,0.559752166,0.06076254,-0.827680588,0.001449272,-0.002092373,0.00326961,-0.252923548,-0.270487815,0.264410466,-0.055015229,0.587353289,1.791128635
0.299733758,0.55875057,0.058966096,-0.828473449,0.001980222,-0.000568216,0.005991839,-0.253091335,-0.270579249,0.264374673,-0.055008836,0.58736217,1.791141987
0.304729611,0.557591736,0.056642897,-0.828371346,0.002187896,-0.002944039,0.004797353,-0.253220439,-0.270649612,0.264347136,-0.054997396,0.587352693,1.791154861
0.309726477,0.559152365,0.056828387,-0.828712583,0.00245174,-0.002447054,0.003894884,-0.253263235,-0.270672917,0.264338017,-0.054997083,0.587353706,1.791151047
0.314724356,0.559796929,0.056791667,-0.828405976,0.001872228,-0.001685713,0.002506435,-0.253296137,-0.270690858,0.264330983,-0.054998748,0.587352395,1.791142464
0.319717377,0.559156179,0.056296367,-0.827666163,0.002906189,-0.004412279,0.003684064,-0.253219157,-0.270871609,0.26435557,-0.054998972,0.587338865,1.791136742
0.324711174,0.558659732,0.056354582,-0.829378426,0.001540513,-0.003379039,0.002777579,-0.25307101,-0.271187395,0.264401704,-0.055008162,0.587331772,1.791130066
0.329705983,0.559956193,0.056882329,-0.828896284,0.002337002,-0.003211507,0.000806939,-0.253021896,-0.27129209,0.264417022,-0.055017117,0.587325096,1.791107893
0.334701568,0.560239911,0.055669315,-0.828531325,0.000504801,-0.0044356,0.002972036,-0.252984107,-0.271372676,0.264428794,-0.05503276,0.58731854,1.791095257
0.339698434,0.561125576,0.056781679,-0.829056442,-0.000358442,-0.002162672,0.001475668,-0.25297156,-0.271399409,0.264432698,-0.055052824,0.587318838,1.79107511
0.344696313,0.557457924,0.057586249,-0.828410208,0.002403437,-0.004193943,0.001826771,-0.252969146,-0.270880222,0.264305025,-0.055053063,0.587302685,1.791067481
0.349689335,0.557612598,0.058164578,-0.828210413,0.001187841,-0.003843165,0.003028663,-0.252968341,-0.270708054,0.264262676,-0.055065509,0.587292254,1.791054726
0.354683131,0.555983901,0.058062054,-0.829816997,-0.000123774,-0.003604074,0.00061568,-0.252967715,-0.270575583,0.264230132,-0.055086084,0.58727622,1.79104197
0.359677941,0.559044838,0.058123782,-0.82867521,-0.000661545,-0.003126596,-0.000432899,-0.252967507,-0.270531654,0.264219314,-0.055118684,0.587274373,1.791012526
0.364673525,0.557232201,0.058910783,-0.827839434,-0.000212486,-0.003582662,0.001680112,-0.25281626,-0.270550787,0.264302522,-0.055133067,0.587263286,1.791000724
0.369670391,0.557650089,0.058173273,-0.828184307,0.000173821,-0.004016927,0.000568845,-0.252728701,-0.270570248,0.264352739,-0.055155702,0.587249219,1.790979743
0.374668539,0.55858624,0.058431886,-0.828398764,-0.000320454,-0.003689414,0.001667087,-0.252661347,-0.270585179,0.264391392,-0.055183198,0.587236643,1.790957689
0.379661828,0.558200955,0.057999417,-0.828843653,-0.001938822,-0.003486411,0.000882711,-0.252638996,-0.270590156,0.264404207,-0.055214368,0.587226093,1.790937424
0.384655863,0.557882786,0.058662105,-0.828708529,-0.001742888,-0.005665656,-0.000390798,-0.252591938,-0.270654023,0.264227659,-0.055249196,0.587202549,1.790908694
0.389650702,0.559523463,0.057059586,-0.829457402,-0.001172946,-0.004564563,-0.00019446,-0.252546221,-0.270735741,0.263981164,-0.0552736,0.587198019,1.790881276
0.394646525,0.559317172,0.056986075,-0.829428196,-0.000999999,-0.003745304,0.000665494,-0.252511054,-0.270798594,0.263791472,-0.0552992,0.587189615,1.790860772
0.399649799,0.558548033,0.057005133,-0.830038428,-0.002400194,-0.00329623,-0.001003968,-0.252499402,-0.270819426,0.263728589,-0.055334173,0.587180257,1.790834546
0.404647946,0.55750227,0.058017768,-0.828027487,-0.002268669,-0.004871875,-0.000592896,-0.252490431,-0.270835459,0.26368019,-0.055374254,0.587160766,1.790807366
0.409641474,0.559503555,0.057712521,-0.831095576,-0.001130831,-0.003842897,0.000512308,-0.252835006,-0.27113843,0.263768107,-0.055395491,0.587147832,1.79079318
0.414635271,0.56153208,0.055517383,-0.825131655,-0.00357361,-0.006554414,0.001287936,-0.253100127,-0.271371573,0.263835758,-0.05542168,0.5871315,1.790764332
0.419630855,0.555491388,0.065401442,-0.825884759,0.000481829,-0.005708764,0.001714395,-0.253188044,-0.27144888,0.263858169,-0.055466089,0.587103069,1.790751934
0.424626946,0.558581293,0.059910685,-0.828178585,0.002138479,-0.005263664,0.002198581,-0.253255695,-0.271508366,0.263875425,-0.055475146,0.587091148,1.790731072
0.429624319,0.555816233,0.055866681,-0.825874865,0.00161412,-0.007015124,0.003727175,-0.253251851,-0.271383435,0.263958931,-0.055471793,0.587061703,1.790735364
0.434622735,0.556358933,0.061354872,-0.82867986,0.001774526,-0.006999664,0.002948871,-0.253222346,-0.271141022,0.264101833,-0.055493142,0.587030888,1.790730119
0.439616501,0.558724701,0.058714636,-0.829220891,-0.00012888,-0.007284692,0.002187332,-0.253212541,-0.271060675,0.264149219,-0.0555101,0.587010086,1.790722609
0.444610566,0.559585571,0.05770855,-0.828804016,0.001099971,-0.005858608,0.001343414,-0.253205001,-0.270998836,0.264185697,-0.055519506,0.586991847,1.790708542
0.449605882,0.559724569,0.058897376,-0.828331113,0.000315287,-0.00558285,0.001079189,-0.253202498,-0.270978332,0.264197767,-0.05553738,0.586972475,1.790686488
0.454601973,0.559525311,0.058190238,-0.829022527,3.14E-06,-0.004549463,-0.000787677,-0.252599776,-0.270974725,0.264133185,-0.055562042,0.586955965,1.790657401
0.459599108,0.559844434,0.055446807,-0.829598129,8.18E-05,-0.006107043,0.001790446,-0.252399921,-0.270973533,0.264111757,-0.055572342,0.586934209,1.790641665
0.464597762,0.556107342,0.058832407,-0.827261984,0.000387633,-0.005729535,-0.000154386,-0.252246141,-0.27097261,0.264095277,-0.055602346,0.586908996,1.790614843
0.469591558,0.556781292,0.058647174,-0.828224957,-0.000704473,-0.005183533,0.000785896,-0.25219515,-0.270972311,0.264089823,-0.055632636,0.586895287,1.790593147
0.474586099,0.559331954,0.056757804,-0.829697788,-0.000382998,-0.005924782,-0.000578487,-0.252509385,-0.271007597,0.265031248,-0.055654984,0.586876512,1.790557981
0.479580939,0.55733937,0.058371808,-0.828949034,-0.001389207,-0.006584,-0.000562649,-0.252701044,-0.271028072,0.265577406,-0.055698205,0.586844206,1.790530682
0.484577268,0.557682693,0.058043282,-0.83031261,-0.001896453,-0.005199372,-0.000116773,-0.252848506,-0.271043837,0.265997618,-0.055723034,0.586823583,1.790506721
0.489574671,0.556299984,0.05840883,-0.82894516,-3.56E-05,-0.004684584,-0.000502144,-0.252897412,-0.271049052,0.266136974,-0.055749979,0.586801887,1.7904706
0.494572788,0.556156695,0.057293739,-0.830546439,-0.002178667,-0.006219233,-4.52E-05,-0.253051102,-0.270934075,0.266378313,-0.055779394,0.586769044,1.79044795
0.499566078,0.558826685,0.058089074,-0.827367485,-0.002829159,-0.008062526,-0.001021938,-0.253219098,-0.270775914,0.266593575,-0.055821333,0.586749494,1.79041326
0.504560649,0.555842638,0.060635045,-0.828379512,-0.001637435,-0.005682507,0.000965523,-0.25334838,-0.270654231,0.266759217,-0.055857155,0.586724997,1.790393114
0.509555697,0.557448328,0.058348846,-0.828799307,-0.001301378,-0.004804237,-0.001179414,-0.253391266,-0.270613879,0.266814142,-0.055885695,0.586704969,1.790358067
0.514551818,0.556897461,0.059473265,-0.8291291,-0.002566138,-0.006464962,0.000205283,-0.253424257,-0.270582825,0.266856402,-0.055921078,0.586681366,1.7903409
0.519548953,0.556747139,0.059228554,-0.828094482,-0.001066917,-0.006201528,0.000876317,-0.253181219,-0.270586818,0.265833467,-0.055940785,0.586656749,1.790321112
0.524547577,0.557476997,0.060289409,-0.828755558,-0.001969983,-0.005168658,0.001746016,-0.25299418,-0.270589918,0.265046388,-0.055974185,0.586637557,1.790313482
0.529541135,0.556745708,0.058039725,-0.829329133,-0.001010709,-0.005176206,0.000837376,-0.252932161,-0.270590961,0.264785409,-0.055995889,0.58661449,1.79030776
0.534541547,0.556393802,0.061885785,-0.827548623,-0.000989289,-0.005826184,0.001247769,-0.252884448,-0.270591736,0.264584601,-0.056029029,0.586596429,1.790290117
0.539536893,0.556805074,0.062891044,-0.829155862,-0.001441348,-0.003511133,0.002503838,-0.25269568,-0.270711631,0.264436066,-0.05605955,0.586583853,1.790277362
0.544533789,0.556778669,0.061182469,-0.83016777,-0.00023547,-0.003310847,0.001104618,-0.252375513,-0.270924836,0.264238924,-0.056081407,0.586572111,1.790260315
0.549530864,0.557621479,0.062395696,-0.829677522,0.000867683,-0.003716514,0.003229654,-0.252269357,-0.270995528,0.264173567,-0.056091432,0.586562216,1.790260553
0.554529011,0.556691289,0.062102471,-0.829180717,0.002769875,-0.002546204,0.002404354,-0.252187699,-0.271049947,0.264123261,-0.056097534,0.586555719,1.790257931
0.559522331,0.55579412,0.062801883,-0.828314126,0.002860881,-0.003751341,0.005766318,-0.252160609,-0.271067977,0.264106572,-0.056096695,0.586538434,1.790263176
0.564516604,0.556898236,0.070535176,-0.829528272,0.004796771,-0.003664884,0.005079693,-0.252277464,-0.271000803,0.265280098,-0.056103788,0.586527109,1.790263295
0.569511652,0.55934,0.051688772,-0.827834666,0.005123505,-0.001967896,0.006148062,-0.252316207,-0.27097854,0.265669197,-0.056053538,0.586532891,1.790266871
0.574508011,0.561320782,0.043180987,-0.828150153,0.001937325,-0.000897153,0.003425416,-0.252346009,-0.270961404,0.265968591,-0.056021526,0.586540222,1.790256143
0.579505146,0.556937456,0.056616426,-0.826622665,-0.001480057,-0.000461179,0.003247016,-0.252355874,-0.270955741,0.266067863,-0.056048825,0.586546242,1.790240407
0.584503531,0.560068071,0.065872766,-0.827997625,-0.001870201,-0.000914369,-1.78E-05,-0.252212048,-0.27105388,0.266377062,-0.056103412,0.586551547,1.790184379
0.589496851,0.558070302,0.061387904,-0.828349948,0.000655332,-0.001744966,0.00227079,-0.252126873,-0.271111816,0.266537189,-0.056115493,0.586552739,1.790165424
0.594491124,0.556302965,0.059403416,-0.82911104,-0.000145815,-0.002631316,0.004563584,-0.252061367,-0.271156371,0.266660392,-0.056127839,0.586547256,1.790163636
0.599486232,0.556470513,0.059465852,-0.82615447,0.001482211,-0.001832265,0.00245082,-0.252039641,-0.271171153,0.266701221,-0.056134559,0.586547375,1.79014194
0.604482293,0.558813691,0.058327202,-0.82671386,-6.25E-07,-0.003758797,0.002621003,-0.252049237,-0.271244377,0.266227663,-0.056148253,0.586533189,1.79012692
0.609479666,0.557167292,0.058552552,-0.827720881,0.002214041,-0.003431023,0.003133157,-0.25207895,-0.271331072,0.265561372,-0.056143232,0.586527228,1.790122509
0.614478052,0.557602942,0.063328445,-0.82809633,0.002852625,-0.005188378,0.003338136,-0.252101809,-0.271397769,0.265048712,-0.056155939,0.58650744,1.790112257
0.619471371,0.558057606,0.060292006,-0.829319656,0.004236881,-0.005070812,0.004903838,-0.252109379,-0.271419883,0.26487872,-0.056145292,0.586498916,1.790111184
0.624465644,0.557743907,0.056034621,-0.830745399,0.001547013,-0.006440206,0.005451409,-0.25211522,-0.2714369,0.264747947,-0.056137953,0.586470842,1.790116191
0.62946099,0.558237195,0.057155062,-0.829882443,0.001821573,-0.004615342,0.003582803,-0.252321154,-0.27133131,0.265317202,-0.056135658,0.586458504,1.790112257
0.63445735,0.558244467,0.060499687,-0.828562915,-0.000668944,-0.004431779,0.003928842,-0.252479613,-0.271250039,0.265755206,-0.056158874,0.586446166,1.79009974
0.639454722,0.559118271,0.058397863,-0.829657435,0.001502113,-0.005630574,0.003546219,-0.252532154,-0.271223098,0.265900463,-0.056159176,0.586425543,1.790091157
0.64445287,0.557600141,0.062212158,-0.827814043,0.002870609,-0.005243205,0.00499404,-0.252572596,-0.271202385,0.266012192,-0.056159262,0.586413741,1.790091515
0.64944613,0.555822968,0.061253183,-0.828698456,0.002984159,-0.003739749,0.004677357,-0.252415836,-0.271140546,0.266098619,-0.056154948,0.586399019,1.790093303
0.654440165,0.55639255,0.061163943,-0.830344737,0.003648081,-0.003365946,0.005182996,-0.252123147,-0.27103737,0.266215026,-0.0561492,0.586390853,1.7900877
0.659435511,0.557599187,0.061056469,-0.830535591,0.004892653,-0.00326981,0.005165797,-0.252026111,-0.271003157,0.26625362,-0.056139812,0.586378574,1.790090561
0.664431632,0.557273448,0.05944382,-0.831862628,0.00373264,-0.002328045,0.005835504,-0.251951426,-0.270976871,0.266283303,-0.056123272,0.586375713,1.790098071
0.669434905,0.556715488,0.059573829,-0.830400944,0.004725344,-0.000609077,0.00697663,-0.251926661,-0.270968139,0.266293168,-0.056106646,0.586381197,1.79010725
0.674433291,0.55764848,0.057325985,-0.828806102,0.003436447,-0.002287828,0.00560822,-0.252368927,-0.27110073,0.264877319,-0.056084991,0.586385608,1.790121794
0.679426789,0.557717681,0.058037199,-0.829716146,0.005665246,-0.001401175,0.006587314,-0.252515554,-0.271144658,0.264407843,-0.056060959,0.586397231,1.790135741
0.684420884,0.558841944,0.057805158,-0.829540551,0.00485099,0.00086486,0.007688198,-0.252628386,-0.271178484,0.264046639,-0.056037005,0.58640939,1.790165186
0.68941617,0.558233142,0.060594875,-0.829397142,0.004596354,0.001218358,0.00702758,-0.252665788,-0.271189719,0.263926864,-0.056019593,0.586426079,1.79017961
0.694412529,0.558418393,0.059368186,-0.831013799,0.00366188,0.00221751,0.006889361,-0.252596706,-0.27109468,0.264253885,-0.056006536,0.586447835,1.790193439
0.699409664,0.556981683,0.057780378,-0.830125988,0.002654009,0.001220391,0.006840748,-0.252549589,-0.271037519,0.264466047,-0.055991158,0.586457551,1.790210009
0.70440805,0.555349708,0.058613036,-0.828572154,0.005083087,0.001288646,0.007524699,-0.252513319,-0.270993531,0.264629304,-0.055969577,0.586468935,1.790231943
0.709401608,0.556741238,0.058815673,-0.827512741,0.004021982,0.001366178,0.008791214,-0.252501309,-0.270978928,0.264683455,-0.055937994,0.586487055,1.790262818
0.714395881,0.556285918,0.059066281,-0.829268754,0.005108936,9.10E-05,0.009298605,-0.252548367,-0.271024138,0.264753461,-0.055907067,0.58649075,1.790290594
0.719391227,0.556087852,0.059517335,-0.82887435,0.005596612,0.002010017,0.008780401,-0.252620786,-0.271096051,0.264805317,-0.055877384,0.586512864,1.790320873
0.724387586,0.556775093,0.059595484,-0.828186989,0.004935513,-0.000307467,0.007304371,-0.252676487,-0.271151364,0.264845192,-0.055855162,0.58651334,1.790344
0.729385197,0.556445003,0.060215037,-0.827602565,0.004486269,0.000618108,0.00899229,-0.252694964,-0.271169722,0.264858425,-0.055826817,0.586532354,1.790370464
0.734383643,0.557305396,0.058793709,-0.828683257,0.004072917,0.001034651,0.008575604,-0.25270918,-0.271183819,0.264868587,-0.055797592,0.586542726,1.790396929
0.739377141,0.558385611,0.058605537,-0.830135107,0.004787608,-1.48E-05,0.009824251,-0.253119677,-0.270876288,0.264782459,-0.055761632,0.586550534,1.790440202
0.744371474,0.557355106,0.058782406,-0.830184281,0.005260021,0.00074066,0.009103437,-0.253435522,-0.270639688,0.264716208,-0.055728383,0.586563706,1.790473223
0.749367297,0.55668658,0.059248481,-0.829417467,0.00692132,-8.59E-05,0.008665045,-0.253540248,-0.270561248,0.264694214,-0.055690158,0.586572647,1.790512085
0.754363656,0.558881462,0.058716711,-0.828783035,0.00569544,0.000468648,0.009967616,-0.253620833,-0.270500869,0.264677316,-0.055649489,0.586593091,1.790546298
0.759361267,0.55704993,0.058898594,-0.828947484,0.005968105,0.000838439,0.010379466,-0.253388256,-0.270632267,0.264455229,-0.055611487,0.586604595,1.790586352
0.764360189,0.556129217,0.059069131,-0.827160597,0.006564622,0.001321454,0.010781312,-0.252947092,-0.270886391,0.264065474,-0.055569202,0.586620748,1.790624261
0.769354522,0.557451546,0.058227796,-0.82837075,0.006940081,0.000422098,0.009599298,-0.252800822,-0.270970672,0.263936222,-0.055531431,0.586635411,1.790659547
0.774348795,0.558071375,0.059590749,-0.828524828,0.005859477,0.001034279,0.009606261,-0.252688289,-0.271035522,0.263836801,-0.055493914,0.58665365,1.790687561
0.77934438,0.559175432,0.059078705,-0.82947737,0.00648648,0.00218714,0.011898967,-0.252650976,-0.271057039,0.26380384,-0.05544531,0.586674333,1.790729761
0.784340739,0.556648016,0.058919854,-0.830402136,0.006460136,0.002236384,0.011743258,-0.252489895,-0.27113691,0.264524758,-0.055408034,0.586695552,1.790764809
0.78933835,0.557037115,0.059289403,-0.829539955,0.006099947,0.003678086,0.008465175,-0.252436489,-0.271163404,0.264763802,-0.055375725,0.586721659,1.790784836
0.794336796,0.558215678,0.059671089,-0.82876581,0.006156867,0.003854429,0.010969532,-0.252395421,-0.271183759,0.264947742,-0.055333354,0.586743295,1.790817618
0.799330056,0.557960033,0.059060011,-0.828109324,0.008188955,0.002643812,0.011407715,-0.252381772,-0.271190524,0.265008718,-0.05528212,0.586771071,1.79085052
0.804330766,0.558026135,0.058970012,-0.828534961,0.00698009,0.003982692,0.011369068,-0.252626747,-0.27083683,0.264821947,-0.055234667,0.586803555,1.790898561
0.809326589,0.55917424,0.058249153,-0.829783916,0.007300628,0.003003945,0.009089184,-0.252771169,-0.270630747,0.264702171,-0.055195566,0.586830914,1.790920258
0.814322948,0.559060454,0.056843031,-0.829491496,0.004263294,0.005288068,0.010335293,-0.252882332,-0.270472169,0.264610052,-0.055160381,0.586869478,1.790961266
0.819320321,0.556252599,0.055770665,-0.82991749,0.004289625,0.00621421,0.007837328,-0.252919167,-0.270419598,0.264579505,-0.055127665,0.586904049,1.790990353
0.824318707,0.555822611,0.05537349,-0.829059005,0.004437622,0.005908845,0.008821213,-0.252831519,-0.270497888,0.264448494,-0.055097502,0.586947858,1.791023135
0.829312265,0.558621109,0.057986453,-0.829116106,0.004528941,0.006714703,0.007820541,-0.252685487,-0.270643622,0.264296681,-0.055076521,0.586987853,1.791040301
0.834306538,0.560361147,0.05886963,-0.827188849,0.004607109,0.005371758,0.010192744,-0.252573133,-0.270755738,0.264179856,-0.055050869,0.58702898,1.791068554
0.839301884,0.558584154,0.059744205,-0.827260196,0.005920815,0.004762031,0.010335045,-0.25253588,-0.270792931,0.264141113,-0.055012327,0.587060928,1.791099548
0.844298244,0.558853865,0.058303643,-0.825078785,0.005631239,0.004789029,0.010416501,-0.25250721,-0.270821542,0.26411134,-0.054979701,0.587097824,1.791120052
0.849295616,0.560027361,0.058303498,-0.826623976,0.00503509,0.004990542,0.010599717,-0.25274992,-0.270774007,0.264246464,-0.054946907,0.587134182,1.791152716
0.854294002,0.557590961,0.054509107,-0.827975452,0.004964842,0.004514937,0.008869634,-0.252936691,-0.270737439,0.264350444,-0.05491228,0.587171614,1.791176915
0.85928756,0.558163404,0.054446835,-0.827523768,0.003153251,0.003461303,0.008781807,-0.25299862,-0.27072531,0.264384925,-0.054886334,0.587193906,1.791201591
0.864282131,0.559688449,0.058218051,-0.826785624,0.004373451,0.001771429,0.008080226,-0.253046274,-0.270715982,0.26441142,-0.054866813,0.587215066,1.791219473
0.869277418,0.558892429,0.06049671,-0.828378439,0.004483205,0.001769986,0.007680914,-0.253004074,-0.270772278,0.264366478,-0.054857392,0.58723706,1.791229606
0.874273777,0.557340562,0.058167361,-0.828124166,0.003928964,0.002228203,0.007007144,-0.252912939,-0.270875633,0.264277577,-0.054836478,0.587256074,1.79125309
0.879271686,0.557057142,0.059379231,-0.8284657,0.004100678,0.002271263,0.008153362,-0.252882719,-0.270909905,0.264248103,-0.054821406,0.587273121,1.791281462
0.88427031,0.556818664,0.058273837,-0.828515172,0.001749361,0.001232193,0.007187597,-0.252859473,-0.27093628,0.264225423,-0.054810055,0.587288976,1.791307211
0.889264107,0.554952085,0.055241168,-0.828087032,0.003104596,0.003114635,0.006390974,-0.252851754,-0.270945042,0.264217913,-0.054792054,0.587311924,1.791323185
0.89425844,0.558030307,0.055339973,-0.827870309,0.003297767,0.001657014,0.007317432,-0.25298062,-0.270880401,0.264338613,-0.054775838,0.587331057,1.791342616
0.899253786,0.556829631,0.05686979,-0.828152537,0.002822115,0.002922037,0.006666786,-0.253023326,-0.270858943,0.264378637,-0.054769378,0.587352693,1.791360855
0.904250383,0.558268487,0.05792613,-0.830409288,0.002925575,0.003498937,0.007464382,-0.253056198,-0.270842463,0.264409453,-0.054752897,0.587381303,1.79138422
0.909247994,0.556349933,0.056463815,-0.828540444,0.000109344,0.004106453,0.006628353,-0.253067106,-0.270837009,0.264419645,-0.054754131,0.58740443,1.791402459
0.914246678,0.558419287,0.054563314,-0.828913212,-0.001551162,0.003230431,0.003804453,-0.253230393,-0.270670384,0.265179366,-0.054764975,0.587436616,1.79140234
0.919240177,0.561427832,0.053485323,-0.828906834,-0.000158757,0.003723856,0.005321717,-0.25332287,-0.270574927,0.265617311,-0.054765716,0.587476313,1.791396737
0.924234748,0.561359406,0.05450397,-0.827578306,-0.000579616,0.003597486,0.005337266,-0.253394008,-0.270501494,0.265954286,-0.054771267,0.587508202,1.791392446
0.929230094,0.560573399,0.056720916,-0.828603029,-0.002297179,0.002226707,0.003255431,-0.253417581,-0.270477146,0.266066015,-0.054803655,0.587529957,1.791377068
0.934226453,0.55851084,0.059175558,-0.827443719,-0.000619293,0.004030632,0.004179207,-0.253433913,-0.270491928,0.2656461,-0.054820001,0.587557077,1.791376591
0.939230204,0.55759424,0.059524707,-0.828638196,0.000149179,0.001647239,0.004035617,-0.253437519,-0.270530611,0.264996707,-0.054833643,0.587567151,1.791377068
0.944228888,0.556436002,0.059099644,-0.826948166,0.002029238,0.001489863,0.003523374,-0.253440291,-0.270560384,0.264497072,-0.05484141,0.587584794,1.791380525
0.949222684,0.557715118,0.05879809,-0.827818036,0.00163964,0.000453399,0.004660076,-0.253441215,-0.270570248,0.2643314,-0.05484426,0.587599039,1.791384459
0.954216957,0.559830546,0.059816625,-0.828509331,0.000707661,0.001273254,0.006672157,-0.25344193,-0.270577848,0.264203936,-0.054854725,0.587612867,1.791385055
0.95921278,0.559465528,0.058363613,-0.827115536,0.001822096,-0.000162269,0.00559443,-0.25329721,-0.270370334,0.265188664,-0.054853007,0.587623477,1.791383862
0.964209139,0.558771372,0.058332365,-0.829001248,0.003615233,-0.000235709,0.004983254,-0.253185838,-0.270210683,0.265946329,-0.054841861,0.587624848,1.791386843
0.96920681,0.563463748,0.050826885,-0.83071804,0.001439934,-0.001852482,0.005123495,-0.253148913,-0.270157725,0.266197562,-0.054821093,0.58762759,1.791390181
0.974205434,0.566226721,0.048188649,-0.831364214,-0.001617934,-0.002070986,-0.000999087,-0.253120512,-0.270117015,0.26639086,-0.054842584,0.587640524,1.791343927
0.979199231,0.5554353,0.047395829,-0.826201677,-0.008607579,-0.003463152,-0.004336081,-0.253135204,-0.270310342,0.265898257,-0.054900479,0.587626934,1.791295648
0.984193802,0.546196461,0.061632391,-0.826459646,-0.007592066,0.000172595,-0.000695016,-0.253170937,-0.270668209,0.264956325,-0.054985203,0.587610602,1.791295767
0.989189386,0.563096344,0.071822055,-0.830016434,-0.003955706,0.000416546,0.001951917,-0.253182799,-0.270786881,0.264643997,-0.055049282,0.587634385,1.791257739
0.994185746,0.556266427,0.069647603,-0.824527562,0.000482015,-8.15E-05,0.005996556,-0.253191918,-0.270878166,0.264403701,-0.055076815,0.587644815,1.791261435
0.999183893,0.561868072,0.058907006,-0.828792632,0.003455022,-0.001934856,0.004601478,-0.253194928,-0.270908445,0.264324009,-0.055061754,0.587648988,1.791254997
1.00418222,0.559665084,0.053314857,-0.826450348,0.000798118,-0.002039505,0.007323553,-0.253266066,-0.27079463,0.264324814,-0.055042315,0.58765322,1.791277289
1.009175777,0.561097026,0.054223765,-0.829014421,-1.82E-05,-0.0016478,0.004142421,-0.25328964,-0.2707569,0.264325082,-0.055045728,0.587653935,1.791272879
1.014170408,0.559934795,0.056904458,-0.827586651,0.000361999,-0.003997437,0.004364418,-0.25330779,-0.270727873,0.264325291,-0.055053994,0.58764255,1.791270256
1.019165993,0.558802366,0.057361674,-0.829175413,0.001634749,-0.003063959,0.004356951,-0.25331381,-0.270718247,0.264325351,-0.055062536,0.587631702,1.791271806
1.024162292,0.559825897,0.056492243,-0.827909946,0.00120173,-0.005097969,0.006338175,-0.253220588,-0.270510107,0.26422739,-0.055050213,0.587613344,1.791287422
1.029160142,0.555891454,0.062662475,-0.827647567,0.00056049,-0.004458579,0.005355951,-0.253165483,-0.270391434,0.264170647,-0.055071481,0.587594986,1.791303635
1.034158826,0.556933403,0.069643147,-0.829370916,0.003408494,-0.004444596,0.006241088,-0.253123075,-0.27030012,0.264127016,-0.055087496,0.587580562,1.791316986
1.039152622,0.561030149,0.051381521,-0.825860977,0.003738924,-0.002216757,0.004933018,-0.253109008,-0.270269841,0.264112532,-0.055040848,0.587584019,1.791322231
1.044146895,0.557857573,0.040228404,-0.831952035,-0.00210776,-0.002662257,0.004207309,-0.253126234,-0.27033025,0.264369339,-0.055029932,0.587574959,1.791334391
1.04914248,0.55446279,0.055454865,-0.829570651,-0.005204336,-0.0024052,0.001208076,-0.253160238,-0.270434678,0.264724672,-0.055084638,0.587570906,1.791324139
1.054139137,0.558557391,0.06159579,-0.826799095,-0.005308472,0.001039324,-0.00132406,-0.253186375,-0.270515025,0.264998078,-0.055150427,0.587582946,1.791280985
1.059136748,0.559095323,0.057857141,-0.828440011,-0.004129342,0.000324576,0.001209355,-0.253195047,-0.270541668,0.265088737,-0.055187367,0.587596714,1.7912606
1.064135432,0.55708766,0.064006366,-0.830314755,-0.004113233,-0.001477202,0.002412602,-0.253201723,-0.270562172,0.265158474,-0.055241961,0.587588787,1.791251659
1.069129467,0.557169497,0.061560806,-0.828187883,-0.004331879,-4.09E-07,0.002951711,-0.253252596,-0.270767242,0.265653968,-0.055288453,0.587604523,1.791229486
1.074129939,0.558335721,0.060836289,-0.829458416,-0.002133441,-0.001544125,0.003310682,-0.253291726,-0.270925045,0.266035229,-0.055309977,0.587609231,1.791220307
1.079125762,0.560882688,0.059238974,-0.827850223,-0.002461945,0.000920743,0.001886225,-0.25330469,-0.270977378,0.26616165,-0.055335306,0.587623179,1.79119885
1.084122419,0.561657488,0.062058266,-0.829048812,-0.001506813,4.29E-06,0.003473327,-0.253314674,-0.271017611,0.266258925,-0.055364951,0.587629616,1.791186452
1.089120269,0.562686086,0.057957731,-0.825715125,-0.000486108,-0.000914214,0.00426595,-0.253373355,-0.271062881,0.265839666,-0.055370189,0.587641954,1.791173935
1.094118953,0.558750689,0.058999643,-0.826966107,-0.000981487,-0.002716114,0.004391094,-0.253474534,-0.271129966,0.265060544,-0.055391032,0.587638319,1.791166306
1.099112391,0.557452977,0.0645236,-0.826982677,0.001478489,-0.002450599,0.007232592,-0.253508061,-0.271152228,0.264802188,-0.055396236,0.587630689,1.791194439
1.104107261,0.557048678,0.061652631,-0.829306901,0.001863794,-0.001345525,0.006394475,-0.25353387,-0.271169364,0.264603436,-0.055403505,0.587637961,1.791200519
1.109102607,0.556963384,0.063242115,-0.828834355,0.002433427,-0.0012598,0.009492734,-0.253542423,-0.271175027,0.264537513,-0.05539573,0.587638855,1.791227579
1.114099145,0.559539795,0.05887365,-0.828271806,0.002742026,-0.000822078,0.006887813,-0.253087819,-0.270975351,0.265597731,-0.055381604,0.587646723,1.791229367
1.119096875,0.557942331,0.057488944,-0.827354133,0.001912279,-0.001001038,0.008893696,-0.252937078,-0.270909131,0.265949279,-0.055369388,0.587655962,1.79124856
1.12409544,0.557281315,0.062270273,-0.828190744,0.004948628,-0.000207318,0.010169212,-0.252821088,-0.270858169,0.266219795,-0.055341713,0.587660909,1.791277647
1.129088998,0.557241917,0.061762642,-0.830354989,0.003728054,0.000973933,0.007453196,-0.252782643,-0.270841271,0.26630947,-0.055321708,0.587672353,1.79129827
1.134083629,0.559971929,0.055261478,-0.829913318,0.004901098,0.000231587,0.009750694,-0.253053665,-0.270679235,0.265350461,-0.055277765,0.587685466,1.791330099
1.139079213,0.558497787,0.062567562,-0.830571115,0.004367902,0.000822904,0.010929598,-0.253217906,-0.270588636,0.264778048,-0.055259738,0.587697506,1.791374564
1.144075751,0.558178246,0.061103668,-0.828656435,0.006652026,0.001725033,0.010211392,-0.253344268,-0.270518929,0.264337629,-0.055217978,0.587718725,1.791415811
1.149073362,0.559576511,0.056421861,-0.830730557,0.005864397,0.004632392,0.013007781,-0.253386199,-0.270495832,0.264191598,-0.055160146,0.587756991,1.791477442
1.154072046,0.559398711,0.058074288,-0.829612792,0.006014155,0.003489912,0.012084953,-0.253304571,-0.27047953,0.264156967,-0.055127583,0.587787688,1.791516542
1.159065604,0.558367372,0.064459175,-0.829054475,0.00568015,0.005985858,0.01198093,-0.253162712,-0.270475596,0.264223874,-0.055097207,0.587824523,1.791558504
1.164060712,0.55883044,0.058847882,-0.827493846,0.005843921,0.005730022,0.01035847,-0.253053546,-0.270472586,0.264275342,-0.055057943,0.587863624,1.791585445
1.169056296,0.55846101,0.054702569,-0.828197896,0.004167511,0.005946785,0.012907305,-0.253017336,-0.270471573,0.264292419,-0.055013213,0.587907851,1.79163301
1.174053073,0.557456434,0.055247042,-0.827501774,0.005105616,0.006241897,0.011566404,-0.252989501,-0.270470828,0.264305532,-0.054967754,0.587944508,1.791677952
1.179051042,0.557517052,0.057803337,-0.827009141,0.004809616,0.004104041,0.009229863,-0.253077924,-0.270623386,0.264078915,-0.054934572,0.5879758,1.791710258
1.184049606,0.558784008,0.058734972,-0.827431798,0.004662002,0.006131846,0.009135108,-0.253145963,-0.270740777,0.263904572,-0.054916266,0.588021457,1.791729093
1.189043164,0.555615187,0.056949425,-0.829423189,0.00383562,0.00455627,0.010927788,-0.253168523,-0.270779699,0.263846755,-0.054878596,0.588047564,1.791784048
1.194038033,0.554871798,0.063002005,-0.830051899,0.003526527,0.004066536,0.011136856,-0.253185868,-0.27080968,0.26380229,-0.054853804,0.588068485,1.791840792
1.199033618,0.557950437,0.060359467,-0.827001333,0.005686923,0.005103949,0.011346471,-0.253279358,-0.270672977,0.263840884,-0.054818295,0.588109553,1.791873932
1.204030156,0.557819188,0.055350099,-0.828501821,0.006565006,0.005663679,0.011909219,-0.253439993,-0.270419568,0.263924479,-0.054773226,0.588144839,1.791921258
1.209033966,0.55907768,0.056455195,-0.828299224,0.004419678,0.004741227,0.011275651,-0.253493249,-0.270335555,0.263952196,-0.054740209,0.58818239,1.79196167
1.214032888,0.557756782,0.059807148,-0.827794969,0.002975681,0.005843454,0.012547705,-0.253534228,-0.270270884,0.263973534,-0.054713272,0.588217497,1.792014837
1.219026923,0.559371591,0.05579704,-0.82845974,0.005113864,0.005645791,0.011267723,-0.253547817,-0.270249426,0.263980627,-0.05467033,0.588252306,1.792047381
1.224021554,0.559030175,0.050874949,-0.829950988,0.001910773,0.004062719,0.011026855,-0.253419459,-0.270640105,0.264112681,-0.054632723,0.588277996,1.792096972
1.229017138,0.560902476,0.050892737,-0.829532802,0.001938638,0.003728299,0.008667862,-0.253376901,-0.270769626,0.264156461,-0.054599877,0.588309526,1.792123675
1.234013915,0.560179234,0.055788137,-0.829185009,0.000254925,0.003738622,0.003156069,-0.253344148,-0.270869315,0.264190167,-0.054619111,0.588341236,1.792110562
1.239011526,0.554942966,0.053615589,-0.828223884,-0.001493724,0.006405956,0.004705854,-0.2533333,-0.270902365,0.264201343,-0.054619145,0.58837539,1.792123556
1.24401021,0.559017539,0.059462626,-0.828175843,-0.001056208,0.003926644,0.007604337,-0.253174484,-0.270881504,0.264018804,-0.054633893,0.58840692,1.792137146
1.249004006,0.560887218,0.068152763,-0.825465918,0.002097509,0.005087384,0.007477086,-0.2530846,-0.270863146,0.263911009,-0.054652728,0.588454902,1.792139888
1.253998876,0.561251819,0.06476146,-0.828234494,0.005957043,0.005131867,0.009842001,-0.253015429,-0.270849019,0.263828039,-0.054625884,0.588492036,1.792169094
1.258994699,0.559158206,0.057606071,-0.831387579,0.004744228,0.004624781,0.010900521,-0.252992481,-0.27084434,0.263800532,-0.054586612,0.588515878,1.792209744
1.263991237,0.561364412,0.056809925,-0.828633547,0.005361039,0.003723706,0.009859775,-0.253174096,-0.270865768,0.263783514,-0.054550622,0.588552594,1.792247891
1.268988967,0.560790718,0.05399666,-0.827586591,0.002905525,0.00694631,0.006149788,-0.253435224,-0.270898134,0.263782054,-0.054535676,0.588598907,1.792251229
1.273987532,0.557186604,0.055660408,-0.829544544,0.001710882,0.006239539,0.006623372,-0.253636122,-0.270923048,0.263780951,-0.054537445,0.588630915,1.792269111
1.278981686,0.559936702,0.063134663,-0.826573014,0.002206789,0.006018886,0.008807937,-0.25370276,-0.270931304,0.263780594,-0.054534268,0.588673711,1.792290449
1.283976197,0.561268926,0.068991639,-0.825657248,0.004215867,0.007959585,0.010176169,-0.25375402,-0.270937651,0.263780296,-0.054534305,0.588725924,1.792304635
1.28897202,0.560216665,0.061083246,-0.82745856,0.008638076,0.00547066,0.01070605,-0.253773034,-0.27098164,0.264765978,-0.054481734,0.588757694,1.792337418
1.293968678,0.562187552,0.052077677,-0.827468336,0.006706915,0.004557834,0.011615974,-0.253787667,-0.271015465,0.265524417,-0.054417275,0.588795543,1.792375088
1.298966527,0.560134411,0.053945124,-0.825147808,0.006053519,-0.000598001,0.009059619,-0.253792524,-0.271026701,0.265775889,-0.054380123,0.588801205,1.792386174
1.303965449,0.556032121,0.051093526,-0.824240446,0.004035825,0.001170108,0.005496019,-0.253796279,-0.271035314,0.265969396,-0.054350656,0.588818967,1.792390347
1.308959484,0.559699476,0.051156219,-0.824864209,0.002500028,0.000415222,0.007653769,-0.253882229,-0.270984083,0.265448451,-0.054328039,0.588829875,1.792406201
1.313954353,0.562749386,0.055433638,-0.824908912,0.000685813,-0.002130359,0.006845688,-0.254034072,-0.270889968,0.264455944,-0.054325342,0.588837862,1.792416334
1.318950176,0.559136093,0.058495305,-0.82319665,0.000656235,-0.002894254,0.007246366,-0.254084408,-0.270858735,0.264126837,-0.054323997,0.588838935,1.79243207
1.323946714,0.558267474,0.055484686,-0.825931549,0.001036266,-0.004007572,0.003918075,-0.254123181,-0.270834744,0.263873607,-0.054338448,0.588820755,1.792423844
1.328944921,0.556715488,0.051829152,-0.827314436,-0.00189073,-0.00248505,0.0054932,-0.254136026,-0.270826787,0.263789654,-0.054335028,0.588813186,1.792447329
1.333943605,0.558534145,0.059081685,-0.826786935,-0.000446824,-0.002925626,0.005954975,-0.253884971,-0.270547986,0.26452738,-0.054354854,0.588806629,1.792448044
1.33893764,0.561978936,0.059000071,-0.827101231,-0.000124311,-0.004636015,0.004636573,-0.253801733,-0.270455509,0.264771998,-0.054367799,0.588795006,1.792444468
1.343938589,0.561023533,0.0529113,-0.827081323,-0.001625535,-0.00395412,0.004010806,-0.253737688,-0.270384371,0.264960229,-0.054376546,0.58878994,1.792435288
1.34893465,0.558594346,0.049639937,-0.828947306,-0.004961724,-0.005392737,0.001725655,-0.253716439,-0.270360798,0.265022635,-0.05439914,0.588763535,1.792426705
1.353931308,0.560774624,0.048512455,-0.826405883,-0.005459214,-0.0053705,0.001760755,-0.253498703,-0.270445317,0.265396327,-0.054430269,0.588751435,1.79240334
1.358929157,0.56088239,0.055093989,-0.826349437,-0.007411494,-0.0062181,-0.001680427,-0.253376663,-0.270498723,0.26560083,-0.054503385,0.588732839,1.79235208
1.363928318,0.556120813,0.051206704,-0.825499415,-0.008264399,-0.005247098,-0.003056671,-0.253282756,-0.27053979,0.265758157,-0.054567549,0.58870542,1.792301178
1.36892283,0.56007129,0.049838409,-0.828450143,-0.010564074,-0.00515552,-0.004913619,-0.253251642,-0.27055344,0.265810341,-0.054648027,0.588688791,1.792245507
1.373917699,0.559626579,0.055663783,-0.825496197,-0.013185738,-0.008137447,-0.006872646,-0.253424317,-0.270680279,0.265349388,-0.054763991,0.588650942,1.792168379
1.378913283,0.557285786,0.053944156,-0.826678216,-0.015599169,-0.007393796,-0.007535487,-0.253679842,-0.270839661,0.264691234,-0.054885115,0.588614941,1.792105436
1.383910179,0.558986425,0.053526506,-0.828885496,-0.018408334,-0.007324073,-0.009794606,-0.253876448,-0.270962298,0.264184803,-0.0550154,0.588585436,1.792032361
1.388908267,0.558157742,0.056054976,-0.827735603,-0.019383777,-0.00720763,-0.011333588,-0.253941625,-0.271002978,0.264016896,-0.055174824,0.588551283,1.791944385
1.393907189,0.555960178,0.057363506,-0.82863158,-0.021862343,-0.006062699,-0.013129275,-0.253991783,-0.271034241,0.263887703,-0.055361755,0.588511527,1.791847944
1.398901224,0.557037175,0.05560901,-0.829763055,-0.021485748,-0.00491819,-0.014780227,-0.254009575,-0.270943701,0.263749927,-0.055542707,0.58848542,1.791743994
1.403896093,0.556154132,0.05256987,-0.828603327,-0.027997453,-0.004884984,-0.016656384,-0.254023284,-0.270874023,0.26364392,-0.055748805,0.588462353,1.791632056
1.408891678,0.556289017,0.05464616,-0.827911973,-0.030722803,-0.002716537,-0.018327229,-0.254027843,-0.270850927,0.263608754,-0.055985242,0.588453293,1.791504025
1.413888454,0.557425678,0.055719361,-0.829090774,-0.031613737,-0.00252331,-0.018369397,-0.25403133,-0.270833164,0.263581723,-0.056220651,0.588436782,1.791383386
1.418886185,0.559065282,0.057578664,-0.830051661,-0.029164487,-0.002528096,-0.01469734,-0.253974408,-0.270886898,0.263492376,-0.056437422,0.588420689,1.791278005
1.423885345,0.559702635,0.060501691,-0.830403864,-0.028257007,-0.001020665,-0.016545119,-0.253871888,-0.270988554,0.263342321,-0.056657076,0.588423729,1.791159153
1.428879619,0.559612751,0.06404867,-0.827367902,-0.026731217,0.000267099,-0.014056163,-0.253837883,-0.27102226,0.263292581,-0.056873444,0.588423729,1.791049838
1.433874488,0.563893616,0.069466732,-0.827299118,-0.02334097,-0.000314163,-0.012866737,-0.253811747,-0.271048188,0.263254285,-0.057074703,0.588439822,1.790932417
1.438870072,0.557607651,0.066579297,-0.828650713,-0.02135754,-0.002349495,-0.012532796,-0.253803074,-0.271056801,0.263241589,-0.057254888,0.588420868,1.790843487
1.443867087,0.559252918,0.057796534,-0.829227507,-0.025831683,-5.34E-05,-0.010366509,-0.252992421,-0.271347046,0.263468832,-0.057440642,0.588421345,1.790760756
1.448865056,0.561231375,0.056992263,-0.828508496,-0.024468608,0.000145026,-0.011543988,-0.252723634,-0.271443307,0.263544172,-0.057608429,0.588432431,1.790654302
1.453863978,0.558743715,0.062218074,-0.829472542,-0.025951758,0.000807304,-0.010510735,-0.252516806,-0.271517366,0.263602138,-0.057812631,0.588436902,1.790562034
1.458858013,0.559950054,0.06278041,-0.828293383,-0.026899315,0.001240287,-0.009953268,-0.252448231,-0.271541923,0.26362136,-0.058014318,0.588451743,1.790461421
1.463853002,0.558475614,0.066434316,-0.829598129,-0.023316484,0.001586183,-0.008595364,-0.252850026,-0.271301091,0.263266683,-0.058194477,0.588462114,1.790391564
1.468848944,0.5569942,0.067832597,-0.829821885,-0.021221606,0.001350483,-0.005727387,-0.253095716,-0.271156967,0.263057649,-0.058348328,0.588472068,1.79034102
1.47384572,0.559969842,0.064241968,-0.829441607,-0.018286252,0.001345709,-0.0045038,-0.253284782,-0.271046072,0.262896836,-0.058482464,0.588485956,1.79029429
1.478849769,0.56133765,0.06215151,-0.830314636,-0.016761748,0.00208579,-0.003201091,-0.253347456,-0.271009296,0.262843519,-0.058602124,0.588504434,1.790249348
1.483848929,0.562576473,0.063123129,-0.827497482,-0.017238859,-0.001197915,-0.002047539,-0.2535941,-0.271091491,0.262940794,-0.058727156,0.588508666,1.790213108
1.488842964,0.563838303,0.065859273,-0.825007141,-0.017342791,0.000704394,-0.001699182,-0.253875941,-0.271230191,0.263112545,-0.058854923,0.588531256,1.790165544
1.493837833,0.566805184,0.069969282,-0.824423313,-0.015049206,0.000474737,-0.000157611,-0.254092813,-0.271336883,0.263244689,-0.058979876,0.588555813,1.790116549
1.498833895,0.56147033,0.074649818,-0.830056489,-0.011589465,0.000311537,0.002091906,-0.254164726,-0.271372259,0.263288498,-0.059078641,0.588562548,1.790107608
1.503830791,0.556363225,0.067950837,-0.831151307,-0.00826924,5.00E-05,0.005707474,-0.254220039,-0.271399498,0.263322234,-0.059133429,0.588552058,1.790135264
1.50882864,0.559271991,0.064132683,-0.830935955,-0.006942973,0.001513277,0.005754416,-0.254036069,-0.271514177,0.263330668,-0.059170045,0.588570714,1.79014957
1.513827562,0.564254463,0.06711787,-0.826955676,-0.004657608,4.76E-06,0.005965244,-0.253894508,-0.271602452,0.263337165,-0.059213217,0.588592172,1.790142775
1.518821597,0.562928379,0.075447887,-0.825745761,-0.000391682,0.001305945,0.008299204,-0.253847569,-0.271631688,0.263339311,-0.059238672,0.58861661,1.790157557
1.523816466,0.559785306,0.075140603,-0.826902032,0.00224473,0.000959826,0.012419134,-0.253811449,-0.271654218,0.26334098,-0.059247244,0.588629246,1.790197015
1.528812289,0.558969915,0.075208217,-0.830476522,0.006969127,0.001928772,0.015003951,-0.253684372,-0.271722406,0.263260067,-0.059207685,0.588642657,1.79026103
1.533809185,0.554483056,0.072336912,-0.835636318,0.010215946,0.003335574,0.018046755,-0.253470153,-0.271836311,0.263115436,-0.0591348,0.588654518,1.790369868
1.538807034,0.55783236,0.069045767,-0.834119022,0.012441581,0.007393856,0.01969447,-0.253399134,-0.27187407,0.263067454,-0.059045039,0.588702679,1.790461779
1.543805718,0.559905648,0.073325641,-0.831288457,0.016510138,0.010688989,0.021456188,-0.253344476,-0.271903127,0.263030559,-0.058940697,0.588768721,1.790557742
1.548799753,0.559324205,0.074112587,-0.830780268,0.017690564,0.01225959,0.023381675,-0.253326356,-0.271912783,0.26301831,-0.058824431,0.588841259,1.790661812
1.553794861,0.558974326,0.069321223,-0.83158654,0.018130105,0.015653966,0.02532169,-0.252712131,-0.27205959,0.263809323,-0.058691934,0.588924289,1.790777445
1.558790684,0.557517946,0.067746498,-0.830305099,0.018860269,0.019901998,0.026195591,-0.252508461,-0.272108287,0.264071584,-0.058543943,0.589032173,1.790905476
1.56378758,0.559658229,0.064908259,-0.830970764,0.020801473,0.020466359,0.027384724,-0.252351761,-0.272145748,0.264273405,-0.058371067,0.589146197,1.791036725
1.568786383,0.558612883,0.060878657,-0.830009282,0.020837432,0.020333553,0.027040813,-0.252299786,-0.272158176,0.264340311,-0.058203209,0.58926487,1.791161418
1.573785305,0.560930789,0.061657511,-0.830386043,0.020589212,0.02404855,0.028330836,-0.252711952,-0.272061497,0.263930172,-0.05803493,0.58940053,1.791298985
1.57877934,0.561088264,0.064650401,-0.83101964,0.020712724,0.024280373,0.031009844,-0.252960503,-0.272003174,0.263679951,-0.057857562,0.589534581,1.791456461
1.583774209,0.561314464,0.067255303,-0.8307271,0.022365861,0.027409343,0.032810088,-0.253151745,-0.271958292,0.263487428,-0.05768571,0.58968389,1.791609287
1.58877027,0.561920941,0.069006816,-0.829909682,0.025991188,0.028772479,0.031520657,-0.253215134,-0.27194339,0.263423592,-0.057495132,0.589850068,1.791748524
1.593767166,0.56498009,0.070115618,-0.829107523,0.026953787,0.031139472,0.034123089,-0.253492683,-0.271870464,0.263298303,-0.057294,0.590026319,1.791910291
1.598765254,0.565789759,0.070900105,-0.82998693,0.030667339,0.030988956,0.036949698,-0.253815413,-0.271784306,0.263179958,-0.057066865,0.590203047,1.79208529
1.603764176,0.56606853,0.069265224,-0.830195248,0.032214142,0.032562733,0.039493442,-0.254063725,-0.271717995,0.263088882,-0.056819811,0.590389132,1.792278647
1.608758569,0.566758633,0.064458258,-0.829960704,0.038875092,0.031692602,0.039424304,-0.254146069,-0.271696001,0.263058692,-0.05652995,0.590573967,1.792465806
1.613759518,0.565459847,0.059130516,-0.829076171,0.037618767,0.032884009,0.038476724,-0.254209399,-0.271679103,0.263035446,-0.056243975,0.590759277,1.792651653
1.618755817,0.566199064,0.057817187,-0.828409851,0.037868116,0.034987561,0.03744442,-0.254332095,-0.271521896,0.262699574,-0.055959877,0.590950966,1.792827129
1.623752713,0.569101989,0.057069715,-0.829194129,0.038331799,0.034220301,0.037046932,-0.254426479,-0.271400928,0.262441128,-0.055667203,0.591143847,1.793001652
1.628751159,0.570083797,0.056974571,-0.825850844,0.036141414,0.032442134,0.037505478,-0.254457772,-0.271360815,0.262355417,-0.055395789,0.591342628,1.79317379
1.633749962,0.566511631,0.053680178,-0.822730243,0.036971424,0.032182146,0.033934228,-0.254481852,-0.271329969,0.262289494,-0.055114407,0.591521502,1.793331981
1.638744116,0.565081,0.052362844,-0.821102202,0.034270529,0.03078869,0.034437791,-0.25420779,-0.271204561,0.262820363,-0.054844748,0.591704667,1.793486238
1.643739343,0.564482391,0.05012643,-0.822897017,0.030529335,0.032643862,0.03363882,-0.25371173,-0.270991594,0.263787717,-0.054601837,0.59189105,1.793623447
1.648735523,0.559445679,0.048648626,-0.823188066,0.025339555,0.03142399,0.030635407,-0.253547251,-0.270920962,0.264108479,-0.054386321,0.592060149,1.793767333
1.6537323,0.561786115,0.043481428,-0.825055242,0.023890516,0.034348447,0.030275211,-0.253420681,-0.270866632,0.264355272,-0.054169878,0.592248738,1.793900371
1.658730507,0.559162498,0.044725407,-0.823434472,0.018872524,0.035392758,0.027987702,-0.253378719,-0.270848632,0.264437109,-0.053987917,0.592432141,1.794034719
1.663729906,0.556130052,0.049946286,-0.818893731,0.014999787,0.038545899,0.027500488,-0.254349232,-0.270551771,0.263768196,-0.053835936,0.592637181,1.794174433
1.668724537,0.551509023,0.058300689,-0.822911799,0.013914256,0.039369289,0.029372029,-0.254671037,-0.270453334,0.263546407,-0.053716503,0.592838705,1.794327974
1.673719525,0.552604556,0.064470589,-0.824878991,0.014746037,0.04105654,0.032011028,-0.254918635,-0.270377606,0.263375759,-0.053584896,0.593045115,1.794491172
1.678715348,0.558991134,0.06681364,-0.824288189,0.017191483,0.044118367,0.034593269,-0.25500074,-0.270352483,0.263319165,-0.053427819,0.593285263,1.794664621
1.683712482,0.563631892,0.06599728,-0.824340701,0.022057652,0.04531968,0.038091913,-0.255165279,-0.270231187,0.263088763,-0.053237546,0.593529701,1.794845343
1.688710451,0.564667165,0.065698609,-0.826772571,0.022388557,0.04577978,0.041145425,-0.255244911,-0.270165741,0.262966126,-0.053032719,0.593779564,1.795049787
1.693709254,0.564247012,0.061884791,-0.825451016,0.027221955,0.049229629,0.042055421,-0.255306184,-0.270115376,0.262871772,-0.052796781,0.594041467,1.795259714
1.698703408,0.563869894,0.061070606,-0.827224016,0.028916074,0.050052155,0.04455458,-0.255326509,-0.270098686,0.26284048,-0.05254047,0.594306469,1.795483351
1.703698397,0.564295173,0.062283143,-0.827667177,0.032392524,0.053669002,0.046345297,-0.255542159,-0.270053059,0.262819916,-0.052262664,0.594595373,1.795732141
1.70869422,0.568430781,0.06540104,-0.82799232,0.034951266,0.056292579,0.049218398,-0.255815417,-0.270004898,0.262816668,-0.051975571,0.594907105,1.795970798
1.713691354,0.563608468,0.069467999,-0.828072667,0.039996348,0.061363932,0.052600361,-0.256025672,-0.269967854,0.262814164,-0.051660471,0.595229268,1.796241403
1.718689799,0.564785004,0.068183154,-0.831270993,0.04405544,0.068829484,0.05368185,-0.25609538,-0.269955575,0.26281333,-0.051309455,0.595592201,1.796524167
1.72368896,0.566335857,0.061196994,-0.83390528,0.047085226,0.074981034,0.054900303,-0.256148994,-0.269946098,0.262812704,-0.050937116,0.595989883,1.796810269
1.728682995,0.564236939,0.059106831,-0.829542637,0.051545627,0.084646493,0.055774547,-0.256218106,-0.269889832,0.262953609,-0.050533351,0.596427262,1.797096848
1.733677864,0.567666888,0.058995225,-0.828405738,0.056681138,0.092273138,0.060314644,-0.256271273,-0.269846499,0.26306206,-0.050089918,0.596921682,1.797402382
1.738673925,0.567098498,0.062633164,-0.829247534,0.061880533,0.104221366,0.060143854,-0.256288916,-0.269832164,0.263098001,-0.049640477,0.597465992,1.797697544
1.743676901,0.561152279,0.058244735,-0.831716776,0.064380243,0.113760255,0.063373022,-0.256302476,-0.269821107,0.263125688,-0.049157567,0.598038673,1.798034787
1.74867487,0.557120144,0.052282169,-0.835276127,0.06703154,0.126163468,0.066171698,-0.256424755,-0.269527495,0.263000637,-0.048635878,0.598671436,1.798412085
1.75367403,0.558650315,0.054194175,-0.840652347,0.069997445,0.142294183,0.0694905,-0.256637901,-0.269008398,0.262768686,-0.048097044,0.599388182,1.798798442
1.758668303,0.553621769,0.058639761,-0.845807076,0.07342314,0.16100581,0.072773144,-0.256708592,-0.26883626,0.262691796,-0.047545489,0.600180924,1.799223304
1.763663411,0.55160892,0.060164381,-0.855146527,0.070706189,0.186619282,0.078198262,-0.256762952,-0.268703848,0.262632638,-0.046976544,0.601082861,1.799691916
1.768659234,0.531214356,0.062895663,-0.8550089,0.06687744,0.21432367,0.089188583,-0.256780982,-0.26865992,0.262613028,-0.046430461,0.602110386,1.800251842
1.773656368,0.531470239,0.073244832,-0.873197556,0.066665798,0.254655063,0.109697551,-0.257865876,-0.268272549,0.262053609,-0.045818228,0.603322685,1.800964713
1.778654456,0.497136027,0.08829201,-0.891407728,0.039965726,0.322531193,0.158938348,-0.25822559,-0.268144131,0.261868089,-0.04520946,0.604809165,1.802055359
1.783653378,0.455095828,0.093403734,-0.898168802,-0.035894178,0.454622746,0.252588511,-0.258502364,-0.268045276,0.261725366,-0.044687018,0.60694623,1.803796172
1.788647652,0.408687592,0.074572071,-0.913984656,-0.150116503,0.643280089,0.369551063,-0.258594155,-0.268012524,0.26167804,-0.044313364,0.609986186,1.806374907
1.793642998,0.321976066,0.074079782,-0.93111378,-0.277569443,0.914155006,0.502047658,-0.259623259,-0.267566472,0.261139393,-0.044216011,0.614304364,1.809949517
1.798639059,0.333082795,0.1730313,-0.943784058,-0.277348191,1.181881309,0.607810378,-0.260201693,-0.267314464,0.260836482,-0.04396807,0.620090365,1.813988686
1.803635955,0.370682746,0.177207202,-0.961672306,-0.215463057,1.372838497,0.69896847,-0.26064676,-0.26712054,0.260603428,-0.042957522,0.626830101,1.818508148
1.808634162,0.485495448,0.147981837,-0.987959146,-0.160635769,1.536521196,0.720851541,-0.260794342,-0.267056227,0.26052618,-0.041512419,0.634498596,1.822862625
1.813633323,0.533788025,0.116820663,-1.061698675,-0.164343968,1.666992307,0.702815413,-0.262847662,-0.266582221,0.258581221,-0.040014543,0.642755985,1.827228785
1.818627596,0.610547841,0.10684035,-1.095992088,-0.166141391,1.735967636,0.649205029,-0.265484571,-0.265996963,0.25603503,-0.038840864,0.651372313,1.831093192
1.823622346,0.652026296,0.126952007,-1.101155162,-0.14220354,1.797188878,0.653868258,-0.267513484,-0.26554665,0.254075915,-0.037541509,0.660238266,1.834924459
1.828618526,0.619833589,0.170374617,-1.073606849,-0.111287624,1.886596203,0.680497348,-0.268186212,-0.26539734,0.253426313,-0.035948202,0.669535756,1.839016795
1.833615661,0.632834077,0.1709923,-1.061345696,-0.112649471,1.990175962,0.706803322,-0.268703848,-0.265282422,0.252926469,-0.034208931,0.679405868,1.843295336
1.838613749,0.691012383,0.148095638,-1.080685139,-0.137847453,2.049078226,0.730535388,-0.274156392,-0.263710439,0.248060301,-0.032420453,0.689611256,1.847760916
1.843612909,0.740840673,0.133420333,-1.116572142,-0.214945063,2.064264536,0.763236821,-0.278351724,-0.262500882,0.244316101,-0.030783407,0.699842811,1.8525002
1.848607183,0.738851607,0.106038071,-1.11177671,-0.32600832,2.076388359,0.79685533,-0.279742807,-0.262099832,0.243074596,-0.029493887,0.710071087,1.857516646
1.85360229,0.726300061,0.112888649,-1.097194076,-0.428418398,2.113027811,0.847761273,-0.280813158,-0.261791259,0.242119342,-0.028455451,0.720478356,1.862932444
1.858598351,0.786498845,0.163659796,-1.083960176,-0.477678627,2.146187067,0.908136308,-0.284762412,-0.261010736,0.238907292,-0.027437037,0.731182277,1.868731499
1.863595247,0.781453013,0.207818985,-1.092259288,-0.487823427,2.144008398,0.923752666,-0.29143554,-0.259724408,0.233508229,-0.026348412,0.741781712,1.874751925
1.868593454,0.775372267,0.258425623,-1.110054612,-0.440164715,2.114122629,0.892427981,-0.293648213,-0.259297907,0.231718004,-0.025217347,0.752165675,1.880582213
1.873592615,0.843680799,0.273196101,-1.163403988,-0.364951551,2.037160397,0.812242746,-0.295350701,-0.258969724,0.23034054,-0.023949536,0.762118757,1.885858536
1.87859273,0.850867689,0.364862651,-1.246777892,-0.290862232,1.896760821,0.702920258,-0.295915246,-0.258860886,0.229883805,-0.023111193,0.77117461,1.890478373
1.883587837,0.881058574,0.451220512,-1.307481527,-0.129590839,1.701657414,0.635004222,-0.304962188,-0.256406814,0.21926108,-0.021852827,0.779179692,1.894806862
1.888584137,0.812919974,0.53534013,-1.382980943,0.079627961,1.443307281,0.563955784,-0.307961971,-0.255593091,0.215738788,-0.019933885,0.78561151,1.898937702
1.893581271,0.654544353,0.568846583,-1.408975363,0.307795137,1.176772237,0.489735335,-0.310270101,-0.254966974,0.213028625,-0.017230252,0.790409148,1.90289712
1.898579478,0.445313752,0.530640423,-1.384954691,0.519883633,0.944200754,0.430703104,-0.311035424,-0.254759371,0.21212998,-0.013586598,0.793807983,1.906825662
1.903578877,0.227941871,0.438476682,-1.355750918,0.6731475,0.766997993,0.391401887,-0.316306502,-0.252675921,0.206112131,-0.009098789,0.796122313,1.911033869
1.908573151,0.038162638,0.330379874,-1.331953764,0.728405118,0.638867676,0.368020028,-0.319212914,-0.251509041,0.202798694,-0.004193572,0.797652245,1.915488005
1.913568258,-0.10330341,0.241518006,-1.318707347,0.685260177,0.547970116,0.361919612,-0.32144922,-0.250611186,0.200249225,0.000601501,0.798612952,1.92018497
1.91856432,-0.19993794,0.179000422,-1.309863925,0.568302572,0.468477994,0.364484787,-0.322190732,-0.250313491,0.199403867,0.004885996,0.799107313,1.925089836
1.923561454,-0.259012848,0.169432491,-1.306003451,0.417923212,0.389939547,0.376957446,-0.323801398,-0.248973101,0.198041648,0.008431494,0.799161673,1.930176854
1.928559661,-0.285651267,0.203726426,-1.299350142,0.269804776,0.292785138,0.397590637,-0.325384349,-0.247408003,0.196872205,0.011215094,0.798693776,1.935415745
1.933558822,-0.290124238,0.26163587,-1.30084455,0.159224316,0.175991386,0.416230083,-0.32660231,-0.246203765,0.195972413,0.013398915,0.797632933,1.940726638
1.938552856,-0.279559135,0.316281229,-1.304350495,0.084076598,0.02990034,0.429186016,-0.327006161,-0.245804474,0.195674062,0.015140638,0.795831561,1.946031451
1.943547845,-0.275695711,0.347553939,-1.301291108,0.041937187,-0.13097474,0.432187796,-0.32731691,-0.245497242,0.195444494,0.016596444,0.793212771,1.951269746
1.948544025,-0.274696857,0.364432216,-1.304898858,0.007624554,-0.301139772,0.422980636,-0.328097641,-0.243408144,0.194279909,0.017810836,0.789731741,1.95643115
1.95354116,-0.277477115,0.360474527,-1.296385169,-0.03017607,-0.462240279,0.409438968,-0.328698367,-0.241800725,0.193383828,0.018758643,0.785449982,1.961443305
1.958539248,-0.280717462,0.341970861,-1.28395927,-0.086402521,-0.614854753,0.392986417,-0.328897536,-0.241267741,0.193086714,0.019342152,0.780424476,1.96630156
1.963538885,-0.285058767,0.329452097,-1.267235756,-0.158516079,-0.745164871,0.37048623,-0.329050809,-0.240857631,0.1928581,0.019445419,0.774780214,1.970952511
1.968533516,-0.285508573,0.318136662,-1.239897251,-0.244024664,-0.857826591,0.34250015,-0.32876417,-0.240354091,0.192611709,0.01896216,0.768621564,1.975335479
1.973528624,-0.281415075,0.322274506,-1.21309638,-0.323268414,-0.952439368,0.313665241,-0.328202456,-0.239594996,0.192249626,0.017901888,0.762058854,1.979441166
1.978524685,-0.271939725,0.337407142,-1.195052624,-0.386462361,-1.024126053,0.278135926,-0.328016192,-0.2393433,0.192129582,0.016307598,0.755193949,1.983246088
1.983522058,-0.242220268,0.352550238,-1.182744145,-0.431727707,-1.081639767,0.238157317,-0.327872872,-0.23914963,0.19203721,0.014277711,0.748117626,1.98669076
1.988520145,-0.196781874,0.360278279,-1.178159833,-0.458928138,-1.126244426,0.193898976,-0.327825338,-0.239085421,0.192006588,0.011914453,0.740906477,1.989748836
1.993519306,-0.143799812,0.363749117,-1.179184675,-0.474331886,-1.165862083,0.136565834,-0.324522555,-0.238957182,0.192666814,0.009223904,0.733579159,1.992321372
1.998513699,-0.083398722,0.36219725,-1.190847158,-0.488301009,-1.204213262,0.067223184,-0.323427409,-0.238914669,0.192885727,0.006175599,0.726140559,1.994359493
2.003509045,-0.01788806,0.351486593,-1.204256773,-0.50622797,-1.241710067,-0.015715333,-0.322584778,-0.238881961,0.193054169,0.002719671,0.718593538,1.995785475
2.008505106,0.049760822,0.34499231,-1.217103481,-0.522279084,-1.283563852,-0.114175677,-0.322305381,-0.238871098,0.193110034,-0.001202273,0.710926175,1.996493578
2.013508558,0.110881552,0.336908132,-1.225735545,-0.539941072,-1.328158498,-0.22010909,-0.31830892,-0.240294471,0.194737896,-0.005610195,0.703089237,1.996392012
2.018507242,0.164923489,0.325086057,-1.2290411,-0.553812325,-1.374306202,-0.328449935,-0.316048026,-0.241120711,0.19566986,-0.010458766,0.695091307,1.995558143
2.023506641,0.206825003,0.310251743,-1.231591225,-0.564466834,-1.423304439,-0.437810838,-0.314308435,-0.241756454,0.196386933,-0.015705561,0.686895788,1.994034767
2.028501034,0.239393771,0.291563928,-1.236982226,-0.569857836,-1.468652487,-0.543455899,-0.313731611,-0.241967261,0.196624696,-0.021283913,0.678497076,1.991862059
2.03349638,0.2695629,0.26829049,-1.246223092,-0.57334578,-1.51687181,-0.642956376,-0.310390055,-0.243371606,0.19657895,-0.027125677,0.669876158,1.989092708
2.038492441,0.300568074,0.239577368,-1.253496766,-0.587186873,-1.568342805,-0.729763329,-0.306360006,-0.245089859,0.19633314,-0.033205837,0.661011875,1.985811234
2.043489456,0.329397589,0.205469206,-1.263779044,-0.605646789,-1.626414657,-0.808915854,-0.303259164,-0.246411934,0.196144,-0.039485902,0.651858091,1.982133269
2.048487663,0.357855082,0.177832916,-1.269257069,-0.632844985,-1.682489872,-0.870169938,-0.302230984,-0.246850297,0.196081281,-0.045961309,0.642441988,1.978159308
2.053486824,0.395349175,0.159843221,-1.276797533,-0.660875559,-1.743740797,-0.91906935,-0.301439852,-0.247187585,0.196033031,-0.052573029,0.632748723,1.973956466
2.058481216,0.445310295,0.151036948,-1.284604192,-0.690204918,-1.813845158,-0.954893947,-0.294300914,-0.250835627,0.196486548,-0.059315819,0.622743547,1.969509363
2.063476563,0.504533172,0.146625087,-1.285617948,-0.710700572,-1.898671746,-0.983723521,-0.288807958,-0.253642529,0.196835503,-0.066086784,0.612377524,1.964940667
2.068472624,0.556714773,0.148859978,-1.27935493,-0.720480859,-1.991319299,-1.000736475,-0.286986589,-0.254573256,0.196951196,-0.072822012,0.601606429,1.96033144
2.073469639,0.594442606,0.154277265,-1.268713713,-0.721863806,-2.095066786,-1.012874365,-0.285585165,-0.255289376,0.19704023,-0.07944262,0.590361536,1.955740452
2.078468084,0.615499854,0.163166896,-1.25592792,-0.71010673,-2.193356752,-1.015090585,-0.280321956,-0.258161575,0.197033048,-0.085865662,0.578650653,1.951164603
2.083467245,0.621672451,0.170613438,-1.240608215,-0.692672551,-2.288078785,-1.009641528,-0.271420211,-0.263035625,0.196990415,-0.092021689,0.566487074,1.946740866
2.088461637,0.623216987,0.159260303,-1.220508099,-0.675251067,-2.371652126,-0.998380899,-0.268468559,-0.264651805,0.196976274,-0.097875737,0.553944647,1.942530155
2.093456745,0.622251511,0.132054046,-1.204109669,-0.668636799,-2.440846205,-0.977257192,-0.266197473,-0.265895337,0.196965411,-0.103422806,0.541102409,1.938591599
2.098453045,0.616516888,0.097361073,-1.188764572,-0.675723732,-2.503215075,-0.952943385,-0.265444428,-0.266307652,0.196961805,-0.108731881,0.527979016,1.934880853
2.10345006,0.603870213,0.05997128,-1.172921538,-0.697148621,-2.550623894,-0.926448703,-0.252174199,-0.272476435,0.197277591,-0.113884553,0.514652252,1.931372166
2.108448505,0.594744027,0.026581202,-1.152283669,-0.732025862,-2.581587315,-0.897539914,-0.24777405,-0.274521887,0.197382301,-0.118974067,0.501224399,1.928133845
2.113448381,0.579684913,0.002024399,-1.134062648,-0.776461065,-2.599276543,-0.865712225,-0.244388416,-0.276095718,0.197462857,-0.124088034,0.487741411,1.925181389
2.118443489,0.562228262,-0.018063882,-1.11356616,-0.822015762,-2.602422476,-0.827040553,-0.243265808,-0.276617587,0.197489575,-0.129192129,0.474288851,1.922564507
2.123438597,0.55302006,-0.034437317,-1.096597433,-0.862468839,-2.594811916,-0.789421737,-0.232707024,-0.280726105,0.196331635,-0.134302437,0.460921973,1.920091271
2.128434896,0.551730871,-0.041470118,-1.079557896,-0.897681892,-2.583765268,-0.751131833,-0.226806864,-0.283005685,0.195656061,-0.139415279,0.447673082,1.917886615
2.13343215,0.560261786,-0.034785084,-1.059543371,-0.92063576,-2.572084188,-0.711242497,-0.222267091,-0.2847597,0.195136249,-0.144508615,0.434553087,1.915920138
2.138430834,0.580442905,-0.029203011,-1.042746782,-0.934161782,-2.564592123,-0.674855053,-0.220761791,-0.285341293,0.194963887,-0.149530247,0.421569288,1.914160013
2.143429995,0.611808717,-0.025321137,-1.031417608,-0.94033289,-2.560031176,-0.641399682,-0.214466244,-0.287950099,0.193556994,-0.154449478,0.408704698,1.912489653
2.148430109,0.643531978,-0.016985379,-1.018798828,-0.946460068,-2.564567804,-0.614580989,-0.207198307,-0.290994585,0.191805542,-0.15931505,0.395908386,1.910899401
2.153425455,0.66078341,-0.009380926,-1.004661798,-0.952321947,-2.570506334,-0.598265052,-0.201606125,-0.293337107,0.19045791,-0.164134532,0.383131504,1.909424067
2.158421755,0.677394629,0.006080845,-0.983733654,-0.951519132,-2.576762199,-0.590785027,-0.199751869,-0.294113845,0.190011069,-0.168928027,0.370384365,1.90799737
2.163419247,0.687016726,0.021197818,-0.956943393,-0.94697535,-2.57952857,-0.590526521,-0.198325127,-0.2947115,0.189667255,-0.1736947,0.357679725,1.906561613
2.168417215,0.686024129,0.031244773,-0.92455107,-0.938142061,-2.573172092,-0.590369463,-0.190023392,-0.297728956,0.186946481,-0.178401038,0.345037937,1.905076742
2.173416853,0.669017136,0.031195691,-0.8942101,-0.933231235,-2.559964418,-0.591864228,-0.183635756,-0.300050676,0.184853032,-0.183043897,0.332467198,1.903655529
2.178411722,0.658947766,0.026741665,-0.86741972,-0.939485431,-2.528509378,-0.599374354,-0.181517735,-0.3008205,0.184158877,-0.187723368,0.320070893,1.902215123
2.183407068,0.663223505,0.026986348,-0.836334169,-0.952159226,-2.493873119,-0.611087084,-0.179888055,-0.301412821,0.183624774,-0.192476332,0.307886422,1.900705218
2.18840313,0.683585584,0.034843937,-0.809447944,-0.963599384,-2.455532312,-0.61547035,-0.175618291,-0.302744597,0.180830315,-0.197300911,0.295956194,1.899055719
2.19340086,0.707561791,0.045656838,-0.784501612,-0.976549149,-2.424783468,-0.618214726,-0.16856198,-0.304917336,0.176033586,-0.202199161,0.284242988,1.897342682
2.198399544,0.733594418,0.048265588,-0.757849157,-0.988708317,-2.399845839,-0.61659193,-0.166222259,-0.305637777,0.174443096,-0.207149044,0.27270636,1.895602465
2.203398943,0.751029432,0.053770624,-0.729505301,-1.000007868,-2.375584841,-0.614652753,-0.164421991,-0.30619213,0.173219308,-0.212129056,0.261344165,1.893870592
2.208393097,0.771993458,0.052285254,-0.70824939,-1.011172414,-2.339973688,-0.611684442,-0.16382505,-0.306375921,0.17281352,-0.217156664,0.250225157,1.892086864
2.213388443,0.785195112,0.052138638,-0.670666575,-1.019936085,-2.303458929,-0.604837239,-0.156508058,-0.309007794,0.165850043,-0.222219259,0.239330053,1.890269995
2.21838522,0.797405481,0.040921677,-0.632314324,-1.026151896,-2.256367445,-0.597182631,-0.154081881,-0.309880495,0.163541079,-0.227281734,0.228729993,1.888448954
2.223382473,0.788444817,0.023634631,-0.587520003,-1.025292039,-2.191413879,-0.586368024,-0.152215108,-0.310551971,0.161764488,-0.23230882,0.218466252,1.886674762
2.228380919,0.77240634,0.003477282,-0.551563919,-1.024597526,-2.124947309,-0.578795135,-0.151596114,-0.310774595,0.1611754,-0.237288103,0.208546191,1.884919047
2.233380318,0.756787062,-0.006547747,-0.52074194,-1.010544777,-2.043180943,-0.566341877,-0.147175103,-0.312179297,0.156483799,-0.242195174,0.199037805,1.883159041
2.238374949,0.741217673,-0.018687967,-0.487292677,-0.979484439,-1.949360013,-0.546643615,-0.144733042,-0.312950283,0.153879359,-0.246910527,0.190014258,1.881456614
2.243370295,0.734600306,-0.033826306,-0.452455819,-0.938230574,-1.843203187,-0.523742676,-0.14285405,-0.313543469,0.151875421,-0.251393586,0.181547642,1.879775524
2.248366356,0.7396878,-0.033111274,-0.412828952,-0.878788769,-1.731110692,-0.498287171,-0.142231002,-0.313740164,0.151210949,-0.255579442,0.173700422,1.878084064
2.253364325,0.748120129,-0.02132751,-0.36914131,-0.796408653,-1.617610097,-0.474326313,-0.14022705,-0.314376831,0.148197711,-0.259376109,0.166465104,1.876360893
2.258362532,0.755805373,-0.001780074,-0.329981208,-0.695852935,-1.498092055,-0.452492446,-0.138025209,-0.315077335,0.144675598,-0.262710035,0.159871027,1.874587297
2.263361931,0.758115292,0.009258079,-0.29955101,-0.579400301,-1.379166007,-0.431798995,-0.136331052,-0.315616339,0.141965568,-0.265475005,0.153880984,1.872796178
2.268356323,0.761829793,0.008593684,-0.2759251,-0.460045844,-1.252131104,-0.421616375,-0.135769293,-0.315795064,0.141066983,-0.267644107,0.148540705,1.870874286
2.273351669,0.76971662,-0.011139302,-0.259666085,-0.359578937,-1.121467113,-0.423264652,-0.135337055,-0.315932602,0.140375569,-0.269304484,0.143860236,1.868742824
2.278347969,0.773619473,-0.027977146,-0.240608618,-0.2808415,-0.984758377,-0.432544559,-0.134478554,-0.316079974,0.1360517,-0.270596683,0.139832944,1.866372347
2.28335166,0.773081064,-0.040207185,-0.22049427,-0.224546313,-0.845591187,-0.449054062,-0.133818001,-0.316193372,0.132724792,-0.271646202,0.136462063,1.863718152
2.288349867,0.781711161,-0.050156731,-0.200635195,-0.182968169,-0.705398798,-0.466258675,-0.133598968,-0.316230953,0.131621659,-0.272526741,0.133768901,1.860773563
2.293349266,0.799619734,-0.060455739,-0.18554002,-0.149948761,-0.567045271,-0.480775237,-0.133430436,-0.316259891,0.130772859,-0.273278177,0.131757751,1.857517481
2.298343897,0.825442612,-0.075430825,-0.173020542,-0.12397594,-0.431359112,-0.486608535,-0.133227721,-0.316231012,0.128676355,-0.273912549,0.13044852,1.853988409
2.303339005,0.857094467,-0.089792475,-0.167739481,-0.099615015,-0.312096953,-0.483585656,-0.132923305,-0.316169888,0.125227928,-0.27442348,0.129770547,1.85023725
2.308335304,0.885403991,-0.1014302,-0.164254829,-0.071268089,-0.202122301,-0.463434577,-0.132822365,-0.316149622,0.124084502,-0.274781615,0.129685745,1.846381903
2.313332796,0.908130109,-0.113735296,-0.164837211,-0.028462313,-0.108181477,-0.419512331,-0.132744685,-0.316134036,0.123204708,-0.274889648,0.130147934,1.842575312
2.318331242,0.931133807,-0.124179922,-0.168038279,0.033350334,-0.034386959,-0.355268419,-0.132718936,-0.31612888,0.122912981,-0.274629116,0.131086528,1.838953137
2.323330402,0.948603332,-0.152766764,-0.16518639,0.114972711,0.022387896,-0.268618375,-0.132957578,-0.315889746,0.118264347,-0.273850858,0.132440165,1.83564496
2.328324795,0.956639707,-0.189385697,-0.161822096,0.18940787,0.066607431,-0.160161078,-0.133036688,-0.315810442,0.116722941,-0.272562146,0.134157404,1.832786798
2.333320618,0.959724545,-0.23437196,-0.158181429,0.252889544,0.11055617,-0.046255261,-0.133097574,-0.315749437,0.115536936,-0.270817339,0.136242151,1.830421329
2.338317156,0.969500959,-0.27406919,-0.151836053,0.291021794,0.152876347,0.078395098,-0.13311775,-0.315729231,0.115143679,-0.268751383,0.138724953,1.82857728
2.343314171,0.982680619,-0.292001516,-0.140850335,0.31225419,0.199571103,0.198268354,-0.133728489,-0.31567812,0.111896425,-0.266510278,0.141605899,1.827232361
2.348312616,1.000217795,-0.281637639,-0.125916526,0.327380627,0.252482593,0.317713797,-0.134078294,-0.31565237,0.110091031,-0.264165729,0.144946396,1.82636559
2.353312016,1.035093546,-0.248994261,-0.09790726,0.344823837,0.311888158,0.430146486,-0.134347424,-0.315632582,0.1087019,-0.261736125,0.148788959,1.825892687
2.358306646,1.072375774,-0.199351326,-0.065766178,0.380613834,0.38399893,0.524188042,-0.134436667,-0.315626025,0.10824129,-0.259173632,0.153165653,1.825709701
2.363301992,1.113390446,-0.139318243,-0.037383672,0.440201163,0.465229928,0.593115032,-0.135697886,-0.315560192,0.105697937,-0.256363481,0.158102334,1.825693488
2.368298531,1.156634808,-0.071915112,-0.005835204,0.523055196,0.551862717,0.633435249,-0.137318641,-0.315477103,0.10264729,-0.253217101,0.16357033,1.825687289
2.373296022,-0.745509088,0.082736194,-0.707229078,0.021034062,1.055575132,0.811938286,-0.138565704,-0.315413177,0.100300021,-0.252007276,0.167623028,1.831076384
2.378294706,0.440052062,-0.125164941,-0.004862551,0.2907269,1.855891824,0.654609859,-0.138979197,-0.315391988,0.099521711,-0.251221746,0.179165974,1.830723286
2.383294106,-0.088758737,0.354949355,-0.370424837,0.168009207,1.848482847,0.624717891,-0.139297366,-0.315375686,0.098922856,-0.249846131,0.189200833,1.831805229
2.388288975,-0.991125703,1.063198566,-0.464795917,0.252419233,2.132117748,0.235050589,-0.142102987,-0.315357268,0.094460137,-0.2515634,0.196982056,1.834228992
2.393284321,-0.206503451,0.860666037,-0.80045557,0.604748309,2.411665201,0.07167913,-0.144261718,-0.315343082,0.091026381,-0.249806523,0.208646774,1.832136869
2.398280621,0.095993616,0.588267803,-1.180411577,0.654114008,2.527961731,-0.015094981,-0.14497751,-0.315338373,0.089887813,-0.247344226,0.220872432,1.829184771
2.403278112,-0.011537306,0.62336117,-1.26320672,0.868221641,2.690783501,-0.085995734,-0.145528257,-0.315334767,0.089011759,-0.244471192,0.233229071,1.826348066
2.408277035,0.11474207,0.834164858,-1.204979062,1.220330596,2.920041323,-0.073946021,-0.146691322,-0.315758735,0.084375583,-0.240065753,0.247083589,1.823129416
2.413276434,0.271411359,0.756902277,-1.170965314,1.450765848,3.254940748,0.006606773,-0.148577601,-0.316514879,0.076414183,-0.234208778,0.263015002,1.819539905
2.418276548,0.375370622,0.177660793,-1.238574147,1.285257578,3.649123907,0.100724146,-0.149203062,-0.316765577,0.073774338,-0.228393942,0.2812213,1.815858006
2.423271894,0.743883431,-0.213626415,-1.334281087,1.483105898,3.96363163,0.068732835,-0.14968431,-0.316958487,0.071743153,-0.221258163,0.301659346,1.810638428
2.428268194,0.968084872,-0.566053391,-1.375977993,1.293985724,4.0732131,0.164575174,-0.149843872,-0.317022473,0.07106965,-0.214056253,0.322951972,1.80567646
2.433265686,0.994436741,-0.652969182,-1.597590804,1.053611398,4.136468887,0.225792199,-0.151323676,-0.318416417,0.061054181,-0.20838815,0.344221652,1.801481485
2.438263893,1.413554072,-0.886484742,-1.737224102,0.75140214,4.088485718,0.401030838,-0.151814356,-0.318878651,0.057733241,-0.203101858,0.366257906,1.797473073
2.443263531,1.593538642,-0.894180655,-1.822605133,0.420926243,3.839011908,0.527748525,-0.152191907,-0.319234312,0.055178002,-0.199572429,0.387083381,1.7945472
2.448258162,1.748557329,-0.867634475,-1.73210299,0.078143507,3.544094563,0.686989069,-0.152317092,-0.319352239,0.054330733,-0.197180569,0.406766057,1.792597294
2.453253746,1.774384975,-0.704549432,-1.629871607,-0.243495971,3.234594584,0.828787208,-0.153381631,-0.320416629,0.045263428,-0.196348682,0.424983501,1.791836262
2.458250046,1.761558175,-0.33296299,-1.455890298,-0.432442248,2.905516624,0.881138027,-0.15397419,-0.3210105,0.040174469,-0.197146878,0.441598147,1.791654468
2.463247776,1.683982253,0.115380563,-1.237980604,-0.509536624,2.588772297,0.902659893,-0.154430121,-0.321467429,0.036258861,-0.198749915,0.456617177,1.791888118
2.468246222,1.545108199,0.578217566,-1.028568387,-0.456303209,2.319285631,0.849419415,-0.154581308,-0.321618944,0.034960523,-0.201006979,0.4700526,1.79211235
2.473245859,1.419462323,0.939595461,-0.875058234,-0.283027202,2.096733809,0.750733733,-0.156423002,-0.321859568,0.029387111,-0.203225404,0.482140601,1.792067051
2.47824049,1.223822594,1.129406929,-0.752381206,-0.069389582,1.92166841,0.635109425,-0.158773541,-0.322064459,0.022926239,-0.20472303,0.49302727,1.791842103
2.483236551,0.990059197,1.120235682,-0.675070882,0.203443289,1.810251355,0.534290969,-0.16058211,-0.322222084,0.017955035,-0.205015272,0.502972543,1.791542768
2.488233328,0.83723855,0.9283216,-0.682448268,0.49432686,1.71418345,0.548597574,-0.161181793,-0.322274357,0.016306678,-0.20328097,0.512292862,1.79181385
2.49323082,0.783992052,0.65039587,-0.726846576,0.710617661,1.589183927,0.631875098,-0.161643222,-0.32231459,0.01503838,-0.199418798,0.521084666,1.793066621
2.498229504,0.714774251,0.377122998,-0.785369754,0.834931374,1.460823417,0.692884326,-0.163937449,-0.32278356,0.010348146,-0.194204107,0.529147565,1.795198441
2.50322938,0.656800866,0.143053934,-0.825799465,0.878070295,1.352185488,0.759147644,-0.165702701,-0.323144376,0.00673933,-0.188098401,0.5366292,1.798102379
2.508224249,0.678000689,0.004321331,-0.853141129,0.868203044,1.267072797,0.796868265,-0.166288018,-0.323264033,0.005542714,-0.181678027,0.543780506,1.801379323
2.513219833,0.9037655,0.040977132,-0.91056025,0.867845416,1.139303565,0.807235241,-0.166738391,-0.323356092,0.004622,-0.175242051,0.550628364,1.804464698
2.518216372,0.931745172,0.108698435,-0.906851172,0.82352376,0.984951437,0.756070912,-0.167630732,-0.323091865,0.003395273,-0.169303522,0.556571126,1.807389617
2.52321434,0.833340526,0.133391514,-0.887972832,0.813221812,0.861428559,0.710088968,-0.169068605,-0.32259047,0.001519673,-0.163536131,0.561635852,1.810404539
2.528213024,0.759054959,0.131558776,-0.907966197,0.820150018,0.771927357,0.691467404,-0.169545382,-0.322424203,0.000897759,-0.157661259,0.566135526,1.813648224
2.533212662,0.758919954,0.142993867,-0.913245678,0.821291089,0.693509042,0.671634912,-0.169912234,-0.322296292,0.000419239,-0.151770458,0.570248365,1.816870809
2.538207293,0.7353459,0.126104027,-0.913870573,0.812545061,0.627213836,0.638405681,-0.170033872,-0.322253883,0.000260571,-0.145966336,0.573953748,1.820042968
2.543202639,0.704415977,0.093838185,-0.905516028,0.804137886,0.575780988,0.607697904,-0.17147091,-0.321457326,-0.000467531,-0.140179068,0.57734102,1.823182225
2.548198938,0.669410944,0.075508669,-0.901888132,0.775666296,0.547363818,0.577819228,-0.171947405,-0.321193218,-0.000708955,-0.134582579,0.580520034,1.826277971
2.553202391,0.685330808,0.094459407,-0.922222018,0.751536191,0.502704084,0.538147032,-0.172314048,-0.320989996,-0.000894715,-0.129283413,0.58345294,1.829162836
2.558201075,0.690584242,0.059909485,-0.912359953,0.721052468,0.457802147,0.492004991,-0.172435611,-0.320922613,-0.00095631,-0.124162003,0.586121082,1.831810236
2.563200474,0.653249562,0.029461689,-0.888256311,0.685555398,0.421899736,0.442788005,-0.174194783,-0.320374757,-0.000320118,-0.119306237,0.588531494,1.834285736
2.568195343,0.610661566,0.019901544,-0.876012504,0.642138541,0.411103576,0.409386069,-0.175190255,-0.320070356,6.00E-05,-0.114762202,0.590807498,1.836668491
2.573190689,0.606031179,0.021266811,-0.88628906,0.594256878,0.404230535,0.362437755,-0.175956205,-0.31983614,0.00035245,-0.110623747,0.593020558,1.838807225
2.578187227,0.63404274,-0.001951521,-0.901753485,0.537246048,0.390284628,0.312771738,-0.17621018,-0.319758475,0.000449426,-0.10687767,0.595167696,1.840626001
2.583184958,0.638881743,-0.062285777,-0.914376199,0.457009077,0.368431807,0.262327045,-0.176925078,-0.3192828,0.00068928,-0.103559762,0.597155809,1.8422122
2.588183641,0.62092793,-0.102900773,-0.916809142,0.363958269,0.354860276,0.219965443,-0.177685961,-0.318705648,0.000935437,-0.100776687,0.599010885,1.843626499
2.593183041,0.600698471,-0.071638837,-0.913156688,0.277912349,0.354386657,0.169677541,-0.178271428,-0.318261564,0.001124838,-0.098703206,0.60081625,1.844774723
2.59817791,0.603304684,-0.0078404,-0.903430343,0.213391379,0.361518085,0.133419752,-0.17846556,-0.318114311,0.001187639,-0.097222812,0.602660596,1.845625997
2.603173018,0.614310443,0.031629112,-0.882277429,0.165679529,0.365633786,0.105555817,-0.178614929,-0.318001002,0.001235961,-0.096123345,0.604550421,1.84626627
2.608170271,0.611456215,0.058195431,-0.859872341,0.13519536,0.366476834,0.087766863,-0.179316193,-0.318051696,0.001359481,-0.095276944,0.606430471,1.846784353
2.613167524,0.599398255,0.064950891,-0.840467036,0.112936482,0.373571396,0.084226511,-0.179855779,-0.318090737,0.001454522,-0.094552346,0.608358562,1.847285032
2.618166208,0.588064551,0.069368586,-0.839306414,0.09662728,0.376336128,0.086973891,-0.180034682,-0.318103671,0.001486035,-0.093894184,0.610280395,1.847836971
2.623165607,0.583844841,0.072206162,-0.829183936,0.085876651,0.373913139,0.09237542,-0.180172339,-0.318113625,0.001510283,-0.093260422,0.612185836,1.848435998
2.628160477,0.581114531,0.082672603,-0.813449085,0.08786238,0.364771515,0.102920078,-0.180305094,-0.317944825,0.00119834,-0.092599265,0.614051044,1.849090099
2.633156061,0.579889178,0.09764003,-0.798385143,0.100794926,0.352398783,0.12710461,-0.180495322,-0.317640901,0.000634768,-0.091811359,0.61588347,1.84987402
2.638152599,0.580894113,0.123361528,-0.798448026,0.121116214,0.338421464,0.146109149,-0.180558398,-0.317540139,0.000447898,-0.090888768,0.617639422,1.850801587
2.643150091,0.604287028,0.133850455,-0.804710805,0.148489133,0.311796516,0.157833621,-0.180606931,-0.317462593,0.000304115,-0.089803495,0.619294286,1.851751447
2.648149252,0.592113316,0.124991916,-0.799634814,0.178377062,0.273493528,0.184554338,-0.180623025,-0.317436874,0.000256439,-0.08842352,0.620736718,1.852915645
2.653143406,0.581243336,0.143665329,-0.793509662,0.220331937,0.238622874,0.211685777,-0.180429414,-0.317762434,-0.000154404,-0.086762413,0.621999681,1.854287267
2.658137798,0.581570625,0.182075083,-0.806031048,0.271099687,0.197881579,0.239603773,-0.180365205,-0.317870378,-0.000290631,-0.084806934,0.623059392,1.855855227
2.663133383,0.593369663,0.200611755,-0.801604986,0.325724036,0.157160744,0.261978477,-0.180315822,-0.317953467,-0.000395449,-0.082519628,0.623938203,1.857539177
2.668130159,0.608888924,0.18956627,-0.799512148,0.373183966,0.118739039,0.278550178,-0.180299446,-0.317981005,-0.000430205,-0.079877608,0.624650717,1.859322071
2.67312789,0.596234441,0.162621126,-0.797273278,0.409975737,0.083289117,0.29265812,-0.181092709,-0.317833573,-0.000396286,-0.076957911,0.6251688,1.861249566
2.678126574,0.592444122,0.137620613,-0.809237838,0.44498533,0.05550202,0.309274316,-0.181555137,-0.317742974,-0.000370028,-0.073734649,0.625549614,1.86333406
2.683120489,0.59893167,0.137214035,-0.815554678,0.474418312,0.02633425,0.313660353,-0.181910947,-0.317673266,-0.000349825,-0.070369169,0.625769019,1.865453959
2.68812108,0.626454592,0.141412735,-0.817662895,0.506985426,0.004566326,0.318894446,-0.182028919,-0.317650169,-0.000343126,-0.066828616,0.625927508,1.867538571
2.693117142,0.609671772,0.119034491,-0.804145813,0.518471599,-0.016948245,0.322498441,-0.182527021,-0.317157209,0.000224071,-0.063180119,0.625959992,1.869688272
2.698113441,0.6062994,0.100008138,-0.807598114,0.526850581,-0.028136889,0.325603127,-0.183102921,-0.316514581,0.000978904,-0.059438981,0.625935614,1.871890426
2.703111172,0.605661988,0.058810286,-0.815803409,0.517150104,-0.045686603,0.329142869,-0.183546036,-0.316020131,0.001559696,-0.05564582,0.625801384,1.874147177
2.708110094,0.584683657,0.049903572,-0.818019509,0.492855817,-0.060359098,0.330269128,-0.183692962,-0.315856189,0.001752276,-0.051993366,0.625568211,1.876456857
2.71310401,0.588335752,0.039170749,-0.826542854,0.473456442,-0.073106699,0.32187897,-0.183806017,-0.315730035,0.001900453,-0.048459381,0.625269413,1.878710389
2.71809864,0.571135879,0.031695046,-0.818162322,0.441317111,-0.073269367,0.31115216,-0.185009494,-0.315096289,0.003044639,-0.045127794,0.624935567,1.880908728
2.723094225,0.578591287,0.020038422,-0.830441833,0.408044279,-0.066328093,0.304111272,-0.185935482,-0.314608634,0.003925012,-0.041978098,0.624641955,1.883070469
2.728090763,0.566628516,0.005232128,-0.834765375,0.37821421,-0.057425279,0.287202746,-0.186242521,-0.314446956,0.004216928,-0.039018396,0.624344826,1.885170698
2.733088493,0.56865716,0.005138401,-0.832087576,0.347976774,-0.053251579,0.274306744,-0.186478764,-0.314322531,0.004441536,-0.036244228,0.624098957,1.887155652
2.738087177,0.569582045,0.028504603,-0.82577616,0.329373896,-0.044861674,0.26530844,-0.186505511,-0.314043909,0.005311629,-0.033679191,0.623886764,1.889047146
2.743080854,0.58692795,0.041085064,-0.827208817,0.31442681,-0.038597006,0.25667119,-0.186473936,-0.313589513,0.006785599,-0.031224793,0.623737156,1.890857816
2.748075724,0.579556704,0.037613068,-0.826937973,0.298569888,-0.036149383,0.252881765,-0.18646346,-0.313438833,0.007274339,-0.028850555,0.623581111,1.892653584
2.753071547,0.585663676,0.019289795,-0.824760377,0.290474772,-0.029990457,0.246089473,-0.186455399,-0.313322932,0.007650393,-0.026520247,0.62344259,1.894406319
2.758068085,0.587556183,-0.002523698,-0.814424813,0.264432371,-0.035415929,0.244383305,-0.186452731,-0.313284516,0.007775085,-0.024260035,0.623311818,1.896135449
2.763065815,0.587542117,-8.05E-05,-0.813703358,0.250784904,-0.028734064,0.235638961,-0.187791392,-0.312887043,0.008329319,-0.022135694,0.623193204,1.897814512
2.768064499,0.585960984,-0.00440866,-0.816082358,0.232958138,-0.028902512,0.228367478,-0.188235268,-0.312755257,0.008513093,-0.02011437,0.623076737,1.899456501
2.773058653,0.587626338,-0.00981716,-0.822924852,0.215059847,-0.035016805,0.221994549,-0.188576788,-0.31265384,0.008654494,-0.018194275,0.622937858,1.901064754
2.778053045,0.573494315,0.005868979,-0.810277164,0.209155962,-0.034438249,0.212989748,-0.188690037,-0.312620223,0.00870138,-0.01640556,0.62275362,1.902604103
2.783048868,0.589369476,0.015115961,-0.808105528,0.203534022,-0.037021935,0.21046561,-0.189694807,-0.311658382,0.009026178,-0.014643267,0.622613311,1.904098511
2.788045645,0.593290985,0.032519463,-0.804842889,0.200231895,-0.035267219,0.211728126,-0.190255046,-0.311107814,0.009205321,-0.012938535,0.622458518,1.905594707
2.793043137,0.577428699,0.028640263,-0.802416742,0.194685221,-0.043646555,0.213480294,-0.190686107,-0.310684234,0.009343158,-0.011247784,0.622248769,1.907134295
2.798042297,0.587521017,0.007697393,-0.808322966,0.189846456,-0.037023261,0.216305956,-0.190829039,-0.310543746,0.009388862,-0.009504053,0.622092724,1.908688307
2.803036451,0.595963359,-0.000333466,-0.815338194,0.177982345,-0.034869686,0.213543564,-0.191427663,-0.310220867,0.009777454,-0.007816264,0.62195766,1.910219193
2.808031559,0.578481138,0.006578997,-0.80761987,0.170901656,-0.027141515,0.20987168,-0.192118913,-0.309897184,0.010262695,-0.00624278,0.62180841,1.911742687
2.813026905,0.599053085,0.010429136,-0.812519848,0.163065493,-0.016290933,0.211041138,-0.19265078,-0.309648126,0.010636055,-0.004685698,0.621765316,1.9132303
2.818023443,0.572042882,0.021934438,-0.806194365,0.157353118,-0.014684103,0.212931305,-0.192827135,-0.309565574,0.010759855,-0.003196045,0.621671081,1.914772868
2.823027134,0.59084481,0.024272671,-0.812055588,0.155346289,-9.79E-05,0.218685478,-0.19296284,-0.309502006,0.01085511,-0.001678035,0.621693373,1.916320205
2.828026056,0.566302836,0.027969295,-0.80758357,0.154132068,0.006124656,0.224091202,-0.193611309,-0.309563756,0.011696963,-0.000174769,0.621689677,1.917935967
2.833019972,0.583980083,0.021643905,-0.818364918,0.150033012,0.018329566,0.22958374,-0.194110274,-0.309611261,0.012344711,0.00137324,0.621807814,1.919569016
2.838014364,0.57028389,0.005788967,-0.817938387,0.14603284,0.018505028,0.23416546,-0.194275722,-0.309627026,0.012559492,0.002919301,0.621857703,1.921251774
2.843009949,0.591597259,-0.025211364,-0.817459106,0.12818411,0.029975191,0.237366617,-0.194403023,-0.309639156,0.012724752,0.004478435,0.622055471,1.922926545
2.848006725,0.581092238,-0.023704834,-0.817522585,0.117755212,0.044181693,0.231553584,-0.194566116,-0.309149981,0.012749662,0.005920783,0.622244716,1.924599648
2.853004217,0.576762378,-0.025855483,-0.814348698,0.096180223,0.050431252,0.224441111,-0.194813848,-0.308274895,0.012738608,0.007240605,0.622506678,1.926208258
2.858003378,0.583179891,-0.025616968,-0.81605047,0.089441173,0.069932766,0.219129547,-0.194895983,-0.30798474,0.012734943,0.008507575,0.622843862,1.927795529
2.86299777,0.578695834,-0.033955608,-0.808244586,0.07273908,0.073021747,0.210009888,-0.194959179,-0.30776149,0.012732123,0.009674054,0.623226345,1.929307461
2.86799264,0.582425177,-0.037528157,-0.818008363,0.057586573,0.090963349,0.202261627,-0.194980145,-0.307687461,0.012731188,0.010743378,0.623659909,1.930805683
2.872988224,0.557999074,-0.047675859,-0.816843212,0.038942654,0.096970752,0.191968739,-0.195928961,-0.307682306,0.012499793,0.011699882,0.624093533,1.932283163
2.877985001,0.582946599,-0.054579977,-0.826706469,0.024413159,0.125315309,0.176479071,-0.196243569,-0.307680607,0.012423066,0.012545855,0.624707878,1.933630109
2.882982731,0.561614573,-0.047997162,-0.819938719,0.003092524,0.138246641,0.160705984,-0.196485639,-0.307679296,0.012364031,0.013191072,0.625355959,1.934895873
2.887981653,0.566295087,-0.028857309,-0.828909934,-0.003886809,0.157980666,0.151672661,-0.196565911,-0.307678878,0.012344455,0.013738333,0.626116633,1.936098099
2.892975569,0.589879036,-0.026791189,-0.834984958,-0.010861035,0.183303505,0.144502625,-0.197235525,-0.307261527,0.012148803,0.014236666,0.627001107,1.937253356
2.897970438,0.562195301,-0.013877327,-0.825396776,-0.020972073,0.192676127,0.143377617,-0.197607979,-0.307019949,0.01203924,0.014620675,0.627886474,1.93842566
2.902966499,0.563322425,-0.000793676,-0.822396696,-0.016355883,0.210572764,0.15019846,-0.197894558,-0.306834102,0.011954939,0.015075858,0.6289047,1.939632654
2.907963276,0.56517148,0.004376671,-0.820817173,-0.010093278,0.223691627,0.158679664,-0.197989583,-0.30677247,0.011926986,0.015585386,0.629972279,1.940889716
2.912961006,0.590924382,-0.001848238,-0.815816283,-0.011199985,0.243657202,0.171976939,-0.198349461,-0.306549072,0.011589331,0.016148668,0.631167412,1.9421978
2.917960167,0.559461534,-0.010802925,-0.80676204,-0.017661048,0.247421443,0.184252664,-0.198757946,-0.306297541,0.011158567,0.016741935,0.632341862,1.943649411
2.922954321,0.568761826,-0.006774251,-0.811507821,-0.011439844,0.263376892,0.199495092,-0.199072242,-0.306104004,0.010827124,0.017428951,0.63362056,1.945173144
2.927948952,0.571968317,-0.003759108,-0.814000249,-0.014522429,0.278318405,0.206597984,-0.199176461,-0.30603984,0.010717224,0.018116806,0.634978235,1.946740389
2.932944536,0.584363341,0.004368744,-0.83182478,-0.023819707,0.30298087,0.22106047,-0.199256659,-0.305990458,0.010632664,0.018799622,0.636458457,1.948393583
2.937941551,0.555453658,0.024200421,-0.830067158,-0.017846491,0.320237875,0.236974642,-0.199641347,-0.305411845,0.010136028,0.019502928,0.63792628,1.950209141
2.942939043,0.56073761,0.031856067,-0.839747071,-0.004227733,0.346711516,0.250365645,-0.199937329,-0.304966629,0.0097539,0.02036321,0.639567554,1.952110529
2.947937727,0.571813226,0.033884775,-0.847688854,-0.004208936,0.378011644,0.268664122,-0.200035468,-0.304819018,0.009627193,0.021282485,0.641374111,1.954109788
2.952931881,0.57085526,0.054705229,-0.852587998,0.002974178,0.410398453,0.288012028,-0.200110987,-0.304705441,0.009529701,0.022246806,0.643314898,1.956234097
2.957932472,0.564240873,0.05638269,-0.859501541,0.004429419,0.461359739,0.310602874,-0.200792149,-0.304544359,0.008975849,0.023346458,0.645495772,1.958563089
2.962928295,0.551660776,0.052033313,-0.85842371,0.009280557,0.506661832,0.329319775,-0.201979697,-0.304295659,0.008022352,0.024538644,0.647953272,1.961014986
2.967925072,0.562645137,0.055814255,-0.861754596,0.027581589,0.555213094,0.352742463,-0.202373475,-0.304213166,0.00770619,0.025937729,0.650579274,1.963643789
2.972922802,0.571753979,0.074480608,-0.86696136,0.046835471,0.611781359,0.374379873,-0.202676445,-0.304149717,0.007462926,0.027471278,0.653507113,1.966399074
2.977921724,0.553842843,0.06456852,-0.870833218,0.078401782,0.676501155,0.393173993,-0.202776909,-0.304128677,0.007382264,0.02929859,0.656718194,1.969340324
2.982915878,0.560665846,0.003975627,-0.88638556,0.070249751,0.744395912,0.411636829,-0.203794301,-0.30349502,0.006333933,0.031342622,0.660247505,1.97247839
2.987910509,0.567521989,0.003916214,-0.879624665,0.041039914,0.82591182,0.425176859,-0.204131648,-0.303284883,0.005986327,0.033229377,0.664205968,1.975712776
2.992906332,0.579172313,0.034303509,-0.875126839,0.067601204,0.9043383,0.425479174,-0.204391211,-0.303123236,0.005718867,0.035188172,0.668572307,1.978913426
2.997903347,0.563647032,-0.008796148,-0.874899447,0.073660277,0.997981787,0.430994987,-0.20447728,-0.303069651,0.005630183,0.037425414,0.673352122,1.982255697
3.002901316,0.575455129,-0.039146345,-0.874370575,0.04086791,1.097172022,0.433230817,-0.205612883,-0.301649153,0.003924954,0.039555039,0.678657353,1.985690355
3.007900238,0.58425045,0.006158676,-0.886102736,0.041624654,1.196611047,0.432904005,-0.20625405,-0.300836861,0.002954454,0.04157114,0.684444904,1.989158511
3.012894154,0.576553524,0.030964175,-0.888221383,0.102090612,1.28330791,0.431842268,-0.206747368,-0.300211817,0.00220772,0.043943897,0.690638065,1.992644429
3.017889261,0.562184095,-0.019704703,-0.900682807,0.122119509,1.382953525,0.428177059,-0.206910953,-0.300004572,0.001960117,0.046615452,0.697249711,1.996275783
3.022885084,0.581656694,-0.015017476,-0.902548969,0.139931217,1.493859887,0.427357584,-0.20772399,-0.299409628,0.000552407,0.049360178,0.704450369,1.999950051
3.027881622,0.589043081,0.015520795,-0.899506152,0.17730397,1.598992705,0.424965829,-0.208686531,-0.298773199,-0.001141778,0.052274324,0.712183475,2.00366497
3.032880068,0.592176259,0.004808337,-0.917678058,0.227232799,1.702403665,0.429375321,-0.209427133,-0.298283517,-0.002445339,0.055583928,0.720377445,2.007526636
3.03787899,0.580291212,-0.009512952,-0.925267339,0.27895388,1.819160223,0.435186177,-0.209672689,-0.298121154,-0.002877575,0.059328746,0.729108155,2.011600256
3.042873144,0.550369143,-0.006404374,-0.926123798,0.316766024,1.956894398,0.428699195,-0.209861636,-0.297996253,-0.003210151,0.063305087,0.738460064,2.015823841
3.047868013,0.572646737,-0.01732274,-0.924061298,0.352319092,2.1069839,0.423337549,-0.21103552,-0.296941936,-0.00617232,0.067570291,0.748601556,2.020129442
3.052863836,0.560628772,-0.022053557,-0.931454539,0.387699604,2.27606535,0.411764115,-0.211938739,-0.296130687,-0.008451507,0.07212472,0.759533584,2.024600267
3.057860613,0.56763196,-0.024909407,-0.953571081,0.429529816,2.453680038,0.391305298,-0.212238222,-0.295861721,-0.009207243,0.076936446,0.771320283,2.029140472
3.062858582,0.556755304,-0.016113684,-0.965238929,0.467160702,2.64089942,0.366844326,-0.212468669,-0.295654744,-0.009788729,0.081983648,0.784000039,2.033761263
3.067857504,0.55330044,0.00773533,-0.972652853,0.509327173,2.847150326,0.355153531,-0.213117823,-0.29501617,-0.012055081,0.087327674,0.797661304,2.038604259
3.072851419,0.56795615,0.034478929,-0.985329151,0.559452534,3.056486368,0.353323758,-0.214196444,-0.293948501,-0.015895559,0.093117312,0.812339187,2.043745756
3.077846527,0.555079818,0.05713623,-0.990358293,0.616203308,3.290145397,0.351077497,-0.214554086,-0.293594509,-0.017168988,0.099427722,0.828130484,2.049242973
3.08284235,0.543851018,0.066130951,-0.99707675,0.676261306,3.539147615,0.364831001,-0.214829266,-0.293322116,-0.018148806,0.106470726,0.845086515,2.055293798
3.087838888,0.565696239,0.065877073,-1.019133806,0.723768711,3.787433624,0.382707119,-0.214920506,-0.293231785,-0.018473694,0.11426723,0.863231361,2.06202054
3.092842817,0.530804813,0.086598009,-1.01130116,0.762460291,4.034099102,0.427934915,-0.215661675,-0.291525096,-0.025961284,0.122989617,0.882456839,2.06976819
3.097841978,0.507263958,0.110660039,-1.00943923,0.82287842,4.29512167,0.481133968,-0.21590744,-0.290959209,-0.028444026,0.13290827,0.902861416,2.07867384
3.102835894,0.539999783,0.100201659,-1.056714535,0.893738508,4.557202339,0.535622358,-0.216096535,-0.290523797,-0.030354328,0.144349799,0.924431801,2.088922977
3.107830763,0.52824074,0.106313795,-1.048048615,0.975799978,4.85554409,0.588383913,-0.216159225,-0.290379435,-0.030987749,0.157537311,0.947316051,2.100711346
3.112826586,0.516292751,0.139153227,-1.080066919,1.081764936,5.188654423,0.643165112,-0.215799421,-0.289568603,-0.037590317,0.172807723,0.97163707,2.11446166
3.117823601,0.579677224,0.1748375,-1.121180654,1.207621455,5.561350822,0.723899543,-0.215579152,-0.289126605,-0.041292828,0.190777287,0.997604966,2.130571604
3.122821093,0.532757282,0.266020119,-1.110140443,1.341380596,6.027411461,0.852555633,-0.215409666,-0.288786501,-0.044141661,0.212459773,1.025512576,2.150250435
3.127820253,0.441073775,0.365386099,-1.128647208,1.521137834,6.569622993,1.05247879,-0.215353459,-0.288673729,-0.04508628,0.239717141,1.055565,2.175367117
3.132814646,0.588869989,0.381240845,-1.173701525,1.746342659,7.07001543,1.243872404,-0.214538127,-0.287809163,-0.050792638,0.274224639,1.087481618,2.206974983
3.137809515,0.946406364,0.342025608,-1.32375133,1.932706833,7.436427593,1.414189696,-0.213489205,-0.286738187,-0.057706103,0.316805422,1.120337844,2.246110916
3.142805338,1.499357581,0.228230149,-1.536566734,2.016829729,7.502082825,1.5675143,-0.212682128,-0.285914123,-0.063025542,0.367745638,1.152263403,2.293429375
3.147802591,1.646377444,0.127528027,-1.480592728,2.026623964,7.389273167,1.705261588,-0.212414503,-0.285640895,-0.06478937,0.42704922,1.182029247,2.349014997
3.152800322,1.693026662,0.104801074,-1.525448322,2.04992938,7.270140171,1.885321259,-0.212208599,-0.28543064,-0.066146515,0.496697783,1.20931828,2.415246964
3.157799482,2.16191268,0.007719249,-1.740050793,2.011213541,7.010279655,2.007171154,-0.209682733,-0.283213109,-0.07699056,0.575713813,1.233161569,2.491341114
3.162793636,2.379722357,-0.050870072,-1.578248143,1.920163155,6.64741993,2.089344263,-0.207739264,-0.281506866,-0.085334323,0.662154496,1.253129601,2.574897051
3.167788744,2.40123558,0.158344418,-1.631423593,1.897819996,6.372529507,2.134833574,-0.207094833,-0.280941129,-0.088100947,0.755305529,1.269629717,2.66584444
3.172784567,2.550031424,0.152671531,-1.65776968,1.879772425,6.030653,2.192883968,-0.206598997,-0.280505806,-0.090229683,0.853405476,1.282176256,2.761588097
3.177781582,2.490417004,0.214700267,-1.600261092,1.922288299,5.682985783,2.196968794,-0.205372885,-0.27774629,-0.096580975,0.954109132,1.290774465,2.859812737
3.182779312,2.325429916,0.170256197,-1.54965663,1.943298459,5.383692265,2.246763706,-0.203355908,-0.272978663,-0.107176304,1.05569458,1.2956177,2.958613157
3.187778473,2.071895123,0.195366368,-1.544269085,1.998432994,5.085251331,2.232254982,-0.202687129,-0.271397799,-0.110689506,1.155026436,1.296912432,3.05482626
3.192772627,1.559262991,0.147845283,-1.383461475,1.923624277,4.871619701,2.190146685,-0.202172533,-0.270181417,-0.113392673,1.250753641,1.295557976,-3.135793686
3.197767496,0.96554625,0.095522113,-1.211263418,1.834574938,4.719210625,2.149283171,-0.202001899,-0.269778103,-0.114288993,1.342857599,1.291521788,-3.046811581
3.202763319,0.415437967,-0.052069101,-1.276537776,1.376487851,4.506529808,2.008752823,-0.202254251,-0.259145588,-0.12556228,1.425323963,1.285529017,-2.965187311
3.207760334,0.366093159,-0.279369026,-1.436869383,0.708788395,4.083776951,1.898152232,-0.202337921,-0.255620033,-0.129300296,1.491553187,1.277834415,-2.895945311
3.212758303,0.809974611,-0.352985233,-1.493990541,0.282567114,3.594870567,1.72124064,-0.202402294,-0.252907366,-0.132176444,1.54319334,1.269921303,-2.839547634
3.217757463,1.804595113,-0.55451256,-1.900075197,-0.208319724,3.146570921,1.477597117,-0.202423647,-0.252007902,-0.133130118,1.581064224,1.262787104,-2.794087648
3.222751379,1.944714427,-0.096075848,-2.17257309,-0.817732036,2.422558308,1.292264581,-0.203502521,-0.241767406,-0.14347586,1.600780487,1.257349133,-2.762886763
3.227752209,1.033167601,0.432899058,-1.781499743,-1.126916051,1.779090643,1.217780828,-0.204123154,-0.236009061,-0.14928481,1.610401273,1.252498746,-2.74173975
3.23274827,0.411909342,0.640935421,-1.355537653,-1.051146388,1.450814009,1.185320735,-0.204600692,-0.23157841,-0.153754413,1.618656397,1.247575402,-2.72388792
3.237744808,0.359856784,0.679066837,-1.25525713,-0.805576801,1.216773152,1.128232718,-0.204759046,-0.230109289,-0.155236453,1.625630736,1.242955446,-2.709048271
3.242742777,0.480700344,0.634924889,-1.304363012,-0.610392511,0.898512006,1.024239063,-0.205640242,-0.222544879,-0.16211009,1.628228545,1.238978744,-2.699567556
3.247741699,0.533260822,0.51275593,-1.310988188,-0.548550904,0.553030312,0.886531293,-0.206698164,-0.213548645,-0.17017068,1.625846624,1.235628366,-2.695595503
3.252735853,0.500351429,0.417944908,-1.282632232,-0.589420378,0.215664938,0.718408644,-0.207512155,-0.206626639,-0.176372766,1.618674636,1.233045936,-2.696526289
3.257730484,0.39994964,0.408504725,-1.227565169,-0.680873334,-0.116668977,0.523698926,-0.20778206,-0.204331443,-0.178429261,1.60678339,1.231475472,-2.702068806
3.262727022,0.276872933,0.434350818,-1.155771255,-0.778015018,-0.425064594,0.302596718,-0.207989737,-0.202565432,-0.180011585,1.590540648,1.231010795,-2.711825371
3.267723799,0.184942424,0.44422394,-1.086948872,-0.862522542,-0.688030422,0.062712923,-0.21105206,-0.191204026,-0.187919483,1.570614457,1.231679797,-2.725090504
3.272721767,0.129338682,0.449663043,-1.028583646,-0.908841372,-0.906575143,-0.170230046,-0.213408291,-0.182462201,-0.194004059,1.547606587,1.233379364,-2.741518736
3.27772069,0.087508932,0.462064743,-0.976250648,-0.915277123,-1.090974331,-0.388505876,-0.214189589,-0.179563582,-0.196021587,1.52191031,1.235983729,-2.760876179
3.282714844,0.054765113,0.467088699,-0.926446378,-0.881330073,-1.249389291,-0.58920753,-0.214790732,-0.17733328,-0.197573945,1.493869305,1.239326239,-2.783014536
3.28771019,0.041951098,0.462489992,-0.890032768,-0.811493695,-1.393817067,-0.777394354,-0.217079729,-0.171325028,-0.20133169,1.46350801,1.243290901,-2.80795145
3.292706251,0.065022275,0.439114124,-0.873699009,-0.725203931,-1.540045738,-0.944975197,-0.220953941,-0.161374584,-0.207502231,1.430542707,1.247683287,-2.836089373
3.297703266,0.116982579,0.411854565,-0.867497921,-0.631784379,-1.702453971,-1.092062712,-0.222238556,-0.158075199,-0.209548265,1.394411802,1.2523067,-2.868022203
3.302701235,0.186851069,0.311106384,-0.917099118,-0.527044773,-1.906092286,-1.22991538,-0.223226979,-0.155536547,-0.211122543,1.354144812,1.256844759,-2.904772282
3.307700396,0.151697531,0.32926023,-0.837267101,-0.482716084,-2.093962193,-1.371646285,-0.223554716,-0.154694781,-0.211644545,1.309709072,1.261361957,-2.946215153
3.312694788,0.178209797,0.286555916,-0.849361718,-0.422524571,-2.213392496,-1.472755909,-0.229649678,-0.145533711,-0.217453271,1.262531757,1.26556313,-2.990704536
3.317689657,0.279149175,0.246554449,-0.881819546,-0.360491097,-2.408476353,-1.552998662,-0.231670663,-0.142496079,-0.219379336,1.210918665,1.2689991,-3.040051222
3.322685957,0.295338959,0.203757629,-0.879491746,-0.307362437,-2.609390736,-1.647182226,-0.233225659,-0.140158832,-0.220861316,1.15492022,1.2716012,-3.094293833
3.327682972,0.311253101,0.142680079,-0.878518522,-0.285523355,-2.794187307,-1.727302313,-0.233741269,-0.139383838,-0.221352711,1.095185041,1.273114562,3.130604029
3.332681179,0.350505471,0.097768009,-0.878897071,-0.289101422,-2.970193863,-1.788593531,-0.239973933,-0.133915037,-0.224112391,1.032244802,1.273323774,3.069046021
3.33768034,0.394185871,0.058588188,-0.879053831,-0.304150701,-3.152076483,-1.838487864,-0.243484691,-0.130895957,-0.225616798,0.966655672,1.272007585,3.004749298
3.342675209,0.427473933,0.022826502,-0.870113909,-0.335142046,-3.33212471,-1.88264215,-0.246185973,-0.128572986,-0.22677432,0.899291039,1.269019127,2.938643932
3.347670317,0.460248232,-0.000570855,-0.857597411,-0.379209369,-3.500146627,-1.911367536,-0.247081682,-0.12780273,-0.227158144,0.831241608,1.264237046,2.871911287
3.352666378,0.482539296,-0.01505283,-0.843212664,-0.421724588,-3.653733969,-1.923141718,-0.25327453,-0.125028521,-0.227904156,0.763810515,1.257574797,2.80590415
3.357663155,0.506965697,-0.026261579,-0.832284391,-0.45980975,-3.798236609,-1.921644211,-0.260877877,-0.121908769,-0.228606001,0.698043108,1.249039292,2.741651535
3.362667322,0.532540143,-0.032241497,-0.819831192,-0.490051478,-3.932952404,-1.903969407,-0.266728103,-0.119508341,-0.229146019,0.635011613,1.238639593,2.680171728
3.367666721,0.566265583,-0.038181249,-0.807489097,-0.511712313,-4.061945438,-1.866256237,-0.268667936,-0.118712403,-0.229325071,0.575518072,1.226406455,2.622243643
3.372660875,0.605192423,-0.046362977,-0.798230052,-0.525627792,-4.186745644,-1.81529665,-0.270160496,-0.11809998,-0.229462847,0.520120442,1.21242249,2.56840539
3.377655983,0.651671052,-0.067949079,-0.79356432,-0.544673204,-4.314486027,-1.755815744,-0.285739183,-0.113260701,-0.227016017,0.469061196,1.196764708,2.518948793
3.382651806,0.703073263,-0.099363856,-0.789829612,-0.578864038,-4.438937187,-1.684754968,-0.297725946,-0.109537199,-0.225133345,0.4224208,1.179549336,2.474009991
3.387649059,0.751746178,-0.127740845,-0.789217114,-0.630299866,-4.564352989,-1.616061568,-0.301700532,-0.108302563,-0.22450909,0.37987107,1.160902262,2.433356762
3.392647028,0.794276834,-0.159206942,-0.788693726,-0.700930953,-4.6804986,-1.549996495,-0.304758698,-0.107352592,-0.224028751,0.341122746,1.140973568,2.396818161
3.397646189,0.833642364,-0.196865559,-0.791599929,-0.786710739,-4.785881042,-1.493424296,-0.318084985,-0.104243547,-0.218972683,0.305784166,1.119939327,2.364070177
3.402640343,0.870854616,-0.229207799,-0.792573392,-0.891875088,-4.881145,-1.450286865,-0.340788305,-0.099026144,-0.210130975,0.273341417,1.097958684,2.334683418
3.407635689,0.90014571,-0.246833965,-0.791287661,-1.005007982,-4.967514515,-1.421433449,-0.348316282,-0.097296149,-0.207199231,0.243278965,1.075176239,2.308206558
3.41263175,0.917817593,-0.253468305,-0.787381887,-1.115321875,-5.037276745,-1.401479721,-0.354108542,-0.095965028,-0.204943448,0.21530892,1.051733375,2.284322739
3.417629004,0.932533383,-0.248514563,-0.782494724,-1.214246273,-5.083841324,-1.392632842,-0.356029153,-0.095523655,-0.20419547,0.189143181,1.027808189,2.262687206
3.422627211,0.943973362,-0.233574241,-0.778124511,-1.288440704,-5.117043972,-1.393977046,-0.391031414,-0.088093936,-0.178547278,0.164599448,1.003519416,2.243000746
3.42762661,0.955586255,-0.211325258,-0.77344352,-1.338685155,-5.13709259,-1.396613836,-0.402637511,-0.085630387,-0.170042828,0.141593546,0.97894752,2.225093603
3.432620764,0.968718946,-0.190295443,-0.772198319,-1.363054872,-5.139766216,-1.407976031,-0.411567599,-0.083734848,-0.163499221,0.120015845,0.954214573,2.208706141
3.437615871,0.987870812,-0.165626541,-0.777867258,-1.358127117,-5.133718014,-1.425425768,-0.414528638,-0.083106324,-0.161329493,0.09979865,0.929395854,2.193627834
3.442611933,1.010747313,-0.14610666,-0.787605405,-1.334921718,-5.119406223,-1.448870301,-0.43892324,-0.07908994,-0.131072745,0.080881447,0.904539526,2.179593563
3.447609186,1.042542577,-0.139874578,-0.808565974,-1.291795969,-5.098635674,-1.479614615,-0.452484757,-0.076883987,-0.113966182,0.06320934,0.879700303,2.166520596
3.452606916,1.079335332,-0.1444702,-0.838703692,-1.246843815,-5.080945969,-1.51659596,-0.462919474,-0.075186647,-0.100803845,0.046673816,0.854860604,2.154273748
3.457606316,1.111925125,-0.153442323,-0.866057158,-1.207265854,-5.065246582,-1.557384133,-0.466379404,-0.074623846,-0.096439466,0.031115109,0.830020189,2.142717123
3.462600708,1.150328755,-0.164945498,-0.897133231,-1.179020762,-5.055818081,-1.60395968,-0.476406872,-0.074979983,-0.074651785,0.016384415,0.805177867,2.131594419
3.467595816,1.177374363,-0.174880713,-0.921828747,-1.164698362,-5.046970367,-1.647058964,-0.487158924,-0.075893871,-0.048843093,0.002351818,0.780318558,2.12093854
3.472591877,1.206527472,-0.186034247,-0.947243631,-1.159718871,-5.035645962,-1.688999653,-0.4954319,-0.076597042,-0.028985061,-0.011075481,0.755463481,2.110753775
3.47758913,1.23514235,-0.195767865,-0.971540213,-1.16175437,-5.024930477,-1.729207397,-0.498175055,-0.076830208,-0.022400513,-0.023956556,0.730627418,2.101012945
3.482587337,1.261032104,-0.201972723,-0.997994661,-1.170847654,-5.016986847,-1.762007833,-0.500285745,-0.077009611,-0.017334152,-0.036348265,0.70579052,2.091657877
3.487586498,1.281988859,-0.213776127,-1.022541761,-1.188864112,-5.006024361,-1.794579148,-0.503710926,-0.082166575,0.016689137,-0.048337758,0.680970073,2.082501411
3.492580891,1.29852879,-0.224282488,-1.044808149,-1.207376242,-4.994236946,-1.824943066,-0.506346405,-0.086134508,0.042867746,-0.059931636,0.656181097,2.073728323
3.497582436,1.308766723,-0.228947252,-1.063649058,-1.224119902,-4.970680714,-1.857709885,-0.507220268,-0.087450199,0.051548075,-0.071206093,0.631469607,2.065277815
3.502579212,1.331241608,-0.220049709,-1.083289623,-1.23227334,-4.940234661,-1.88266921,-0.507892668,-0.088462532,0.058226999,-0.082129925,0.606907904,2.057141304
3.507575989,1.365843534,-0.201487377,-1.093345523,-1.22089982,-4.90916729,-1.903619528,-0.504766226,-0.092817895,0.076621458,-0.092640199,0.582532167,2.049051762
3.512574196,1.402708292,-0.170736939,-1.101996899,-1.187948942,-4.883182526,-1.916526318,-0.498973876,-0.100233585,0.107135102,-0.102648139,0.558309078,2.041204691
3.517573595,1.441834092,-0.136736616,-1.102305532,-1.123256326,-4.866125584,-1.920449853,-0.497053206,-0.102692485,0.117252849,-0.111999914,0.53421706,2.033659935
3.522568226,1.481655359,-0.099986374,-1.098047018,-1.032773018,-4.845824718,-1.906380773,-0.495575398,-0.104584448,0.125037774,-0.120534569,0.510298133,2.026496887
3.527563334,1.532726407,-0.075196058,-1.086601734,-0.920882404,-4.829976559,-1.870315433,-0.495085388,-0.105211787,0.127619103,-0.128114238,0.48657009,2.019641161
3.532559395,1.581403136,-0.080997705,-1.074019194,-0.809205592,-4.812681675,-1.824717283,-0.480156571,-0.117168382,0.162371114,-0.134690076,0.463063061,2.013062239
3.53755641,1.62621057,-0.113560677,-1.058166146,-0.719339788,-4.792184353,-1.769741774,-0.475206435,-0.121132962,0.173894212,-0.14036034,0.439805686,2.006946564
3.542554617,1.668704987,-0.158358246,-1.048654556,-0.66064775,-4.768170357,-1.704897285,-0.471397638,-0.124183439,0.182760462,-0.14531976,0.416822106,2.001274109
3.547553778,1.714330077,-0.213191018,-1.042961955,-0.66331774,-4.749439716,-1.622841477,-0.470134705,-0.125194922,0.185700342,-0.149836823,0.394106805,1.996131778
3.552548409,1.761714697,-0.254754871,-1.018026114,-0.730345011,-4.739842415,-1.513485551,-0.454199672,-0.133890718,0.210422844,-0.154322922,0.371652901,1.991302609
3.557543516,1.768751621,-0.295814931,-0.985003591,-0.853333473,-4.724424839,-1.378558636,-0.445213199,-0.138733298,0.22417827,-0.158993989,0.34942466,1.987309933
3.562539577,1.762984276,-0.328458309,-0.920652151,-1.026841521,-4.6883564,-1.23159945,-0.438298732,-0.142459333,0.234762117,-0.164171711,0.327562571,1.984195113
3.567536592,1.778598785,-0.344560027,-0.824811637,-1.21988523,-4.641916275,-1.074628711,-0.43600601,-0.143694818,0.23827152,-0.170030087,0.306198299,1.981900454
3.5725348,1.798103809,-0.328505337,-0.700349271,-1.402301669,-4.576237202,-0.904981077,-0.42506206,-0.148486942,0.250908285,-0.176567703,0.285435855,1.980328679
3.577534199,1.808437824,-0.313294083,-0.567897975,-1.550765038,-4.475135326,-0.719691992,-0.412176281,-0.153949678,0.265118361,-0.183615088,0.265461385,1.979596257
3.582529068,1.799756646,-0.325793415,-0.437772751,-1.671481967,-4.339281082,-0.539111316,-0.402261555,-0.158152878,0.276052028,-0.191019267,0.246412411,1.979788184
3.587524176,1.772320628,-0.369798332,-0.305153102,-1.780273318,-4.154099464,-0.375016183,-0.398974001,-0.159546569,0.279677421,-0.198730648,0.228492498,1.980770469
3.592520237,1.725650668,-0.442777514,-0.184824765,-1.893615603,-3.911813498,-0.230023429,-0.39644447,-0.160618946,0.282466918,-0.206826314,0.211950094,1.982337117
3.597517252,1.684017181,-0.530449569,-0.080328263,-2.020530462,-3.625977516,-0.11014042,-0.379582167,-0.167328924,0.295351326,-0.21540238,0.196978062,1.984131813
3.602515459,1.680021644,-0.600693583,0.025009027,-2.161665678,-3.337336302,-0.016058961,-0.366607785,-0.172491804,0.30526498,-0.224624738,0.183621913,1.986140251
3.60751462,1.696295381,-0.643585086,0.140650347,-2.291060448,-3.050729036,0.049197897,-0.362305731,-0.174203709,0.308552176,-0.234528065,0.171851009,1.988206029
3.612509012,1.733899713,-0.64275676,0.265711397,-2.376329899,-2.77794528,0.117156737,-0.358995587,-0.175520927,0.311081439,-0.244942665,0.161611468,1.990324259
3.617503881,1.793320417,-0.62345767,0.381929576,-2.389036179,-2.514380455,0.177684143,-0.35056594,-0.179231927,0.316797137,-0.255503446,0.152895495,1.992300868
3.622500181,1.857973099,-0.611386836,0.486070037,-2.319449186,-2.254301548,0.23563014,-0.336666048,-0.185398072,0.326126426,-0.265740007,0.145695284,1.994171619
3.627497196,1.912631392,-0.595824957,0.592260182,-2.182481527,-1.992635727,0.291844994,-0.332057118,-0.187442645,0.329219848,-0.275365621,0.139972031,1.996019006
3.632501602,1.945255756,-0.585408568,0.695461392,-1.974437475,-1.732828021,0.335298687,-0.328510851,-0.189015791,0.33160004,-0.283997834,0.135662436,1.997732043
3.637501001,1.955359578,-0.568125784,0.782993972,-1.699635267,-1.465902328,0.364936978,-0.32733497,-0.189537421,0.332389235,-0.291312039,0.132746547,1.999187112
3.642495394,1.953394055,-0.53728497,0.848130941,-1.369689107,-1.190617561,0.382704109,-0.314106703,-0.198600754,0.335723191,-0.29707402,0.131202042,2.000274897
3.647490501,1.924834371,-0.491214544,0.894413233,-0.988573909,-0.902461171,0.396817327,-0.309720457,-0.201605976,0.336828679,-0.301054776,0.131031871,2.001083374
3.652486801,1.895958066,-0.430493653,0.906961977,-0.573560238,-0.6064381,0.423683465,-0.306345522,-0.203918293,0.337679267,-0.303069919,0.132296503,2.001667976
3.657484531,1.883039474,-0.37125355,0.891640067,-0.157101482,-0.321775049,0.465659231,-0.305226475,-0.204685003,0.337961316,-0.303077996,0.134978354,2.002055883
3.662482738,1.867714524,-0.306108505,0.866451085,0.234594136,-0.044764567,0.524861693,-0.300564528,-0.208032653,0.339449465,-0.301229298,0.13903819,2.002302408
3.667482138,1.844987392,-0.239701882,0.811327279,0.591332138,0.230246902,0.590255737,-0.29807815,-0.209825069,0.340257436,-0.297686845,0.144461602,2.002509594
3.67247653,0.983771086,-0.223860383,0.197642446,0.59776783,0.643957019,0.757516623,-0.296165049,-0.211204216,0.340879142,-0.293305039,0.150368407,2.004192591
3.677471638,0.588008285,-0.36561361,0.817087829,0.378340662,1.81695199,0.983649075,-0.295530707,-0.211661518,0.341085285,-0.292447865,0.160836577,2.007590055
3.682467937,2.665307999,-0.711913645,1.303047538,0.966262043,2.578613997,1.253148794,-0.295410365,-0.210296556,0.341817737,-0.285816938,0.182884142,2.003864527
3.687464952,0.705874443,0.24307397,1.357380748,1.286387563,2.53944087,1.27476573,-0.29574132,-0.208112717,0.342639267,-0.279678881,0.197747335,2.006968975
3.692463398,-0.559103191,0.872886002,1.120704293,1.640904784,3.128954411,1.145199299,-0.295995951,-0.206432402,0.343271375,-0.273877829,0.21289748,2.011383533
3.697462797,0.489520311,0.576792598,-0.001264021,2.166438341,3.794155359,1.01191926,-0.296080381,-0.205875248,0.343480974,-0.263139457,0.234021112,2.010917187
3.70245719,0.875480831,0.306742936,-1.099800944,2.0449965,4.090124607,0.83657378,-0.29614535,-0.205446541,0.343642235,-0.25278762,0.256526291,2.009074211
3.707452297,0.710234165,0.600740552,-1.801033258,2.227057219,4.101455688,0.556123793,-0.306161493,-0.196967453,0.338681281,-0.242951348,0.277292728,2.007270336
3.712448835,0.742168307,1.019237041,-2.088424206,2.557645082,3.896927834,0.432003081,-0.313868225,-0.190443367,0.334864169,-0.231483892,0.296753556,2.005380154
3.717446089,0.294060737,0.913612068,-1.990984917,2.261542082,3.998174667,0.459338874,-0.316423655,-0.188280106,0.333598495,-0.22198157,0.315608203,2.005089283
3.722444296,0.750589728,0.192938283,-1.728196144,2.657699585,4.30194664,0.424151868,-0.318389893,-0.186615616,0.332624644,-0.20869112,0.337842375,2.002329111
3.727443695,0.620788455,-0.721813321,-1.494613767,2.444796801,4.698800087,0.552644849,-0.326840341,-0.180173263,0.32820338,-0.195081562,0.361776888,2.000615835
3.732438326,0.819992423,-1.244210839,-1.380632997,2.04878974,5.210989475,0.719709396,-0.341227889,-0.169260159,0.320657462,-0.182232797,0.389043808,1.999179959
