Time,inertial-6253.76535:scaledAccelX,inertial-6253.76535:scaledAccelY,inertial-6253.76535:scaledAccelZ,inertial-6253.76535:scaledGyroX,inertial-6253.76535:scaledGyroY,inertial-6253.76535:scaledGyroZ,inertial-6253.76535:scaledMagX,inertial-6253.76535:scaledMagY,inertial-6253.76535:scaledMagZ,inertial-6253.76535:roll,inertial-6253.76535:pitch,inertial-6253.76535:yaw
0,0.471265823,0.384558111,-0.79606986,-0.000472127,-0.001777441,0.007708353,0.098442718,-0.232648894,0.373075038,-0.433330178,0.490808725,0.182048902
0.0049984,0.471557468,0.384297371,-0.795267522,0.000806845,-0.002495409,0.006126555,0.09835089,-0.232687175,0.372956187,-0.433333516,0.490811616,0.182047054
0.009997568,0.471084267,0.384647101,-0.795490026,0.001898919,-0.000926104,0.005431541,0.098320439,-0.232699871,0.372916788,-0.433338702,0.490817428,0.182039574
0.01499776,0.471931994,0.386202157,-0.794067204,0.000918202,-0.002878303,0.005325767,0.098297015,-0.232709631,0.372886449,-0.43334651,0.49081555,0.182033718
0.01999872,0.472260475,0.38615492,-0.793916464,0.001949653,-0.002139389,0.007419372,0.098289244,-0.232712865,0.372876406,-0.433347225,0.490819842,0.182030454
0.025001217,0.471871734,0.38541913,-0.794834316,0.002115957,-0.001556485,0.005429551,0.098281913,-0.232646585,0.37301603,-0.433357686,0.490825981,0.182021707
0.029998591,0.469938219,0.385766208,-0.794444084,0.001971848,-0.000749733,0.006949911,0.098279484,-0.23262462,0.373062313,-0.433350384,0.490830362,0.182023108
0.03499648,0.469794452,0.386636406,-0.795121253,0.003214798,-0.001153377,0.007254913,0.098277614,-0.232607707,0.373097956,-0.433349133,0.490837842,0.182017207
0.039996158,0.472313583,0.385416776,-0.794604123,0.004909321,-0.002171025,0.005486771,0.098276995,-0.23260209,0.373109758,-0.433340818,0.49084574,0.18201296
0.045002241,0.473877907,0.385610223,-0.794908345,0.002889352,-0.000554285,0.006238727,0.098761201,-0.232709587,0.372999221,-0.433344543,0.490850449,0.18200247
0.050003458,0.473425776,0.384715348,-0.795502424,0.003451905,-0.001812236,0.006256974,0.099041693,-0.232772902,0.372932971,-0.433330923,0.490862519,0.182010174
0.055005696,0.471130252,0.385722756,-0.794920444,0.003373727,-0.001626989,0.00590809,0.099257514,-0.232821628,0.372882009,-0.4333269,0.490869373,0.182002753
0.060003329,0.469573885,0.385030121,-0.795943618,0.003029851,-0.001443154,0.006319011,0.099329077,-0.232837796,0.372865111,-0.433322579,0.490872145,0.182001308
0.065001473,0.469959825,0.383853525,-0.794216752,0.004371979,-0.002566934,0.007127812,0.099109158,-0.232787579,0.372825086,-0.433316916,0.490875363,0.182001457
0.070000641,0.470100433,0.38455683,-0.793731987,0.003059115,-0.00191975,0.006097882,0.098806515,-0.232723579,0.372085482,-0.433315992,0.490886837,0.182005301
0.075000577,0.469665974,0.385715663,-0.795659363,0.004291921,-9.27E-05,0.005276701,0.098573655,-0.232674316,0.371516407,-0.433310777,0.490883291,0.181995094
0.0800023,0.471757472,0.384160191,-0.795536578,0.003877953,-0.001363406,0.007127805,0.098496445,-0.232657984,0.371327728,-0.433302194,0.490890414,0.182012141
0.085004546,0.47125113,0.383722305,-0.794730544,0.003130368,-0.001906591,0.007370275,0.098437034,-0.232645422,0.371182531,-0.43329218,0.490899593,0.182024047
0.090002179,0.471107662,0.382645041,-0.79368645,0.003344167,-0.003031612,0.007955548,0.098418854,-0.232791424,0.371357977,-0.433276176,0.490900218,0.182051986
0.095000319,0.471846074,0.38498795,-0.793966711,0.001567577,-0.003565945,0.008301904,0.098404862,-0.232903779,0.371492982,-0.433271468,0.490903825,0.182065651
0.099999487,0.470633119,0.3843714,-0.794615328,0.004430936,-0.003508766,0.007257427,0.09840022,-0.232941031,0.371537745,-0.433255374,0.490902424,0.182078257
0.104999423,0.472210288,0.384503752,-0.794294119,0.002748596,-0.002982592,0.006458784,0.098396651,-0.232969686,0.371572196,-0.433248848,0.490906864,0.182087168
0.11000064,0.470561475,0.384385854,-0.794372678,0.004344113,-0.000978169,0.007904332,0.098395839,-0.233035371,0.371741802,-0.433237612,0.490917057,0.182098478
0.115002878,0.470558792,0.384704858,-0.794869184,0.005055444,-0.003117733,0.007844197,0.098395586,-0.233142719,0.372032195,-0.433226049,0.490914643,0.182105094
0.120000258,0.470630318,0.384712547,-0.795167744,0.003459855,-0.00444946,0.006952588,0.098395504,-0.233178303,0.372128487,-0.433216304,0.490905255,0.182119757
0.124998659,0.470338225,0.384201705,-0.795929253,0.006979347,-0.002102621,0.006664904,0.098395437,-0.233205706,0.372202575,-0.433194131,0.490910977,0.182122216
0.12999782,0.471817017,0.385855675,-0.795782149,0.003934768,-0.002767917,0.009300097,0.098395415,-0.233214781,0.372227132,-0.433178872,0.490916014,0.182143494
0.134998009,0.470418483,0.384243011,-0.795495749,0.00381699,-0.002412181,0.007479751,0.098461285,-0.2332284,0.371655047,-0.433165967,0.490909696,0.182157844
0.139998972,0.471529633,0.383475482,-0.797798038,0.003775845,-0.00328203,0.008502112,0.09848313,-0.233232915,0.371465355,-0.433148086,0.490913182,0.182189643
0.145001218,0.472382575,0.384497344,-0.795217454,0.002690828,-0.002802533,0.006143406,0.098499931,-0.233236402,0.371319383,-0.433146,0.490914017,0.182198033
0.14999859,0.471089125,0.384420604,-0.7945925,0.003076506,-0.001686962,0.006678826,0.098505504,-0.23323755,0.371270984,-0.43313694,0.490925044,0.182203323
0.154996738,0.473261803,0.384879887,-0.794157743,0.002464416,-0.001795549,0.005570664,0.098602578,-0.233033821,0.371618003,-0.433147222,0.490930557,0.182193145
0.159995899,0.471809417,0.385585517,-0.795896351,0.002692792,-0.00157336,0.006036632,0.09865772,-0.23291564,0.371828139,-0.433140516,0.490931749,0.182191804
0.164996609,0.472308129,0.385337323,-0.794984162,0.002503156,-0.000892292,0.006685518,0.098700151,-0.232824698,0.371989846,-0.433138967,0.490944386,0.182190284
0.169997573,0.472037017,0.385763317,-0.794771612,0.005002709,-0.00168206,0.006494611,0.098714218,-0.232794553,0.372043461,-0.433125436,0.490948409,0.182189509
0.174999803,0.472060323,0.386271685,-0.796006143,0.00347778,-0.001592944,0.008075217,0.098589897,-0.232885659,0.371899605,-0.43311888,0.490953565,0.182200342
0.180003077,0.469321907,0.387325943,-0.794629097,0.003588938,-0.001877245,0.00799271,0.098412395,-0.233031139,0.371665239,-0.43312192,0.490955532,0.182198837
0.185001478,0.470563889,0.384870023,-0.79426688,0.004146066,-0.001558198,0.007171456,0.098275818,-0.233143076,0.371484905,-0.433106989,0.490965486,0.182210505
0.190000638,0.470524371,0.384586573,-0.794876754,0.002778472,-0.000571426,0.00728064,0.098230526,-0.233180195,0.371425092,-0.433105469,0.490974486,0.182220712
0.195000574,0.469828576,0.38452974,-0.795510471,0.003935647,-0.001163983,0.008123154,0.098195679,-0.233208746,0.371379077,-0.433094919,0.490980208,0.182231292
0.200001791,0.471053332,0.385139495,-0.796266198,0.002484742,-0.000853838,0.008337279,0.09822949,-0.233015716,0.371416122,-0.433084249,0.490991443,0.182243451
0.20500429,0.472219616,0.384825051,-0.794029295,0.002911747,-0.001242536,0.007252992,0.0982555,-0.232867196,0.371444643,-0.433084249,0.491003811,0.182251573
0.210002169,0.471347928,0.383448213,-0.795187414,0.00198932,0.000630399,0.007853679,0.098264121,-0.232817948,0.37145409,-0.433077604,0.491022527,0.182258472
0.215000317,0.471541464,0.38460356,-0.796153128,0.001871403,-0.000232043,0.006907494,0.098270752,-0.232780054,0.371461332,-0.433074564,0.491035372,0.182266086
0.219999492,0.471215129,0.384656101,-0.79599309,-0.000397473,0.000454317,0.006162115,0.098328725,-0.23285383,0.371589661,-0.433086574,0.491045952,0.182260573
0.224999681,0.472524226,0.385035187,-0.795367599,0.001396649,-0.001340072,0.007930187,0.098429732,-0.232997894,0.371815741,-0.433090895,0.491055995,0.182268262
0.230000898,0.471040875,0.384997696,-0.797460616,0.000652452,-0.001494843,0.00563976,0.098463222,-0.233045667,0.371890724,-0.433096647,0.491056412,0.182269379
0.235003129,0.472008288,0.386555493,-0.794978857,-0.000250804,-0.001989785,0.007438585,0.098488994,-0.233082429,0.371948391,-0.43310076,0.49106288,0.18227011
0.240000516,0.471656591,0.38513127,-0.794372499,0.002722886,-0.001733463,0.006674755,0.09849754,-0.233094618,0.371967524,-0.433098793,0.491065413,0.182273611
0.244998395,0.469645768,0.3862831,-0.79482007,0.00343764,-0.002068092,0.007782906,0.098180041,-0.232895523,0.371986181,-0.433092475,0.491069347,0.182275072
0.249997824,0.471193314,0.386163861,-0.793832719,0.005282387,-0.002979537,0.00661992,0.098074764,-0.232829511,0.371992379,-0.433077216,0.491074324,0.182276428
0.254998028,0.471614897,0.38575843,-0.795159638,0.004461399,-0.002064289,0.007798774,0.097993761,-0.232778728,0.371997118,-0.433067232,0.491077423,0.182284892
0.259999245,0.471200287,0.385515422,-0.794830739,0.003820855,-0.001995678,0.007078885,0.097966902,-0.23276189,0.371998698,-0.43306163,0.491085738,0.182281151
0.265001476,0.470652908,0.38499552,-0.795073867,0.00395949,-0.00197487,0.007626988,0.098091595,-0.232752755,0.371886164,-0.433048636,0.491091251,0.182288885
0.269998848,0.471127599,0.385605246,-0.794935286,0.004736529,-0.001698668,0.007200624,0.09816891,-0.232750684,0.371820718,-0.433039129,0.491094798,0.182290241
0.274996996,0.471278369,0.384293914,-0.795132279,0.004979666,-0.001781364,0.007968136,0.098228395,-0.232749075,0.371770352,-0.433016121,0.491099566,0.182306334
0.279995918,0.471768498,0.385026366,-0.794121087,0.003437432,-0.002123337,0.009027046,0.098248117,-0.232748538,0.371753663,-0.433002114,0.491111845,0.182324275
0.284996092,0.470857024,0.383494407,-0.794852018,0.00526185,-0.001950655,0.007439099,0.098372862,-0.232749388,0.371833235,-0.432982355,0.491113722,0.182335615
0.289997309,0.470750511,0.383218169,-0.79554373,0.003120444,-0.000627199,0.007164646,0.098524712,-0.232750937,0.371952772,-0.432976395,0.491130769,0.182338119
0.294999808,0.470788956,0.383960307,-0.795794964,0.004776871,-0.001832026,0.007599196,0.098641545,-0.232752129,0.372044772,-0.43295908,0.491133779,0.182348818
0.299997181,0.471994162,0.384379894,-0.794526637,0.00466192,-0.000475891,0.007434667,0.098680288,-0.232752517,0.37207526,-0.432948261,0.491150618,0.182344109
0.304995328,0.472762674,0.383942246,-0.793221951,0.004242762,-0.001029945,0.008322373,0.098710097,-0.23275283,0.372098744,-0.432931811,0.491158307,0.182352483
0.309994251,0.470931649,0.384387583,-0.793279707,0.003895276,-0.000427118,0.006733357,0.098431915,-0.232850805,0.37189129,-0.432926863,0.491166383,0.182355911
0.315000325,0.470957935,0.386676162,-0.793469071,0.004058026,-0.000731764,0.006653143,0.098217875,-0.23292619,0.371731669,-0.4329274,0.49117437,0.182344124
0.320001274,0.471042812,0.386907667,-0.7958951,0.004317299,-0.001909549,0.006529625,0.098146908,-0.232951194,0.37167877,-0.432918608,0.491176873,0.182349414
0.325003773,0.471240461,0.385420144,-0.79741329,0.0031228,-0.001182019,0.007137557,0.098092295,-0.232970431,0.37163806,-0.432914525,0.491177678,0.182359338
0.330001146,0.471681595,0.385004669,-0.796668649,0.004124075,-0.000706037,0.00874433,0.098130174,-0.233036354,0.371529639,-0.432901621,0.491193652,0.182373568
0.334999561,0.470981866,0.384940475,-0.796010256,0.003253142,-0.001664892,0.007098778,0.098215923,-0.233147293,0.371350199,-0.432894439,0.491203189,0.182385311
0.339998722,0.470794201,0.38397786,-0.79467696,0.005150529,1.43E-05,0.007884794,0.098244354,-0.233184084,0.371290684,-0.432869077,0.491216958,0.182401329
0.344998926,0.470533907,0.384139091,-0.79522109,0.005168865,-0.002803679,0.008357313,0.098266229,-0.233212397,0.371244907,-0.43284905,0.491213381,0.18242076
0.350000113,0.470690727,0.384522617,-0.797340035,0.005030361,-0.000961477,0.007797828,0.098273486,-0.233221784,0.371229738,-0.432834804,0.491224051,0.182433054
0.355002373,0.473155797,0.383000404,-0.79618907,0.004128133,-0.001055912,0.008053598,0.098276362,-0.233091474,0.371511459,-0.432820678,0.491243511,0.182447672
0.359999746,0.471369714,0.384367883,-0.795738995,0.003036236,-0.001835772,0.008130703,0.098277315,-0.23304826,0.37160486,-0.432810009,0.491248518,0.182453468
0.364997894,0.471964359,0.385183364,-0.795008659,0.00512242,0.000594596,0.009591728,0.098278046,-0.233015016,0.371676743,-0.432793856,0.491272569,0.182468966
0.369997054,0.47221601,0.38318491,-0.79505229,0.004250407,0.000589949,0.008661265,0.098278292,-0.233003989,0.371700555,-0.432780057,0.491285175,0.18248415
0.374997258,0.472605318,0.384333581,-0.794229269,0.004127909,-0.001625815,0.009646606,0.098327845,-0.233048201,0.371607572,-0.432767302,0.491298527,0.182503283
0.379998475,0.473785937,0.386449039,-0.794034302,0.003551317,-0.00285433,0.008800799,0.098356485,-0.233075887,0.371549159,-0.432755321,0.491304517,0.182516411
0.385000706,0.470916897,0.386944115,-0.793912172,0.005133435,-0.001102027,0.009369545,0.098378524,-0.233097196,0.371504247,-0.432745755,0.491318166,0.182526827
0.389998347,0.469064832,0.386334151,-0.79473412,0.004676333,-1.18E-06,0.008152875,0.098385833,-0.233104259,0.371489346,-0.432731807,0.491328567,0.182528183
0.394996494,0.47004953,0.385128289,-0.794950485,0.004013381,-0.000338345,0.009082776,0.098307833,-0.23299402,0.371352166,-0.432717681,0.491346896,0.182545885
0.399995655,0.471173227,0.384212196,-0.795432985,0.005058501,-0.001338943,0.008987559,0.098197639,-0.232840806,0.371179909,-0.432697177,0.491355181,0.182563022
0.404995829,0.469449669,0.384472191,-0.79585892,0.006093294,-0.000773307,0.009719663,0.098112844,-0.232722908,0.371047378,-0.432673812,0.491369933,0.182580456
0.409997582,0.470342845,0.384045243,-0.796163619,0.006556733,-0.000615314,0.008824904,0.098084725,-0.232683823,0.371003449,-0.432648182,0.491380423,0.182599559
0.415000051,0.471049368,0.383620143,-0.795785606,0.005014951,0.0002514,0.007316621,0.098063096,-0.232653752,0.370969623,-0.432637781,0.491393745,0.182603344
0.419997692,0.471494079,0.383607507,-0.795220435,0.004218572,-5.79E-05,0.010505638,0.098105475,-0.232793868,0.371292055,-0.432615519,0.491416484,0.182627037
0.42499584,0.473204643,0.382348627,-0.794881105,0.003261297,0.000345416,0.006297159,0.098138079,-0.232901677,0.371540129,-0.432606637,0.491425276,0.18263416
0.429995,0.473576576,0.382645518,-0.794282019,0.004548611,-0.002038733,0.008355738,0.09814889,-0.232937425,0.371622384,-0.432586402,0.49143827,0.182655185
0.434995204,0.473292768,0.382814437,-0.795888543,0.004453876,-0.001815909,0.007260745,0.098157212,-0.232964933,0.371685684,-0.432568192,0.491444409,0.182673335
0.439996153,0.472744673,0.381896585,-0.794805408,0.003807582,-0.000608186,0.007315144,0.098102286,-0.232798979,0.371831834,-0.432555377,0.491460472,0.182682768
0.444998652,0.475593746,0.382968664,-0.796110988,0.004882162,-0.002998668,0.008559708,0.098001696,-0.232494265,0.372070849,-0.432534128,0.491468281,0.182695776
0.450001657,0.472791433,0.384720802,-0.795692146,0.003200078,-0.001703667,0.008302276,0.097968347,-0.23239322,0.372150093,-0.432527781,0.491475224,0.182702154
0.455000073,0.473102987,0.384344906,-0.79476136,0.002733519,-0.003141652,0.007866644,0.097942688,-0.232315466,0.372211069,-0.432522327,0.49147594,0.182709366
0.459998965,0.472184271,0.386001736,-0.794740021,0.005275688,-0.000726692,0.008855751,0.097934172,-0.232289687,0.372231275,-0.432500303,0.49149549,0.182718322
0.464999169,0.470610023,0.385065794,-0.794450462,0.007059415,-0.002069673,0.00916067,0.09812443,-0.232479885,0.371803045,-0.432475328,0.491499722,0.182736933
0.470000118,0.471696585,0.383657932,-0.795620501,0.005060102,-0.002671764,0.010305642,0.098187521,-0.232542947,0.371661037,-0.432452917,0.49150151,0.182756841
0.475002617,0.470856577,0.383334965,-0.794204593,0.00597113,-0.000981768,0.007675383,0.098236062,-0.23259148,0.371551782,-0.432432413,0.49151504,0.182764545
0.479999989,0.472141504,0.383087516,-0.79403919,0.007079631,-0.00283899,0.00927069,0.098252162,-0.232607558,0.371515572,-0.432399213,0.491521239,0.182795912
0.484998137,0.471936494,0.383164585,-0.794081688,0.006453943,-0.002157878,0.007831639,0.098170161,-0.232867673,0.371936202,-0.432380646,0.491527736,0.182804197
0.489997298,0.470399439,0.383406729,-0.796095669,0.006613356,-0.001881578,0.008579054,0.098119617,-0.233015224,0.372186691,-0.432352602,0.491529405,0.182823494
0.494997501,0.471248865,0.382385463,-0.796525359,0.005074684,-0.00380021,0.007632223,0.098080724,-0.233128756,0.372379392,-0.432336211,0.491529018,0.1828392
0.499998719,0.473002344,0.380465031,-0.796113849,0.004447597,-0.001933845,0.007805196,0.098067828,-0.233166412,0.372443289,-0.432319075,0.491539717,0.18285948
0.505001187,0.47285226,0.381735116,-0.795881987,0.003656948,-0.002861301,0.007761267,0.098030083,-0.233138666,0.372334778,-0.432298362,0.491544634,0.182875976
0.50999862,0.472653478,0.382112086,-0.795416415,0.003052441,-2.46E-06,0.007361302,0.097989507,-0.233072281,0.372139841,-0.432287753,0.491564631,0.182888761
0.514996469,0.471326321,0.383915067,-0.796163738,0.002587266,-0.001375614,0.008124015,0.097958282,-0.2330212,0.371989846,-0.432284385,0.491570473,0.182901084
0.51999563,0.471537262,0.383253276,-0.796683133,0.000933901,-0.002797738,0.008611472,0.097947933,-0.233004257,0.371940106,-0.4322806,0.491576552,0.182923853
0.524995565,0.471766204,0.385602474,-0.795257926,0.002745037,-0.000369608,0.005614489,0.097939968,-0.232991219,0.37190184,-0.432291269,0.49158439,0.182910502
0.529997051,0.47214368,0.386288136,-0.794449866,0.001177464,-0.000137724,0.007077579,0.097837634,-0.232781589,0.371944249,-0.432296991,0.491598874,0.182908013
0.534999549,0.4704144,0.385634571,-0.795315087,0.001641284,-0.000625648,0.007330928,0.097758889,-0.232620299,0.371976882,-0.432298452,0.491606086,0.182915181
0.53999716,0.470767587,0.385214955,-0.79520762,0.002120827,-0.000401689,0.007952984,0.097732782,-0.232566819,0.3719877,-0.432293952,0.491616607,0.182921737
0.544995308,0.471336395,0.383692175,-0.795149922,0.003317924,0.001181923,0.008338908,0.097712696,-0.232525676,0.371996045,-0.432289988,0.49164027,0.182923704
0.549994469,0.473170161,0.383784771,-0.794917166,0.003980976,-0.001570882,0.010292722,0.097789705,-0.232600331,0.37196669,-0.432269156,0.49165225,0.182945803
0.554995179,0.47331804,0.384505749,-0.794378161,0.003353863,-0.001270766,0.009676004,0.097933561,-0.232747063,0.371911585,-0.432263732,0.491669178,0.182957575
0.559996426,0.47259587,0.383846015,-0.79452616,0.004191807,0.001226187,0.009282169,0.097981259,-0.232795715,0.371893317,-0.432246923,0.491696,0.182967469
0.564998627,0.471191049,0.383540124,-0.794633746,0.003907034,-0.000442058,0.009146799,0.098017961,-0.232833162,0.37187925,-0.432233274,0.491715938,0.18298091
0.569996059,0.471223652,0.382752687,-0.793988228,0.004723281,-0.000198131,0.009891463,0.098030135,-0.232845575,0.371874601,-0.432213098,0.491738319,0.182998568
0.574994147,0.47274363,0.383811653,-0.795317829,0.004944843,0.000158611,0.008674471,0.097973228,-0.232654348,0.371575117,-0.432199568,0.491757751,0.183011517
0.579993606,0.472792774,0.384050161,-0.795229197,0.006013068,-0.000343302,0.009715014,0.097954363,-0.232590929,0.371475816,-0.432172537,0.491775364,0.18302922
0.584999681,0.471551657,0.383472592,-0.797032773,0.005393618,-0.000551535,0.008754098,0.097939841,-0.232542142,0.371399403,-0.432149172,0.491792679,0.183047175
0.590001166,0.469927281,0.384565651,-0.79539454,0.005262326,2.59E-05,0.007966532,0.097935028,-0.23252596,0.371374071,-0.432136446,0.491805196,0.183052346
0.595003366,0.469708472,0.385393888,-0.79668057,0.003888819,-0.000362383,0.009864055,0.098022901,-0.232401744,0.372683108,-0.432124704,0.491820395,0.183063343
0.600000739,0.470825285,0.382740527,-0.796993017,0.004562135,6.53E-05,0.008656353,0.098074697,-0.2323329,0.373445898,-0.43210119,0.491835654,0.183070734
0.604999185,0.471209913,0.383628964,-0.795436084,0.004248166,0.001293389,0.008453792,0.098114558,-0.232279927,0.374032825,-0.432091057,0.491856724,0.183068082
0.609998107,0.47073555,0.382107764,-0.795704901,0.004688814,0.000850089,0.007673734,0.098127775,-0.232262373,0.374227434,-0.432072341,0.491874188,0.183074608
0.614998281,0.472348958,0.381547391,-0.795043886,0.001986552,0.000636036,0.006775875,0.09814027,-0.232284009,0.373684376,-0.432073951,0.491894215,0.183071926
0.61999923,0.472396225,0.383294016,-0.794474721,0.001762832,0.001348321,0.007288855,0.098146766,-0.232326627,0.372805715,-0.432072908,0.491919398,0.18307367
0.625001729,0.473932564,0.383933514,-0.795189738,0.003493054,0.001208264,0.006488393,0.098151766,-0.232359424,0.372129619,-0.432068646,0.491942406,0.183067471
0.629999101,0.472663075,0.382456809,-0.796308279,0.002359065,0.000395756,0.007400416,0.09815342,-0.232370287,0.371905476,-0.432064146,0.491960645,0.183071375
0.634997249,0.473318368,0.382690609,-0.794565201,0.001807234,0.001496465,0.006404405,0.098154694,-0.232378662,0.37173298,-0.432066411,0.49197796,0.18307212
0.639996409,0.474571556,0.383429974,-0.793613732,0.001640391,0.001480766,0.007493809,0.097963944,-0.232578591,0.371903658,-0.432072997,0.492006451,0.183065981
0.644996583,0.473607838,0.383264959,-0.794542968,0.002540883,5.90E-05,0.005567428,0.097817175,-0.232732415,0.372034967,-0.432079971,0.49200964,0.183054879
0.649997592,0.473201424,0.38331455,-0.794867635,0.000812977,0.00067167,0.004902754,0.097768508,-0.232783422,0.372078508,-0.432096511,0.492024899,0.183041349
0.655000091,0.471902013,0.383331239,-0.795316994,0.001542245,0.001186484,0.004838762,0.097731061,-0.232822672,0.372112036,-0.432102859,0.492037416,0.183030486
0.659997463,0.470861852,0.383779496,-0.794254422,0.001301574,0.002356143,0.006026029,0.097799987,-0.232751429,0.372057587,-0.432112306,0.492055446,0.183026031
0.664995849,0.4712722,0.385391682,-0.793882906,0.001228975,-0.00021901,0.004559849,0.097935259,-0.232611403,0.371949404,-0.432128459,0.492055714,0.183003381
0.669995248,0.471818089,0.386035293,-0.794261754,0.00288158,-0.000726152,0.006549611,0.097980112,-0.232564986,0.371913522,-0.432128936,0.492071033,0.183003515
0.674995482,0.473704666,0.384224474,-0.794000864,0.000857427,-0.000475827,0.005623983,0.098014615,-0.232529253,0.371885926,-0.432145298,0.492079914,0.182989582
0.679996669,0.473045021,0.38266933,-0.794980526,0.002177,0.000928515,0.006117609,0.09802606,-0.232517406,0.371876746,-0.432146341,0.492098093,0.182991594
0.68499893,0.473895252,0.384185255,-0.794474661,0.000460169,-0.001436098,0.006345072,0.097910352,-0.23277615,0.371801466,-0.432154,0.492105305,0.18298921
0.689996302,0.472378641,0.384602368,-0.794105172,0.001156644,-0.000221986,0.004829021,0.097871989,-0.232861936,0.371776491,-0.432168305,0.492115974,0.182981655
0.694994152,0.473179668,0.38316831,-0.794513285,0.001665466,-6.58E-05,0.004698446,0.097842462,-0.232927948,0.371757299,-0.432176054,0.492126912,0.182980284
0.699993372,0.471450835,0.385367811,-0.792962909,0.002834929,-0.00052246,0.006071934,0.097832672,-0.232949838,0.371750921,-0.432180315,0.49213779,0.182978019
0.704993546,0.47151354,0.385145187,-0.793407321,0.001863141,-0.003578323,0.006465898,0.097386286,-0.232704088,0.371807039,-0.432190657,0.492135525,0.182975307
0.709994733,0.47095269,0.383730769,-0.795836151,0.001966273,-0.002067303,0.005212455,0.097129673,-0.232557625,0.371840745,-0.432187855,0.492135644,0.182980299
0.714996755,0.471637458,0.38408801,-0.794585586,0.003062851,-0.002308186,0.006228815,0.096932225,-0.232444942,0.371866673,-0.432191551,0.492137671,0.182975397
0.720000029,0.469856054,0.386092514,-0.795577943,0.003349486,-0.001370458,0.006596358,0.096866757,-0.23240757,0.371875286,-0.432189822,0.492138743,0.182979077
0.724998116,0.470413417,0.384043664,-0.79539758,0.003086701,-0.000342755,0.006662235,0.097064391,-0.2324415,0.371846288,-0.432184339,0.492146969,0.182980388
0.729997337,0.470598549,0.384081304,-0.795382082,0.002356849,-0.000409064,0.006976981,0.09738002,-0.232515961,0.37180078,-0.432186186,0.492155015,0.182981968
0.734997272,0.471049637,0.383532912,-0.796209276,0.002221415,-0.000245627,0.008008406,0.097622871,-0.232573256,0.371765763,-0.432175547,0.492165685,0.182996109
0.739998996,0.472567022,0.383685112,-0.794196367,0.00178249,0.000555262,0.007829454,0.09770339,-0.232592255,0.37175414,-0.432184815,0.492183775,0.182993934
0.745001495,0.47317034,0.382805258,-0.795969784,0.002008523,0.001568961,0.00783308,0.097765349,-0.232606873,0.371745199,-0.432188451,0.492204309,0.183002144
0.749999106,0.473318934,0.383756876,-0.795755923,0.00219156,-0.000837991,0.007932278,0.098075993,-0.232617334,0.371736646,-0.432192504,0.492220759,0.183005363
0.754997253,0.474912733,0.383255243,-0.794348717,0.000877477,0.0024924,0.007143489,0.098315008,-0.232625395,0.371730089,-0.432201803,0.492248803,0.183005527
0.759996414,0.474371344,0.383471489,-0.79506588,0.001197417,0.002210722,0.006271885,0.098394267,-0.232628062,0.371727914,-0.432210267,0.492268443,0.182995245
0.764996588,0.473101556,0.383104473,-0.796366334,0.001907242,0.000689839,0.006299929,0.098455243,-0.232630119,0.371726245,-0.43221122,0.492277622,0.182994381
0.769997597,0.472838014,0.383019298,-0.794136465,0.001371189,0.002383018,0.007153889,0.098446935,-0.232571781,0.371820092,-0.432218879,0.492304742,0.182992309
0.774999797,0.47293058,0.384883851,-0.793277025,-1.37E-05,2.82E-05,0.00592203,0.098411702,-0.232467234,0.37198776,-0.432236433,0.492308229,0.182987094
0.77999717,0.47115314,0.385215461,-0.794755816,-0.000646814,-0.00088955,0.006952588,0.098400019,-0.232432574,0.372043341,-0.43225199,0.492316186,0.182985991
0.784995556,0.472807646,0.383059621,-0.795261681,0.001001443,0.000266207,0.005544221,0.098391026,-0.232405901,0.372086108,-0.432262391,0.492326438,0.182976201
0.789994776,0.473141998,0.38221097,-0.796345055,0.000441051,-0.002137373,0.005324633,0.098388046,-0.23239705,0.372100294,-0.432271481,0.492329597,0.182985321
0.79499495,0.472605973,0.383608252,-0.796550632,0.000142353,-0.001894305,0.004370559,0.097943231,-0.232855469,0.371903926,-0.432283282,0.492328078,0.182981685
0.799995899,0.471995324,0.385385096,-0.796325028,0.000879192,-0.00139191,0.005025834,0.09779574,-0.233007476,0.371838808,-0.432300061,0.492328882,0.182980955
0.804998398,0.471848249,0.384524733,-0.795568705,-0.000391179,-0.000173816,0.00616398,0.09768226,-0.23312442,0.37178871,-0.432321578,0.492336392,0.182979867
0.80999577,0.471748441,0.384024709,-0.795093,-0.000220115,3.24E-05,0.004142649,0.097644627,-0.233163208,0.371772081,-0.432343125,0.492347628,0.182967797
0.814993918,0.472517252,0.385930687,-0.794945538,-0.001738695,-0.000996203,0.005756896,0.097853102,-0.232941508,0.372029245,-0.432366163,0.492350399,0.182964116
0.819993079,0.472941101,0.382866472,-0.795124412,-0.001229734,-0.001782467,0.005646649,0.097980984,-0.232805759,0.372181326,-0.432375073,0.492353976,0.182966962
0.824993789,0.470487744,0.382688433,-0.795241654,0.001549014,0.000198511,0.005739803,0.098079376,-0.232701302,0.37229833,-0.432381213,0.49236387,0.182962835
0.829995036,0.471623838,0.383854628,-0.793961942,0.000157559,2.47E-05,0.008130704,0.098112002,-0.232666671,0.372337133,-0.432392627,0.492378324,0.182967499
0.834997475,0.472776473,0.383414268,-0.794128835,0.000482957,0.000674078,0.00565058,0.098082684,-0.232668057,0.372336864,-0.432405949,0.49238795,0.182963535
0.839994907,0.473205447,0.38124156,-0.793780684,0.000242072,-0.000257249,0.006055085,0.09801808,-0.232696787,0.372306377,-0.432413757,0.492401034,0.182959899
0.844992995,0.473687083,0.382366359,-0.795107365,0.00028681,-0.001200149,0.006200882,0.09796837,-0.232718885,0.372282922,-0.432423651,0.492406785,0.18296282
0.849992216,0.47133103,0.384145468,-0.793857813,-0.000747037,-0.000348189,0.005950665,0.097951889,-0.232726216,0.372275144,-0.432441533,0.49241358,0.182953522
0.854998291,0.472789675,0.383745998,-0.794016182,0.000923429,-0.001574646,0.004940948,0.097939208,-0.232731864,0.372269154,-0.432449162,0.492413938,0.182948649
0.859999478,0.47304824,0.382720739,-0.795599341,0.00024317,-0.001281841,0.006847567,0.098278493,-0.233047217,0.371986657,-0.432457805,0.492420584,0.18295832
0.865001976,0.473756671,0.383647174,-0.793726146,0.000412684,-0.00315636,0.003853279,0.098539539,-0.233289853,0.371769279,-0.432473749,0.492415518,0.182955071
0.869999588,0.473878086,0.382521927,-0.795123637,-0.000508647,-0.003823347,0.005393111,0.0986261,-0.233370304,0.371697217,-0.432486773,0.492405921,0.182961747
0.874997735,0.472231954,0.38405171,-0.794018209,0.00152349,-0.004497278,0.00416247,0.0986927,-0.233432204,0.371641755,-0.4324871,0.492399096,0.182964236
0.879996955,0.472581565,0.384956479,-0.795573771,0.001151032,-0.004738972,0.006528585,0.098466054,-0.233332708,0.371626854,-0.432489097,0.492394328,0.182973593
0.884997129,0.472124517,0.383462667,-0.79613632,0.001860038,-0.0038111,0.005066142,0.098040171,-0.233134806,0.371618867,-0.432491302,0.492387325,0.182976797
0.889998317,0.471292138,0.386813998,-0.795698464,0.002077994,-0.003881727,0.005481549,0.09789896,-0.233069181,0.371616244,-0.432486832,0.492373347,0.182986587
0.895000577,0.470369935,0.385294676,-0.795117617,0.002744264,-0.003745502,0.004336375,0.097790301,-0.233018696,0.371614218,-0.432486296,0.492361784,0.182982937
0.89999795,0.472184658,0.384955585,-0.79640764,0.00331653,-0.004686954,0.007038516,0.09775427,-0.233001947,0.371613532,-0.43247959,0.492347538,0.18299903
0.904996097,0.471446753,0.386098653,-0.795677006,0.002702974,-0.003064053,0.004917296,0.097855985,-0.233058974,0.371611267,-0.432480633,0.49234128,0.182994246
0.909995794,0.472556949,0.384423524,-0.794489801,0.0035927,-0.002226481,0.006166016,0.097889714,-0.233077884,0.371610522,-0.432474792,0.492337763,0.183000356
0.914995968,0.470631063,0.385200053,-0.79530859,0.002401517,-0.003489142,0.006360872,0.097915672,-0.233092427,0.371609956,-0.432473004,0.492326766,0.183007762
0.919996917,0.471137494,0.384697199,-0.794039786,0.002567942,-0.002354768,0.007067325,0.097924277,-0.233097255,0.371609747,-0.432468355,0.492331743,0.183019444
0.924999177,0.473548561,0.384251803,-0.794413567,0.000846019,-0.001628539,0.006796943,0.097879097,-0.232895061,0.371830195,-0.432477683,0.492339194,0.183017015
0.92999655,0.472834289,0.383521944,-0.794527769,0.000173504,-0.003649815,0.005609035,0.097851299,-0.232777059,0.371957868,-0.432483971,0.492331535,0.18301855
0.934994698,0.472781122,0.383641779,-0.794645071,0.001242023,-0.001834619,0.005065382,0.097829908,-0.232686281,0.372056127,-0.432480901,0.492343813,0.183019057
0.939993858,0.472564995,0.383844763,-0.796001017,0.002890343,-0.003169955,0.005596671,0.097822815,-0.232656181,0.372088701,-0.432483077,0.492337137,0.183020294
0.944994032,0.47201243,0.384554595,-0.796153903,0.000988916,-0.002551606,0.006867842,0.09806715,-0.232811525,0.37201643,-0.432486922,0.492341608,0.183032408
0.949995279,0.472002476,0.383438885,-0.79561305,0.002604995,-0.00044653,0.006519765,0.098400056,-0.233043045,0.3718943,-0.432491124,0.492343515,0.183036298
0.954997778,0.472449422,0.385616928,-0.795221448,0.002641165,-0.000596807,0.005998933,0.0986562,-0.233221173,0.371800333,-0.432491809,0.492354691,0.183029175
0.959995151,0.471754372,0.384765565,-0.79634124,0.002162092,-0.001383518,0.006312412,0.098741136,-0.233280241,0.37176916,-0.432492316,0.492355406,0.183037862
0.964993298,0.470186979,0.384881198,-0.796409547,0.003006715,-0.002016207,0.00399696,0.098806486,-0.23332569,0.371745169,-0.432488799,0.492352724,0.183032185
0.969992459,0.469965667,0.385020316,-0.797062099,0.002267405,-0.001882763,0.005239293,0.098335735,-0.232914895,0.372907102,-0.432498723,0.492346644,0.183018014
0.974992633,0.47308138,0.385471195,-0.795161545,0.002630915,-0.000158804,0.007687747,0.097973526,-0.232598811,0.373801112,-0.432489634,0.492362171,0.183019429
0.97999388,0.472304732,0.383737147,-0.795283198,0.002622891,-0.000878056,0.005116909,0.097853422,-0.232494012,0.374097556,-0.432491422,0.492363751,0.183000341
0.98499608,0.47325328,0.384382606,-0.795356989,0.002699597,0.000436526,0.008013391,0.09776102,-0.232413366,0.374325663,-0.432482958,0.492384046,0.183000863
0.989999592,0.471426308,0.384200186,-0.794685423,0.003174535,0.000510445,0.005023752,0.09784437,-0.23256737,0.373770982,-0.432486296,0.492393732,0.182989642
0.994998276,0.473618567,0.385183662,-0.794397116,0.003006807,-0.001205691,0.008245436,0.09802378,-0.232868627,0.372706831,-0.432480425,0.492408693,0.182996795
0.999997437,0.472650945,0.383726656,-0.794338524,0.003496018,0.000799721,0.007705461,0.098083265,-0.232968524,0.372354001,-0.432481438,0.492424637,0.182997346
1.004997373,0.472801685,0.383282959,-0.793651223,0.002088774,0.001761998,0.006506179,0.098129034,-0.233045369,0.372082502,-0.432487875,0.492444336,0.182996631
1.009998322,0.474330842,0.383986205,-0.794247866,0.002513545,-0.000809949,0.006103783,0.098144211,-0.23307085,0.371992499,-0.432482064,0.492451072,0.183002755
1.015000582,0.471277893,0.383903712,-0.794131339,0.002404296,0.000408563,0.007074532,0.097956635,-0.232872367,0.373251677,-0.432489336,0.492465794,0.182991281
1.019997954,0.473026186,0.383776814,-0.795448899,0.002833489,-0.000572545,0.006210526,0.097894438,-0.232806548,0.373669207,-0.432483226,0.492472112,0.182978943
1.024996042,0.474052578,0.384047896,-0.794817328,0.000982469,0.000444443,0.005814755,0.097846583,-0.232755914,0.373990476,-0.432490885,0.492489427,0.182973951
1.029995322,0.474258125,0.382170141,-0.793393731,0.001650735,0.000373822,0.006859739,0.097830713,-0.232739121,0.374097019,-0.432494193,0.492508829,0.182967111
1.034995675,0.473822892,0.383365095,-0.793433547,0.002650165,-0.001315184,0.006041432,0.09781906,-0.232776418,0.374235004,-0.432492733,0.49251157,0.18296577
1.039996982,0.473938406,0.382508278,-0.794187546,0.002770648,-0.002620152,0.004878417,0.097815335,-0.232801214,0.374294639,-0.432490706,0.492509067,0.182959482
1.044999123,0.474242032,0.381859064,-0.793395281,0.001616613,-0.003526724,0.004140974,0.097812474,-0.232820287,0.374340534,-0.432490766,0.492503524,0.182954863
1.049996495,0.473704815,0.385049254,-0.793636143,0.002003384,-0.001319375,0.004670213,0.09781152,-0.23282662,0.374355733,-0.432506144,0.492509544,0.182933241
1.054994702,0.474268287,0.38384378,-0.794664681,0.003656897,-0.001715735,0.005228766,0.097949237,-0.232810527,0.373797387,-0.432497203,0.492511064,0.182924539
1.059993863,0.473130196,0.384325147,-0.794551611,0.000782289,-0.002065523,0.006345299,0.098134518,-0.232784048,0.373037398,-0.432514727,0.492507547,0.182917655
1.064994097,0.473674744,0.382060945,-0.794458568,0.001131092,-0.002761662,0.005162846,0.098277077,-0.232763663,0.372452646,-0.432512105,0.492501497,0.182922781
1.069995284,0.474247605,0.380572289,-0.794275343,0.002404496,-0.002933103,0.004093577,0.098354876,-0.232767045,0.371809095,-0.432505876,0.492497921,0.182933345
1.074997544,0.473002464,0.380614996,-0.795815289,0.000501021,-0.00435812,0.003700965,0.098414741,-0.232769653,0.3713139,-0.432520568,0.492482454,0.182929471
1.079994917,0.472710162,0.382374018,-0.794984579,0.001410701,-0.0042224,0.003196079,0.09809503,-0.232712716,0.371210992,-0.43252331,0.492465913,0.182927117
1.084993005,0.471493781,0.383027345,-0.793329597,0.00027747,-0.002877659,0.002679711,0.097849034,-0.232668906,0.371131778,-0.432545602,0.492454022,0.182910085
1.089991927,0.471619964,0.385471433,-0.793989778,-0.002347264,-0.003326159,0.001473503,0.097767465,-0.232654378,0.371105522,-0.432584107,0.492438465,0.182882011
1.094991922,0.470886916,0.385656685,-0.793329537,-0.000438544,-0.003811036,0.004149514,0.097704701,-0.232643187,0.371085316,-0.43260625,0.492427766,0.182876706
1.09999311,0.467923552,0.393712401,-0.794467747,0.001278837,-0.00322657,0.00576122,0.097767621,-0.232727811,0.371046573,-0.432630956,0.49240905,0.182858333
1.10499537,0.475293815,0.384086013,-0.791489244,0.003057725,-0.000380694,0.003913249,0.097900696,-0.232882231,0.370984375,-0.432628393,0.492423117,0.182849899
1.109992743,0.476854324,0.371933788,-0.796711326,0.000516192,-0.004046292,0.004248621,0.097944818,-0.232933432,0.370963752,-0.432616383,0.492417216,0.182890996
1.114991307,0.473172843,0.378901005,-0.796032071,-0.001873258,-0.00523447,0.002519626,0.097978771,-0.232972831,0.370947868,-0.432630271,0.492400736,0.18290329
1.119990587,0.470606565,0.387527585,-0.793414593,-0.001524605,-0.001985541,0.003187945,0.097990029,-0.232985899,0.370942622,-0.432675868,0.492396832,0.18286401
1.124996901,0.471012175,0.387804747,-0.795372128,-0.000994975,-0.002728656,0.003829346,0.097930744,-0.232789755,0.371231586,-0.432703495,0.492386252,0.182845518
1.129998088,0.471108437,0.386627585,-0.79691416,0.000358466,-0.001087444,0.006408024,0.09791109,-0.232724711,0.3713274,-0.432713389,0.492392629,0.182847127
1.135000587,0.473620027,0.386206955,-0.797454774,0.001275502,-0.001602355,0.00773457,0.097895965,-0.232674673,0.371401131,-0.432720751,0.492397904,0.182852015
1.139997959,0.472267121,0.388893545,-0.79608655,0.00219768,-0.001717941,0.006357811,0.097890951,-0.232658073,0.371425599,-0.432730108,0.492399096,0.182832181
1.144996047,0.473975241,0.383213669,-0.795234263,0.002671186,-0.003278666,0.005258954,0.098084241,-0.23285453,0.371166319,-0.432725132,0.492406368,0.182840377
1.149995208,0.476976871,0.377980739,-0.796035171,0.001854122,-0.002934275,0.005596073,0.098197117,-0.23297143,0.371011555,-0.432713091,0.492405713,0.182870731
1.154995918,0.473411083,0.381590366,-0.79656893,0.001258397,-0.003524959,0.00381048,0.098283969,-0.233061388,0.370892435,-0.432722807,0.492396146,0.182873219
1.159997225,0.470967203,0.38478747,-0.795223236,0.001659341,-0.001704817,0.002389562,0.098312765,-0.23309122,0.370852947,-0.432734847,0.49239251,0.182852149
1.164999366,0.472550035,0.387214959,-0.79406023,0.003077782,-0.002687478,0.003629765,0.09830337,-0.232935309,0.371418089,-0.432739675,0.49238658,0.182840407
1.169997096,0.472663909,0.383634865,-0.792302251,0.002838411,-0.002664007,0.003452271,0.098268434,-0.232703269,0.372205973,-0.432742298,0.492382675,0.182810277
1.174994946,0.475800276,0.37748763,-0.79538852,0.00189392,-0.003030905,0.000563135,0.098241553,-0.232524708,0.372812212,-0.43275103,0.492370874,0.182795867
1.179994106,0.475254923,0.37718603,-0.795968533,0.000136315,-0.0057179,-0.000932692,0.098232642,-0.232465506,0.373013228,-0.432757646,0.492344141,0.18279399
1.184994102,0.474184155,0.386179984,-0.794460058,-0.000665523,-0.007249548,0.000843519,0.098225787,-0.232419953,0.373167902,-0.43278712,0.492312729,0.182766095
1.189995289,0.471590519,0.386044621,-0.791105092,-0.001169041,-0.006295936,-1.85E-05,0.09818317,-0.232769176,0.372117639,-0.432821989,0.492281854,0.182735592
1.194997549,0.472273469,0.38358286,-0.795258164,-0.000659941,-0.006375545,0.000288174,0.09815038,-0.233037874,0.371309519,-0.432846725,0.492248595,0.182725191
1.199994922,0.475263566,0.381800532,-0.797199309,-0.001045625,-0.004911549,-0.001338593,0.09813951,-0.233126968,0.371041566,-0.432871252,0.492224008,0.182716742
1.20499301,0.475722253,0.386191845,-0.794839144,0.000138549,-0.007097369,-0.001977758,0.098131143,-0.233195513,0.370835394,-0.432903796,0.492187291,0.182687819
1.20999217,0.469107777,0.387426406,-0.792370975,-0.002782626,-0.006139702,-0.000755313,0.09801887,-0.233244926,0.370769441,-0.432949722,0.492153436,0.182660595
1.214992166,0.468628109,0.3878178,-0.795063555,0.000120121,-0.006060481,0.001824908,0.09782175,-0.23330994,0.370721161,-0.432974577,0.492119789,0.182648718
1.219993353,0.468791604,0.38946563,-0.794380903,-0.0001696,-0.004426023,0.002426741,0.097756386,-0.233331487,0.370705158,-0.433000922,0.492096037,0.18263112
1.224995613,0.471721947,0.386498481,-0.79509306,0.001920784,-0.005611898,0.003520536,0.097706102,-0.233348072,0.370692879,-0.43300283,0.492074937,0.18262817
1.229992986,0.472919464,0.383239329,-0.795454562,0.000858569,-0.005753999,0.002564867,0.097689427,-0.23335357,0.370688796,-0.433010608,0.492054254,0.182638213
1.234991312,0.470660686,0.384200126,-0.795227945,0.000348903,-0.004701053,0.005516454,0.097867057,-0.23316063,0.370532691,-0.433015198,0.492043197,0.18264699
1.239990234,0.468684733,0.391484082,-0.795423508,0.003025069,-0.004952621,0.004221015,0.097925954,-0.233096659,0.370480925,-0.433029056,0.49201858,0.182632849
1.244990468,0.473596245,0.384132713,-0.797646165,0.003036626,-0.003680233,0.003642651,0.097971275,-0.233047426,0.370441079,-0.43302393,0.492017627,0.182634249
1.249991417,0.473952591,0.378581524,-0.795817614,-0.000654297,-0.005047053,0.003862616,0.097986303,-0.233031109,0.370427907,-0.433033168,0.492004693,0.182652295
1.254993677,0.471819729,0.384876192,-0.794775128,0.000634438,-0.004360591,0.002469818,0.098141044,-0.232869655,0.37035796,-0.433049113,0.491984934,0.182634786
1.259996653,0.475018471,0.377346098,-0.796958804,-0.00070866,-0.004613454,-0.000341511,0.098227784,-0.232779279,0.370319963,-0.433068991,0.491974294,0.18262811
1.264995098,0.477633446,0.374607414,-0.794599533,-0.002499272,-0.005495026,-0.00149352,0.098294526,-0.232709736,0.370290726,-0.4330872,0.491952688,0.182633489
1.26999402,0.474949896,0.377190113,-0.792981267,-0.005933791,-0.006613651,-0.004208883,0.098316655,-0.232686669,0.370281011,-0.433142185,0.491918147,0.182606831
1.274994135,0.475175589,0.377406418,-0.793698192,-0.007636275,-0.006464309,-0.00844298,0.098141886,-0.232721969,0.370372146,-0.433212548,0.491877019,0.182551801
1.279995441,0.476124913,0.379001886,-0.793836176,-0.008377234,-0.007003091,-0.008956699,0.097890534,-0.232787162,0.370501757,-0.433284491,0.491833121,0.182507068
1.28499794,0.476085126,0.380499482,-0.792240143,-0.009261533,-0.009203098,-0.010276389,0.097697139,-0.232837334,0.370601475,-0.433369219,0.491771191,0.182454005
1.289995313,0.472318947,0.383345187,-0.792107522,-0.010390899,-0.009421441,-0.012868099,0.097633012,-0.232853964,0.370634556,-0.433476746,0.491704106,0.182372972
1.294993401,0.474092007,0.380290329,-0.791655898,-0.008884617,-0.011291014,-0.014354207,0.097583666,-0.232866764,0.370660007,-0.433563411,0.49162969,0.18231
1.299992561,0.470678866,0.378851265,-0.79149729,-0.011129644,-0.01260963,-0.013829927,0.097953364,-0.23282674,0.37077111,-0.433664173,0.491537809,0.182253778
1.304992795,0.472704142,0.379159063,-0.794413805,-0.012865886,-0.011970868,-0.01585705,0.098237827,-0.232795954,0.370856583,-0.433774948,0.491455227,0.182176292
1.309993744,0.475488961,0.381902277,-0.791582823,-0.012683882,-0.014987712,-0.01805043,0.098332152,-0.232785746,0.370884925,-0.43389377,0.49135223,0.182081491
1.314996004,0.47156778,0.387691319,-0.789848804,-0.01275906,-0.01656604,-0.018205646,0.098404728,-0.232777879,0.370906711,-0.434020728,0.49123916,0.181977272
1.319993377,0.47058636,0.386468172,-0.794603944,-0.011584241,-0.016975183,-0.017692281,0.098484896,-0.232835114,0.370787859,-0.434134215,0.491119593,0.181887433
1.324991703,0.468865722,0.383936137,-0.794109762,-0.012498249,-0.017059498,-0.019034974,0.098603323,-0.232939646,0.370568901,-0.43424961,0.490999877,0.181808516
1.329990864,0.468947917,0.384630948,-0.794305861,-0.01213551,-0.016374845,-0.018577049,0.098642588,-0.232974306,0.370496303,-0.43436268,0.490882963,0.181724131
1.334990859,0.46907571,0.386323959,-0.796557546,-0.013061933,-0.015757,-0.018331006,0.0986728,-0.233000979,0.370440453,-0.434484065,0.490771443,0.181636781
1.339992046,0.469775438,0.387878686,-0.793952227,-0.013527435,-0.01638863,-0.016748954,0.098682821,-0.23300983,0.370421946,-0.434613883,0.49065733,0.181547657
1.344994307,0.470663458,0.39301303,-0.792084098,-0.012854015,-0.015166651,-0.015721615,0.098945498,-0.23282136,0.370180011,-0.434745491,0.490552604,0.181446001
1.349991679,0.47069025,0.393083453,-0.793495417,-0.012746084,-0.014802065,-0.012765425,0.099032596,-0.23275888,0.370099783,-0.434865832,0.490453571,0.181363359
1.354989529,0.471618801,0.391224682,-0.794010878,-0.008656055,-0.016096978,-0.012744958,0.099099614,-0.232710794,0.370038033,-0.434960067,0.490350097,0.181287944
1.359988689,0.471522778,0.391217977,-0.794552326,-0.009926373,-0.017847914,-0.012390521,0.099121831,-0.232694849,0.370017558,-0.435054153,0.490244567,0.181227282
1.364988685,0.472278893,0.386181891,-0.791926801,-0.00781087,-0.018687077,-0.011733073,0.099188119,-0.23278296,0.370223254,-0.435122043,0.490144104,0.181183413
1.369989872,0.473781615,0.380520403,-0.793543637,-0.007316852,-0.020381326,-0.011441312,0.099222273,-0.232837021,0.370346278,-0.435176998,0.490033031,0.181151912
1.374992371,0.473050743,0.376402974,-0.796408594,-0.009531009,-0.020701902,-0.013740074,0.099248551,-0.232878625,0.37044093,-0.435243785,0.489915073,0.181130797
1.379989982,0.477337748,0.373829693,-0.796155572,-0.012859035,-0.022910291,-0.019133788,0.099257261,-0.232892409,0.370472312,-0.435332388,0.489782959,0.181087047
1.384988189,0.471658856,0.371606082,-0.796720326,-0.019177936,-0.024331385,-0.02234585,0.099237151,-0.232932165,0.370403081,-0.435465246,0.489628196,0.181030229
1.38998735,0.473047644,0.375192732,-0.795515358,-0.023139693,-0.023780541,-0.026608141,0.099203445,-0.232974723,0.370285928,-0.435626179,0.489468306,0.180945396
1.394993424,0.480756015,0.375487953,-0.795186222,-0.025305549,-0.026744999,-0.029800965,0.099177517,-0.233007476,0.370195836,-0.4358069,0.489304602,0.180838555
1.399994373,0.471962094,0.379897982,-0.790766299,-0.026072001,-0.028267806,-0.034574222,0.099168919,-0.233018339,0.370165944,-0.43601349,0.489105135,0.180710599
1.404996872,0.47504437,0.384284884,-0.7942487,-0.028252637,-0.027976928,-0.036042184,0.099162295,-0.233026698,0.370142937,-0.436244845,0.488911808,0.180557191
1.409994245,0.472088426,0.385003954,-0.792860091,-0.028872117,-0.028668137,-0.03857445,0.099403143,-0.233134612,0.370242417,-0.436476946,0.488698214,0.180392638
1.414992332,0.474300057,0.389750451,-0.794067919,-0.029918907,-0.02997499,-0.040317025,0.099588454,-0.233217642,0.370318979,-0.436722279,0.488481909,0.180218905
1.419991493,0.471963018,0.390444428,-0.793813586,-0.026982423,-0.030776955,-0.040505376,0.099649899,-0.233245164,0.370344371,-0.436952144,0.48825708,0.180044591
1.424991488,0.468309104,0.391023695,-0.792835116,-0.027324123,-0.032835528,-0.039617635,0.09969718,-0.233266354,0.370363891,-0.437184215,0.488024503,0.179877788
1.429992437,0.47037974,0.389264613,-0.792794824,-0.02599165,-0.033245649,-0.042230025,0.099686272,-0.233330756,0.370340109,-0.437414408,0.487787485,0.17969954
1.434994698,0.47139135,0.390001416,-0.793300509,-0.026142504,-0.034214005,-0.042887367,0.099651009,-0.233438328,0.370291233,-0.437643528,0.487538964,0.179516613
1.43999207,0.471941113,0.386973888,-0.793206573,-0.023761442,-0.035718989,-0.044185456,0.099639319,-0.233473986,0.370275021,-0.437856257,0.487289548,0.179343045
1.444990158,0.470626473,0.384965301,-0.79385221,-0.023895307,-0.036922127,-0.044808809,0.099630319,-0.233501434,0.370262563,-0.438067615,0.487028629,0.179178715
1.449989676,0.468163669,0.384476513,-0.794549346,-0.026209874,-0.03951931,-0.044555537,0.099627331,-0.233510539,0.370258421,-0.438280731,0.486758441,0.179024965
1.454989791,0.465438634,0.389719158,-0.796256363,-0.025815446,-0.040792648,-0.042749241,0.100205451,-0.233598843,0.369950831,-0.43849802,0.486477464,0.178873345
1.45999074,0.46275422,0.395064592,-0.797192693,-0.025072139,-0.039103705,-0.041389666,0.100397147,-0.233628124,0.369848847,-0.438717246,0.486202061,0.17871289
1.464993238,0.461326867,0.398247153,-0.797583997,-0.025361342,-0.037737101,-0.035774596,0.100544646,-0.233650655,0.369770378,-0.438932121,0.485938549,0.17857708
1.469990611,0.460873783,0.403386444,-0.796711087,-0.021980055,-0.038343601,-0.031960782,0.100593552,-0.233658135,0.36974436,-0.439121306,0.485684156,0.178449303
1.474988818,0.463261545,0.405478895,-0.792262852,-0.017390093,-0.036428936,-0.024611909,0.10082645,-0.233770102,0.369611114,-0.439276665,0.48546654,0.178348079
1.479987979,0.465623766,0.404366583,-0.792448521,-0.012980513,-0.036229711,-0.020952627,0.100951992,-0.233833522,0.369538903,-0.439402968,0.485258073,0.178256407
1.484987855,0.467307448,0.401104748,-0.79281491,-0.011539822,-0.03915571,-0.015392658,0.101048589,-0.233882308,0.369483352,-0.439492106,0.485041857,0.178220659
1.489989638,0.469022602,0.397177398,-0.793355107,-0.006223972,-0.037866872,-0.015305961,0.101080619,-0.233898491,0.369464934,-0.439550698,0.484847754,0.178190514
1.494991899,0.468036354,0.395784944,-0.79320085,-0.002915376,-0.03888543,-0.015776593,0.101051122,-0.233967498,0.369452447,-0.439591855,0.484641224,0.178162158
1.49998951,0.46677649,0.393727571,-0.795591474,-0.001193709,-0.037956137,-0.014773452,0.100986741,-0.234047398,0.369450003,-0.439620078,0.484429061,0.178138003
1.504987597,0.465143442,0.3880817,-0.797355473,-0.0013882,-0.039141145,-0.015756497,0.100937203,-0.234108895,0.369448096,-0.439642191,0.484211624,0.178133592
1.509986758,0.465135932,0.38699317,-0.798542202,-0.001474438,-0.038670298,-0.016971512,0.100920774,-0.23412928,0.36944747,-0.439662755,0.484000921,0.178125277
1.514986753,0.463458121,0.388028979,-0.79864043,-0.002225367,-0.036416505,-0.020502217,0.10090813,-0.234144971,0.369446993,-0.439695179,0.483783305,0.178092241
1.519987941,0.462211519,0.388278842,-0.799727142,-0.003345049,-0.036684006,-0.020900449,0.101334281,-0.233802959,0.369489878,-0.439746469,0.483566582,0.178047121
1.524989963,0.463694066,0.386034429,-0.802971661,-0.004698303,-0.033444487,-0.022300109,0.101662166,-0.23353979,0.36952287,-0.439796209,0.483362526,0.177997723
1.529993773,0.463384449,0.388383746,-0.803410292,-0.006345475,-0.032017991,-0.024342524,0.101770893,-0.233452529,0.369533807,-0.439866841,0.483156979,0.177939758
1.534992337,0.466408461,0.388968647,-0.800893009,-0.007849186,-0.030809011,-0.027524833,0.101854548,-0.233385384,0.369542241,-0.439959943,0.482959002,0.177846506
1.539991498,0.465902984,0.391528249,-0.798635721,-0.009891019,-0.030866275,-0.025677025,0.101995364,-0.233568072,0.369419485,-0.440064579,0.482771099,0.177754372
1.544991493,0.467010915,0.394961447,-0.800845861,-0.00991362,-0.030747466,-0.02368572,0.102218062,-0.23391588,0.369198084,-0.4401609,0.482583672,0.177677616
1.549992681,0.466934144,0.401608646,-0.798955977,-0.008368362,-0.02805564,-0.024781784,0.102291904,-0.2340312,0.369124681,-0.440274835,0.482398927,0.177560627
1.554994941,0.465039611,0.400124997,-0.800123811,-0.006722112,-0.026715532,-0.022044402,0.102348723,-0.234119952,0.369068205,-0.440368176,0.482230365,0.177468508
1.559992075,0.46613875,0.399457365,-0.797596872,-0.000948827,-0.028641721,-0.022462282,0.102367558,-0.234149367,0.36904946,-0.440430373,0.482050866,0.177380353
1.564990163,0.471828043,0.397993207,-0.796157002,0.002172175,-0.03063105,-0.023390841,0.102120355,-0.233830616,0.368962765,-0.440481246,0.48187983,0.177289277
1.569989085,0.476733178,0.389981955,-0.797275126,0.005917809,-0.034134444,-0.024124546,0.102038383,-0.233724922,0.368934005,-0.440481335,0.481694609,0.177224398
1.574989319,0.482922286,0.390610069,-0.795919359,0.007421603,-0.039943218,-0.026341844,0.101975314,-0.233643591,0.368911892,-0.440490127,0.481485993,0.177150205
1.579990506,0.483056039,0.397357136,-0.792555153,0.011391783,-0.043243337,-0.030741397,0.101954401,-0.23361662,0.368904561,-0.440499574,0.481250644,0.177034497
1.584992766,0.477073431,0.401811481,-0.791532159,0.017934885,-0.048204891,-0.032469653,0.102520049,-0.233707577,0.368999511,-0.440483809,0.480981559,0.176915586
1.589990139,0.47184509,0.402628005,-0.792024076,0.025445919,-0.050246879,-0.0345948,0.102851555,-0.233765364,0.369055897,-0.440424621,0.480689943,0.176799431
1.594988346,0.461692005,0.403552473,-0.790975988,0.027997339,-0.049392156,-0.033129774,0.103106633,-0.233809829,0.369099259,-0.440353215,0.480391979,0.176689327
1.599987149,0.451446742,0.409750134,-0.795357466,0.032990497,-0.045920167,-0.032473799,0.103191204,-0.233824581,0.369113654,-0.440267086,0.480091423,0.176562533
1.604987383,0.445963115,0.413522631,-0.797062635,0.039085418,-0.039544035,-0.027267415,0.103282176,-0.233693838,0.368965536,-0.440151364,0.479821384,0.176440641
1.609988332,0.445478618,0.416608036,-0.794885039,0.044030331,-0.031891581,-0.02419496,0.103338458,-0.233507201,0.368755877,-0.440029144,0.479592949,0.176306903
1.61499083,0.446024895,0.413676888,-0.793631971,0.051626656,-0.02447184,-0.014439188,0.10338176,-0.233363599,0.368594587,-0.439839482,0.479434848,0.17621547
1.619988441,0.447757125,0.40445751,-0.797205806,0.054637399,-0.019646825,-0.012256109,0.103396125,-0.233315974,0.368541092,-0.439611107,0.479301393,0.176148519
1.624986887,0.447775692,0.394832224,-0.803078532,0.052742116,-0.010973724,-0.008444186,0.103407174,-0.233279347,0.368499935,-0.439368695,0.479213297,0.176120564
1.629986048,0.452327549,0.390188217,-0.806077659,0.050034769,-0.00387704,-0.005315457,0.103606761,-0.233472377,0.368650764,-0.439145386,0.479174912,0.176092103
1.634986281,0.45188877,0.392338604,-0.806412637,0.043834593,0.006764624,-2.11E-05,0.103760324,-0.233620882,0.368766874,-0.438960105,0.479193836,0.176061258
1.639987469,0.451030642,0.393950373,-0.806010962,0.039533649,0.016870162,0.004029414,0.103811242,-0.23367013,0.368805349,-0.438798219,0.479263246,0.176016599
1.644989729,0.439780474,0.394084513,-0.805674851,0.030090963,0.029623015,0.012577556,0.103850417,-0.233708024,0.368834972,-0.43868345,0.479386091,0.175996497
1.649987102,0.43418017,0.389785916,-0.814151585,0.017338315,0.050111093,0.023011735,0.103968583,-0.233432308,0.369090796,-0.438610852,0.479623228,0.17600508
1.654984951,0.428188384,0.383456588,-0.832051992,-0.001546773,0.076530561,0.032670405,0.104165852,-0.232928663,0.3695364,-0.438628197,0.479974151,0.176039949
1.659984589,0.424176723,0.380832791,-0.840999246,-0.025394144,0.103109583,0.043041933,0.104231268,-0.232761666,0.36968416,-0.438756198,0.480462998,0.176071733
1.664991021,0.417357683,0.389626205,-0.850866437,-0.046991706,0.130857974,0.056695603,0.104281597,-0.232633173,0.369797856,-0.438999921,0.481084555,0.176105052
1.669992447,0.413871437,0.408684015,-0.852921009,-0.064779766,0.164172411,0.071472503,0.104298286,-0.232590556,0.369835556,-0.439369231,0.481876612,0.176081896
1.674994707,0.400894284,0.428320467,-0.853542864,-0.080667295,0.206591234,0.089028195,0.103926919,-0.232619748,0.369652152,-0.43985942,0.482874006,0.175992936
1.67999208,0.387210488,0.461442381,-0.859417021,-0.090869837,0.251078695,0.119387507,0.103803776,-0.232629433,0.369591355,-0.440429449,0.484104514,0.175891876
1.684990168,0.375118524,0.49443537,-0.863729656,-0.08864788,0.297100842,0.163341552,0.103709027,-0.232636884,0.369544595,-0.440976083,0.485616267,0.175822869
1.689989686,0.354103893,0.540201962,-0.871103048,-0.083153076,0.333198875,0.222611323,0.103677608,-0.232639343,0.369529068,-0.44145906,0.487359673,0.175873443
1.694989562,0.261432946,0.582495093,-0.924558222,-0.112976387,0.335723907,0.358900219,0.102979995,-0.232931539,0.369644135,-0.441786349,0.489207238,0.176613554
1.699991345,0.234325856,0.612050474,-0.907283664,-0.194343269,0.359761566,0.547130346,0.102582037,-0.233100265,0.369713724,-0.442167193,0.491498828,0.178340763
1.704993486,0.245714381,0.573642731,-0.943891048,-0.289490014,0.393244773,0.716539502,0.102275826,-0.233230084,0.369767278,-0.442536324,0.494428933,0.180913195
1.709991217,0.144044012,0.422564328,-1.066403627,-0.549541533,0.442176104,0.975520372,0.102174297,-0.233273119,0.369785011,-0.443106145,0.497786373,0.185466081
1.714989305,0.070727915,0.25668478,-1.270226598,-1.020860195,0.617919624,1.28473568,0.100651242,-0.233974993,0.369237423,-0.445322424,0.502588391,0.191995725
1.719988465,-0.023354778,0.534578562,-1.217566729,-1.193779349,0.888777494,1.545531034,0.098689161,-0.234882087,0.368489891,-0.448731899,0.508921146,0.198172629
1.724988699,0.030664952,0.795233727,-1.149426579,-1.132750034,1.253839493,1.776328206,0.097179472,-0.235580042,0.367914706,-0.45206356,0.517660737,0.203712404
1.729989648,0.164076015,0.913257837,-1.144250274,-0.886176944,1.61368227,1.908415914,0.09667889,-0.235811472,0.367724001,-0.454135239,0.5285061,0.208719254
1.734991908,0.24247162,0.680578709,-1.209140062,-0.848190606,1.954862952,1.942953229,0.096293733,-0.235989541,0.367577255,-0.455587506,0.540974855,0.213755429
1.739989042,0.443325073,0.516845405,-1.270716071,-0.992014885,2.222131014,2.062285423,0.090853848,-0.239815742,0.366014808,-0.457735777,0.555286407,0.219297111
1.744987369,0.57734865,0.547319531,-1.293315887,-1.158959031,2.349616766,2.182626486,0.086668231,-0.242759734,0.364812613,-0.46059072,0.570490479,0.224969387
1.749986529,0.71675992,0.651508152,-1.364386201,-1.252133489,2.296308756,2.323930264,0.085280359,-0.243735895,0.364413977,-0.463476866,0.585706115,0.231381163
1.754986763,0.686358511,0.840800107,-1.359824538,-1.293639183,2.157539129,2.427328348,0.084212482,-0.244486988,0.364107281,-0.466189086,0.600232482,0.238343731
1.759987712,0.70230937,0.943661928,-1.346168756,-1.309801459,2.010482311,2.456460476,0.077329114,-0.247069165,0.362933636,-0.46879369,0.614084065,0.245547459
1.764990211,0.821501136,1.118975997,-1.476787567,-1.20933032,1.781236887,2.483656406,0.065430716,-0.251415133,0.360946685,-0.470528483,0.626961529,0.253312171
1.769987583,0.736137867,1.266191125,-1.545260906,-1.017427683,1.481325388,2.451654911,0.061485428,-0.252856195,0.360287845,-0.470826924,0.638018012,0.261670649
1.774986029,0.765497386,1.3653754,-1.561796546,-0.680477202,1.162052155,2.369337559,0.058449797,-0.253964961,0.359780908,-0.469195604,0.647370398,0.270226419
1.779985189,0.93184042,1.431861281,-1.702282906,-0.23889181,0.796535194,2.288302183,0.057443243,-0.254332632,0.359612823,-0.464777082,0.65494597,0.279458553
1.7849859,0.909159064,1.511949778,-1.861011147,0.202049091,0.378923953,2.1730268,0.040804099,-0.259266883,0.35565412,-0.457521319,0.660088301,0.289553463
1.789987326,0.565190852,1.501874447,-1.869166851,0.539850056,-0.080752678,1.95121634,0.03528687,-0.260903001,0.354341477,-0.448613495,0.661949873,0.299857706
1.794989824,0.076542959,1.298807502,-1.709191561,0.777088284,-0.443799675,1.718494534,0.03104174,-0.262161881,0.353331506,-0.43860504,0.661147833,0.310282052
1.799993396,-0.359686136,0.936533749,-1.527777672,0.886677623,-0.677920401,1.559241772,0.029634135,-0.262579292,0.352996618,-0.42773068,0.65875572,0.321342707
1.804991722,-0.683566988,0.631559491,-1.38270402,0.815301359,-0.812297225,1.479806542,0.020559849,-0.262333542,0.353606969,-0.416991711,0.655494332,0.333034217
1.809990883,-0.904412985,0.452307224,-1.269453406,0.599016547,-0.893290341,1.435583234,0.015573536,-0.262111753,0.354024142,-0.407391846,0.651674271,0.345000148
1.814991117,-1.030626655,0.386306345,-1.19359982,0.330073714,-0.958556771,1.388696313,0.011736907,-0.261941105,0.354345113,-0.399382621,0.647363067,0.356857359
1.819992542,-1.065092564,0.404233962,-1.162047505,0.08393155,-1.036822796,1.333511353,0.010464753,-0.26188454,0.354451537,-0.392891407,0.64251852,0.368403077
1.824994802,-1.036423445,0.472984403,-1.162584543,-0.106246993,-1.135712266,1.262914062,0.007865608,-0.260155886,0.3558653,-0.387671441,0.637045979,0.379494309
1.829992414,-0.982136071,0.548691869,-1.17205143,-0.231595889,-1.262634635,1.151962996,0.005369866,-0.2578834,0.357677102,-0.383477032,0.630764723,0.389925778
1.834990621,-0.93124485,0.581725955,-1.177039385,-0.306149185,-1.419077873,0.99745363,0.003449563,-0.256134897,0.359071165,-0.380064517,0.623463869,0.39967221
1.83999002,-0.904819787,0.567103505,-1.170227885,-0.346034795,-1.585651159,0.809164643,0.002812827,-0.255555093,0.359533399,-0.377291083,0.615039051,0.408695817
1.844990253,-0.907583177,0.532636344,-1.147837758,-0.385228008,-1.739094734,0.602263153,0.002322902,-0.255108982,0.35988906,-0.375245571,0.605516434,0.416872561
1.849991679,-0.922909319,0.489234716,-1.119064331,-0.434207886,-1.858724117,0.395831525,0.0014788,-0.254256338,0.35796535,-0.373995364,0.595076263,0.42419821
1.854993939,-0.930181026,0.445889086,-1.082250118,-0.486542672,-1.936415195,0.195367768,0.00082932,-0.253600329,0.356485188,-0.373585522,0.583971083,0.430579722
1.859991312,-0.92551595,0.407162011,-1.045612335,-0.538655102,-1.973564506,0.010765571,0.000613965,-0.253382802,0.355994374,-0.373980105,0.57244879,0.436032444
1.864989638,-0.898293197,0.368815124,-1.014640093,-0.583239496,-1.967461467,-0.158070862,0.000448264,-0.253215432,0.355616719,-0.375121862,0.56077373,0.440544844
1.869989395,-0.855404735,0.330803096,-0.995238423,-0.636274278,-1.933945179,-0.317096591,0.001575371,-0.253019691,0.354398787,-0.376994669,0.549094796,0.444170922
1.87498951,-0.818416238,0.306285083,-0.97579658,-0.677804172,-1.874403,-0.462687969,0.00363784,-0.25272727,0.352356762,-0.379543215,0.53751862,0.446894884
1.879991055,-0.775474906,0.297119319,-0.970325887,-0.70003736,-1.79632616,-0.589620411,0.004321716,-0.252630323,0.351679653,-0.382613778,0.526163876,0.448780477
1.884993315,-0.709614396,0.301228285,-0.983690679,-0.702176034,-1.713972688,-0.697816789,0.004847912,-0.252555728,0.351158649,-0.38604039,0.51511085,0.44991526
1.889990687,-0.613211572,0.313967288,-1.011531711,-0.699719906,-1.649384022,-0.791795015,0.005022389,-0.252530992,0.350985914,-0.38972044,0.504310131,0.450407952
1.894988775,-0.497269779,0.321380138,-1.049979091,-0.688447595,-1.606275439,-0.886785626,0.010625987,-0.252310127,0.347509831,-0.393568754,0.49366504,0.450298071
1.899987936,-0.373116791,0.321664721,-1.096230626,-0.670367956,-1.593075871,-0.983768702,0.012484035,-0.252236903,0.346357256,-0.397481084,0.48303616,0.449692488
1.90498817,-0.253519803,0.326923013,-1.139579415,-0.656049371,-1.611344337,-1.076059461,0.013913676,-0.252180547,0.345470399,-0.401450008,0.472287238,0.448660433
1.909989595,-0.130324468,0.347718596,-1.196605325,-0.648575127,-1.672793865,-1.163897038,0.014387718,-0.25216186,0.345176339,-0.405487776,0.461211622,0.44730854
1.914992094,0.00796812,0.357861131,-1.252746582,-0.646482944,-1.783306479,-1.262534976,0.019737823,-0.251862288,0.342194527,-0.409523666,0.449572206,0.445715606
1.919989467,0.148635462,0.343132645,-1.297210693,-0.658234596,-1.92469883,-1.383256197,0.022745458,-0.251692414,0.340523928,-0.413617015,0.437219858,0.443883866
1.924987912,0.280463159,0.324383467,-1.319580793,-0.6858899,-2.093108177,-1.522155285,0.025059629,-0.251561671,0.339238524,-0.417898566,0.424008638,0.441736042
1.929987073,0.381143689,0.326057166,-1.319141626,-0.702727735,-2.289821625,-1.659275293,0.025826965,-0.251518339,0.338812321,-0.422302872,0.409746736,0.439320087
1.934993625,0.429548919,0.340831012,-1.288258791,-0.692655802,-2.483649254,-1.783831358,0.029740702,-0.251160026,0.33687672,-0.426692694,0.394415915,0.436686903
1.93999517,0.425354451,0.356366098,-1.22980535,-0.64531225,-2.642593145,-1.88031435,0.034389649,-0.250713527,0.33461377,-0.430855334,0.378203511,0.433903247
1.944997907,0.400885165,0.365349978,-1.158597708,-0.564141035,-2.760757446,-1.942595005,0.037966698,-0.250369936,0.332872599,-0.434569389,0.361364484,0.43107748
1.949995756,0.375994325,0.35745424,-1.089540362,-0.461555153,-2.831481695,-1.969009042,0.039152779,-0.250256002,0.332295239,-0.437676907,0.344220519,0.428335428
1.954994202,0.357582718,0.328372985,-1.031921387,-0.353705585,-2.86021471,-1.966434002,0.040065389,-0.250168353,0.331851006,-0.440110445,0.327028394,0.425762624
1.959993362,0.346238583,0.281968832,-0.989317536,-0.26564914,-2.846528292,-1.945367694,0.049212955,-0.249117717,0.32880947,-0.441955119,0.310012698,0.423346519
1.964993477,0.354837298,0.231975809,-0.964734912,-0.208263651,-2.797582388,-1.921370864,0.056251388,-0.248309329,0.326469213,-0.443401664,0.293369114,0.421037853
1.969994783,0.393987864,0.201362252,-0.952104509,-0.187968388,-2.741570234,-1.891513348,0.058585197,-0.248041287,0.32569325,-0.444685906,0.277164817,0.41878733
1.974997044,0.456670493,0.204923868,-0.948138714,-0.188178375,-2.683782816,-1.859922171,0.060380902,-0.24783504,0.32509616,-0.44595629,0.261433065,0.416499972
1.979994416,0.524617672,0.243291095,-0.937970281,-0.186301976,-2.646310806,-1.821812987,0.066014193,-0.246403977,0.323810965,-0.447242141,0.246081054,0.414131761
1.984992504,0.577094376,0.296141922,-0.921493769,-0.169634387,-2.617208481,-1.781832576,0.075442709,-0.24392499,0.321722716,-0.448465407,0.231033042,0.411715597
1.989991903,0.60768944,0.35293147,-0.898371994,-0.128330112,-2.591059923,-1.737735629,0.078569032,-0.243103012,0.321030289,-0.449490786,0.216245487,0.409312427
1.994992137,0.626396775,0.405050635,-0.874234974,-0.067938887,-2.555980921,-1.692961574,0.080974512,-0.242470562,0.320497513,-0.450233817,0.201772362,0.406920254
1.999993324,0.631892979,0.434974372,-0.850901425,-0.006417687,-2.506363392,-1.645421624,0.081772126,-0.242260844,0.320320874,-0.45065254,0.187663406,0.404559851
2.004995584,0.63679564,0.447830409,-0.827689767,0.046667904,-2.439599752,-1.59635067,0.093277261,-0.239096373,0.317586899,-0.450793803,0.17400226,0.402190864
2.009993076,0.640423656,0.449033111,-0.799589574,0.080610842,-2.362498283,-1.549033642,0.097092137,-0.238047093,0.316680342,-0.450756848,0.160839722,0.399842918
2.014991045,0.643152058,0.43094489,-0.774778426,0.094751939,-2.270611286,-1.500016212,0.100027435,-0.237239748,0.315982819,-0.450619727,0.14823918,0.397542417
2.019990444,0.648245931,0.410083443,-0.764431596,0.072437346,-2.172049284,-1.449520707,0.101000719,-0.236972049,0.315751553,-0.450550199,0.136226073,0.395288706
2.024990797,0.67026794,0.396419466,-0.775972962,0.000467274,-2.084641457,-1.398790836,0.109115459,-0.234125391,0.314681351,-0.450817704,0.124797978,0.393041313
2.029992342,0.708810449,0.385020375,-0.79841876,-0.123198748,-2.031605482,-1.341641784,0.113628849,-0.232528061,0.314105719,-0.451654464,0.113790609,0.390954882
2.034994841,0.787377775,0.393606454,-0.839146554,-0.296255201,-2.023453474,-1.290982723,0.117101602,-0.231299013,0.313662797,-0.453343868,0.103061318,0.389097095
2.039992332,0.908591092,0.398076862,-0.887155592,-0.494824469,-2.057779551,-1.283513904,0.118253097,-0.230891496,0.313515931,-0.456001878,0.092394382,0.387307525
2.044990778,1.018375278,0.406578541,-0.902052701,-0.696634471,-2.130088091,-1.318528891,0.122776479,-0.229300812,0.31262666,-0.459674299,0.081469975,0.385434121
2.049989939,1.08330977,0.449376941,-0.894739628,-0.867451012,-2.224774599,-1.379627109,0.127944261,-0.227485523,0.311548978,-0.46427232,0.070054203,0.383368909
2.054990053,1.095617652,0.511097431,-0.860001147,-0.977372229,-2.306596041,-1.453551173,0.131920516,-0.226088792,0.310719758,-0.469507456,0.058098458,0.381057739
2.05999136,1.079354763,0.571570516,-0.80479157,-1.001024008,-2.369930744,-1.515247226,0.133238971,-0.225625664,0.310444802,-0.474930078,0.04570296,0.378522396
2.064994335,1.037938356,0.614761055,-0.733122051,-0.933184505,-2.408806324,-1.547527313,0.134253427,-0.225269303,0.310233235,-0.480025768,0.033016872,0.375934243
2.069997549,0.957688928,0.629939318,-0.646983027,-0.79505223,-2.406194687,-1.542934418,0.140959769,-0.225055277,0.306566745,-0.484438986,0.020240135,0.373405576
2.074996233,0.863057196,0.605678797,-0.567330122,-0.613984585,-2.351897717,-1.50626564,0.146119833,-0.22489059,0.303745627,-0.487867683,0.007671384,0.371055424
2.079995632,0.797662735,0.542257428,-0.508365512,-0.433135271,-2.238431454,-1.439936757,0.147830814,-0.224835992,0.302810222,-0.490285277,-0.004262374,0.368908823
2.084995747,0.771781325,0.443689674,-0.466111422,-0.291247249,-2.086636543,-1.364947081,0.149147302,-0.224793971,0.302090466,-0.491849631,-0.015328124,0.366927624
2.089997053,0.773036301,0.34534049,-0.437690884,-0.211060807,-1.906585217,-1.288024306,0.153704599,-0.224247158,0.299444705,-0.492909342,-0.025366679,0.36501503
2.094999313,0.79495728,0.270533383,-0.417413324,-0.193918407,-1.718794227,-1.21458137,0.161377862,-0.223287582,0.294974953,-0.493830681,-0.034332927,0.363057405
2.099996567,0.832526624,0.224421173,-0.396464318,-0.217339665,-1.538410187,-1.141483903,0.163922176,-0.222969413,0.293492854,-0.494862348,-0.042269297,0.361030042
2.104995012,0.86338675,0.215636492,-0.367627501,-0.253716946,-1.371180415,-1.064335704,0.165879861,-0.222724617,0.292352498,-0.496110648,-0.049246192,0.358917892
2.10999465,0.880428851,0.216520995,-0.337158203,-0.278379351,-1.210682869,-0.980712593,0.166528985,-0.222643435,0.291974366,-0.497514307,-0.0552903,0.356766403
2.114995241,0.890441418,0.210390419,-0.301618129,-0.283942074,-1.052595377,-0.891680658,0.175752804,-0.220679626,0.28936401,-0.498940647,-0.060416814,0.354587436
2.119997025,0.903820753,0.198495775,-0.269265115,-0.27725327,-0.890488386,-0.796400666,0.178811252,-0.22002846,0.288498461,-0.500327289,-0.064579017,0.352449328
2.124999285,0.926631033,0.18260403,-0.236188442,-0.253602237,-0.723425746,-0.704739809,0.181164518,-0.219527438,0.287832469,-0.501580298,-0.067752108,0.350304514
2.129996538,0.987021565,0.175957635,-0.206977457,-0.222371176,-0.571704745,-0.620790422,0.181944817,-0.219361305,0.287611634,-0.502672136,-0.069940425,0.34811303
2.134994745,1.063121915,0.181388825,-0.174424917,-0.181152776,-0.440598369,-0.548363268,0.18582575,-0.218293026,0.286207438,-0.503594339,-0.071262591,0.345829219
2.139994144,1.122068167,0.189139366,-0.148625031,-0.119658336,-0.322080314,-0.499097407,0.18792437,-0.217706084,0.285436392,-0.504232347,-0.071867272,0.343400419
2.144994497,1.146559119,0.186636433,-0.124960221,-0.040826268,-0.193736315,-0.473639309,0.18953912,-0.217254475,0.284843147,-0.504448175,-0.07184232,0.340751827
2.149996042,1.140276313,0.176288441,-0.108688921,0.055036828,-0.046955992,-0.467080832,0.190074548,-0.217104733,0.284646451,-0.504146874,-0.071186423,0.337783515
2.154998302,1.128251076,0.167203829,-0.086917475,0.169351876,0.121834159,-0.475945264,0.191579089,-0.216520697,0.284499884,-0.503236055,-0.069826394,0.334358692
2.159995794,1.12678647,0.170400783,-0.060804278,0.300087184,0.307282984,-0.496607751,0.193179727,-0.215854272,0.284456164,-0.501657069,-0.067688622,0.330341548
2.164994001,1.136466742,0.175014138,-0.026748583,0.441221595,0.499827027,-0.512921035,0.194411308,-0.215341508,0.284422547,-0.499365449,-0.064717464,0.325763494
2.169993401,1.168399096,0.17231372,-0.003718158,0.58013916,0.700565338,-0.522354364,0.194819674,-0.215171486,0.284411371,-0.496368855,-0.060802095,0.320638895
2.174993753,1.206945658,0.1557367,0.01805269,0.706163585,0.907022595,-0.513141751,0.19513388,-0.215040669,0.284402788,-0.492717028,-0.055877529,0.315084785
2.17999506,1.250099897,0.123062409,0.033399563,0.802402198,1.11452353,-0.495057523,0.195162877,-0.213552997,0.286870509,-0.488563508,-0.049889531,0.309158862
2.18499732,1.300840974,0.081539579,0.039287839,0.872362375,1.330518365,-0.453375816,0.195185184,-0.212408319,0.288769245,-0.484028041,-0.042724907,0.302988052
2.18999505,1.364891171,0.067973062,0.02968879,0.928317964,1.520868897,-0.379757464,0.195192575,-0.212028772,0.289398849,-0.479254156,-0.03440094,0.296759218
2.194993258,1.087007761,-0.21145913,-0.366952777,0.785730302,1.725808144,-0.267513156,0.195198268,-0.211736739,0.289883256,-0.474184215,-0.025355473,0.291502237
2.199992418,-0.658481777,-0.753124535,-0.712570548,-0.180632889,2.154407501,-0.10961552,0.193794414,-0.20986107,0.292622983,-0.473859042,-0.0179596,0.289786875
2.204998732,-0.486258715,0.069071934,-0.815026939,0.420679659,2.670244932,0.030204769,0.191292822,-0.206619173,0.297338873,-0.47120747,-0.006099726,0.283835351
2.2099998,-0.996498704,0.739767373,-1.264225602,0.269141763,2.386483431,0.251624823,0.190463334,-0.205544218,0.298902571,-0.469842106,0.003418303,0.279765129
2.21500206,-0.928796887,1.035988927,-1.16890049,0.340023756,2.275268555,0.737092912,0.189825103,-0.204717129,0.300105751,-0.469315588,0.013325474,0.277697563
2.219999552,-0.935228109,1.024955273,-1.438232541,0.465430081,2.138210297,1.270133615,0.189613476,-0.204442874,0.300504684,-0.467140406,0.024409655,0.278813243
2.22499752,-0.958631337,0.958460271,-1.361510634,0.499075651,2.083675146,1.600570679,0.181830779,-0.203279004,0.307994723,-0.46496436,0.035506438,0.28191334
2.229996681,-0.615156412,0.979923189,-1.203030109,0.467060685,2.284086466,1.653030396,0.179250181,-0.202893093,0.31047827,-0.462953418,0.048506822,0.28385973
2.234997034,-0.328148484,1.045924067,-0.908922315,0.26613912,2.645574331,1.500083327,0.177264586,-0.202596158,0.312389195,-0.462642431,0.063248433,0.28356418
2.239998102,-0.022425607,0.720667601,-0.767731369,-0.139556527,3.23729229,1.188715696,0.176606193,-0.202497706,0.313022822,-0.464079589,0.080534339,0.280722022
2.245000601,0.443190753,0.503986359,-0.912135899,-0.472194165,3.823119164,0.762556016,0.167576805,-0.20292303,0.318542063,-0.467318237,0.100358024,0.274885267
2.249998093,1.0015378,0.488954008,-1.072725058,-0.697979748,4.213223934,0.37972942,0.162473843,-0.203188047,0.321617246,-0.471799523,0.122009657,0.265916407
2.254996538,1.190928459,0.433966666,-1.28758955,-0.764762938,4.314550877,0.176092327,0.158547446,-0.203391954,0.323983401,-0.476748854,0.14336732,0.25631243
2.259995699,1.322454095,0.355196297,-1.565983772,-0.57891649,4.305148602,0.212217316,0.157245517,-0.203459576,0.324767977,-0.480185211,0.164827585,0.24722226
2.264996529,1.431670189,-0.057340354,-1.857959747,-0.625496566,3.970826626,0.454705983,0.149354696,-0.204566732,0.327869833,-0.482692629,0.18544288,0.241681427
2.269998312,1.348748684,-0.277261376,-2.011640549,-0.721825421,3.523929834,0.772784948,0.13979131,-0.20599784,0.331417501,-0.485117555,0.204332501,0.239444211
2.275000811,1.392687201,-0.467499107,-1.896831393,-0.90906626,3.026530504,1.076992393,0.132432938,-0.207098991,0.334147215,-0.487813354,0.221859843,0.239895016
2.279998302,1.188087702,-0.318895221,-1.650072694,-1.123775244,2.591715574,1.318098545,0.129993051,-0.207464114,0.335052341,-0.491849542,0.237495065,0.241929457
2.284996271,1.131776929,0.00726077,-1.387686968,-1.267505407,2.30288434,1.456051469,0.128115728,-0.207745045,0.335748762,-0.497018635,0.252271563,0.243960842
2.289995432,1.062691569,0.460632056,-1.183016062,-1.383599877,2.059576273,1.436954975,0.115812212,-0.210236788,0.337669849,-0.503578067,0.265747488,0.245211959
2.294995785,1.006899714,1.010673046,-0.975653529,-1.34145236,1.894389987,1.309507608,0.10634549,-0.212154016,0.339147985,-0.510950029,0.278058946,0.244657725
2.299997091,0.797238767,1.419462204,-0.737710059,-1.22968936,1.77711308,1.083492279,0.103206508,-0.212789729,0.339638114,-0.518723547,0.288871735,0.242257446
2.305000305,0.554937184,1.658481598,-0.529591799,-0.9514907,1.828100443,0.864468396,0.100791268,-0.213278875,0.340015233,-0.525847912,0.298932374,0.237904146
2.309998274,0.385747015,1.637580514,-0.428464293,-0.668975353,1.902937293,0.67529434,0.094967023,-0.215765178,0.340076029,-0.53177923,0.308788419,0.232626319
2.314996719,0.286111176,1.465399384,-0.394765735,-0.343899667,2.01153779,0.541002214,0.085406229,-0.220028251,0.34005782,-0.536023378,0.318650961,0.226819843
2.319996119,0.410233229,1.091347575,-0.534159541,-0.111267954,2.066814423,0.457017124,0.082236052,-0.221441805,0.3400518,-0.538527489,0.328882873,0.221532449
2.324996233,0.62833631,0.768117785,-0.744726717,0.065673672,2.000076056,0.454358697,0.079796821,-0.222529441,0.340047151,-0.539473236,0.33918637,0.217297345
2.329997778,0.716035962,0.407807291,-0.895730138,0.111990787,1.81264174,0.502266943,0.078988016,-0.222890079,0.340045631,-0.539315104,0.348784864,0.214894101
2.335000038,0.76357621,0.184636891,-1.007594585,0.071169294,1.586169004,0.578746974,0.06894128,-0.224951237,0.339000016,-0.538717806,0.357657254,0.214126974
2.340003252,0.740511477,0.144228831,-1.015358329,0.008679163,1.36736691,0.67202878,0.065609969,-0.225634679,0.338653326,-0.538161933,0.36570096,0.21441184
2.345001698,0.85505563,0.283419251,-1.023571253,-0.03283336,1.137335658,0.757503211,0.063046761,-0.226160541,0.338386565,-0.537696004,0.373190165,0.215314731
2.350001574,0.846952319,0.552055478,-0.944072306,-0.056077603,0.938101947,0.737604856,0.062196847,-0.226334915,0.338298082,-0.537763238,0.379630953,0.21585831
2.355002165,0.790794969,0.697554946,-0.873880744,-0.015323127,0.798125088,0.672835648,0.055731803,-0.226396844,0.339501977,-0.537855446,0.385150015,0.216013998
2.360003233,0.715413749,0.695201993,-0.821102679,0.041274063,0.717257142,0.611024261,0.052150145,-0.226399496,0.340215921,-0.53763932,0.390097618,0.216121897
2.365005732,0.70840174,0.694745243,-0.851527214,0.108692266,0.633502901,0.559335053,0.049394306,-0.226401538,0.340765238,-0.536993325,0.39457792,0.216323718
2.370003223,0.651866555,0.623992741,-0.880638003,0.153032869,0.534015477,0.508317769,0.048480518,-0.226402223,0.34094739,-0.536012173,0.398410022,0.216752872
2.375001669,0.553958714,0.526173234,-0.857910633,0.177026182,0.452687234,0.499152213,0.04552481,-0.226501197,0.341351986,-0.534642279,0.401707053,0.217710435
2.38000083,0.514202654,0.517069757,-0.818977535,0.210135624,0.398637384,0.513987064,0.042273231,-0.226633295,0.341752797,-0.533094585,0.404827833,0.218805149
2.385000944,0.490511715,0.538632751,-0.792959511,0.238182858,0.370093495,0.508313537,0.039771359,-0.226734936,0.342061192,-0.531448185,0.407801807,0.219867989
2.390002966,0.481381923,0.562983811,-0.78031987,0.260958016,0.35033524,0.486419231,0.038941786,-0.226768628,0.342163473,-0.529787183,0.410617709,0.220769972
2.395005465,0.481067866,0.555092514,-0.78128159,0.27769646,0.337628663,0.466782123,0.038303487,-0.226794571,0.342242122,-0.52804327,0.413335621,0.221649155
2.400002956,0.4845514,0.533285499,-0.800545216,0.295058727,0.319896966,0.454047561,0.035612728,-0.226091787,0.342750192,-0.526128292,0.415938169,0.222625494
2.405001402,0.493001401,0.499657363,-0.818725526,0.30668053,0.293674469,0.441040367,0.033542372,-0.225551039,0.343141079,-0.524087012,0.418400168,0.223721623
2.410000563,0.474356443,0.475081354,-0.829651773,0.308497667,0.269105643,0.426507741,0.03285588,-0.225371733,0.343270689,-0.521988928,0.420678407,0.224904642
2.415000916,0.458667517,0.457787335,-0.834000647,0.300498456,0.260855824,0.410054386,0.032327671,-0.225233763,0.343370408,-0.519942939,0.422856897,0.226063102
2.420001984,0.456654876,0.45124048,-0.834071398,0.289252162,0.254455149,0.390650868,0.030993005,-0.224901795,0.343924612,-0.517983675,0.424964249,0.227160215
2.425004482,0.461194903,0.440347344,-0.839015961,0.276801974,0.248693362,0.368574023,0.028793612,-0.224356934,0.344877988,-0.516094089,0.426990986,0.228187382
2.430001974,0.46527034,0.422394425,-0.840347886,0.258647442,0.238077357,0.345703214,0.028064337,-0.224176273,0.345194101,-0.514310956,0.428924173,0.229185656
2.435000658,0.459052145,0.409872442,-0.838252485,0.241252765,0.230581388,0.330650479,0.027503209,-0.224037245,0.345437348,-0.512618423,0.430769295,0.230157211
2.440000057,0.449950486,0.408707052,-0.837403715,0.21767807,0.219185188,0.318987995,0.02731715,-0.223991141,0.345517993,-0.511051595,0.432527721,0.231114641
2.445000172,0.460444003,0.422961682,-0.846055746,0.198903337,0.201767668,0.309005469,0.025097551,-0.222827062,0.346708477,-0.509605527,0.434186012,0.23203449
2.450001478,0.477089345,0.44185105,-0.84575361,0.179841667,0.171612322,0.299499214,0.024361573,-0.222441092,0.347103238,-0.508263111,0.435703576,0.232949302
2.455003738,0.476921916,0.443909675,-0.83122009,0.164305642,0.149340615,0.284279257,0.023795288,-0.222144112,0.347406954,-0.507021487,0.437085867,0.23381488
2.460000992,0.469621807,0.434549958,-0.818191946,0.145818457,0.134898484,0.26998058,0.023607519,-0.22204563,0.347507656,-0.505871296,0.438367456,0.23466441
2.464999199,0.459029704,0.427271962,-0.813602924,0.130264595,0.120323651,0.258374602,0.022054272,-0.221635759,0.347884893,-0.504804492,0.439540505,0.23550649
2.470004797,0.453847945,0.421154439,-0.813068807,0.110563651,0.11152827,0.243606061,0.021190641,-0.221417189,0.348084152,-0.503847122,0.440639257,0.236323565
2.47500515,0.455494434,0.414933801,-0.811085761,0.088235229,0.100608513,0.230367929,0.020526135,-0.221249014,0.348237485,-0.503017724,0.441666722,0.237106204
2.480006695,0.448739409,0.413803846,-0.805444717,0.071925871,0.091812544,0.2244398,0.020305797,-0.221193254,0.348288327,-0.502257049,0.442628741,0.23789154
2.485009193,0.439935446,0.418225467,-0.799601078,0.061930276,0.087155595,0.222420156,0.019664902,-0.220880553,0.348490357,-0.501570046,0.443558216,0.238655195
2.490006685,0.430111587,0.423570722,-0.799174845,0.046251774,0.089727044,0.221147865,0.018977074,-0.22050482,0.348721623,-0.500975668,0.444471121,0.239391625
2.495004892,0.429664344,0.43261227,-0.800911188,0.036336951,0.086601995,0.220467359,0.018447835,-0.220215723,0.348899603,-0.500428259,0.445370734,0.240126193
2.500004292,0.447109401,0.437290639,-0.806463718,0.024306912,0.075931326,0.221974254,0.01827235,-0.220119864,0.348958611,-0.499926895,0.446250945,0.240885347
2.505004644,0.461823106,0.437445343,-0.804818332,0.015584757,0.057532333,0.215843663,0.018137326,-0.220046103,0.349004,-0.499455512,0.447051167,0.241654724
2.510006189,0.465646774,0.42363447,-0.803021848,0.002445711,0.042775512,0.208493635,0.017365772,-0.21995686,0.349032432,-0.499039799,0.447772563,0.242454812
2.51500845,0.440245807,0.41143623,-0.790707469,-0.00918469,0.03724261,0.202846855,0.016772112,-0.219888195,0.349054337,-0.498672813,0.44841671,0.243273184
2.520005941,0.3909778,0.409577161,-0.777063012,-0.019295836,0.050233092,0.200398758,0.016575266,-0.219865426,0.349061579,-0.498397142,0.44904834,0.244037405
2.525004148,0.352491081,0.429074824,-0.774810135,-0.031358104,0.080054775,0.198801354,0.016423807,-0.219847918,0.349067152,-0.498254865,0.449748546,0.244669914
2.530003309,0.348840475,0.461479902,-0.779544592,-0.032780841,0.113482863,0.190559745,0.016015118,-0.219749033,0.349043548,-0.498227805,0.450584531,0.245104343
2.535003424,0.379925072,0.479496896,-0.779058576,-0.028366638,0.137348145,0.182277024,0.015338193,-0.219578847,0.348999649,-0.498240173,0.451568395,0.245357409
2.540004492,0.408166736,0.465171635,-0.781160176,-0.026582912,0.15302512,0.177193657,0.015113737,-0.219522431,0.348985106,-0.498236597,0.452632427,0.245590866
2.545006752,0.434275597,0.443927109,-0.791439414,-0.030226491,0.158024848,0.168101072,0.014941034,-0.21947901,0.3489739,-0.498218089,0.45373258,0.245838955
2.550004244,0.45817849,0.420243531,-0.800578415,-0.046188883,0.155429721,0.154101774,0.014883769,-0.219464615,0.348970175,-0.498274297,0.454822302,0.246091932
2.555002928,0.460323364,0.398153752,-0.800084829,-0.06316679,0.152177617,0.134793103,0.01381434,-0.219703317,0.348990053,-0.498425245,0.455842495,0.246301055
2.560002089,0.44685787,0.400940984,-0.795494556,-0.079082817,0.153982803,0.117506601,0.013459738,-0.219782457,0.348996669,-0.498711556,0.456799865,0.24640125
2.565002203,0.442322075,0.42862609,-0.790964007,-0.089868046,0.157425568,0.10363315,0.013186896,-0.219843358,0.349001735,-0.499146938,0.457731545,0.246336058
2.57000351,0.451830417,0.458012342,-0.785401464,-0.095559567,0.157853454,0.088295497,0.013096427,-0.219863564,0.349003434,-0.499696165,0.458634704,0.246112436
2.575006008,0.457866251,0.46748361,-0.778033614,-0.09394455,0.160869136,0.077743277,0.012158023,-0.219967246,0.348635972,-0.500269651,0.459545881,0.245803744
2.580003262,0.454733998,0.468340456,-0.771026194,-0.087161832,0.161250457,0.072791763,0.011631881,-0.220023438,0.348422885,-0.500816882,0.460437804,0.245469972
2.585001707,0.444700181,0.469524086,-0.767556667,-0.076787189,0.164317057,0.069384456,0.01122705,-0.220066682,0.348258942,-0.501331747,0.461319447,0.245104626
2.590000868,0.4377985,0.46822378,-0.765967846,-0.064841785,0.163373843,0.073592015,0.011092816,-0.220081016,0.348204583,-0.501762807,0.462198675,0.244781822
2.595000982,0.428354055,0.471122265,-0.756716371,-0.050649576,0.162137598,0.078926429,0.010690848,-0.220373169,0.348297179,-0.502113879,0.463072717,0.244471475
2.600002527,0.423426121,0.478023469,-0.754531264,-0.03294361,0.16771844,0.086262099,0.010256372,-0.220753521,0.348463476,-0.502385616,0.463989466,0.244172052
2.605010748,0.425407588,0.486005723,-0.753763437,-0.016971916,0.174036905,0.092881978,0.009922072,-0.221046194,0.348591447,-0.502582014,0.46494633,0.243862763
2.6100142,0.427295148,0.48998186,-0.750251532,0.00288711,0.179343835,0.098793998,0.009811224,-0.221143231,0.348633856,-0.502682447,0.465941608,0.24355711
2.615012646,0.423303932,0.481512725,-0.753089488,0.018274086,0.182349548,0.107451446,0.009725935,-0.221217901,0.348666489,-0.502664864,0.466964602,0.243311569
2.620012045,0.414888352,0.48063311,-0.75196743,0.034820769,0.191038996,0.116584443,0.009359282,-0.221237615,0.348518133,-0.502557814,0.468037277,0.243096173
2.625012159,0.410508782,0.485310972,-0.754757047,0.0549163,0.203295022,0.123474933,0.009077166,-0.221252784,0.34840396,-0.502352357,0.469166607,0.242879435
2.630013704,0.415358901,0.49034214,-0.75591588,0.07784719,0.21290648,0.135894954,0.008983622,-0.221257821,0.348366112,-0.502035439,0.470377445,0.242675349
2.635016441,0.426993817,0.489584029,-0.758241236,0.10103029,0.218409866,0.143986389,0.008911647,-0.22126168,0.348336965,-0.501580119,0.471644551,0.242500663
2.64001441,0.431186646,0.489890665,-0.757304192,0.125895619,0.222141638,0.15061228,0.008364843,-0.22122319,0.34843114,-0.500992119,0.472955227,0.242344633
2.645012617,0.434115469,0.489111722,-0.750687957,0.153912351,0.227833807,0.153298542,0.007415343,-0.221153349,0.348608553,-0.500263691,0.474293441,0.242183894
2.650012255,0.444706082,0.480298132,-0.751656651,0.177109495,0.235043719,0.149917975,0.007100507,-0.221130192,0.348667383,-0.499429792,0.475678086,0.241987526
2.655012369,0.450220078,0.47010088,-0.755351245,0.199801356,0.237483218,0.147948593,0.006858262,-0.22111237,0.348712653,-0.498462975,0.477077156,0.241816506
2.660013914,0.45354262,0.462643683,-0.758253217,0.223447472,0.239201695,0.146374851,0.006777938,-0.22110647,0.348727673,-0.497367829,0.478473306,0.241650775
2.665016174,0.454275608,0.467315316,-0.760470867,0.25138554,0.242882177,0.141423747,0.005422081,-0.220601752,0.349125624,-0.496162653,0.479860038,0.241443232
2.670013428,0.45685485,0.462628692,-0.769182146,0.273632288,0.244992882,0.132763833,0.004972505,-0.220434397,0.349257588,-0.494849533,0.481245041,0.241214186
2.675011635,0.460166126,0.448385626,-0.775280178,0.290496737,0.24515608,0.122625187,0.004626587,-0.220305637,0.349359125,-0.49345693,0.482603252,0.240968302
2.680010796,0.474712163,0.434531718,-0.787863672,0.297978431,0.242344931,0.108977973,0.004511886,-0.220262945,0.349392802,-0.49201417,0.483930528,0.240729004
2.685011148,0.476646274,0.41853267,-0.79703176,0.29614976,0.235283628,0.097469777,0.003295389,-0.219288215,0.350203216,-0.490572989,0.485194713,0.240491763
2.690012455,0.486146063,0.415290713,-0.800840139,0.289936066,0.232854635,0.085793562,0.002612834,-0.218731925,0.350666076,-0.489201814,0.486434758,0.24020198
2.695014715,0.488831908,0.412949383,-0.800718665,0.280414641,0.227591649,0.076360516,0.002087654,-0.218303904,0.351022214,-0.4878892,0.487633705,0.239882097
2.700011969,0.476466507,0.417639732,-0.789799392,0.271276653,0.220033765,0.069302037,0.001913515,-0.218161985,0.35114029,-0.486659199,0.488762707,0.239527583
2.705010414,0.459043145,0.433952987,-0.777241945,0.269574612,0.220335141,0.067080967,0.001085143,-0.217603579,0.351647288,-0.485474557,0.489857137,0.239102423
2.710009575,0.442721486,0.449486107,-0.769832551,0.274254858,0.22547172,0.066923283,0.000110257,-0.216965452,0.352235019,-0.48430571,0.490959108,0.238614321
2.715009689,0.441907048,0.461973161,-0.776459277,0.285969019,0.229944929,0.069571503,-0.000639851,-0.216474459,0.35268724,-0.483081877,0.492079496,0.238126069
2.720011473,0.449939102,0.446484625,-0.779011726,0.294163823,0.232519582,0.074246496,-0.000888573,-0.216311663,0.352837175,-0.481773853,0.493238091,0.237694085
2.725013971,0.446019143,0.443700492,-0.78129375,0.302571982,0.235436276,0.074426815,-0.001079947,-0.216186389,0.35295257,-0.48043108,0.494400024,0.237278774
2.730011463,0.469137847,0.432828605,-0.791819394,0.308499426,0.233887523,0.076780848,-0.00134637,-0.21557796,0.353540659,-0.479013264,0.495597869,0.236890405
2.735009909,0.465214461,0.423590273,-0.782131374,0.312510252,0.235027298,0.077271402,-0.001551363,-0.21510981,0.353993148,-0.477580994,0.496793211,0.23652564
2.74001503,0.464755565,0.434783846,-0.782087088,0.319228321,0.233723596,0.080618508,-0.001619335,-0.21495457,0.354143202,-0.476125509,0.49800396,0.236143857
2.745015383,0.460212052,0.444584519,-0.777552545,0.325283796,0.234281152,0.085574158,-0.001671635,-0.214835137,0.354258657,-0.474668413,0.499194086,0.235731155
2.750016451,0.452548772,0.454489589,-0.768939257,0.346420527,0.233370081,0.096523851,-0.002220449,-0.214205459,0.354708314,-0.473090529,0.500400007,0.235356778
2.755019188,0.443396211,0.475120008,-0.764194965,0.375414878,0.226034671,0.11115025,-0.003180125,-0.21312429,0.35547027,-0.471346945,0.501585603,0.235022724
2.760017395,0.437607348,0.485087544,-0.769302905,0.411748916,0.21994473,0.135462865,-0.003498335,-0.212765798,0.355722934,-0.469378322,0.502785325,0.234812081
2.765015602,0.44350633,0.488018632,-0.764719546,0.452637464,0.208810687,0.159235284,-0.003743176,-0.212489948,0.355917335,-0.467120647,0.50399965,0.2347482
2.770015001,0.455048919,0.478705794,-0.759977877,0.490720123,0.200470686,0.184211969,-0.003824361,-0.212398499,0.355981797,-0.46458438,0.50526154,0.234840885
2.775015116,0.47398439,0.45377472,-0.768265307,0.51930809,0.186964422,0.209731951,-0.005515851,-0.211005971,0.357148945,-0.461776853,0.506550372,0.235178337
2.780016422,0.469576955,0.421118081,-0.771829545,0.534492075,0.175670758,0.22991018,-0.006076717,-0.210544229,0.357535928,-0.45876497,0.507826924,0.235766411
2.785018682,0.465855151,0.402343482,-0.787435055,0.532744765,0.171066448,0.239216879,-0.006508265,-0.210188955,0.357833713,-0.455701768,0.509081364,0.23646763
2.790016174,0.467977703,0.369409651,-0.803012013,0.513265193,0.169900388,0.246267289,-0.006651358,-0.210071161,0.357932448,-0.452671766,0.510348558,0.237306625
2.795014381,0.463122696,0.35184592,-0.814493895,0.469443649,0.170122251,0.25544709,-0.007755005,-0.208426043,0.359501362,-0.449816287,0.511620164,0.238249838
2.800014257,0.439633101,0.362700582,-0.819124222,0.430934668,0.181955323,0.259320438,-0.008366809,-0.207495898,0.360391051,-0.447197914,0.512911141,0.239155233
2.80501461,0.429658294,0.367828339,-0.831395447,0.397681624,0.195171431,0.269511253,-0.008837551,-0.20678021,0.36107558,-0.444740534,0.514253318,0.240077347
2.810015917,0.416960448,0.380491555,-0.839420676,0.370837897,0.213287383,0.285255194,-0.00899364,-0.206542894,0.361302555,-0.442407697,0.51567924,0.241025895
2.815018177,0.442104965,0.398452461,-0.837245941,0.336045504,0.225973308,0.302765846,-0.009619337,-0.205655515,0.361886799,-0.440246105,0.517251909,0.241976053
2.820015907,0.460238159,0.393515736,-0.829497576,0.304789633,0.243760854,0.321305484,-0.010336648,-0.204650566,0.362493545,-0.438220799,0.518966556,0.242958739
2.825014114,0.471596092,0.378819227,-0.828347385,0.280651659,0.256503522,0.342131495,-0.01088857,-0.20387733,0.362960368,-0.436258376,0.520788133,0.244074106
2.830013275,0.482315212,0.354782701,-0.831262648,0.255171597,0.268296689,0.363053203,-0.011071577,-0.20362094,0.363115191,-0.434275806,0.522760332,0.245352715
2.83501339,0.485770643,0.373104125,-0.822293282,0.225827545,0.276035398,0.369345874,-0.011212389,-0.203423664,0.363234311,-0.432545096,0.524743617,0.246532813
2.840015411,0.493166745,0.385848403,-0.815454304,0.194711372,0.290753424,0.378856957,-0.012631881,-0.202209756,0.363950253,-0.430968672,0.526831567,0.247681007
2.84501791,0.499422789,0.397527784,-0.806691587,0.179556757,0.302491516,0.391275495,-0.013724085,-0.201275736,0.364501119,-0.429486662,0.528988719,0.248818994
2.850015163,0.486450613,0.379374981,-0.824126005,0.160054281,0.309575617,0.4106552,-0.014086239,-0.20096603,0.364683747,-0.427953839,0.531202674,0.250159144
2.855013609,0.473877907,0.361186922,-0.844014704,0.131481811,0.326915741,0.431482047,-0.014364892,-0.200727746,0.364824295,-0.426487744,0.533480883,0.251661599
2.86001277,0.472079456,0.381131172,-0.839735985,0.101183616,0.344391495,0.449578822,-0.015230267,-0.20040305,0.364914477,-0.425216049,0.535883963,0.253157228
2.865012884,0.464977503,0.411507219,-0.837219715,0.077520356,0.370464176,0.476795733,-0.016677717,-0.199904799,0.365027934,-0.424069375,0.538429081,0.254608095
2.870014191,0.467131615,0.415447265,-0.844046474,0.045312285,0.392562777,0.518696487,-0.017157665,-0.19973959,0.365065575,-0.422985822,0.541174889,0.256263942
2.875022888,0.462072641,0.41049251,-0.859392703,0.006103736,0.427308708,0.568365395,-0.017526951,-0.199612468,0.365094513,-0.421957672,0.54415381,0.258155555
2.880026579,0.46919319,0.408490717,-0.868986368,-0.064628914,0.472206742,0.618236899,-0.017649399,-0.199570328,0.365104109,-0.421222985,0.547451794,0.260242671
2.885025501,0.404868275,0.466799289,-0.902103722,-0.015096622,0.597873271,0.681721807,-0.020969808,-0.198863536,0.36575371,-0.420342118,0.551264942,0.262251914
2.890024662,0.397789091,0.381803006,-0.965071976,0.014138353,0.787065506,0.730397344,-0.022070793,-0.198629186,0.365969092,-0.418964356,0.55610317,0.264454126
2.895025253,0.41890493,0.339199305,-1.001900792,-0.060055479,0.958173215,0.783196449,-0.022917926,-0.198448852,0.366134793,-0.418034911,0.561863363,0.266706109
2.900026321,0.422009975,0.392379344,-1.035408854,-0.154149204,1.149999499,0.829265177,-0.023198819,-0.198389053,0.366189748,-0.417859674,0.56852001,0.268579632
2.905028582,0.383738726,0.449758619,-1.05606997,-0.178357184,1.371073365,0.887512207,-0.026414363,-0.198290542,0.365682155,-0.418012977,0.576214254,0.270107478
2.910026073,0.388635188,0.434679657,-1.107110143,-0.20972684,1.597825289,0.95796144,-0.02822279,-0.198244885,0.365377784,-0.418233514,0.585050106,0.271659434
2.915024042,0.365789205,0.409015,-1.151772618,-0.263305336,1.858023167,1.045363784,-0.029614251,-0.198209748,0.365143567,-0.418685704,0.595195293,0.273244917
2.920023441,0.359058797,0.464560479,-1.212691665,-0.309179962,2.154970884,1.148465514,-0.030075634,-0.198198095,0.365065902,-0.419610053,0.606816113,0.274582267
2.925023794,0.276130319,0.530967057,-1.21462512,-0.274768978,2.522365808,1.268718243,-0.033832543,-0.198447287,0.364291042,-0.420544297,0.620188177,0.275505245
2.930025101,0.233022764,0.529526651,-1.28082335,-0.294677943,2.953539133,1.378270745,-0.038508724,-0.198790252,0.363313019,-0.421719104,0.63571924,0.276153266
2.935027361,0.202716887,0.500335097,-1.281267524,-0.370180756,3.4200418,1.496231079,-0.042106729,-0.199054137,0.362560481,-0.423606396,0.653528094,0.276343882
2.940024853,0.169933394,0.522654474,-1.321184039,-0.4990879,3.972501516,1.613184214,-0.043299761,-0.199141636,0.362310946,-0.426712692,0.674082696,0.275676012
2.94502306,0.151343688,0.571204722,-1.359113455,-0.692306101,4.488604546,1.797919393,-0.044217713,-0.19920896,0.362118959,-0.43123737,0.697228611,0.274415493
2.950022221,0.017135482,0.600238442,-1.340847135,-0.882335365,5.0315485,2.092855692,-0.054674916,-0.199268386,0.358883768,-0.436705828,0.723233342,0.273451596
2.955022335,-0.077562377,0.659279227,-1.323313236,-1.096451759,5.577376366,2.428046227,-0.062721021,-0.199314103,0.35639447,-0.443204165,0.752291024,0.272502333
2.960024357,-0.044037856,0.741173506,-1.352162957,-1.328899503,6.082304478,2.812110662,-0.065388955,-0.199329272,0.355569065,-0.450646222,0.784429669,0.272020727
2.965026617,0.209022835,0.838298082,-1.390300512,-1.418652415,6.493638515,3.206191778,-0.067441761,-0.19934094,0.354933977,-0.458078086,0.81942606,0.272030413
2.97002387,0.343809545,0.946354687,-1.318490386,-1.320317984,6.770572186,3.545224667,-0.078546003,-0.199791938,0.350100696,-0.46435982,0.856485069,0.27262187
2.975022078,0.431030989,0.884513438,-1.275996685,-1.234094143,7.000850201,3.734799385,-0.097629815,-0.200591072,0.341707557,-0.469779193,0.895008385,0.273628384
2.980021477,0.802210808,0.933655798,-1.522381186,-1.149884224,6.982247353,3.857789516,-0.103957653,-0.200856045,0.338924527,-0.474055886,0.933563054,0.275603473
2.985021591,1.164490938,1.082501888,-1.63475728,-1.060408473,6.875953197,3.874642134,-0.108826488,-0.201059923,0.336783201,-0.477680504,0.971537411,0.27761972
2.990022898,1.643836617,1.230716348,-1.791119099,-1.002111435,6.637873173,3.893201351,-0.110440902,-0.201127529,0.33607319,-0.480515957,1.008387446,0.280087888
2.995025158,1.918707848,1.416732192,-1.795652509,-0.963206649,6.392620087,3.938600302,-0.144143552,-0.198500693,0.317044616,-0.482063204,1.044248819,0.283843219
3.000022173,2.123966217,1.45061183,-1.899640083,-0.906433523,6.024443626,3.853674412,-0.155318707,-0.197629675,0.310735106,-0.482373655,1.07804811,0.288551569
3.005020857,2.273436546,1.497595549,-1.930343032,-0.713063955,5.534956455,3.857028008,-0.163917243,-0.196959496,0.305880368,-0.478970677,1.109484434,0.296270102
3.010026217,2.127860546,1.599052668,-1.824499965,-0.34214747,5.033162594,3.869651556,-0.166768357,-0.196737275,0.304270625,-0.470467538,1.138442159,0.307194799
3.015026569,1.704305887,1.514127493,-1.48947823,0.17770648,4.730871677,3.813028574,-0.191640764,-0.191495582,0.288447112,-0.457369864,1.16590476,0.319902956
3.020027876,1.350391865,1.319680572,-1.463315487,0.818056583,4.526060581,3.744478703,-0.205499887,-0.188502774,0.279591233,-0.437649786,1.192364573,0.336318374
3.025030136,0.95894587,1.121939898,-1.35849452,1.357811689,4.314906597,3.635007858,-0.216163546,-0.186200008,0.27277723,-0.412427902,1.21737957,0.355747253
3.030027628,0.338901162,0.728296995,-1.411384106,1.79613924,4.028494358,3.338410378,-0.219699398,-0.185436457,0.270517856,-0.381783724,1.240151525,0.379199862
3.035025597,0.083131455,0.251912266,-1.553864837,1.661964536,3.412200451,2.78626132,-0.232344076,-0.179499492,0.262732565,-0.350351155,1.258366346,0.404905111
3.040024757,0.595159233,0.266669869,-1.640084863,0.953079164,2.815341234,2.355596304,-0.246544182,-0.172136515,0.254053503,-0.324589074,1.272775531,0.428995907
3.04502511,1.386903763,0.238844827,-2.194601297,0.274308115,2.11438942,2.115218878,-0.257470191,-0.166471198,0.247375563,-0.298932374,1.283099651,0.457227945
3.050026417,1.081895471,0.615122557,-2.178106308,-0.347897202,1.264368057,1.880252242,-0.26109305,-0.164592698,0.245161295,-0.276523352,1.287971258,0.484804422
3.055028915,0.057108104,0.754697561,-1.593004942,-0.71923399,0.798192143,1.687247157,-0.26388061,-0.1631473,0.243457556,-0.258367211,1.290824294,0.509019136
3.060026407,-0.334769338,0.851101995,-1.258188605,-0.859326422,0.572879851,1.544599295,-0.275396913,-0.155060023,0.237157494,-0.242800951,1.293028116,0.530623794
3.065024614,-0.155255288,0.956978381,-1.266805291,-0.784530938,0.277386129,1.436207294,-0.284257919,-0.148837402,0.232310012,-0.227483273,1.293656349,0.551324666
3.070023775,0.022658262,1.044743299,-1.331499338,-0.602490485,-0.145568579,1.309095263,-0.287223995,-0.146775454,0.230617955,-0.211902797,1.291765451,0.571188807
3.07502389,0.029859621,1.035877228,-1.316756725,-0.413233876,-0.60965395,1.147274375,-0.289506197,-0.145188943,0.229316041,-0.196707636,1.287326813,0.589661419
3.080025196,-0.134108782,0.94224304,-1.236140847,-0.248685837,-1.034934998,0.972496688,-0.292972922,-0.143350154,0.228138685,-0.182333902,1.280614734,0.606555939
3.085027218,-0.371846527,0.815125704,-1.125503898,-0.128509462,-1.380998015,0.789945781,-0.298380613,-0.140607938,0.226478815,-0.169511795,1.272099733,0.62139231
3.09002471,-0.547809422,0.688436925,-1.040286779,-0.062758453,-1.641037107,0.619487047,-0.3001737,-0.139698669,0.225928441,-0.158574209,1.262267828,0.634131432
3.095022917,-0.650278211,0.583669245,-0.963268697,-0.056658991,-1.835778236,0.459435403,-0.301553339,-0.13899906,0.225504965,-0.149863079,1.251454592,0.644657671
3.100022316,-0.688376546,0.500297368,-0.903533697,-0.10416685,-2.00269556,0.304467708,-0.302010804,-0.138767079,0.225364551,-0.143565699,1.239808321,0.653037727
3.10502243,-0.699166536,0.429103166,-0.848869562,-0.197805032,-2.122551441,0.145411,-0.303556383,-0.13709873,0.230908975,-0.139923334,1.227543831,0.659154296
3.110023975,-0.669461846,0.380656481,-0.831104338,-0.31813997,-2.243612051,-0.011404257,-0.304068863,-0.136545539,0.232747406,-0.138916954,1.214640737,0.663232148
3.115026236,-0.643028259,0.361435503,-0.812119365,-0.450327128,-2.366125822,-0.173931316,-0.304463178,-0.136119902,0.234161943,-0.140540943,1.201030612,0.665246665
3.120023489,-0.613844037,0.359614372,-0.802225173,-0.576280355,-2.47418046,-0.337257534,-0.304593921,-0.135978758,0.234630987,-0.14461942,1.186809063,0.665329099
3.125021696,-0.571306229,0.378442824,-0.803133786,-0.677423656,-2.576982737,-0.495826483,-0.302623868,-0.136454239,0.24207674,-0.150793716,1.171975851,0.663595855
3.130021095,-0.515883148,0.398596734,-0.812953889,-0.750209212,-2.67148447,-0.655950606,-0.30145824,-0.13675642,0.24629879,-0.158710927,1.156542063,0.66030401
3.13502121,-0.446333468,0.415905118,-0.830851793,-0.793846786,-2.766608477,-0.817657948,-0.300561368,-0.136988923,0.249547377,-0.168034777,1.140520215,0.655660808
3.140022755,-0.371427953,0.425982028,-0.854506433,-0.818471789,-2.871399403,-0.972961903,-0.300263971,-0.137066022,0.250624537,-0.178355828,1.12383604,0.64999485
3.145031214,-0.297193259,0.428564906,-0.871874928,-0.833960772,-2.980375767,-1.125418425,-0.29707396,-0.139444605,0.256091267,-0.18943949,1.106469512,0.643475413
3.150034428,-0.224449351,0.43316406,-0.881024599,-0.837163627,-3.092409134,-1.27261889,-0.293030173,-0.14257203,0.262580812,-0.201049387,1.088413835,0.636251688
3.155032873,-0.150664732,0.440609783,-0.887089849,-0.839058578,-3.208454132,-1.405404568,-0.289918751,-0.144978374,0.267574042,-0.212955579,1.069676876,0.62858212
3.160032034,-0.071802258,0.458247513,-0.895105541,-0.840819895,-3.325060844,-1.529860973,-0.288887054,-0.145776272,0.26922971,-0.225030616,1.050233722,0.620590985
3.165032148,0.012050781,0.482727408,-0.910548091,-0.836518764,-3.439500093,-1.659153342,-0.288093239,-0.1463902,0.27050364,-0.237242013,1.030088305,0.612275064
3.170033455,0.098760381,0.506036699,-0.922851503,-0.814304471,-3.551413774,-1.798850656,-0.280217767,-0.152694985,0.279897183,-0.249516502,1.009255409,0.603504241
3.175035715,0.17769067,0.520337999,-0.934202075,-0.771678925,-3.66126442,-1.951371312,-0.27415812,-0.157546073,0.287124842,-0.261764467,0.987705231,0.594310641
3.180032969,0.244078964,0.53001368,-0.943316996,-0.724425495,-3.764790773,-2.115270376,-0.272148848,-0.159154594,0.289521396,-0.273976266,0.965452254,0.584687412
3.185031414,0.300890714,0.538501084,-0.952255726,-0.665699482,-3.869392872,-2.279745102,-0.270602852,-0.160392255,0.291365385,-0.286026955,0.942470074,0.574688554
3.190030575,0.349877805,0.534821987,-0.957729757,-0.611788273,-3.970474243,-2.442063332,-0.263747185,-0.165283844,0.297262967,-0.297843158,0.918772459,0.564388752
3.195030928,0.388975739,0.519195378,-0.957634747,-0.557409346,-4.061908722,-2.600280285,-0.252058387,-0.173578769,0.307145864,-0.309333622,0.894415975,0.553914368
3.200032234,0.424467981,0.496180415,-0.95693785,-0.515298247,-4.133301258,-2.746464491,-0.248182625,-0.17632921,0.310422838,-0.320506334,0.869520545,0.543341815
3.205034494,0.455972642,0.469816476,-0.952304304,-0.483800292,-4.189555168,-2.877475262,-0.245200485,-0.178445488,0.312944263,-0.33131212,0.844174325,0.532784641
3.210031986,0.481149584,0.444233268,-0.949149549,-0.466468096,-4.229387283,-2.991180182,-0.244211659,-0.179147199,0.313780338,-0.341775447,0.818481088,0.522300959
3.215029955,0.505158007,0.424988747,-0.944673002,-0.460426778,-4.254318714,-3.084276199,-0.222883135,-0.190088242,0.325947642,-0.351882577,0.792544544,0.5119012
3.220029116,0.533112049,0.408358395,-0.945009708,-0.466348082,-4.264194012,-3.155804396,-0.215811014,-0.193716094,0.329982102,-0.361629307,0.76645869,0.501759291
3.225029945,0.563694417,0.39279446,-0.948370457,-0.48179701,-4.264459133,-3.20869565,-0.210369483,-0.196507469,0.333086312,-0.371020734,0.740308285,0.491948545
3.230031252,0.595013797,0.374190807,-0.956033826,-0.506279707,-4.259387493,-3.24749589,-0.208565176,-0.19743304,0.334115624,-0.380063951,0.714145005,0.48251909
3.235033512,0.633036733,0.35416165,-0.967586339,-0.543373585,-4.246008873,-3.271147013,-0.188414305,-0.205236018,0.342238635,-0.388803244,0.688044012,0.473429024
3.240031242,0.681672871,0.347538382,-0.983119905,-0.584908068,-4.236360073,-3.288319111,-0.177089795,-0.209577978,0.346746117,-0.397306025,0.662005842,0.464693487
3.245029449,0.727826238,0.350181609,-0.997325778,-0.631614447,-4.232346535,-3.292276382,-0.168376356,-0.212918818,0.350214332,-0.405582666,0.636019766,0.456365943
3.250028849,0.756503463,0.364328772,-1.010138273,-0.671954513,-4.222570896,-3.29630518,-0.16548714,-0.21402657,0.351364315,-0.413666666,0.610076189,0.448386848
3.255028963,0.783114433,0.387319684,-1.027703524,-0.699441254,-4.202716827,-3.293032885,-0.151952296,-0.218414083,0.354827106,-0.421509653,0.584260821,0.440687239
3.26003027,0.812802017,0.418939173,-1.050721407,-0.708403885,-4.174973488,-3.291134119,-0.136057615,-0.223433733,0.358574927,-0.429086536,0.55859673,0.433162957
3.265032768,0.855591297,0.449168712,-1.083448052,-0.695946336,-4.144342899,-3.2924335,-0.123827741,-0.227296025,0.3614586,-0.436294407,0.533119678,0.425834447
3.27003026,0.902431905,0.461137831,-1.127972126,-0.671907544,-4.12147665,-3.296090126,-0.119772546,-0.22857669,0.362414777,-0.443044841,0.50778532,0.418777615
3.275028944,0.952763021,0.459405273,-1.175708532,-0.649168909,-4.11657238,-3.300853014,-0.116652347,-0.229562074,0.363150507,-0.449336737,0.482524276,0.412041396
3.280034304,0.996323407,0.451942533,-1.217826962,-0.642325819,-4.128315449,-3.313029528,-0.095800422,-0.235368744,0.365996242,-0.455277622,0.457234204,0.405528367
3.285034657,1.03662169,0.447125107,-1.253790379,-0.645400941,-4.150029182,-3.329311371,-0.079756282,-0.239836589,0.368185848,-0.460955441,0.431871563,0.399273098
3.290036201,1.068257093,0.438947409,-1.276667595,-0.647920012,-4.169199467,-3.356786251,-0.074436352,-0.241318047,0.368911862,-0.466402173,0.406425685,0.39320001
3.295038462,1.09246397,0.430061519,-1.290627122,-0.647523224,-4.17876339,-3.393441439,-0.070343025,-0.242457926,0.369470477,-0.471643806,0.380913794,0.387203574
3.300035477,1.111216187,0.417512089,-1.30802238,-0.639234006,-4.17299366,-3.434913158,-0.057687026,-0.245063707,0.37024489,-0.476661623,0.355415672,0.381183445
3.305033684,1.133935452,0.410228074,-1.32804966,-0.628189981,-4.154613495,-3.469192028,-0.036524307,-0.249321342,0.371436507,-0.48145017,0.329986155,0.37514022
3.310032845,1.168854356,0.426822752,-1.353942633,-0.615252197,-4.135869026,-3.491209984,-0.029507155,-0.250733107,0.371831626,-0.486007899,0.304683208,0.369108319
3.315033197,1.218786478,0.457308769,-1.375041842,-0.588871241,-4.123496056,-3.50706315,-0.024107931,-0.251819342,0.372135609,-0.490296692,0.279503822,0.363038957
3.320034266,1.267838359,0.506135106,-1.384797692,-0.53111285,-4.120988846,-3.505133152,-0.022317652,-0.252179503,0.372236431,-0.494163334,0.254466832,0.356948346
3.325036526,1.31230545,0.560938835,-1.385519862,-0.440004975,-4.129127026,-3.478668928,0.007085298,-0.25563553,0.370925695,-0.497413814,0.229554668,0.350899339
3.330034018,1.359112024,0.607830465,-1.370636821,-0.324442714,-4.154481411,-3.434510231,0.016834758,-0.256781489,0.370491058,-0.49992463,0.204761297,0.345082462
3.335031986,1.398953676,0.625703394,-1.341603756,-0.193371356,-4.174402714,-3.371526003,0.024336305,-0.25766322,0.370156646,-0.501586378,0.180151656,0.339576364
3.340031147,1.440345407,0.615912914,-1.303855777,-0.067704953,-4.195400715,-3.287423134,0.026823675,-0.257955581,0.370045751,-0.502411127,0.155805647,0.334521472
3.3450315,1.480395555,0.576004386,-1.256665349,0.030411296,-4.21380949,-3.170340776,0.050190248,-0.258610129,0.367948294,-0.502534032,0.131805405,0.329997987
3.350033045,1.532273173,0.499844164,-1.215030432,0.072457395,-4.232575417,-3.007170439,0.063246697,-0.258933455,0.366754889,-0.502179742,0.108296119,0.326369733
3.35503602,1.587432027,0.461226612,-1.136933446,0.03226117,-4.271798134,-2.798159361,0.073292747,-0.259182245,0.36583665,-0.501943886,0.085277632,0.323696524
3.360033512,1.599762917,0.409272969,-1.051267505,-0.074301928,-4.298163414,-2.549424887,0.07662382,-0.259264737,0.36553216,-0.502162695,0.062816195,0.32222724
3.365031958,1.569172621,0.347486347,-0.958639562,-0.232957616,-4.292388916,-2.272784472,0.090747356,-0.258294672,0.363933504,-0.503123403,0.041051675,0.322020739
3.370031118,1.533877015,0.297152132,-0.868032634,-0.42347005,-4.245069981,-1.999291182,0.107088007,-0.256930798,0.362027526,-0.505044281,0.020163661,0.322873086
3.375030994,1.513343692,0.274827361,-0.784451962,-0.625773847,-4.162302971,-1.735279441,0.119661018,-0.255881399,0.360561013,-0.508062363,0.00031283,0.324675262
3.380032301,1.510741591,0.27673611,-0.694958687,-0.812348962,-4.052589893,-1.496713638,0.123829991,-0.255533457,0.360074729,-0.512158513,-0.018423351,0.327171654
3.385034561,1.525900126,0.288632244,-0.598231316,-0.968196392,-3.904327869,-1.289733887,0.127037749,-0.255265713,0.35970059,-0.517198145,-0.035937235,0.330120087
3.390031815,1.546806455,0.307084739,-0.503038168,-1.079490781,-3.732963085,-1.113588333,0.146212369,-0.25428018,0.351323515,-0.522955358,-0.052180428,0.33325085
3.395030737,1.5548563,0.31365338,-0.405373573,-1.144553542,-3.530659914,-0.964624166,0.160965949,-0.253521889,0.344877928,-0.529177129,-0.06713511,0.336478531
3.400030136,1.573460937,0.295532823,-0.316108823,-1.178415656,-3.293380976,-0.846120238,0.165857941,-0.253270447,0.342740685,-0.535626233,-0.080683582,0.339629352
3.405030489,1.607484102,0.258782864,-0.235430643,-1.188946962,-3.024219275,-0.768015623,0.169622004,-0.253077,0.341096222,-0.542153597,-0.092779793,0.34245196
3.410031557,1.652211308,0.211770803,-0.163344488,-1.179816127,-2.740217924,-0.719649255,0.178622723,-0.254074812,0.335147858,-0.548609078,-0.103430413,0.344795883
3.415039778,1.704145193,0.151752114,-0.084333494,-1.149702072,-2.446682215,-0.700639904,0.1933873,-0.255916387,0.325107574,-0.554843903,-0.112700254,0.346503735
3.42004323,1.75504148,0.112658173,0.005406259,-1.096822977,-2.150820971,-0.690463305,0.198282942,-0.256527007,0.321778417,-0.560793459,-0.120597459,0.347450733
3.425041676,1.820224524,0.090024121,0.092796996,-1.022673488,-1.846093297,-0.679320931,0.202049822,-0.25699684,0.319216847,-0.56633091,-0.127060279,0.347562432
3.430040836,1.889037609,0.082851961,0.171612114,-0.915331781,-1.539956808,-0.654705822,0.203298852,-0.257152647,0.318367481,-0.571313262,-0.132048652,0.34687525
3.435040951,1.945181847,0.067504033,0.232431397,-0.781869233,-1.231348515,-0.614366412,0.216157302,-0.259884328,0.307613313,-0.575551152,-0.135537326,0.345522106
3.440042496,1.967287302,0.036917169,0.288279027,-0.628980994,-0.912436724,-0.557580292,0.220420912,-0.26079011,0.304047436,-0.578933656,-0.137514547,0.343568325
3.445044756,1.950853229,0.012561338,0.32723099,-0.46166867,-0.584383905,-0.480061889,0.223701477,-0.261487067,0.301303744,-0.581380844,-0.137931794,0.341086388
3.450041771,1.904935598,0.009220244,0.356350034,-0.293845326,-0.257110566,-0.37573877,0.224789247,-0.261718154,0.300393999,-0.582954586,-0.136769429,0.338179708
3.455039978,1.82746911,0.022670012,0.366943628,-0.117296934,0.069440484,-0.24375315,0.230825692,-0.262591124,0.295572579,-0.583628833,-0.134004578,0.33500129
3.460039139,1.762915254,0.060569059,0.355106711,0.07265754,0.389679611,-0.07735765,0.234113902,-0.263052583,0.292954028,-0.583376169,-0.129509628,0.331650078
3.465039253,1.736830473,0.123402804,0.316344172,0.262692213,0.677364767,0.112726755,0.236643955,-0.263407648,0.290939242,-0.582227826,-0.123294167,0.328291357
3.47004056,1.730036736,0.189190105,0.273832798,0.44054839,0.918904722,0.318537325,0.237482876,-0.263525397,0.290271163,-0.580272555,-0.115485407,0.325107217
3.475043058,1.735268235,0.254321486,0.22129494,0.584121406,1.127904058,0.522586286,0.238760129,-0.263708651,0.290403992,-0.577704489,-0.106219023,0.322175711
3.48004055,1.760014653,0.331561625,0.165104195,0.682670772,1.274565339,0.71948272,0.239820704,-0.263862848,0.291100293,-0.574779809,-0.095747024,0.319603264
3.485038757,0.259825706,0.745596886,-0.02800676,1.243990779,1.889461756,1.040489197,0.240636736,-0.263981462,0.29163608,-0.570262372,-0.084881783,0.317641765
3.490037918,0.721361041,0.521631002,0.2552405,2.387992144,3.073343515,1.325618863,0.240907326,-0.264020801,0.291813731,-0.557138562,-0.067012101,0.312694728
3.495038509,1.153453588,0.797995508,0.014456034,2.451004982,3.214056015,1.521045685,0.24111551,-0.26405105,0.291950405,-0.546395242,-0.044900823,0.308001608
3.500039577,-0.430166453,0.879279137,-0.205846056,2.745907784,2.975753784,1.179962635,0.236410484,-0.263243645,0.299308032,-0.533249259,-0.031388838,0.304791987
3.505041838,-0.516142368,0.946396351,-0.574125946,2.604809999,3.419258833,1.223056555,0.232790276,-0.262622416,0.304969251,-0.520760894,-0.014658476,0.300505161
3.51003933,-0.043480936,0.851262748,-1.158385158,2.374690533,3.602641821,1.212344766,0.231589884,-0.262416422,0.30684641,-0.50922823,0.004753225,0.296507061
3.515037775,-0.363167882,0.580667257,-1.432411194,1.832845807,3.576104403,1.082000494,0.230666265,-0.262257904,0.30829075,-0.499771804,0.022167301,0.293635488
3.520036936,-0.762691617,0.796340823,-1.370291233,1.691083312,3.881320477,0.974719882,0.224095419,-0.259938717,0.316731155,-0.492153227,0.039878488,0.289087564
3.52503705,-0.552373171,0.760694921,-1.275341749,1.637535334,4.317102432,0.958081365,0.212705106,-0.255862325,0.331275791,-0.48434931,0.060358495,0.283087641
3.530038357,-0.004300833,-0.229206398,-1.317382455,1.138194323,4.696222305,0.97811377,0.208928287,-0.254510701,0.336098492,-0.477499753,0.083761945,0.278729171
3.53504014,0.541947484,-0.852140784,-1.405774474,0.818336606,5.112814903,1.052649021,0.206022277,-0.253470719,0.339809239,-0.472016275,0.110132985,0.275163919
3.540037632,0.939083993,-1.167459369,-1.48583138,0.492724717,5.368205547,1.296860576,0.205058709,-0.253125876,0.341039658,-0.467342257,0.138983473,0.272480607
3.545035839,1.06664741,-1.182549715,-1.728474498,0.1623611,5.437510014,1.632365823,0.186096519,-0.249808788,0.3574844,-0.464321494,0.168678746,0.271794409
3.550041199,1.597198367,-1.199308395,-2.120723963,-0.301669627,5.309117317,1.95975101,0.179809019,-0.248708904,0.362937152,-0.462991536,0.199352935,0.273246378
3.555041313,2.30198431,-0.889625609,-2.542719841,-0.816899419,4.706830502,2.140717268,0.174971208,-0.247862622,0.367132694,-0.464264393,0.228684142,0.27616483
3.560042858,2.551473618,-0.489889652,-2.457204342,-1.180396914,3.876867056,2.171806097,0.173367083,-0.247582003,0.368523836,-0.467555881,0.253891855,0.279959083
3.56504488,2.294354439,-0.072520599,-2.117249966,-1.646340251,3.070408583,2.142562628,0.153027132,-0.249380603,0.375561625,-0.473781526,0.274691045,0.284258544
3.570042372,1.849790096,0.502681375,-1.523839235,-1.832485795,2.627154112,1.999651194,0.141555041,-0.250475466,0.379371881,-0.4821527,0.292542189,0.286540627
3.575040579,1.476601958,1.270110011,-1.020662308,-1.749617457,2.387071609,1.816850781,0.132728055,-0.251317888,0.382303596,-0.491777539,0.308502495,0.286134481
3.580039978,1.232429147,1.870537281,-0.699150681,-1.459140301,2.300914288,1.527169824,0.129801184,-0.251597226,0.383275688,-0.501231611,0.323107511,0.282630324
3.585040092,1.100954413,2.237337828,-0.496315807,-1.056827068,2.246195316,1.159145832,0.118755706,-0.255657911,0.382921964,-0.509715915,0.336438775,0.276519299
3.590041876,0.909290969,2.34607172,-0.337669462,-0.540012419,2.223058701,0.823473096,0.106225953,-0.260882407,0.381693721,-0.516280174,0.348553032,0.268532544
3.595044136,0.608213007,1.952155709,-0.296633273,-0.065501541,2.258985043,0.62289691,0.096585162,-0.264902294,0.380748659,-0.520091712,0.359924257,0.260787159
3.600041389,0.527154922,1.308076262,-0.472713917,0.328435779,2.255774498,0.611388385,0.093388461,-0.266235203,0.380435288,-0.520643771,0.371359944,0.255092174
3.605040312,0.69089824,0.760840178,-0.753754139,0.544114053,2.102133512,0.768587649,0.090928815,-0.26726079,0.380194187,-0.518538952,0.382924736,0.252446264
3.610039234,0.751312196,0.291802406,-0.968284726,0.586967528,1.840858459,0.937435508,0.08031828,-0.269989252,0.381324857,-0.514971256,0.393725693,0.252895296
3.615039587,0.840314209,0.103985302,-1.041552782,0.575814128,1.542814136,1.07692194,0.072154187,-0.272088617,0.382194847,-0.510740638,0.403699994,0.255180359
3.620040417,0.902144551,0.156907529,-1.013037205,0.556620002,1.273236513,1.188130736,0.06944713,-0.27278471,0.382483333,-0.50629276,0.412787855,0.258438259
3.625042677,0.812298357,0.375878304,-0.890848398,0.554990947,1.076425552,1.196731806,0.067364238,-0.273320317,0.382705301,-0.502187967,0.420821965,0.261412174
3.630039692,0.707083225,0.632607877,-0.759490907,0.573272586,1.017812967,1.090517163,0.062179808,-0.272711396,0.383766025,-0.498736531,0.428153217,0.263037175
3.635037899,0.751425385,0.809025705,-0.791274846,0.635632813,0.983290434,0.941476822,0.053646829,-0.271447629,0.385580331,-0.495439619,0.435057342,0.26359424
3.64003706,0.599295855,0.725101233,-0.821913838,0.734096527,0.894672215,0.85018146,0.050817452,-0.271028578,0.386181921,-0.491445988,0.44096458,0.264450103
3.645037651,0.567256153,0.515968025,-0.913906872,0.803384781,0.819390535,0.833353519,0.048640441,-0.270706147,0.38664481,-0.486504167,0.446577758,0.266366422
3.650038719,0.616969943,0.419371158,-0.948123872,0.837322295,0.715097129,0.823727489,0.047918584,-0.270599246,0.386798292,-0.481061608,0.45179531,0.268821478
3.655040979,0.657849669,0.37560904,-0.957673967,0.796324193,0.623531342,0.770041645,0.039221507,-0.268378764,0.389910072,-0.475873619,0.456527829,0.2712439
3.660038471,0.686756551,0.37510249,-0.961252749,0.746346354,0.531285346,0.680060446,0.036337722,-0.267642528,0.390941888,-0.471089303,0.460638523,0.273423016
3.66503644,0.657346666,0.353098363,-0.92311281,0.688656867,0.474547923,0.582244933,0.034118846,-0.267076015,0.391735792,-0.466753274,0.464222223,0.275256425
3.670035601,0.603517234,0.321529269,-0.91561532,0.625566304,0.43650201,0.521061897,0.033383109,-0.266888171,0.391999036,-0.462786257,0.467445016,0.277005553
3.675035954,0.572431266,0.332365513,-0.919499755,0.578386664,0.396182656,0.480362684,0.028857933,-0.264415145,0.394459367,-0.459075809,0.470348567,0.278655857
3.68003726,0.615100145,0.355428308,-0.929201722,0.520443678,0.348614514,0.441439033,0.026377788,-0.263018936,0.39583388,-0.455760032,0.473033458,0.280123293
3.685045719,0.595156491,0.340950966,-0.863577545,0.481800199,0.304456174,0.422206849,0.024469484,-0.261944652,0.396891445,-0.452625364,0.475450069,0.281589925
3.690048933,0.542983174,0.355851203,-0.837369084,0.4502424,0.295922697,0.388060987,0.023836726,-0.261588424,0.397242129,-0.44975704,0.47770071,0.282868952
3.695047379,0.525509775,0.339236289,-0.862929344,0.410158634,0.293837637,0.336072832,0.021960381,-0.260387123,0.398343176,-0.44714433,0.479790986,0.283974111
3.700046539,0.524196446,0.2671552,-0.893072724,0.341176331,0.295542896,0.29307577,0.019937074,-0.259053767,0.399546444,-0.444834709,0.481804758,0.285099536
3.705046892,0.51789993,0.204177901,-0.91337347,0.259558111,0.294282764,0.258069247,0.018380275,-0.258027852,0.400472313,-0.442890793,0.483727336,0.286297143
3.71004796,0.508416474,0.20182924,-0.917417467,0.171212927,0.304638147,0.21644035,0.017864071,-0.257687688,0.400779307,-0.441531986,0.48559168,0.287234187
3.71505022,0.504021704,0.236681253,-0.907978833,0.085197821,0.315304577,0.177919015,0.017466886,-0.257425934,0.40101552,-0.44081226,0.487413317,0.287781417
3.720047712,0.503266513,0.288226575,-0.876330197,0.018395428,0.324852407,0.150680915,0.015528657,-0.256431848,0.402222306,-0.440621763,0.489213973,0.287964493
3.725045681,0.501606405,0.351864696,-0.842176735,-0.022952046,0.325732797,0.134781167,0.014037321,-0.255666971,0.403150856,-0.440793455,0.490993172,0.287837803
3.730044842,0.48280561,0.394089609,-0.815936208,-0.043886345,0.328213841,0.126898974,0.013542823,-0.255413353,0.403458714,-0.441150516,0.492738903,0.287551373
3.735045195,0.462633699,0.403606683,-0.812505603,-0.059039712,0.326269597,0.124732129,0.01316234,-0.255218208,0.403695613,-0.441583037,0.494433343,0.287270844
3.740046263,0.453750283,0.392799854,-0.819375455,-0.07283102,0.32441774,0.12416964,0.012265793,-0.255081832,0.403694302,-0.442035317,0.496113837,0.287063718
3.745048523,0.450093478,0.376458913,-0.818548203,-0.090637065,0.327262133,0.120948717,0.010796979,-0.254904449,0.403612524,-0.442555338,0.497790724,0.286886632
3.750046015,0.457543492,0.361815929,-0.827358127,-0.11683289,0.332074672,0.114243984,0.010309949,-0.254845619,0.403585404,-0.443203628,0.499491781,0.286696613
3.755043983,0.462388873,0.343881994,-0.830368221,-0.14482899,0.339085847,0.102255426,0.009935211,-0.254800349,0.403564543,-0.444002092,0.501206219,0.286477745
