Time,inertial-6253.76535:scaledAccelX,inertial-6253.76535:scaledAccelY,inertial-6253.76535:scaledAccelZ,inertial-6253.76535:scaledGyroX,inertial-6253.76535:scaledGyroY,inertial-6253.76535:scaledGyroZ,inertial-6253.76535:scaledMagX,inertial-6253.76535:scaledMagY,inertial-6253.76535:scaledMagZ,inertial-6253.76535:roll,inertial-6253.76535:pitch,inertial-6253.76535:yaw
0,0.579919994,-0.022375803,-0.81688863,0.002991712,-0.002122632,0.005427075,-0.460738242,0.051930398,0.263294548,0.040722266,0.611575961,-2.932516098
0.004999424,0.579792321,-0.022281056,-0.817236245,0.003450596,-0.002258074,0.004807489,-0.460836381,0.051901165,0.262995154,0.04073469,0.611573398,-2.932500839
0.009999872,0.57847929,-0.022411073,-0.817748725,0.002878377,-0.001750786,0.00500571,-0.46091187,0.051878676,0.262764812,0.04074499,0.611568987,-2.932487249
0.015000832,0.577595949,-0.022694178,-0.816389501,0.003069664,-0.001656336,0.004204975,-0.460936904,0.051871218,0.262688428,0.040753517,0.611570299,-2.932484388
0.020009471,0.578800201,-0.023405388,-0.817511141,0.003499858,-0.001352417,0.006614385,-0.461225212,0.051610876,0.263825357,0.040772453,0.611572862,-2.932471037
0.025012992,0.577346265,-0.021702148,-0.816988587,0.003570091,-0.001306672,0.006023084,-0.461320817,0.051524553,0.264202327,0.04078621,0.611572623,-2.932454586
0.030011648,0.575579643,-0.021579416,-0.817149341,0.002562847,0.000365146,0.005528626,-0.461394399,0.051458132,0.264492393,0.040790129,0.611574709,-2.93244791
0.035011839,0.576237142,-0.021628076,-0.817856371,0.003068741,-8.45E-05,0.004416288,-0.461418808,0.051436108,0.264588565,0.040805429,0.611575305,-2.932435989
0.040012032,0.578194916,-0.0234304,-0.815984428,0.002624287,-0.000429121,0.00584155,-0.461237371,0.051569641,0.264835715,0.040820945,0.611578703,-2.9324193
0.045012992,0.577807844,-0.024247073,-0.81681776,0.00094957,0.001209533,0.004357802,-0.461127639,0.051651154,0.264960498,0.040823143,0.611586213,-2.932420969
0.050015233,0.579457343,-0.021895804,-0.816516638,0.002453625,-1.94E-05,0.0048959,-0.461043209,0.051713873,0.265056521,0.040829107,0.611594856,-2.932403088
0.05501261,0.577966809,-0.023186922,-0.81573689,0.002367474,0.000916434,0.006573962,-0.461015224,0.051734667,0.265088379,0.040843658,0.611606419,-2.932379484
0.060010497,0.578901887,-0.023449253,-0.815426052,0.001756733,0.000385196,0.004951712,-0.460906982,0.051775597,0.264857143,0.040852029,0.611611426,-2.932376862
0.065009408,0.577693641,-0.023209441,-0.81681937,0.001872218,0.000723902,0.004917622,-0.46078366,0.051814307,0.264522582,0.040856164,0.611618996,-2.932375669
0.070009343,0.580344439,-0.022419533,-0.818317711,0.003939891,-0.000591045,0.003795847,-0.4606888,0.05184409,0.26426518,0.040870015,0.611627877,-2.932362556
0.075010814,0.580686092,-0.022507478,-0.817439318,0.001929618,0.00130928,0.006232755,-0.460657328,0.051853966,0.264179826,0.040878635,0.611647308,-2.932339668
0.080012798,0.579222739,-0.021100074,-0.817175865,0.003151071,0.000839494,0.00594022,-0.460633129,0.051861566,0.264114171,0.040888034,0.611656785,-2.932320595
0.085010178,0.579045713,-0.021457076,-0.815801859,0.00284037,-0.00109758,0.005371971,-0.461028725,0.051816516,0.26360926,0.040904779,0.611659288,-2.932308197
0.090008065,0.579114139,-0.02042634,-0.81612587,0.003555412,-0.002257805,0.005436904,-0.461333096,0.051781852,0.263220757,0.040912118,0.6116606,-2.932291269
0.095006973,0.578498721,-0.023246728,-0.816949725,0.003057363,-0.001203513,0.005488594,-0.461434036,0.051770359,0.263091922,0.040926594,0.611659467,-2.932283163
0.100006916,0.577148139,-0.023633908,-0.816724181,0.001325129,-0.001274782,0.005842461,-0.461511701,0.051761515,0.262992799,0.040930904,0.611656666,-2.93227911
0.105008386,0.579613984,-0.023634931,-0.817205906,0.002782776,0.000241972,0.004518112,-0.461539596,0.051820826,0.263441414,0.040943623,0.611663938,-2.932270288
0.110010624,0.578363121,-0.023220159,-0.818072975,0.001420077,-0.003170834,0.004313705,-0.46156323,0.051929399,0.264273405,0.040947784,0.611653626,-2.932260275
0.115007997,0.578638256,-0.02262146,-0.817770481,0.000778048,-0.002035756,0.006071855,-0.461571068,0.051965401,0.264549285,0.040946115,0.611650467,-2.9322505
0.120006144,0.578210354,-0.023565333,-0.81741482,0.003771128,-0.001158366,0.006456162,-0.461577117,0.051993102,0.264761567,0.040967859,0.611648738,-2.932240248
0.125005305,0.57784605,-0.023566805,-0.817298949,0.002359529,-0.00194871,0.003401274,-0.461579114,0.052002285,0.26483196,0.040968407,0.611643076,-2.9322474
0.130005255,0.579165041,-0.023062084,-0.817716837,0.001152989,-0.000782486,0.00225564,-0.461310089,0.052000884,0.264524698,0.040969737,0.611640811,-2.932247162
0.135006204,0.576099396,-0.022499029,-0.817769825,0.001551383,-0.003679998,0.003748254,-0.46122089,0.052000418,0.264422804,0.040965065,0.611626744,-2.932248592
0.14000845,0.578348935,-0.023145219,-0.816898882,0.001702485,-0.002651861,0.00328891,-0.461152256,0.052000061,0.264344394,0.040967502,0.611624837,-2.932244301
0.145005569,0.579031885,-0.021932229,-0.817572415,0.001845706,-0.003272846,0.002459524,-0.461129487,0.051999941,0.264318407,0.040962987,0.611617446,-2.932244301
0.150003716,0.578890979,-0.021141874,-0.815607607,0.001836748,-0.002781136,0.004206619,-0.460957497,0.051989146,0.26344651,0.040956587,0.611611247,-2.932233095
0.15500851,0.578217447,-0.022811245,-0.816051245,0.000265711,-0.003559588,0.003495896,-0.460862249,0.051982921,0.262946635,0.040952653,0.611600041,-2.932237387
0.160008445,0.57862711,-0.022529135,-0.816760659,0.002425287,-0.002630441,0.003159029,-0.460788965,0.05197813,0.262561977,0.040949535,0.611593306,-2.93223691
0.165009663,0.579139769,-0.024182273,-0.817514658,0.001047429,-0.002510483,0.003799868,-0.460764676,0.051976539,0.262434453,0.040954642,0.611590385,-2.932232618
0.170011908,0.578500211,-0.021502309,-0.815721929,0.003326771,-0.001212299,0.002538758,-0.460859746,0.051779758,0.262848258,0.040959552,0.611590683,-2.932231426
0.17500928,0.578933895,-0.019693317,-0.815728247,0.002628038,-0.003787513,0.003418407,-0.461005956,0.051517308,0.263501704,0.040953089,0.611581564,-2.932230711
0.180007935,0.578502119,-0.020094521,-0.817635417,0.001323589,-0.002538029,0.00478451,-0.46111849,0.051315367,0.264004469,0.040947061,0.611570656,-2.932221174
0.18500711,0.578103423,-0.022474101,-0.818471968,0.003981504,-0.002651306,0.004510954,-0.461155802,0.051248409,0.264171183,0.040960837,0.61156863,-2.932215929
0.190007299,0.57739228,-0.023038309,-0.816906154,0.002658413,-0.002397801,0.005496831,-0.461184502,0.051196892,0.264299452,0.040969528,0.611565351,-2.932213068
0.195008263,0.576651275,-0.023630101,-0.817097843,0.00323711,-0.001473313,0.004931748,-0.461143911,0.051375166,0.263534486,0.040981662,0.611557305,-2.932217836
0.200011015,0.57649529,-0.022933252,-0.816197217,0.001309233,-8.59E-05,0.003206599,-0.461112678,0.051512338,0.26294589,0.040975653,0.61156404,-2.932219982
0.205008894,0.578354776,-0.022925403,-0.815572619,0.002285438,-0.000925141,0.005548601,-0.461102337,0.05155782,0.262750715,0.040981226,0.61156702,-2.932213306
0.210007548,0.577800155,-0.022041952,-0.81821537,0.00083704,-0.001906835,0.004727967,-0.461094379,0.051592819,0.262600571,0.04097756,0.611562014,-2.932205915
0.215006724,0.578265607,-0.023440465,-0.816433966,0.00142872,-6.22E-05,0.005150876,-0.461063564,0.051550668,0.263058335,0.040982526,0.611562669,-2.932199478
0.22000666,0.579458416,-0.021801652,-0.816625416,0.001540215,-0.000556228,0.004911968,-0.46101132,0.05146388,0.263923764,0.040982503,0.611568868,-2.932189703
0.225007623,0.579803109,-0.022836836,-0.81575197,0.002351484,-0.001321832,0.006149026,-0.460994005,0.051435106,0.264210731,0.040999491,0.61157012,-2.932177305
0.230009601,0.577322662,-0.021090444,-0.816211462,0.001264349,-0.002147995,0.002776792,-0.460980654,0.051412962,0.264431536,0.040986359,0.611566544,-2.932181597
0.235006973,0.578262329,-0.022227166,-0.816599548,0.002931679,0.000236756,0.004687758,-0.460976243,0.05140562,0.264504761,0.040997814,0.611574948,-2.932170153
0.240005121,0.57672298,-0.020336892,-0.81476146,0.003245325,-0.001377732,0.00432307,-0.461239606,0.05139596,0.263556898,0.04100154,0.611570954,-2.932163239
0.24500455,0.577420712,-0.020399006,-0.815653145,0.003158509,-0.000334609,0.005361498,-0.461326927,0.051392756,0.263242602,0.041007459,0.611578226,-2.932153463
0.250004739,0.577743351,-0.020988515,-0.816419244,0.003225892,-0.000933955,0.00523139,-0.461394101,0.05139029,0.263000757,0.041020863,0.611578166,-2.93213892
0.255005956,0.579378724,-0.021961417,-0.816488147,0.003994941,0.001813647,0.005838773,-0.461416394,0.051389471,0.262920558,0.04104118,0.611592293,-2.932123661
0.260007948,0.579127669,-0.021919139,-0.817114055,0.004150091,-0.00029124,0.007463248,-0.461334586,0.051589347,0.262720644,0.041056145,0.611593962,-2.932101011
0.265005052,0.577670693,-0.021971148,-0.816237509,0.003178775,-0.000761354,0.006037144,-0.461282998,0.051705237,0.262620151,0.041070402,0.611593246,-2.932086468
0.270002931,0.577351093,-0.02341057,-0.817798495,0.003984759,-0.001947302,0.005546236,-0.461243272,0.051794406,0.262542814,0.0410887,0.611583292,-2.932086945
0.275002122,0.579023361,-0.023436164,-0.817214906,0.002772449,-0.00067158,0.004653596,-0.461230099,0.051823974,0.262517184,0.041094881,0.611593068,-2.932073116
0.280002058,0.578728914,-0.022869941,-0.81501013,0.00294035,0.000120716,0.005544056,-0.461220771,0.051794223,0.2630817,0.041110091,0.611597896,-2.932059288
0.285003006,0.57930249,-0.022377377,-0.817842901,0.003122587,-0.000840678,0.005626092,-0.461218506,0.051731419,0.263857991,0.041119322,0.611597776,-2.932047606
0.290011138,0.579026878,-0.023411566,-0.817104816,0.003373904,-0.002747029,0.005000821,-0.461216748,0.051683094,0.264455318,0.041133206,0.611590326,-2.932041168
0.295014143,0.578154981,-0.02313732,-0.817032695,0.003741248,-0.001950544,0.004665241,-0.461216182,0.051667068,0.264653385,0.041145526,0.611588001,-2.932031393
0.300012559,0.578006864,-0.022893898,-0.816895843,0.003941614,-0.001429951,0.00413818,-0.461215734,0.051654741,0.264805764,0.041155163,0.611582756,-2.932032585
0.305011451,0.579288125,-0.026447333,-0.817750394,0.000383455,-0.002207809,0.003956863,-0.461164951,0.051698551,0.264631361,0.041156448,0.611573815,-2.932040215
0.310011655,0.578223467,-0.024030846,-0.817720413,0.002521301,-0.002218745,0.001707026,-0.46112588,0.051732261,0.264497191,0.041155703,0.611567974,-2.932049751
0.315012604,0.579542577,-0.021396216,-0.817724526,0.000111518,-0.002136404,0.003662851,-0.461112916,0.051743437,0.264452696,0.041150067,0.611566007,-2.932044744
0.320014834,0.578686178,-0.021716714,-0.81619668,0.001620905,-0.002249088,0.004288286,-0.461102933,0.051752038,0.264418453,0.041151322,0.611559689,-2.932039976
0.325011969,0.579254806,-0.022575358,-0.81573993,-0.000219323,-0.003366247,0.004379209,-0.461011946,0.051666234,0.264381021,0.041144017,0.611557066,-2.932038307
0.330010623,0.579886496,-0.021184631,-0.817767978,0.000915664,-0.002840324,0.003516115,-0.460853308,0.051510565,0.264325857,0.041128684,0.611548364,-2.932040453
0.335010052,0.579865456,-0.021879764,-0.817032933,0.001702554,-0.002532897,0.003824911,-0.460800707,0.051458951,0.264307559,0.041122306,0.611538827,-2.932034731
0.340010226,0.577438354,-0.025593286,-0.815114021,0.000467908,-0.002559775,0.003629453,-0.460760236,0.051419236,0.264293492,0.041122358,0.611536026,-2.932051182
0.345011204,0.578568101,-0.020105792,-0.815309286,0.002068064,-0.001352277,0.003337736,-0.460746795,0.051406063,0.264288813,0.041112106,0.611543834,-2.932041168
0.350013435,0.576335251,-0.021767145,-0.817814767,0.00151063,-0.003224965,0.003461764,-0.46100843,0.051796298,0.263098419,0.041107845,0.611525297,-2.932041883
0.355010808,0.576641977,-0.022505367,-0.815980315,0.000525926,-0.003314532,0.003077749,-0.461095184,0.051925693,0.262703717,0.041106645,0.611522794,-2.932038069
0.360009223,0.576831758,-0.022821112,-0.815421045,0.001041933,-0.002628259,0.003757735,-0.461161911,0.052025251,0.262400001,0.041098785,0.611511827,-2.932038784
0.365008384,0.577670157,-0.022831785,-0.816617787,0.002229229,-0.003272363,0.00218667,-0.461184055,0.052058261,0.262299299,0.041098613,0.611495912,-2.932044506
0.370008588,0.577400923,-0.022913329,-0.81600678,0.001818577,-0.003168683,0.002589696,-0.460948616,0.052082434,0.262619078,0.04109399,0.611486793,-2.932043314
0.375009537,0.578262627,-0.022297185,-0.818853796,0.002791157,-0.00206392,0.002461638,-0.460808098,0.052090146,0.262823433,0.041092597,0.611474156,-2.93204999
0.380011529,0.577628791,-0.02188286,-0.818785191,0.003262741,-0.001730777,0.003935561,-0.460699946,0.05209608,0.26298064,0.041091558,0.611474872,-2.93204546
0.385008633,0.578303635,-0.020774195,-0.817004442,0.001190177,-0.001541405,0.003844907,-0.460664093,0.052098047,0.263032794,0.041086856,0.611472547,-2.932038307
0.390007049,0.579424143,-0.0204574,-0.816296518,0.003022191,-0.003651467,0.003187552,-0.460749596,0.051984493,0.262898773,0.041086551,0.611464202,-2.932031631
0.395006478,0.578908384,-0.02769932,-0.818106353,0.002541276,-0.002549391,0.001656438,-0.460891962,0.051830806,0.262678772,0.04109947,0.611455619,-2.93205595
0.400006413,0.578374803,-0.027892133,-0.816888452,0.000306391,-0.003096329,0.002446898,-0.461001515,0.051712558,0.262509465,0.041094743,0.611446202,-2.932080746
0.405007631,0.579231441,-0.021755608,-0.816915929,0.000361773,-0.002314122,0.001916245,-0.461037844,0.051673349,0.262453318,0.041074231,0.611437798,-2.932087421
0.410009593,0.57905221,-0.019854473,-0.816089869,-0.000286299,-0.001626201,0.001388756,-0.461065799,0.051643178,0.262410134,0.041047517,0.611433804,-2.932091236
0.415006727,0.57739234,-0.022817083,-0.817080498,-8.15E-05,-0.000880738,0.00190871,-0.460974962,0.051732648,0.262348056,0.041035175,0.611436367,-2.932105303
0.420005113,0.575720489,-0.021480495,-0.818384469,-0.001493091,-0.000420706,0.002008219,-0.460905075,0.051801488,0.262300283,0.041009907,0.611438811,-2.932110548
0.425010443,0.575662792,-0.022189416,-0.816603124,0.000562622,-0.00091482,0.00328947,-0.460881889,0.051824316,0.262284458,0.041001175,0.611438334,-2.932114601
0.430010617,0.57781446,-0.019595878,-0.816076696,0.000631016,-0.001066722,0.003806309,-0.460864037,0.051841881,0.262272269,0.040993951,0.611448646,-2.932101011
0.435011595,0.579307497,-0.020253548,-0.815862894,0.00094357,-0.00263007,0.003648013,-0.460857719,0.051791262,0.262421101,0.040976752,0.611447692,-2.932097673
0.440013558,0.578192472,-0.021927344,-0.817254484,0.002232344,-0.002202473,0.004291417,-0.460852474,0.051695239,0.262690187,0.040984944,0.611444652,-2.932088375
0.445010692,0.578451872,-0.023419153,-0.815949976,0.001616242,-0.002209276,0.003853893,-0.460850745,0.051663399,0.262779415,0.040988326,0.611441731,-2.932088375
0.450008571,0.580044568,-0.022461904,-0.81683439,0.003611057,-0.002288259,0.004461414,-0.460849404,0.051638901,0.262848079,0.04099476,0.611441195,-2.93208766
0.455007732,0.579656124,-0.02437097,-0.817627072,0.002512009,-0.003080581,0.003592083,-0.460848987,0.05163078,0.262870848,0.041000079,0.611430287,-2.93208909
0.460007936,0.57882309,-0.024584129,-0.816550851,0.004381668,-0.004307229,0.004601574,-0.460783094,0.051564783,0.26389721,0.041027419,0.611411691,-2.932084322
0.465008885,0.578496635,-0.024284059,-0.818055928,0.003555029,-0.003863687,0.003875346,-0.460761249,0.051542897,0.264237553,0.041033141,0.611404121,-2.932086468
0.470010877,0.578519464,-0.021864422,-0.81842947,0.003046762,-0.001460894,0.003756014,-0.460744441,0.051526058,0.264499396,0.041037053,0.611398458,-2.932090282
0.475007743,0.578292131,-0.021497905,-0.817417979,0.003293213,-0.000890548,0.003500135,-0.460738868,0.051520474,0.26458624,0.041038454,0.611401379,-2.932080984
0.480006158,0.577748954,-0.022613451,-0.817262888,0.001526401,-0.001329988,0.004069116,-0.460888028,0.051620562,0.264610171,0.041034006,0.611399174,-2.932089567
0.485005051,0.579176068,-0.022190154,-0.815847754,0.002190278,-0.003274018,0.003061211,-0.460975438,0.051679578,0.264607489,0.04103018,0.611394703,-2.932091236
0.490005255,0.579816639,-0.02246993,-0.815326571,0.001622394,-0.001558596,0.002298302,-0.461042702,0.051724985,0.264605403,0.041027449,0.611398339,-2.932090759
0.495006204,0.579035759,-0.024244538,-0.814531624,0.00129019,-0.001937089,0.003654922,-0.461064994,0.051740043,0.264604717,0.041027542,0.611389577,-2.932095766
0.500008166,0.576456845,-0.023356877,-0.814949632,-0.000979631,-0.000318137,0.003214488,-0.460997313,0.051865395,0.264575839,0.04100978,0.611396015,-2.93210125
0.5050053,0.577842832,-0.022282423,-0.817017436,0.002568547,-0.0023165,0.002877029,-0.46088931,0.052021686,0.264537722,0.041005764,0.611394465,-2.932105303
0.510003686,0.578044891,-0.021598164,-0.817563415,0.003456231,-0.002145938,0.005137793,-0.460806221,0.052141938,0.264508396,0.041016892,0.61139071,-2.932087898
0.515002906,0.578455746,-0.020950621,-0.818924129,0.003179091,-0.000900548,0.005402302,-0.460778683,0.052181814,0.264498681,0.041019555,0.61138916,-2.932071209
0.52000308,0.57800281,-0.019941218,-0.816381514,0.002905679,-0.002311859,0.003870019,-0.460757494,0.052212495,0.2644912,0.04102134,0.611386955,-2.932064533
0.525004268,0.578353286,-0.019403027,-0.815947652,0.004726105,-0.001748653,0.005511009,-0.460949421,0.05211658,0.263600111,0.0410285,0.611388028,-2.932046652
0.530006528,0.577048898,-0.026831346,-0.819535196,0.004116077,-0.00358809,0.00720344,-0.461097062,0.052042779,0.262914479,0.041059673,0.611372948,-2.932035923
0.535003662,0.576542139,-0.029591849,-0.819435418,0.003249202,-0.00100605,0.007444049,-0.461146027,0.052018307,0.262687147,0.041094311,0.611370027,-2.932030201
0.540001512,0.580163777,-0.023958107,-0.815415442,0.002580882,0.000215062,0.005104991,-0.461183697,0.051999476,0.262512207,0.041097187,0.611386657,-2.932029486
0.545000732,0.579793453,-0.019675231,-0.815504789,0.002654325,0.000224789,0.004035566,-0.461169809,0.052055847,0.263036609,0.041085903,0.611389756,-2.932015896
0.550000668,0.579291523,-0.020649631,-0.816289127,0.000275421,-0.000258703,0.004269525,-0.461132467,0.052162532,0.264029026,0.041073952,0.611403227,-2.932002783
0.555001855,0.576057434,-0.024735902,-0.818641841,0.003382562,-0.001626519,0.004831367,-0.461120069,0.052197903,0.264358073,0.041086856,0.611394465,-2.932001591
0.560009956,0.576522827,-0.024610469,-0.817113876,0.002030635,-0.001970855,0.004298303,-0.461110532,0.052225124,0.264611274,0.041096848,0.61138463,-2.931993723
0.565013528,0.578513622,-0.022667589,-0.815170825,0.003173292,-0.000463852,0.003902912,-0.461107373,0.05223415,0.264695227,0.04109985,0.611394584,-2.931986809
0.570011914,0.579297543,-0.02236535,-0.814108372,0.002420348,-0.004455736,0.002584249,-0.460702032,0.052366979,0.264572412,0.041098151,0.611377954,-2.931992054
0.575011313,0.577835619,-0.023313811,-0.816731334,0.001268995,-0.002668948,0.003493308,-0.460567623,0.052411024,0.264531702,0.041093472,0.611371756,-2.931977749
0.580011547,0.576031446,-0.023629939,-0.817869842,0.001319856,-0.001929149,0.004168089,-0.460464209,0.052444912,0.26450038,0.041094534,0.611361802,-2.931972027
0.585012496,0.578748047,-0.021447066,-0.816142201,0.000913986,-0.001032044,0.004106476,-0.460429937,0.052456148,0.264489979,0.041087482,0.611363471,-2.931960583
0.590014458,0.57794112,-0.021406623,-0.817375124,0.003506057,-0.003835816,0.003654493,-0.460652113,0.052113239,0.264490783,0.041086972,0.611349881,-2.931962252
0.595011592,0.577101648,-0.021528188,-0.817767143,0.001501134,-0.001954251,0.003031839,-0.460787296,0.051912542,0.264493257,0.041076057,0.611345112,-2.93196702
0.600009739,0.578351736,-0.020433838,-0.817808688,0.000832894,-0.001743249,0.003427468,-0.460891306,0.051758122,0.264495164,0.041069712,0.611340821,-2.931952477
0.605010152,0.579124272,-0.021657381,-0.816845894,0.001925026,3.12E-05,0.003771945,-0.460925788,0.051706918,0.26449579,0.041064471,0.611341953,-2.93195343
0.610010862,0.578406274,-0.022432877,-0.818902969,0.001566603,-0.001175749,0.004164271,-0.461037248,0.051664319,0.26396507,0.041063581,0.61133945,-2.931955576
0.615011811,0.578793049,-0.024228439,-0.817773402,0.002528009,-0.002024348,0.003839759,-0.461159855,0.051646966,0.26325345,0.041064017,0.611333787,-2.93196106
0.620014071,0.578345537,-0.024043506,-0.816433907,0.000723539,6.17E-05,0.003980842,-0.461254179,0.051633619,0.262705892,0.041061539,0.611338437,-2.931959629
0.625011206,0.578260005,-0.02035827,-0.816618264,0.000141401,-0.000703742,0.00533468,-0.461285442,0.051629193,0.262524337,0.041060343,0.611338615,-2.931943655
0.630009353,0.576773345,-0.017513273,-0.816584885,0.002569444,-0.00079717,0.005744833,-0.461309522,0.051625788,0.262384653,0.041063335,0.611335576,-2.931915998
0.635008514,0.574589074,-0.020501904,-0.818296671,0.004068782,0.000357683,0.006183597,-0.460965872,0.051628817,0.263537943,0.04107492,0.611335337,-2.931901932
0.640008986,0.575497091,-0.026573604,-0.816332042,0.004049004,0.000393345,0.006378022,-0.460701436,0.051631149,0.264425337,0.041108187,0.611336589,-2.931900263
0.645009935,0.57927233,-0.023157641,-0.817195117,0.002747627,0.002643053,0.005348668,-0.460613757,0.051631924,0.264719546,0.041119613,0.611362219,-2.931884766
0.650012136,0.577678502,-0.021042934,-0.815930545,0.002867483,0.002167762,0.006962947,-0.460546315,0.051632516,0.264945924,0.041127652,0.611374855,-2.931864738
0.65500927,0.57661742,-0.021861823,-0.81657654,0.002637676,0.001211961,0.006272254,-0.460466266,0.051631365,0.264994532,0.041140247,0.611385643,-2.93184042
0.660007417,0.576465905,-0.024093039,-0.817494512,0.004485209,0.002285003,0.005971688,-0.460346371,0.051629122,0.265005112,0.041159466,0.611398458,-2.931834221
0.665006876,0.575984359,-0.021681642,-0.816545844,0.005279083,0.004127583,0.005395646,-0.460306615,0.051628377,0.265008628,0.04117531,0.6114223,-2.931821823
0.67000705,0.57803911,-0.021100262,-0.81649524,0.003747928,0.002509872,0.00722643,-0.460276008,0.051627804,0.265011311,0.041192126,0.611448109,-2.931794643
0.675008535,0.577746511,-0.021443019,-0.817706823,0.00676569,0.003919201,0.007205972,-0.460265875,0.051627614,0.265012205,0.041223589,0.611470938,-2.931769848
0.680010736,0.577922106,-0.025294162,-0.817302763,0.004274202,0.002318097,0.00322952,-0.460128516,0.051964827,0.265184671,0.041243818,0.611489594,-2.931773424
0.685008109,0.579940498,-0.026082724,-0.817591429,0.002633305,0.002159369,0.002054501,-0.460082978,0.052076641,0.265241861,0.04124184,0.611508965,-2.931787968
0.690006256,0.575089514,-0.02840008,-0.816159427,0.000943067,0.003383606,0.003669159,-0.46004796,0.052162673,0.265285879,0.04124999,0.611529768,-2.931791067
0.695011854,0.576248765,-0.022535821,-0.818154931,0.001474377,0.003683892,0.004223155,-0.460036308,0.052191202,0.265300483,0.041247159,0.611542821,-2.931782007
0.700012267,0.578065038,-0.017906277,-0.816930652,0.001380246,0.00312732,0.005274708,-0.460429966,0.052016489,0.265232384,0.041233666,0.611566842,-2.931757212
0.705013514,0.579133272,-0.021880409,-0.817979276,0.002260482,0.002928065,0.005609389,-0.46066013,0.051909894,0.265190184,0.04124729,0.611587763,-2.931740046
0.710015774,0.579353571,-0.02265095,-0.81838423,0.002362181,0.004497649,0.006218432,-0.460837215,0.051827874,0.265157729,0.041264065,0.611622274,-2.931726456
0.715013146,0.577463806,-0.020083969,-0.816262186,0.000987551,0.002692445,0.005069317,-0.460895956,0.051800679,0.265146971,0.041255873,0.611638963,-2.931714773
0.720010996,0.577631116,-0.01901703,-0.817081153,0.003025725,0.004269675,0.006151882,-0.460968107,0.051746756,0.264632076,0.041263547,0.611662865,-2.931686401
0.725009918,0.576912522,-0.020787653,-0.817871213,0.004087736,0.003604118,0.0072616,-0.461019248,0.0516956,0.263950467,0.04128813,0.61168319,-2.93166399
0.73001039,0.575908661,-0.019534327,-0.816885769,0.004084222,0.004197563,0.008186947,-0.461058587,0.051656235,0.263426065,0.041303404,0.61170578,-2.931635857
0.735012114,0.578487396,-0.019940749,-0.81596601,0.00504107,0.004178841,0.008504734,-0.46107164,0.051643185,0.263252169,0.041334704,0.611739635,-2.931597471
0.740014315,0.579188526,-0.021908762,-0.816427767,0.004960797,0.004402358,0.008741572,-0.461081654,0.051633142,0.263118356,0.041373096,0.611770809,-2.931571722
0.745011687,0.579378664,-0.021615524,-0.817171514,0.003306812,0.006677489,0.009585189,-0.46088466,0.051779885,0.263202429,0.041397121,0.611805737,-2.931524515
0.750009596,0.578226388,-0.021390425,-0.818376124,0.004271659,0.005226144,0.007716998,-0.460733056,0.051892791,0.26326713,0.04143193,0.611835122,-2.93149066
0.755008996,0.579258323,-0.022139536,-0.81838727,0.005936919,0.007170436,0.00907521,-0.46068278,0.05193023,0.263288587,0.041467696,0.611875594,-2.931456089
0.760009468,0.580562532,-0.021579979,-0.817790866,0.005925608,0.004862842,0.01033664,-0.460644126,0.051959034,0.263305098,0.041506767,0.611899853,-2.931413889
0.765010715,0.580957711,-0.023606425,-0.814947069,0.003812524,0.00503638,0.009256744,-0.460603863,0.052082773,0.263207227,0.04154579,0.611940145,-2.931369543
0.770012915,0.581097782,-0.023951564,-0.815143347,0.004265172,0.00509756,0.008832335,-0.460545123,0.052293442,0.263027459,0.041577607,0.611976743,-2.931337357
0.775010049,0.580937505,-0.024473954,-0.81624949,0.00348406,0.003692529,0.00846274,-0.460525632,0.052363299,0.262967855,0.041607589,0.612001777,-2.931303024
0.780007958,0.57981962,-0.024719328,-0.815827668,0.003242441,0.002968726,0.008796819,-0.460510641,0.052417047,0.262921989,0.041639138,0.61202538,-2.93127203
0.785007119,0.579009116,-0.025809819,-0.815098584,0.004252227,0.002507605,0.00773802,-0.460505664,0.052434869,0.26290679,0.041664779,0.61204499,-2.931255579
0.790007055,0.578041077,-0.024001228,-0.817365944,0.003598034,0.001925373,0.007877515,-0.460503191,0.052388512,0.263727099,0.041693073,0.612053275,-2.931230783
0.795008004,0.577444255,-0.021620011,-0.816628993,0.003369291,0.001090267,0.007606568,-0.460502356,0.052373141,0.263999104,0.041709267,0.612060905,-2.931196451
0.800010264,0.57888639,-0.022347962,-0.817887068,0.003455992,0.002572061,0.008182292,-0.46050173,0.052361313,0.264208376,0.041728586,0.612083435,-2.931172848
0.805007339,0.578097165,-0.023015222,-0.818320215,0.00416595,0.002461826,0.006753135,-0.460501522,0.052357391,0.264277756,0.041750122,0.612100363,-2.93114996
0.810005486,0.576872706,-0.022165686,-0.817625165,0.004687943,0.001839997,0.008860908,-0.460954517,0.052255228,0.263670832,0.041779824,0.612110853,-2.931114674
0.815004408,0.577533484,-0.024961034,-0.818039119,0.003942946,0.003542521,0.007883289,-0.461216837,0.052196819,0.263306201,0.04181068,0.612130821,-2.931102753
0.82000488,0.579025209,-0.026500411,-0.817107916,0.005162525,0.00145912,0.007627102,-0.461418658,0.052151877,0.263025582,0.041842077,0.612141728,-2.931084633
0.825005829,0.579710424,-0.027580641,-0.816132605,0.003660923,0.000343708,0.006901985,-0.461485595,0.052136976,0.262932539,0.041872345,0.612149298,-2.931073427
0.830013931,0.580566764,-0.026440021,-0.81595248,0.003836258,0.000977942,0.006821934,-0.4615089,0.052154571,0.262936205,0.041904945,0.61216414,-2.931061506
0.835016966,0.580722928,-0.025168167,-0.815986395,0.00190187,0.001651889,0.007450321,-0.461488217,0.052189704,0.263013303,0.041922797,0.612181842,-2.931032896
0.840015113,0.579325318,-0.024759073,-0.816611528,0.001607907,-0.000610433,0.005855621,-0.461472303,0.052216738,0.26307261,0.041930739,0.612181604,-2.931025267
0.845014036,0.579024851,-0.024139993,-0.817883253,0.002285065,0.001725167,0.005249715,-0.461467028,0.052225702,0.263092279,0.041941442,0.61219728,-2.931023121
0.85001421,0.579300165,-0.02215364,-0.816780627,0.001615123,-0.000680705,0.004555048,-0.461462975,0.052232597,0.263107419,0.041941367,0.612204492,-2.931005478
0.855015159,0.580073357,-0.02891673,-0.817603707,0.001392432,0.001621281,0.004798261,-0.461209089,0.052184775,0.263733685,0.041953873,0.612216234,-2.931016207
0.86001718,0.580346465,-0.026735619,-0.816853285,0.000147332,-0.000163541,0.002905588,-0.461013734,0.052147981,0.264215559,0.041944031,0.612230003,-2.931025982
0.865014255,0.580985785,-0.022575123,-0.816868424,0.000509425,0.000951345,0.003088138,-0.460948974,0.05213578,0.264375359,0.041923299,0.61223954,-2.931021214
0.870012164,0.578957915,-0.020753009,-0.816215336,-0.000922804,0.000928111,0.002016487,-0.460899115,0.052126389,0.264498293,0.041900218,0.612251639,-2.93101716
0.875011086,0.579202354,-0.020911489,-0.816369653,-0.000101029,0.001407039,0.00380662,-0.46059379,0.052059866,0.264534175,0.041892361,0.612264693,-2.931007385
0.880011022,0.578467965,-0.02187534,-0.815371692,0.000187948,0.000394289,0.001913814,-0.460066855,0.051944569,0.264556825,0.041871525,0.61227423,-2.931018353
0.885012507,0.580318928,-0.024316993,-0.816347241,0.000130385,0.000276113,0.00411142,-0.459892124,0.051906336,0.264564335,0.041864216,0.612287581,-2.931014061
0.890014708,0.578697622,-0.024819795,-0.816675544,0.000855629,0.000673274,0.004167758,-0.459757686,0.051876921,0.264570117,0.04187208,0.612291932,-2.931011915
0.895012081,0.5791623,-0.023879787,-0.815951169,-0.000338252,0.000710237,0.004377297,-0.459713131,0.051867168,0.264572024,0.041859642,0.612300158,-2.931005478
0.90000999,0.579258144,-0.023842307,-0.816626191,0.000951437,0.001056792,0.003171804,-0.460424989,0.052212887,0.264643371,0.04185186,0.612310052,-2.931013346
0.905008912,0.581470013,-0.02409957,-0.815565646,0.000967042,0.001371286,0.003354301,-0.460661024,0.052327521,0.264667034,0.041851927,0.612322271,-2.931007862
0.910008848,0.57964164,-0.024673652,-0.814722121,0.000557176,-0.001593405,0.003419443,-0.460842639,0.052415725,0.264685243,0.041848686,0.612318873,-2.931006432
0.915010571,0.580041289,-0.025848031,-0.816412568,0.000851099,-0.001728158,0.003633116,-0.46090284,0.052444968,0.264691263,0.041850287,0.612318635,-2.931009293
0.92001307,0.581168175,-0.024682198,-0.815689564,0.00191568,0.000249641,0.003922062,-0.460896105,0.052458733,0.26384598,0.041853361,0.612324715,-2.931018353
0.92501092,0.57993108,-0.022081552,-0.816679537,0.002239157,-0.001178382,0.003483026,-0.460880727,0.052461132,0.263355345,0.041850843,0.612320364,-2.931011438
0.930009067,0.578823328,-0.021692283,-0.814830244,0.002418345,-0.002470214,0.003950418,-0.460868925,0.05246298,0.262977868,0.041846719,0.612315178,-2.931004763
0.935007989,0.57784754,-0.022729509,-0.816600084,0.003564638,-0.001337837,0.003345189,-0.460864991,0.052463591,0.262852699,0.041853137,0.612312436,-2.930998325
0.940008461,0.578409016,-0.022380434,-0.816749096,0.000898683,-0.001863011,0.00419055,-0.460833073,0.052407987,0.263010204,0.041843474,0.612310886,-2.930990458
0.94500941,0.578773797,-0.021487251,-0.817088783,0.001688892,-0.001101515,0.004673808,-0.460793346,0.052333005,0.26331839,0.041842915,0.612308562,-2.93098259
0.950012147,0.578475773,-0.02067453,-0.815706193,0.003215312,-0.00231066,0.005710535,-0.460762799,0.052275315,0.263555527,0.041849617,0.612303376,-2.930966377
0.955010056,0.579357922,-0.022317911,-0.814452052,0.001329666,-0.003213807,0.005070311,-0.460752666,0.052256186,0.263634145,0.041850537,0.612300694,-2.930954218
0.960008204,0.579412758,-0.022374911,-0.815431714,0.0047612,-0.001675633,0.004341961,-0.460744858,0.052241463,0.263694644,0.041869566,0.612303376,-2.930940151
0.965013504,0.578011274,-0.023217024,-0.816137016,0.003027659,-0.002035728,0.005977468,-0.461251736,0.052302629,0.264304787,0.041875925,0.612293303,-2.930929184
0.970014215,0.580360293,-0.02420466,-0.815983951,0.002272689,-0.001868521,0.005373266,-0.461641729,0.05234969,0.264774233,0.041892204,0.612293005,-2.930913925
0.975015163,0.578675628,-0.024181401,-0.815541565,0.002478998,-0.000707208,0.006768377,-0.461771041,0.052365296,0.264929891,0.041906018,0.61229229,-2.930899382
0.980017662,0.579776943,-0.025323754,-0.81613946,0.002409774,-0.002243577,0.003315784,-0.461870551,0.052377298,0.265049636,0.041909579,0.612291634,-2.930905342
0.985015035,0.579532206,-0.02565014,-0.81539458,0.001379729,-0.002410178,0.004629592,-0.461615086,0.052456897,0.264473885,0.041918326,0.612290263,-2.930898905
0.990013182,0.58008194,-0.02413759,-0.815533876,0.001297415,-0.002493223,0.00434239,-0.461126834,0.052594602,0.263408512,0.041905876,0.61228776,-2.930900574
0.995012105,0.579569221,-0.025413778,-0.815086901,0.000863773,-0.000856956,0.003070271,-0.460964948,0.052640259,0.263055265,0.041900728,0.612289131,-2.930905819
1.00001204,0.579138637,-0.025208158,-0.816241086,0.000450756,-0.000613379,0.002143241,-0.460840404,0.052675392,0.262783468,0.041897435,0.612296164,-2.930918217
1.005012989,0.57901293,-0.025742602,-0.818033755,0.000110804,-0.001788197,0.002640517,-0.460799098,0.052687041,0.262693346,0.041890167,0.612294018,-2.930921316
1.010015488,0.578958333,-0.024433635,-0.817603886,-0.001152644,-0.001133267,0.002403899,-0.46110329,0.052634861,0.262631208,0.041875258,0.612290025,-2.930934668
1.01501286,0.579070568,-0.024911173,-0.816185892,-0.000208138,-0.002763646,0.001058155,-0.461204171,0.052617557,0.262610614,0.041854542,0.612283826,-2.930949688
1.02001071,0.578777373,-0.021655738,-0.814650238,-0.000680747,-0.002723906,0.000674968,-0.461281776,0.052604243,0.262594789,0.041834649,0.612283468,-2.930958986
1.025009632,0.57605046,-0.022395149,-0.814530969,-9.06E-05,-0.001904642,0.000557778,-0.461307496,0.052599829,0.262589544,0.041814916,0.612280607,-2.930970907
1.030009627,0.57844919,-0.021375284,-0.815226316,-0.000654681,-0.000857403,0.000994548,-0.461275667,0.052495234,0.262764364,0.041787114,0.61228168,-2.930985212
1.035011292,0.579448044,-0.023457531,-0.816364944,-6.89E-05,0.000445932,0.000415096,-0.461252332,0.052435514,0.262866616,0.04176721,0.612295449,-2.931008101
1.040013313,0.578852117,-0.021348046,-0.814748824,-0.001991479,0.00136649,0.000160556,-0.461234391,0.052389562,0.262945265,0.041727517,0.612308145,-2.931027174
1.045010686,0.577616334,-0.019474594,-0.815382242,-0.000331083,0.000305039,0.002113711,-0.46122843,0.052374326,0.262971342,0.041707613,0.612313867,-2.931020737
1.050008535,0.578210235,-0.021392366,-0.815581381,-0.002212119,0.000669523,0.001988928,-0.461166263,0.052306436,0.263295442,0.041680586,0.612327814,-2.931027889
1.055007458,0.57941699,-0.021472391,-0.815455914,-0.000661828,0.000203731,0.002488888,-0.461087614,0.052227285,0.263709456,0.041663375,0.612338603,-2.931020975
1.060007453,0.578594863,-0.020546941,-0.816703081,0.000715123,-0.000808538,0.00388777,-0.461027116,0.052166384,0.264028013,0.041653693,0.612344801,-2.931015015
1.065008402,0.578297198,-0.019990196,-0.817900002,0.000949336,0.000128942,0.004024077,-0.461007059,0.052146189,0.264133662,0.041642494,0.612352669,-2.930998564
1.070010424,0.578918099,-0.019896112,-0.817554474,0.002323814,0.001761619,0.005448898,-0.460991591,0.052130654,0.264214963,0.041650627,0.612366438,-2.930970669
1.075007796,0.579488635,-0.019830497,-0.81760025,0.002916389,0.002582492,0.007386076,-0.461441398,0.052129429,0.263714492,0.041658089,0.612394691,-2.930941105
1.080005884,0.579625964,-0.021525014,-0.817114413,0.001309645,0.002753188,0.005268445,-0.461787522,0.052128486,0.263329417,0.041656148,0.612410903,-2.930925131
1.085005045,0.578463852,-0.020897498,-0.816524565,0.002028146,0.004542107,0.00677944,-0.461902291,0.052128173,0.263201743,0.041661669,0.612436652,-2.930903435
1.09000504,0.579263389,-0.022020329,-0.813769162,0.003325142,0.002395451,0.006584946,-0.461990565,0.052127935,0.263103485,0.041683938,0.612459004,-2.930881262
1.095006227,0.578310251,-0.024014769,-0.815355778,0.003110422,0.003925998,0.006769461,-0.461790115,0.052097961,0.263447404,0.041694891,0.612485111,-2.930865765
1.100014567,0.580619991,-0.024662586,-0.815795541,0.002595545,0.004797131,0.005273568,-0.461403549,0.052044667,0.264092743,0.041708432,0.612520397,-2.930855989
1.105018139,0.58065635,-0.02415292,-0.814457476,0.000186323,0.003415762,0.004901435,-0.461275399,0.052026995,0.264306754,0.041705128,0.61254251,-2.930848837
1.110016823,0.581362784,-0.020910345,-0.814268768,0.000853525,0.001752133,0.005403864,-0.461176783,0.052013397,0.264471412,0.041697465,0.612559438,-2.930827856
1.115015626,0.579610884,-0.023033073,-0.816760242,0.000994536,0.004429997,0.00439365,-0.46114409,0.05200889,0.26452601,0.041698646,0.612589836,-2.930826664
1.120015621,0.576149404,-0.025957204,-0.818766057,0.001850608,0.004052497,0.004928496,-0.461051226,0.052196812,0.263436347,0.041706748,0.612600982,-2.930826187
1.125016332,0.578692317,-0.025682349,-0.816625655,-0.000401014,0.003507801,0.004655054,-0.46102044,0.052259121,0.263075024,0.041705523,0.612626374,-2.930822134
1.130019069,0.581153691,-0.021774212,-0.814597905,-0.000731764,0.005486237,0.003857126,-0.460996747,0.052307066,0.262797028,0.041683573,0.612669647,-2.930812836
1.13501668,0.577697277,-0.023882493,-0.815746427,-0.000966547,0.003549133,0.004638156,-0.460988879,0.052322961,0.262704819,0.041675288,0.612691998,-2.93080616
1.140015364,0.578283548,-0.025979932,-0.814734459,8.41E-06,0.005146381,0.004265178,-0.461082131,0.052184384,0.262637526,0.041679576,0.61272186,-2.930813074
1.145014286,0.579024374,-0.021561081,-0.813463569,-6.41E-05,0.004938666,0.004002328,-0.461137652,0.052101117,0.262616128,0.041662969,0.612758398,-2.930798292
1.150014162,0.579288244,-0.019251117,-0.812039435,0.001822326,0.00404541,0.003448609,-0.461180359,0.052037049,0.262599647,0.041650224,0.612784445,-2.930794239
1.155015707,0.578869402,-0.026666667,-0.813797355,-0.000271361,0.003021428,0.00422825,-0.461194515,0.052015807,0.262594193,0.041659016,0.612805724,-2.930803537
1.160018206,0.5816769,-0.027635207,-0.813040912,-0.002686441,0.002474959,0.004007943,-0.461295009,0.052149665,0.26302141,0.041645292,0.612827659,-2.930802822
1.165015817,0.5819242,-0.025174486,-0.81391257,-0.00135731,0.000521951,0.001265434,-0.461418688,0.052345514,0.263598114,0.041620225,0.61284405,-2.930823088
1.170013666,0.579812467,-0.028640259,-0.814225018,-0.003482099,0.001145677,0.000393947,-0.461513847,0.05249621,0.264041841,0.041596591,0.612855911,-2.930851936
1.175012827,0.580100596,-0.024546422,-0.814490557,-0.004788393,0.001415236,-0.000379815,-0.461545408,0.052546177,0.264188975,0.041549575,0.612876236,-2.930865526
1.180012822,0.579387128,-0.021061562,-0.814422429,-0.003485209,0.000450115,0.001466949,-0.461569697,0.052584622,0.264302164,0.041505098,0.612885654,-2.93086791
1.185013771,0.57975316,-0.02064117,-0.815150142,-0.004798625,0.003451009,0.003039813,-0.461372465,0.052536804,0.263710827,0.04145591,0.612909794,-2.930872679
1.190015793,0.575593829,-0.022744469,-0.817908585,-0.005105723,0.007375661,0.001711143,-0.461220711,0.052500013,0.263255805,0.041416306,0.612946332,-2.930880308
1.195012808,0.576796949,-0.022597432,-0.816530228,-0.003991646,0.004093712,0.004213479,-0.461170375,0.052487813,0.263104945,0.041385692,0.612968504,-2.930875301
1.200011015,0.5818308,-0.019098163,-0.816798449,-0.004227157,0.005162878,0.002404684,-0.461131632,0.052478429,0.262988836,0.041336179,0.613005877,-2.930869818
1.205010176,0.579458416,-0.015964011,-0.816175401,-0.003075263,0.004410628,0.003781928,-0.461148441,0.052478656,0.263255417,0.041303243,0.613035917,-2.930836678
1.210010171,0.577026188,-0.02235996,-0.81746459,-0.001921081,0.005561663,0.00765515,-0.461191356,0.05248221,0.263768971,0.041299902,0.613061428,-2.930808544
1.215011597,0.579698861,-0.025566427,-0.813697517,-0.003539483,0.004302377,0.005713742,-0.461205602,0.052483391,0.263939261,0.041284628,0.613087654,-2.930799961
1.220013857,0.583006024,-0.021278936,-0.814106822,-0.003279086,0.001389355,0.005306667,-0.461216569,0.052484296,0.264070302,0.041256562,0.613110721,-2.930781364
1.22501123,0.581286728,-0.02266857,-0.815205693,-0.003331545,0.002629133,0.00452235,-0.461220205,0.052484598,0.264113754,0.041237831,0.613135755,-2.930768013
1.230009556,0.580907762,-0.029946866,-0.813361943,-0.003468856,0.001459991,0.003071964,-0.46088165,0.052334834,0.263251543,0.041235097,0.613155901,-2.930780411
1.235014677,0.580982506,-0.034721784,-0.812652886,-0.006117525,0.000728924,0.002261177,-0.460769385,0.052285176,0.262965679,0.041211221,0.613165915,-2.930816174
1.240014791,0.581794798,-0.032700136,-0.812571108,-0.00782079,-0.000801515,0.001043724,-0.460683018,0.052246965,0.262745708,0.041175786,0.613175094,-2.930852413
1.24501586,0.582135618,-0.035062067,-0.811845183,-0.011280696,-0.000486381,-0.003887794,-0.460654378,0.052234296,0.262672752,0.041103393,0.61318934,-2.93092227
1.250018001,0.583561182,-0.033619747,-0.814019263,-0.014027813,0.000221149,-0.00659185,-0.4608877,0.052186698,0.263515741,0.041010518,0.613206029,-2.931003571
1.255015135,0.58196491,-0.031664159,-0.816981971,-0.017994681,-0.000479907,-0.010196479,-0.461028248,0.052161548,0.264017731,0.040873028,0.61321646,-2.931107044
1.26001358,0.580752373,-0.031419415,-0.815752268,-0.022423308,0.000717075,-0.012811654,-0.461136401,0.052142199,0.264403999,0.040713321,0.61322844,-2.931225061
1.265012503,0.579418957,-0.032146815,-0.815962553,-0.025594845,0.001633764,-0.016252266,-0.461172253,0.052135784,0.264532059,0.040510751,0.613247812,-2.931379318
1.270012379,0.57954514,-0.034295086,-0.816556811,-0.028048052,0.005027018,-0.018950947,-0.461312264,0.052041218,0.264075547,0.040311672,0.613284469,-2.931537151
1.275013328,0.580816448,-0.031910319,-0.814537525,-0.030649424,0.004605904,-0.020353992,-0.461472064,0.051919479,0.263364434,0.040081184,0.613329589,-2.931711435
1.280015349,0.582094908,-0.029658124,-0.814977169,-0.035291187,0.004955415,-0.024075411,-0.461595029,0.05182581,0.262817293,0.039810721,0.613371491,-2.931896925
1.285012245,0.582378507,-0.0268276,-0.815783203,-0.038703185,0.005758257,-0.027411321,-0.461635798,0.051794749,0.262635887,0.039507896,0.613418162,-2.932094812
1.290010333,0.57983315,-0.02768586,-0.81523484,-0.041419405,0.006422971,-0.027257005,-0.46166715,0.051770855,0.262496293,0.039195005,0.613460124,-2.932299137
1.295009255,0.580610514,-0.022602148,-0.816530049,-0.045313243,0.009434682,-0.029700767,-0.46182695,0.051611066,0.262231201,0.038840942,0.613521278,-2.932502031
1.300009251,0.581121862,-0.015433327,-0.815604329,-0.048089333,0.009598115,-0.02859221,-0.461949885,0.051488116,0.262027264,0.038455181,0.613584518,-2.932685137
1.305010438,0.581231773,-0.01360304,-0.814017475,-0.04808902,0.008787767,-0.025843808,-0.461990654,0.051447347,0.261959612,0.038092099,0.61364603,-2.932843924
1.310016513,0.577800393,-0.01474593,-0.814844906,-0.045016576,0.008196661,-0.023397515,-0.462022007,0.05141598,0.261907578,0.037756246,0.613692343,-2.932989359
1.315018773,0.576451063,-0.014603488,-0.816821218,-0.047700405,0.008623045,-0.019662926,-0.461886168,0.05114717,0.262397915,0.03741977,0.613744795,-2.933113575
1.320019245,0.579421163,-0.012541029,-0.817083597,-0.045129936,0.010248214,-0.016925884,-0.461633801,0.050679043,0.263288468,0.037104469,0.613807261,-2.933223724
1.325018167,0.581173778,-0.007219538,-0.815159976,-0.04552573,0.00774711,-0.014505689,-0.461550117,0.050523821,0.263583779,0.03678133,0.61385572,-2.933297157
1.330018282,0.580642343,-0.002599473,-0.811669707,-0.042988393,0.008606389,-0.011764181,-0.461485714,0.050404388,0.263810962,0.036472596,0.613916457,-2.933341503
1.335019231,0.58007127,-0.004782233,-0.812685847,-0.03883481,0.009503083,-0.009156273,-0.461464375,0.050364785,0.263886303,0.036205068,0.613972843,-2.933376551
1.340021253,0.578625023,-0.009383092,-0.814316869,-0.03757384,0.007347459,-0.004800832,-0.461575657,0.0500554,0.262762368,0.03596605,0.614015043,-2.933406115
1.345018387,0.576883912,-0.009592035,-0.816105008,-0.033283375,0.008726217,-0.000317555,-0.461612552,0.049952812,0.26238969,0.035772875,0.614054799,-2.933408976
1.350016475,0.579247117,-0.004727689,-0.813663602,-0.02717624,0.008037733,0.003651071,-0.461640954,0.049873877,0.262102932,0.035597496,0.614101768,-2.933368683
1.355015635,0.580389559,-0.002166207,-0.811178684,-0.024862947,0.005699401,0.007340917,-0.461650372,0.049847703,0.262007833,0.0354569,0.614142418,-2.933303356
1.360015631,0.580840528,-0.008265313,-0.813028932,-0.021534348,0.004475279,0.011305021,-0.461710095,0.049785793,0.26282984,0.035348993,0.614173651,-2.933235645
1.36501658,0.580740988,-0.009821564,-0.817671537,-0.017905872,0.004377701,0.012162257,-0.461742848,0.049754929,0.263323933,0.03526726,0.61419785,-2.933160782
1.370024681,0.578680873,-0.008290585,-0.819494069,-0.013794768,0.006509042,0.017410256,-0.461768061,0.049731176,0.263704091,0.035216793,0.614230752,-2.933055401
1.375028014,0.579141796,-0.009913613,-0.81936878,-0.010336001,0.011085098,0.02066307,-0.461776406,0.049723305,0.263830155,0.035211749,0.614287436,-2.932919979
1.380026102,0.581534743,-0.012831885,-0.816636443,-0.009773426,0.015984232,0.021275081,-0.461639494,0.049744073,0.264000177,0.035211306,0.614374697,-2.932799339
1.385025501,0.578960359,-0.016835533,-0.817505598,-0.010859942,0.021269262,0.019234734,-0.461449504,0.049778011,0.264130205,0.035206921,0.614483118,-2.932698011
1.390025496,0.580187082,-0.024106435,-0.819045901,-0.011474592,0.024620058,0.019925619,-0.461303324,0.049804125,0.264230251,0.035213687,0.614610553,-2.932617188
1.395026684,0.581938148,-0.026537871,-0.819870353,-0.013301963,0.029639961,0.01677908,-0.461254865,0.049812783,0.264263421,0.035210285,0.614764631,-2.93255496
1.400028944,0.579566717,-0.022842763,-0.821703494,-0.016276684,0.033958506,0.014525075,-0.461217552,0.049819443,0.264288962,0.035158072,0.614934504,-2.932493448
1.405026078,0.581398129,-0.017278859,-0.822108388,-0.018865172,0.040550623,0.012225471,-0.461410165,0.050026819,0.264030963,0.035082821,0.615144134,-2.932425737
1.410024405,0.582917988,-0.010188855,-0.821810722,-0.020723801,0.044416498,0.012646919,-0.461558342,0.050186384,0.26383248,0.034988288,0.61536938,-2.932337523
1.415023565,0.580661476,-0.009769741,-0.823946953,-0.022526288,0.049552016,0.014233368,-0.461607486,0.050239291,0.263766646,0.034893069,0.615612447,-2.932237387
1.420023561,0.578466475,-0.008749905,-0.825117648,-0.019566495,0.054025844,0.014786597,-0.461645305,0.050280001,0.263715982,0.0348101,0.615881085,-2.932146311
1.425024509,0.581182063,-0.009452305,-0.8259691,-0.020525336,0.057998519,0.017653214,-0.461743325,0.05026463,0.263523549,0.034741811,0.616164327,-2.932029486
1.430026531,0.58200717,-0.005724489,-0.824086547,-0.018109918,0.061518442,0.019529894,-0.461905181,0.050223608,0.263197899,0.034680746,0.616472244,-2.931890965
1.435023665,0.582303107,-0.008386619,-0.823360741,-0.020747408,0.068158209,0.021290299,-0.461958855,0.050210007,0.263089895,0.034621924,0.616819501,-2.931753159
1.440021992,0.582245111,-0.00878768,-0.823929667,-0.017007487,0.075270951,0.022210736,-0.462000161,0.050199546,0.263006806,0.034588952,0.61719501,-2.931595802
1.445021749,0.582593024,-0.013797152,-0.828177214,-0.019361362,0.08488024,0.021762028,-0.46201387,0.050196074,0.262979269,0.034554221,0.617614806,-2.931461334
1.450021863,0.576822877,-0.012222878,-0.830874085,-0.023175783,0.093818232,0.021949377,-0.462428302,0.050328963,0.262133092,0.034488641,0.61806041,-2.931330204
1.455022812,0.577989638,-0.002576253,-0.834303439,-0.019175448,0.109117709,0.023372184,-0.46256575,0.050373025,0.261852533,0.034439798,0.618586123,-2.93115592
1.460025072,0.577503324,0.00524955,-0.83699435,-0.018698681,0.124307804,0.024488734,-0.462671489,0.050406929,0.261636645,0.034373689,0.619185627,-2.930949926
1.465022206,0.572337568,0.002686938,-0.842638433,-0.016423779,0.146762446,0.029052326,-0.462706536,0.050418172,0.261565059,0.034355007,0.6198861,-2.93073535
1.470020294,0.565310061,8.07E-05,-0.857628822,-0.018940203,0.174834952,0.032930519,-0.462832361,0.050371733,0.260842264,0.034341946,0.620699108,-2.930506468
1.475019813,0.542577446,0.00120365,-0.879695415,-0.038452044,0.236329108,0.048299048,-0.462898552,0.050342705,0.260437369,0.034293201,0.621736348,-2.930197477
1.480020523,0.52714473,0.020769369,-0.867548347,-0.047619358,0.331249595,0.071701601,-0.462949485,0.050320368,0.260125816,0.034233548,0.623305976,-2.929658413
1.485021472,0.525556266,0.048607405,-0.876416922,-0.05215219,0.422646195,0.101124972,-0.462966383,0.050312962,0.260022521,0.034226373,0.625329852,-2.928828716
1.490023375,0.523090243,0.055926539,-0.895979881,-0.047626566,0.533664167,0.133307606,-0.46329546,0.050283547,0.259847969,0.034360185,0.627856731,-2.927798748
1.495020509,0.464849889,0.055070896,-0.927591324,-0.065844871,0.717947423,0.186163887,-0.463723332,0.050249882,0.259694189,0.03464482,0.631165147,-2.926454544
1.500018477,0.470353246,0.03759088,-0.955930233,-0.076646604,0.946016371,0.245255888,-0.464052558,0.050223976,0.259575874,0.035173532,0.63568747,-2.924721718
1.505023956,0.486945242,0.035158176,-0.989627004,-0.108439192,1.163853765,0.284141958,-0.464161724,0.050215386,0.259536624,0.035730097,0.641309857,-2.922680855
1.510024428,0.511990726,-0.013062752,-1.046644926,-0.176527753,1.303834319,0.290255845,-0.464245707,0.050208777,0.259506434,0.036116697,0.647558093,-2.92071414
1.515025377,0.482412577,-0.050845169,-1.136323214,-0.351406157,1.43561852,0.262767673,-0.466042936,0.050562665,0.255728602,0.035522729,0.654224455,-2.919097662
1.520027399,0.482585549,0.09534464,-1.124151826,-0.322204709,1.56092608,0.249363899,-0.467425793,0.050834958,0.252821803,0.034521464,0.661569476,-2.917179585
1.525024533,0.517048538,0.194953874,-1.114296079,-0.144984618,1.64669013,0.302254319,-0.467884302,0.050925244,0.251857966,0.034777161,0.669370174,-2.914585352
1.530022383,0.647873938,0.165427953,-1.116098285,-0.044047549,1.742360115,0.334705472,-0.468237102,0.050994717,0.251116365,0.035875708,0.677829981,-2.911731958
1.53502214,0.713223219,0.043954626,-1.12617445,-0.066032216,1.755966306,0.363321155,-0.470195621,0.051434375,0.248287842,0.037259731,0.686385036,-2.908976078
1.540022492,0.733116865,-0.043617956,-1.157536983,-0.160842836,1.767452717,0.385382473,-0.473564625,0.052193929,0.243500069,0.038337,0.69482857,-2.906273842
1.545023441,0.779333472,-0.103964381,-1.193175435,-0.297329724,1.76593101,0.441586018,-0.474681735,0.05244578,0.241912544,0.039105307,0.703277707,-2.903255463
1.550025463,0.952248514,-0.163151518,-1.128532171,-0.472102046,1.805165291,0.512750089,-0.475541264,0.052639563,0.240691051,0.039476015,0.712242246,-2.899646282
1.555022597,1.012846231,-0.144490004,-1.086641669,-0.68476522,1.852878451,0.534480572,-0.475826263,0.05270382,0.240286022,0.038853131,0.721506,-2.895726204
1.560020685,1.086953163,0.020571508,-1.032795072,-0.816394031,1.881207943,0.499362171,-0.481030107,0.054649998,0.229718,0.036948979,0.73110199,-2.891654968
1.565019846,1.184157729,0.363697022,-1.055776954,-0.761198878,1.809416056,0.431474179,-0.482755601,0.055295315,0.226213843,0.034157086,0.740424991,-2.887367725
1.57002008,1.367733836,0.660521328,-1.107777357,-0.408686668,1.592253447,0.397817522,-0.484083265,0.05579184,0.223517641,0.032417014,0.748733342,-2.882744551
1.575021029,1.44667697,0.719110966,-1.205134034,0.133232355,1.299340963,0.372526556,-0.484523505,0.055956479,0.222623616,0.033542041,0.755420446,-2.878320456
1.58002305,1.368909597,0.587124109,-1.287578583,0.651196539,1.009302974,0.330515593,-0.488097012,0.056547482,0.21578218,0.037561059,0.760351717,-2.874717236
1.585019946,1.147216082,0.394757479,-1.291389585,1.024995446,0.788164198,0.275295138,-0.490082383,0.056858346,0.211990982,0.043577619,0.76387614,-2.872098446
1.590017796,0.848312616,0.179756999,-1.234468341,1.223441243,0.663569033,0.221503645,-0.491609991,0.057097536,0.209073901,0.050693944,0.766531646,-2.870437145
1.595016718,0.579107881,-0.013562284,-1.167502403,1.252803802,0.63031435,0.176328495,-0.492116481,0.057176847,0.208106652,0.058067981,0.768840313,-2.869518995
1.600016952,0.379025191,-0.13663356,-1.126052976,1.141794682,0.669181526,0.158092245,-0.493756562,0.058680601,0.204401433,0.064946234,0.77123189,-2.8689363
1.6050179,0.254551679,-0.17529811,-1.110227227,0.961606383,0.747845888,0.171464533,-0.495561182,0.060634058,0.200187027,0.070982955,0.773937106,-2.868249893
1.610019803,0.197501391,-0.151810229,-1.108420491,0.788918972,0.825064003,0.217211276,-0.496949703,0.062137108,0.196944341,0.076317631,0.776973128,-2.867080212
1.615016937,0.185651496,-0.094605833,-1.124189615,0.661503673,0.864406168,0.288753569,-0.497410119,0.062635489,0.195869118,0.081267118,0.780148625,-2.865227938
1.620014906,0.197786227,-0.040854521,-1.151716948,0.601446569,0.84230423,0.372285753,-0.497764409,0.063018955,0.195041806,0.086272471,0.783117235,-2.862631798
1.625014305,0.197285548,0.007992634,-1.177703023,0.60035044,0.769726396,0.457103699,-0.498620361,0.065779664,0.191668749,0.091612056,0.785602093,-2.859364033
1.630015016,0.173250228,0.034976877,-1.193427086,0.634743273,0.664324105,0.541522801,-0.499278963,0.067903839,0.189073399,0.097501546,0.787409842,-2.855539322
1.635015965,0.137050107,0.033317812,-1.205216289,0.678962886,0.541875124,0.613664091,-0.499497354,0.06860818,0.188212827,0.10396786,0.788482606,-2.851317644
1.640024066,0.079429194,0.015153464,-1.203328609,0.705406606,0.414159656,0.667272687,-0.49966538,0.06915012,0.187550679,0.110809639,0.788788021,-2.846891403
1.645027041,0.014119248,-0.014251677,-1.199904084,0.70308882,0.296939433,0.708978772,-0.499879509,0.070842072,0.184779525,0.117818624,0.788388729,-2.84236002
1.650025249,-0.038375661,-0.038446747,-1.200142741,0.663240612,0.188993946,0.735349476,-0.500204444,0.07367304,0.180067256,0.1247079,0.787359953,-2.837815523
1.655024648,-0.075880453,-0.051858258,-1.202706099,0.594145775,0.08960779,0.748714089,-0.500312209,0.074611738,0.178504765,0.131209344,0.785771012,-2.833345652
1.660024881,-0.080434069,-0.053648561,-1.205623507,0.501774907,-0.013495415,0.749587953,-0.50039506,0.075333998,0.177302524,0.137116283,0.783654571,-2.828994036
1.665026307,-0.069837667,-0.045286439,-1.197262168,0.405936897,-0.13615334,0.735477209,-0.500422537,0.075573489,0.176903889,0.142305493,0.780944109,-2.82485199
1.670028567,-0.060704559,-0.01955061,-1.186455607,0.326925039,-0.270878077,0.712665021,-0.499571294,0.08113718,0.174797267,0.146788612,0.777594268,-2.820950508
1.67502594,-0.060272969,0.011287639,-1.175165653,0.270792544,-0.41638732,0.680820465,-0.499289006,0.082981996,0.174098745,0.150603965,0.773550868,-2.817421198
1.680023789,-0.062820002,0.029350789,-1.159462333,0.233292133,-0.563909233,0.638139427,-0.499071836,0.084401459,0.17356129,0.153871834,0.768816233,-2.814346552
1.68502295,-0.07840164,0.031921003,-1.142941117,0.202763051,-0.705492377,0.592034817,-0.498999834,0.084872127,0.173383072,0.156638607,0.763412237,-2.811806202
1.690023184,-0.094049767,0.029433511,-1.124057412,0.167566895,-0.828048825,0.535984516,-0.496713877,0.088663109,0.174280852,0.158850878,0.757457435,-2.809772015
1.69502461,-0.109082535,0.019587863,-1.107445836,0.12282899,-0.93720448,0.475668281,-0.495403975,0.090768598,0.174834624,0.160471648,0.751021147,-2.808315277
1.700026631,-0.116338864,0.013294838,-1.097916961,0.068541273,-1.02757585,0.409096539,-0.494396091,0.09238863,0.175260723,0.161409542,0.744216323,-2.80745697
1.705024004,-0.115932979,0.014885095,-1.086499929,0.010020123,-1.110561967,0.341583103,-0.494061887,0.092925802,0.175402015,0.161679983,0.737085581,-2.807136536
1.710021853,-0.110968798,0.022262761,-1.076305509,-0.039836165,-1.187948465,0.271670073,-0.49201566,0.094711103,0.177541196,0.161301613,0.729667485,-2.807310104
1.71502161,-0.103820644,0.032813188,-1.072048187,-0.07682728,-1.260911584,0.203857988,-0.489533037,0.096686579,0.180298015,0.16038236,0.721972108,-2.807954311
1.720021725,-0.089959852,0.04619725,-1.064790249,-0.099075869,-1.332059622,0.13638854,-0.487622857,0.09820658,0.182419196,0.159002617,0.714016259,-2.809058189
1.725023031,-0.069088206,0.053279914,-1.06093514,-0.109605186,-1.398536086,0.074113317,-0.486989468,0.098710582,0.183122545,0.157277152,0.705828547,-2.810584068
1.730025172,-0.047006626,0.055928335,-1.055487275,-0.110549562,-1.462057352,0.017196283,-0.486502111,0.099098377,0.183663726,0.155323073,0.697409868,-2.812463045
1.735022306,-0.031215219,0.059202526,-1.049543023,-0.103683993,-1.519988298,-0.030628912,-0.482104868,0.099952914,0.188623264,0.153199956,0.688773334,-2.814624786
1.740020275,-0.024732042,0.063830279,-1.04130125,-0.092574462,-1.568873882,-0.073593572,-0.478721499,0.100610428,0.192439288,0.150969118,0.679956317,-2.817049503
1.745019078,-0.021267423,0.059910856,-1.032939196,-0.07852564,-1.608697414,-0.111109845,-0.477599621,0.100828446,0.193704605,0.148713246,0.670994878,-2.819687366
1.75001955,-0.016445626,0.05420614,-1.02646637,-0.061928045,-1.642094731,-0.139766991,-0.476736426,0.100996196,0.194678187,0.146474645,0.661911547,-2.822482586
1.755021334,-0.010947056,0.044106357,-1.0171386,-0.052199908,-1.666767359,-0.158212781,-0.473635256,0.100828186,0.1986029,0.144281581,0.652747154,-2.825358391
1.760023594,-0.012447384,0.027563082,-1.007966638,-0.045623738,-1.682459593,-0.165100873,-0.468402773,0.1004728,0.205264777,0.142179027,0.643534362,-2.8282547
1.765020728,-0.002938263,0.009969717,-1.007431507,-0.054774608,-1.686997533,-0.15885295,-0.466667771,0.100354955,0.207473725,0.14013432,0.634302616,-2.831087351
1.770025015,0.020879554,-0.01414465,-1.019364119,-0.083306193,-1.684872866,-0.142044395,-0.465332806,0.100264288,0.209173366,0.138105437,0.625104785,-2.833769083
1.775024414,0.066543125,-0.032720931,-1.036504269,-0.13814503,-1.685578823,-0.117670804,-0.464890152,0.100234218,0.209736928,0.135956362,0.61595422,-2.836244106
1.780025125,0.139428586,-0.0477576,-1.055218577,-0.219577685,-1.70207119,-0.085863166,-0.456273824,0.099383451,0.2184508,0.133554742,0.606795609,-2.838450909
1.785026073,0.233050197,-0.04626701,-1.069038391,-0.312220275,-1.745893478,-0.056057625,-0.453416795,0.099101357,0.22134015,0.130772635,0.597511709,-2.840384007
1.790028334,0.31118843,-0.02652513,-1.076969624,-0.394016832,-1.814307809,-0.031064566,-0.451218545,0.098884299,0.223563313,0.127622828,0.58796978,-2.842075586
1.795025349,0.368890822,0.001655509,-1.08468461,-0.457629502,-1.899500847,-0.013427568,-0.45048964,0.098812334,0.224300474,0.124167286,0.578058124,-2.843586206
1.800023556,0.413810462,0.030778416,-1.088459492,-0.496453881,-1.988993406,-0.012150443,-0.44441402,0.098158069,0.23222962,0.120491177,0.567766666,-2.845002651
1.805022478,0.448270619,0.047254767,-1.077377439,-0.524454474,-2.083085537,-0.025846565,-0.441034794,0.097792931,0.236680508,0.116636902,0.557082951,-2.846457958
1.810022354,0.463514835,0.053075608,-1.059502482,-0.54491502,-2.17236352,-0.057054814,-0.43843472,0.097511984,0.240105167,0.112604201,0.546017647,-2.848096132
1.815023303,0.460694909,0.052199978,-1.035356045,-0.565471292,-2.245568991,-0.100295201,-0.437572569,0.09741883,0.241240725,0.108393125,0.534648299,-2.849960804
1.820025325,0.443374395,0.041591316,-1.003183365,-0.593740225,-2.300733566,-0.154674485,-0.433311105,0.096593514,0.24631615,0.103949919,0.523050547,-2.852148771
1.825022459,0.420673549,0.022029854,-0.966241181,-0.635405004,-2.331991911,-0.212944448,-0.428269774,0.095559902,0.252236038,0.099238478,0.511348188,-2.854652166
1.830020308,0.389546543,0.00069824,-0.925937951,-0.688399434,-2.341425896,-0.272657961,-0.424390793,0.094764605,0.256790996,0.094216496,0.499633431,-2.857474566
1.835019231,0.361607611,-0.020341994,-0.888242841,-0.750555694,-2.326865911,-0.331550926,-0.423104614,0.094500907,0.258301318,0.088845648,0.488031983,-2.860578775
1.840019464,0.337459475,-0.035817817,-0.851186156,-0.812476993,-2.291929483,-0.3866041,-0.422114968,0.094298005,0.259463429,0.083133742,0.476633102,-2.863922358
1.845020652,0.31467101,-0.047735911,-0.815679371,-0.861636817,-2.242190123,-0.430498719,-0.413562715,0.092100218,0.266862661,0.077179201,0.465506315,-2.867420673
1.850022674,0.299566209,-0.053934846,-0.78914237,-0.887766004,-2.174695015,-0.463359982,-0.406982332,0.090409167,0.272555858,0.071143448,0.454738289,-2.87098074
1.855019808,0.29163751,-0.063229211,-0.773233056,-0.896050334,-2.092232227,-0.489208549,-0.404800415,0.089848444,0.274443626,0.065130726,0.444395989,-2.874560118
1.860017657,0.29294005,-0.076255232,-0.765100598,-0.884051323,-2.001065254,-0.502212763,-0.403121561,0.089417011,0.275896102,0.059287343,0.434521109,-2.878116846
1.86501658,0.30630514,-0.088094227,-0.765533209,-0.848466098,-1.90619719,-0.505928874,-0.397854686,0.087144174,0.281030178,0.053728621,0.425147563,-2.881602526
1.870016456,0.333824068,-0.096319973,-0.779655278,-0.794882178,-1.815186858,-0.493897319,-0.389039397,0.08324185,0.289684862,0.048572589,0.416265398,-2.884914398
1.875017762,0.371923506,-0.098157734,-0.804123878,-0.721690238,-1.730749011,-0.461683065,-0.386116415,0.081947908,0.292554587,0.043935612,0.407828838,-2.887929916
1.880020022,0.416514039,-0.111399174,-0.831562996,-0.64455837,-1.653807163,-0.418548882,-0.383867383,0.080952317,0.294762641,0.039880913,0.399809182,-2.890634537
1.885017395,0.468688101,-0.118235327,-0.863062501,-0.574402452,-1.576533198,-0.370093793,-0.383121639,0.080622189,0.295494795,0.036337778,0.392238617,-2.893009186
1.890015244,0.544421375,-0.130851641,-0.899808943,-0.515769958,-1.514732122,-0.316449404,-0.373063296,0.075372748,0.302402645,0.033241905,0.385063708,-2.895039082
1.895014167,0.633685112,-0.162785575,-0.939531803,-0.469043881,-1.4792943,-0.263263106,-0.369728148,0.073632136,0.304693192,0.030577965,0.378175259,-2.896764278
1.900014043,0.721859932,-0.196112886,-0.977261066,-0.451368392,-1.482191205,-0.212212354,-0.367161989,0.072292849,0.306455582,0.02817961,0.371365964,-2.898222923
1.905021191,0.795487702,-0.227324829,-1.001859307,-0.460395128,-1.518573284,-0.171580985,-0.366311073,0.071848765,0.307039946,0.025858613,0.364440471,-2.899483204
1.910023451,0.856440723,-0.247634277,-1.017636061,-0.498540223,-1.580339074,-0.133857399,-0.359756857,0.069151968,0.312897891,0.023449017,0.357275903,-2.90054369
1.915020585,0.909300387,-0.265527517,-1.028459787,-0.559443533,-1.656662464,-0.104485445,-0.356123775,0.06767498,0.31617856,0.020807089,0.349795103,-2.90145278
1.920018673,0.960678637,-0.281619877,-1.021302462,-0.643882275,-1.742600322,-0.084778845,-0.353328347,0.066538535,0.318702817,0.017805632,0.34196943,-2.902250051
1.925017595,0.993425012,-0.291526645,-1.000577092,-0.745216608,-1.834528327,-0.073529691,-0.352401435,0.066161714,0.319539815,0.014325173,0.333754897,-2.902967453
1.930018067,1.000933051,-0.283147514,-0.971544445,-0.841430187,-1.92223084,-0.072842956,-0.348169714,0.064959459,0.322663367,0.010353336,0.325132817,-2.903629065
1.935019016,0.985612869,-0.264886677,-0.934275091,-0.927037835,-1.989176035,-0.078626759,-0.343218505,0.063640833,0.326199412,0.00593236,0.316182315,-2.904239178
1.940021276,0.962854505,-0.241924897,-0.895088077,-0.994914353,-2.030664682,-0.087189548,-0.339408875,0.062626235,0.328920186,0.001150727,0.307033002,-2.90480113
1.945018411,0.929850698,-0.218953222,-0.852079928,-1.043368816,-2.043993473,-0.093822107,-0.338145673,0.062289815,0.329822332,-0.003882861,0.297813743,-2.905311346
1.950016499,0.891236603,-0.198003724,-0.812563896,-1.067890167,-2.037053823,-0.100406773,-0.33717373,0.062030964,0.330516458,-0.009055237,0.28862071,-2.905768394
1.955015421,0.845562696,-0.174369916,-0.775261939,-1.070548654,-2.009898901,-0.11118181,-0.329061657,0.058633428,0.335726857,-0.014250943,0.279537827,-2.90621376
1.960015655,0.805543244,-0.161072209,-0.738483012,-1.052598476,-1.966506481,-0.119523428,-0.322819978,0.056019258,0.339735895,-0.019349968,0.270652115,-2.906630754
1.96501708,0.768869579,-0.156043336,-0.707609475,-1.017512083,-1.908724666,-0.125221476,-0.320750356,0.05515245,0.341065228,-0.024248198,0.262027472,-2.907046556
1.970019341,0.729563236,-0.157547832,-0.682439029,-0.975072324,-1.840699673,-0.132863566,-0.319157928,0.0544855,0.342088073,-0.028913999,0.253708482,-2.907487869
1.975016952,0.701442957,-0.160185888,-0.659920216,-0.927949071,-1.759483814,-0.138008922,-0.313858181,0.052286092,0.344792962,-0.033323549,0.245783687,-2.907973528
1.980014801,0.678687155,-0.155212134,-0.643262804,-0.877149642,-1.672913313,-0.139853433,-0.304955423,0.048593473,0.34926635,-0.037474059,0.238286227,-2.908436537
1.985013962,0.658646345,-0.141474083,-0.624516845,-0.815846801,-1.578675151,-0.134203792,-0.302003443,0.04736907,0.350749642,-0.041331016,0.231239408,-2.908828735
1.990013957,0.638734519,-0.129413471,-0.609502852,-0.744870961,-1.482383013,-0.116561189,-0.299732119,0.046426974,0.351890922,-0.044814553,0.224662334,-2.909078121
1.995014906,0.633017957,-0.126238331,-0.599766612,-0.672335207,-1.374220848,-0.087936141,-0.298978984,0.046114594,0.352269351,-0.047901187,0.218643323,-2.909175158
2.000017166,0.636382699,-0.13456957,-0.589958012,-0.606979787,-1.26841557,-0.058492355,-0.28919512,0.041758273,0.358306795,-0.050599862,0.213196605,-2.909163475
2.00501442,0.637953818,-0.151886329,-0.582734168,-0.553287804,-1.170575976,-0.025953006,-0.285950989,0.040313803,0.360308707,-0.052975465,0.20824194,-2.909045935
2.010012627,0.636739314,-0.167057335,-0.574135602,-0.504475534,-1.086776257,0.005539235,-0.283454835,0.039202377,0.36184901,-0.055052642,0.203726381,-2.908818722
2.015011549,0.63506937,-0.176400959,-0.579689264,-0.469587594,-1.004348516,0.044703521,-0.282627165,0.038833849,0.362359762,-0.056904308,0.199621648,-2.908437252
2.020011425,0.64026314,-0.178616419,-0.580839813,-0.443769187,-0.930568933,0.083925493,-0.276441485,0.036576353,0.364544064,-0.058597151,0.195908815,-2.907863617
2.025012732,0.642165005,-0.178973779,-0.579691112,-0.406789482,-0.866900384,0.130660236,-0.273017347,0.035339355,0.3657116,-0.060076028,0.192534357,-2.907059193
2.03001523,0.642875552,-0.165902033,-0.577408552,-0.36010167,-0.810884178,0.185178339,-0.270382702,0.034387562,0.366609961,-0.061285116,0.18945469,-2.905939341
2.035013199,0.638186455,-0.155201942,-0.576863468,-0.301069617,-0.756948829,0.241384163,-0.269509107,0.034071967,0.366907835,-0.062167406,0.18665047,-2.904518127
2.040017128,0.638594151,-0.14807409,-0.572649658,-0.233098641,-0.703390002,0.300403953,-0.266560137,0.03339326,0.36851877,-0.062658943,0.18413949,-2.902785778
2.045022488,0.637539208,-0.144439012,-0.56325233,-0.160010591,-0.654393256,0.354853153,-0.263286382,0.032728676,0.370446235,-0.062739089,0.181893498,-2.9007833
2.050022602,0.63571763,-0.13931635,-0.556425631,-0.07866063,-0.610066891,0.403976679,-0.26076743,0.03221732,0.371929318,-0.062377047,0.179877609,-2.898530722
2.055023909,0.624808133,-0.136300281,-0.547025025,-0.010763609,-0.556408405,0.447800219,-0.25993219,0.032047763,0.372421056,-0.061646916,0.17812933,-2.896060944
2.060026169,0.621605277,-0.135537297,-0.53925246,0.04240825,-0.50215745,0.473691404,-0.259289533,0.031917304,0.372799426,-0.060648475,0.176667735,-2.893498659
2.065023422,0.622565389,-0.131271347,-0.529003501,0.088922441,-0.448160559,0.482517242,-0.255739808,0.032280672,0.37428537,-0.059439011,0.175477311,-2.890875101
2.070021868,0.618077219,-0.125829354,-0.520673871,0.121979669,-0.391111463,0.475134909,-0.253008544,0.032560263,0.375428677,-0.058095917,0.174555451,-2.888310909
2.07502079,0.617652833,-0.123838097,-0.513059497,0.140921399,-0.324421227,0.44914341,-0.252102911,0.03265297,0.375807792,-0.05670407,0.173970371,-2.885913134
2.080020666,0.626142859,-0.111827523,-0.49541539,0.149492487,-0.250843585,0.411640912,-0.251406074,0.032724299,0.376099497,-0.05534102,0.173767939,-2.883682251
2.085021496,0.638741553,-0.08453761,-0.471516639,0.152553946,-0.170328096,0.365253091,-0.249924794,0.033937763,0.376133054,-0.054081693,0.173982397,-2.881587505
2.090023994,0.662790895,-0.050531425,-0.449568033,0.16247803,-0.08051946,0.316589296,-0.247520894,0.036074534,0.376094997,-0.052877847,0.17468366,-2.879616976
2.095021248,0.689912498,-0.012586324,-0.425348908,0.180833384,0.007679448,0.268676907,-0.246723801,0.036783047,0.376082391,-0.051701918,0.175864369,-2.877764225
2.100019693,0.721843421,0.021574803,-0.400444627,0.212153807,0.103797123,0.222681016,-0.246110499,0.037328199,0.376072675,-0.050462604,0.177583233,-2.876032829
2.105018854,0.75291872,0.038012486,-0.383353621,0.253180802,0.199417129,0.176851958,-0.245907143,0.037508961,0.376069456,-0.049072821,0.179820463,-2.874467373
2.11001873,0.797351599,0.036694549,-0.374091685,0.293094754,0.290872961,0.13371475,-0.244171306,0.040000863,0.377731591,-0.047501169,0.182587236,-2.873092651
2.115020037,0.857077599,0.025860809,-0.373299927,0.323706329,0.363474339,0.100965686,-0.243595734,0.040827133,0.378282726,-0.045794148,0.185797662,-2.871876478
2.120022535,0.914413571,0.009188054,-0.376688778,0.34055838,0.41265443,0.078895137,-0.243152872,0.041462887,0.378706783,-0.044001568,0.189330801,-2.870770693
2.125020266,0.95751363,-0.009092765,-0.386265427,0.350076526,0.447806388,0.080415823,-0.243006036,0.041673694,0.37884739,-0.042135015,0.193085819,-2.869684935
2.130018234,0.470071614,0.145443216,-0.41948688,0.456035286,0.6941576,0.202005222,-0.243777201,0.043528136,0.378417343,-0.040153783,0.196758121,-2.868140936
2.135017157,0.953491449,-0.07154952,-0.1344648,0.677307248,1.122849822,0.36853236,-0.244251698,0.044561785,0.378141582,-0.03595455,0.204533234,-2.86574769
2.140016794,0.737514079,0.040700935,0.037407503,0.796309531,1.340298295,0.544492602,-0.244616777,0.045357104,0.377929389,-0.031302694,0.212918893,-2.862056494
2.145017862,0.020457074,-0.002481675,0.014610451,0.820541084,1.662401915,0.673604012,-0.244737834,0.045620818,0.377859026,-0.026474066,0.22114341,-2.858786821
2.150020361,-0.257963389,-0.103084929,-0.417982191,0.859642327,2.116291523,0.812942624,-0.246263251,0.047548149,0.376823545,-0.020971704,0.231316671,-2.855587482
2.15501833,-0.280325204,-0.241856709,-0.997942567,0.713110089,2.523194075,0.823687732,-0.248213336,0.049926117,0.375490606,-0.015948955,0.243399739,-2.852790833
2.160016298,-0.502108634,-0.171306163,-1.52943778,0.558058679,2.904365778,0.76616019,-0.249713793,0.051755801,0.374464989,-0.012013617,0.256659508,-2.850506067
2.165015459,-0.570897639,-0.021031979,-1.76557827,0.454723448,3.293615103,0.652965367,-0.250211328,0.05236249,0.374124914,-0.00903593,0.271613985,-2.848361969
2.170015574,-0.161389306,0.120526567,-1.641633868,0.440766126,3.589479446,0.473852485,-0.250594139,0.052829295,0.37386325,-0.0065285,0.288953185,-2.846139431
2.17502284,0.441612363,0.148302525,-1.302705288,0.437055767,3.805621624,0.303007573,-0.258832216,0.057620768,0.368251234,-0.004242543,0.308512747,-2.844070435
2.180025101,0.94066602,0.11980705,-1.004423141,0.463639289,3.929420233,0.181809753,-0.265170842,0.061307479,0.363933146,-0.001884495,0.329524308,-2.842079639
2.185022354,1.253585339,-0.077764571,-0.868653238,0.416534185,3.992674828,0.042454269,-0.267272621,0.062529922,0.362501383,0.000553512,0.351224035,-2.841021299
2.190021038,1.385582447,-0.251924425,-0.918047011,0.233486637,3.981511354,-0.184511289,-0.268889785,0.063470513,0.36139971,0.0018021,0.372891128,-2.841702461
2.195020199,1.477432013,-0.290361851,-1.097725391,0.042185601,3.862686872,-0.406769156,-0.277094632,0.065447174,0.356241703,0.001508425,0.393822908,-2.843728065
2.200020313,1.587625384,-0.274859965,-1.291584849,-0.110040493,3.597643852,-0.5225541,-0.291161835,0.068651438,0.347426832,0.000159534,0.413312107,-2.846278191
2.205021381,1.598593354,-0.230473667,-1.380749702,-0.214616209,3.252340078,-0.515390575,-0.295826256,0.069713913,0.344503999,-0.001853533,0.430874735,-2.848682404
2.210023403,1.429154277,-0.214876667,-1.344319463,-0.231603131,2.89966321,-0.386669189,-0.299415231,0.070531413,0.342255056,-0.003569263,0.446237504,-2.850423813
2.21502018,1.188467383,-0.232985362,-1.210849404,-0.253604114,2.633702517,-0.249714911,-0.300605267,0.07080248,0.341509342,-0.004978325,0.459977359,-2.851657391
2.220018387,0.99476248,-0.256008685,-1.052531719,-0.299019903,2.465687752,-0.139963597,-0.318922758,0.069952294,0.329172581,-0.00630179,0.472766966,-2.852517605
2.225017548,0.864423215,-0.212665081,-0.948337734,-0.381965637,2.365692139,-0.070612334,-0.324996501,0.069670394,0.325081944,-0.008041502,0.484998941,-2.852971315
2.2300179,0.826443553,-0.057346694,-0.905468404,-0.433406681,2.291944027,-0.026737599,-0.329669833,0.069453493,0.321934462,-0.010289489,0.496909648,-2.852760553
2.235018492,0.815872431,0.177303016,-0.901403606,-0.416263014,2.202434063,-0.007867154,-0.331219405,0.069381565,0.320890844,-0.012936017,0.508318782,-2.85189724
2.24002099,0.805891275,0.381429255,-0.910497546,-0.294461995,2.107501268,0.027486136,-0.341196209,0.067958087,0.313481957,-0.015157032,0.519222736,-2.850390911
2.245018721,0.771893442,0.570945382,-0.898919284,-0.109929606,2.014930248,0.040569287,-0.346678078,0.067147531,0.309390664,-0.016746869,0.529552817,-2.848465681
2.250017166,0.77117759,0.726496816,-0.888945937,0.162349939,1.934788823,0.077325948,-0.350895971,0.066523872,0.306242704,-0.017135505,0.539515078,-2.845987797
2.255016088,0.947761536,0.910817146,-0.935174108,0.54466033,1.812970996,0.262518287,-0.352294564,0.066317074,0.305198878,-0.015334209,0.549105823,-2.841922998
2.260016203,1.207303405,0.77338475,-1.013380885,0.778636873,1.546724677,0.444908202,-0.357335001,0.066229902,0.300767154,-0.011162271,0.557708323,-2.836508512
2.265017033,1.108794928,0.352442145,-0.920579851,0.869848073,1.254685044,0.471225649,-0.36300391,0.06627354,0.295638621,-0.005644524,0.564518869,-2.832503319
2.270019531,0.905497551,-0.000369594,-0.838588357,0.884152651,1.088088632,0.549879551,-0.367365748,0.06630712,0.291692555,0.000701422,0.570211768,-2.829068422
2.275017023,0.761145532,-0.291925371,-0.884938717,0.815064371,0.995050609,0.670625627,-0.368812054,0.066318259,0.290384114,0.007790309,0.575312793,-2.825545788
2.280015469,0.755176306,-0.344105035,-0.945156574,0.716147125,0.901578486,0.732732296,-0.369924903,0.066326819,0.289377391,0.014484844,0.579878151,-2.821666956
2.285014868,0.7487275,-0.196960524,-0.946729422,0.638294876,0.79785943,0.752391577,-0.374188751,0.069938622,0.285771668,0.020437794,0.583902955,-2.817171097
2.290014744,0.709955335,-0.013269156,-0.879768312,0.628508389,0.716708779,0.741070092,-0.37746951,0.072717652,0.28299731,0.025951898,0.587483883,-2.812270641
2.295015574,0.66012156,0.119773045,-0.830120206,0.667882025,0.660430551,0.717906713,-0.378557324,0.073639125,0.282077372,0.031381447,0.590789318,-2.807258129
2.300017595,0.686562359,0.114608109,-0.831014931,0.7135849,0.60587126,0.719518423,-0.379394352,0.074348137,0.281369567,0.037162509,0.59385258,-2.802269936
2.305014849,0.776666999,-0.043670662,-0.898031533,0.709600925,0.531309843,0.721282601,-0.380969286,0.077052101,0.279634923,0.043346088,0.596569717,-2.797563314
2.310019016,0.892789841,-0.261029989,-0.961573362,0.639716148,0.404595137,0.70625329,-0.383492976,0.08162903,0.276783586,0.049539495,0.598724604,-2.793437481
2.315018415,0.773039937,-0.296043634,-0.900050759,0.539640605,0.260111094,0.69325608,-0.384329766,0.083146654,0.275838107,0.055125862,0.599882543,-2.789587498
2.320018768,0.69410491,-0.209557399,-0.861711621,0.473142505,0.204190612,0.661125958,-0.384973645,0.084314361,0.275110632,0.059977483,0.600801349,-2.7857337
2.325019598,0.719785452,-0.111994565,-0.873119295,0.427462161,0.130846396,0.618262589,-0.385187149,0.084701553,0.274869442,0.064269893,0.601354837,-2.781798363
2.33002162,0.704010189,-0.103186071,-0.867278516,0.393159479,0.08035513,0.571709633,-0.386905521,0.090556823,0.272454053,0.068246052,0.601654768,-2.778229475
2.335018635,0.672579885,-0.144360229,-0.859713912,0.351857752,0.044945046,0.537664235,-0.387475282,0.092498317,0.271653175,0.071987905,0.601758838,-2.775020599
2.340016603,0.641724229,-0.161799237,-0.860291958,0.307443202,0.032628335,0.500764847,-0.387913674,0.093992166,0.271036923,0.07541769,0.601760387,-2.772124767
2.345015764,0.628409386,-0.152574435,-0.86232698,0.268095732,0.030639688,0.454311132,-0.38805905,0.094487496,0.270832598,0.078440212,0.60177511,-2.769492626
2.350016117,0.614652753,-0.151623279,-0.863311529,0.230340585,0.041950095,0.407741755,-0.387959629,0.098111771,0.269428045,0.081112683,0.601835072,-2.767076015
2.355017185,0.593565464,-0.152724549,-0.877396882,0.195493296,0.057948958,0.356377244,-0.387874395,0.100116037,0.268653661,0.083434477,0.601968169,-2.765031815
2.360019207,0.581398189,-0.151143834,-0.873776793,0.165780738,0.065119587,0.317778111,-0.38780877,0.101658188,0.268057823,0.08547011,0.602128208,-2.763222456
2.365016222,0.585557401,-0.144141674,-0.863725424,0.1430078,0.076864824,0.277538151,-0.387787044,0.102169529,0.267860234,0.087254718,0.602395892,-2.761594534
2.370014668,0.58711344,-0.129908398,-0.858178198,0.117816031,0.079606459,0.246077076,-0.387525469,0.103598319,0.267615587,0.088778958,0.602673769,-2.760104895
2.37501359,0.577555895,-0.121937573,-0.857786059,0.090557747,0.065221339,0.228802249,-0.387191862,0.105116107,0.267441094,0.090087816,0.602887213,-2.758701801
2.380013466,0.587314606,-0.118003778,-0.851361752,0.071392864,0.061295062,0.201173618,-0.386935174,0.106283948,0.267306834,0.091200247,0.603089452,-2.757428646
2.385014534,0.588253021,-0.103817664,-0.839871645,0.068127319,0.057535708,0.176972881,-0.386850059,0.106671177,0.26726231,0.09220124,0.60330224,-2.756286383
2.390016556,0.590169966,-0.086194195,-0.826108515,0.073195577,0.049815029,0.16275312,-0.386784554,0.106969126,0.267228067,0.093139686,0.603478968,-2.755165815
2.395013332,0.592752635,-0.080561802,-0.822731972,0.079459213,0.047823001,0.152260169,-0.386979043,0.107941628,0.267657846,0.094078645,0.603696644,-2.754090071
2.400011539,0.59420675,-0.063961945,-0.825490057,0.080919825,0.034241337,0.154501036,-0.387128681,0.108689904,0.267988533,0.095003612,0.60381192,-2.752932787
2.405011177,0.595597327,-0.046011232,-0.82321018,0.089568444,0.024121415,0.144262329,-0.387178302,0.108938016,0.268098176,0.095870152,0.603891253,-2.751825094
2.410011292,0.595902801,-0.064002968,-0.822649717,0.099021137,0.01886222,0.132852122,-0.387216479,0.109128922,0.268182516,0.096801959,0.603950262,-2.750832081
2.415012836,0.589460611,-0.082352832,-0.822259963,0.10206338,0.018761866,0.118207768,-0.387147069,0.109618522,0.267569661,0.097727917,0.604009092,-2.749996185
2.420015097,0.584425032,-0.090650946,-0.825080216,0.095519751,0.01358166,0.10563007,-0.387010664,0.110426292,0.266450167,0.098601967,0.604028106,-2.749247313
2.425012112,0.579603136,-0.104206182,-0.825249851,0.087600142,0.021348113,0.0844239,-0.386965424,0.110694133,0.266078979,0.09937273,0.604111195,-2.748669147
2.430010319,0.573781073,-0.110589877,-0.830918074,0.07824491,0.01693096,0.068612792,-0.386930615,0.110900223,0.265793353,0.100049071,0.60416621,-2.748221636
2.43500948,0.576082647,-0.103591174,-0.832184076,0.06729345,0.013934988,0.055963568,-0.386919081,0.110968553,0.265698642,0.100606121,0.6041767,-2.747809887
2.440009832,0.575858057,-0.094777845,-0.836197317,0.055831805,0.017937787,0.042277142,-0.386922836,0.11170812,0.266746432,0.10103371,0.604235888,-2.747451782
2.445016861,0.572830021,-0.086265922,-0.832346976,0.055727899,0.020634435,0.028543077,-0.386924058,0.111953348,0.267093837,0.101399139,0.604323864,-2.747148514
2.450018883,0.573752105,-0.085246198,-0.830056131,0.053753044,0.020886295,0.015812345,-0.386925012,0.112142034,0.267361164,0.101720877,0.604424715,-2.746932507
2.455015898,0.575157881,-0.077611752,-0.825511932,0.054320015,0.015757542,0.010927303,-0.38692534,0.112204596,0.267449796,0.102010429,0.604504526,-2.746723652
2.460014105,0.570147455,-0.076207206,-0.824951768,0.053888489,0.010619386,0.015197644,-0.386934727,0.112914324,0.267465979,0.102327734,0.604529142,-2.746465683
2.465013266,0.576851428,-0.071428709,-0.816052556,0.055464372,0.019347601,0.01476148,-0.386940092,0.113313369,0.267458469,0.102631018,0.604641795,-2.746187449
2.47001338,0.56911695,-0.060451332,-0.816054165,0.058510039,0.032244928,0.020939207,-0.386944205,0.113620415,0.267452687,0.102954745,0.604795158,-2.745853901
2.475014448,0.568955421,-0.067067645,-0.813039303,0.062504463,0.038853191,0.031237174,-0.386945575,0.113722228,0.26745078,0.103369191,0.604985952,-2.745458126
2.48001647,0.572246015,-0.069815211,-0.80893892,0.060469598,0.047132149,0.035248965,-0.386976093,0.113858491,0.267398477,0.103792176,0.605232477,-2.745026588
2.485013485,0.575766265,-0.074863575,-0.809049487,0.056304447,0.045993511,0.042042963,-0.387015939,0.113962084,0.267329872,0.104226276,0.605464995,-2.744573593
2.490011454,0.57749331,-0.076051436,-0.808128655,0.055911575,0.040754091,0.045866136,-0.387046576,0.114041798,0.267277092,0.104653612,0.605660558,-2.744112968
2.495010853,0.575506389,-0.077586971,-0.80610168,0.055215988,0.037215572,0.056955598,-0.387056738,0.114068232,0.267259598,0.105127655,0.605830908,-2.743571043
2.500011206,0.578108072,-0.081051849,-0.807565928,0.048669443,0.033288959,0.061175942,-0.387064546,0.114088565,0.267246127,0.105594747,0.605980933,-2.743020058
2.505012512,0.580750763,-0.078439698,-0.807996452,0.047762718,0.031881712,0.059152737,-0.387117505,0.114289366,0.266078651,0.10603305,0.60612607,-2.742472172
2.510014534,0.57686764,-0.077542625,-0.811728835,0.048384149,0.038240552,0.063518099,-0.387158245,0.114443868,0.265180349,0.106483445,0.606300354,-2.741904736
2.515011549,0.58781004,-0.076484568,-0.812421262,0.047001727,0.043348014,0.064963378,-0.387171745,0.114495099,0.264882475,0.106937148,0.606521904,-2.741308689
2.520009995,0.594957769,-0.074565388,-0.80864501,0.044840451,0.04772798,0.066446304,-0.387182146,0.114534512,0.264653295,0.10738562,0.606782794,-2.740682602
2.525009155,0.594123662,-0.079265326,-0.805721521,0.043507326,0.037337936,0.069684111,-0.387392193,0.114788622,0.265212983,0.107829884,0.606978118,-2.740059614
2.53000927,0.595940053,-0.078538284,-0.804951608,0.042568929,0.020976815,0.073486134,-0.387762666,0.115227878,0.266286373,0.108297564,0.607079804,-2.739402294
2.535010338,0.592135251,-0.069795251,-0.799838781,0.039685026,0.003762176,0.082177676,-0.387885511,0.115373522,0.266642302,0.108743146,0.607094526,-2.738691568
2.54001236,0.580684781,-0.061973922,-0.801596045,0.040668394,-0.012016721,0.084831297,-0.387980044,0.115485586,0.266916156,0.10917528,0.607003629,-2.737977266
2.545009136,0.576269865,-0.063313566,-0.809488177,0.038284406,-0.021346176,0.088769399,-0.388011366,0.115522742,0.267006934,0.109608829,0.606851578,-2.737249136
2.550007105,0.565029263,-0.061471585,-0.80976516,0.040303353,-0.034079358,0.094063386,-0.387903839,0.116075426,0.265465111,0.110062651,0.606636763,-2.736515045
2.555006266,0.572484195,-0.062796988,-0.80573684,0.037939958,-0.038644239,0.101704843,-0.387868196,0.116258681,0.264953852,0.110546701,0.606383801,-2.735722542
2.560006618,0.556653917,-0.06626454,-0.808931768,0.033757024,-0.030565288,0.102591187,-0.387840748,0.116399683,0.264560491,0.110997483,0.606161833,-2.734953642
2.565007687,0.550818086,-0.083611615,-0.819865406,0.030127581,-0.020293605,0.099185742,-0.387831658,0.116446443,0.264430076,0.11147698,0.605979323,-2.734257221
2.570009947,0.553815544,-0.095075831,-0.823104441,0.026519524,-0.004741183,0.090521969,-0.387678146,0.116837978,0.264546245,0.111929908,0.605886519,-2.733631372
2.575006962,0.557591736,-0.093991116,-0.820546508,0.020848332,0.002432369,0.083899021,-0.387590975,0.117055789,0.264638364,0.11231716,0.605838895,-2.733037472
2.580011368,0.555676341,-0.091966376,-0.823160827,0.015461126,0.013090048,0.073951639,-0.387523919,0.117223375,0.264709234,0.112646751,0.605849922,-2.732477427
2.585010767,0.548009515,-0.098097235,-0.827492058,0.00784261,0.030114362,0.063986436,-0.387501687,0.117278941,0.264732748,0.112918019,0.605935812,-2.73200345
2.590011358,0.546322882,-0.107771352,-0.827556789,0.004787464,0.041933142,0.052492879,-0.387372464,0.117467538,0.265127599,0.113158919,0.60608238,-2.73162365
2.595012665,0.556940556,-0.116218671,-0.823880076,-0.002155326,0.047121875,0.042468436,-0.387216538,0.117677145,0.2656385,0.113355957,0.606285393,-2.731289387
2.600014925,0.57078737,-0.141309991,-0.830474794,-0.009132565,0.06359686,0.014519855,-0.387096584,0.117838413,0.266031593,0.113470092,0.606572211,-2.731141567
2.60501194,0.554219663,-0.10646788,-0.815639138,-0.014073551,0.062380962,-0.004113711,-0.387056798,0.117891893,0.266161948,0.113466591,0.606878936,-2.731107712
2.610010147,0.554909408,-0.076751143,-0.822729588,-0.023475628,0.082512133,-0.006842187,-0.387026191,0.117933035,0.266262233,0.113252774,0.60727042,-2.730918884
2.615009069,0.555564404,-0.090084337,-0.822785378,-0.024255654,0.099343248,-0.007200583,-0.387170106,0.118247405,0.265446067,0.113147847,0.607750714,-2.730798483
2.620009422,0.565942168,-0.082430497,-0.821257412,-0.028874844,0.108776614,-0.004600764,-0.387280822,0.118489288,0.264818072,0.113001533,0.608302176,-2.730617046
2.625011206,0.571099997,-0.057739932,-0.82270062,-0.024971329,0.109444045,0.003417282,-0.387317538,0.118569493,0.264609843,0.11285162,0.608845055,-2.730285883
2.630013227,0.576637864,-0.064482652,-0.822909892,-0.016388796,0.111801326,0.01121369,-0.387345791,0.118631199,0.264449626,0.112800285,0.609401584,-2.72993803
2.635010481,0.57433337,-0.063096814,-0.818141699,-0.00735189,0.105489895,0.022398384,-0.387496829,0.118453644,0.264579147,0.112822175,0.609913409,-2.729528427
2.64000845,0.547456324,-0.065695614,-0.81581676,0.021737108,0.074728578,0.051944595,-0.387756258,0.118116803,0.264863431,0.113099448,0.61023289,-2.72900939
2.645007849,0.587567389,-0.058127813,-0.813557088,0.012934241,0.102381796,0.054922633,-0.387842268,0.118005112,0.264957696,0.11334233,0.610728145,-2.728333235
2.650007725,0.575155973,-0.065717772,-0.808080137,0.004449938,0.113566265,0.05870628,-0.387908459,0.117919177,0.265030235,0.113546111,0.611291766,-2.727722406
2.655009747,0.568066776,-0.070065171,-0.813277841,0.005110784,0.117496118,0.0734239,-0.387930393,0.117890678,0.265054286,0.113834552,0.611836433,-2.727027416
2.660011768,0.559685409,-0.059002426,-0.816518545,0.015500454,0.106903069,0.091964297,-0.388290524,0.118347853,0.264955282,0.114211552,0.61227411,-2.726198673
2.665008783,0.577720344,-0.054306976,-0.822879016,0.010763359,0.125386432,0.102011599,-0.388409942,0.118499443,0.26492244,0.114603966,0.612846613,-2.725248575
2.670006752,0.564288497,-0.055769939,-0.816953301,0.012803437,0.138595358,0.111360878,-0.388501853,0.118616082,0.264897168,0.115033858,0.613476396,-2.724285126
2.675005913,0.551869035,-0.067791857,-0.817621589,0.023691602,0.135431334,0.130663216,-0.388532311,0.118654758,0.264888823,0.115607314,0.614052176,-2.723254919
2.680006504,0.563710868,-0.06658151,-0.819154263,0.023664441,0.147292346,0.14098227,-0.388908535,0.118635565,0.264353544,0.11624977,0.614660919,-2.722107172
2.685007811,0.554636717,-0.065253153,-0.818056405,0.017021438,0.170231819,0.146936432,-0.389120609,0.118617088,0.264045209,0.116852827,0.615416169,-2.720939159
2.690009832,0.548236251,-0.067808107,-0.823236883,0.020061817,0.180146888,0.158673823,-0.389283746,0.118602872,0.263807952,0.117540583,0.616167367,-2.719702244
2.695007086,0.548596621,-0.077077292,-0.827514768,0.022230614,0.193643168,0.167202413,-0.389337838,0.118598163,0.263729304,0.118292965,0.616994381,-2.718432426
2.700004816,0.550699711,-0.074535765,-0.831702769,0.023894969,0.198942944,0.176651925,-0.389588892,0.119231157,0.263285011,0.119074225,0.617822468,-2.717087746
2.705003738,0.565955281,-0.066061862,-0.834726334,0.025452059,0.23009178,0.181743965,-0.389883339,0.120083004,0.262750715,0.119882293,0.618815958,-2.715632915
2.71000433,0.550753593,-0.064257696,-0.8423962,0.030348271,0.261180013,0.190552294,-0.390109897,0.120738447,0.262339592,0.120747983,0.619968832,-2.714145184
2.715011358,0.550409257,-0.055151083,-0.845374107,0.038534254,0.2840119,0.210112348,-0.390184999,0.12095578,0.262203246,0.121713527,0.621182859,-2.71249032
2.720013618,0.560440361,-0.056202732,-0.848333001,0.043955948,0.322098374,0.225316629,-0.390242815,0.121123001,0.262098372,0.122792132,0.622609735,-2.710685253
2.725010633,0.543332458,-0.05313611,-0.856449127,0.05178573,0.341963977,0.250585318,-0.390417635,0.121727251,0.260496408,0.123992436,0.62406826,-2.708748102
2.730008841,0.550512373,-0.048311286,-0.865945399,0.05042164,0.387368411,0.270615697,-0.390552163,0.122192174,0.259263843,0.125285909,0.625730634,-2.706616879
2.735007763,0.546989858,-0.049412571,-0.87669915,0.040806342,0.429919481,0.294121981,-0.390596747,0.122346334,0.258855134,0.126620859,0.627596796,-2.704338789
2.740007639,0.549076855,-0.037736572,-0.882482409,0.0222838,0.470278352,0.324434489,-0.39063105,0.122464955,0.25854069,0.127974361,0.629615009,-2.701798916
2.745009184,0.563829839,-0.014537055,-0.878794074,0.03481634,0.531458557,0.355004996,-0.391138166,0.123030573,0.25803408,0.129450634,0.631966531,-2.698925257
2.750011683,0.563774943,-0.021738565,-0.878655493,0.069881149,0.574503005,0.390607387,-0.392029613,0.123997942,0.257237434,0.131345972,0.634492695,-2.695826054
2.755009174,0.574495792,-0.051346362,-0.878089249,0.112638071,0.620866239,0.419479489,-0.392325193,0.124318697,0.256973296,0.133687362,0.63722074,-2.692546368
2.760007381,0.586224735,-0.083124094,-0.878515899,0.148178756,0.699415207,0.430609286,-0.392552644,0.124565497,0.256770015,0.136344299,0.640368462,-2.689186096
2.765006304,0.563242733,-0.129100889,-0.88373822,0.157900229,0.756244779,0.418902725,-0.392628044,0.124647327,0.256702632,0.139156118,0.643710852,-2.686015844
2.770007133,0.567594826,-0.243290409,-0.908173621,0.08580628,0.856925428,0.371773243,-0.394122124,0.126678318,0.254281282,0.141735718,0.647531807,-2.683306456
2.775008202,0.537933052,-0.208985239,-0.905917048,0.06906648,0.941136599,0.315293461,-0.394617528,0.127351761,0.253478408,0.143799841,0.651819229,-2.680799723
2.780010223,0.541378438,-0.205530018,-0.916886151,0.094722487,1.0279814,0.263886839,-0.394998699,0.127869934,0.252860636,0.145986959,0.656533122,-2.678518534
2.785007715,0.542838097,-0.202403128,-0.916225493,0.10257411,1.117013335,0.212186441,-0.395125121,0.128041744,0.252655804,0.148091197,0.661732316,-2.67644763
2.790005445,0.532849431,-0.193007514,-0.922344089,0.104058914,1.208171487,0.161024481,-0.396908164,0.129704207,0.249251619,0.150008142,0.667379439,-2.674581766
2.795004368,0.505001009,-0.195480451,-0.910876453,0.103487328,1.321005583,0.124517985,-0.397916555,0.130634114,0.24731949,0.151909366,0.673564434,-2.672851801
2.800004244,0.599856079,-0.159168184,-0.920288801,0.159497827,1.438443899,0.078225836,-0.398692459,0.131349623,0.245832846,0.153854117,0.680565953,-2.671021938
2.805005789,0.539036632,-0.211328611,-0.946057916,0.188268572,1.529317856,0.039785251,-0.398949713,0.131586865,0.2453399,0.156171724,0.687812686,-2.669600725
2.810008287,0.525400937,-0.195173889,-0.945258498,0.160916418,1.650508285,-0.012921521,-0.400818646,0.132245168,0.242881536,0.158036709,0.69567126,-2.668365002
2.815006256,0.557430685,-0.13764447,-0.930400252,0.170209154,1.780696392,-0.043985263,-0.403123319,0.132943183,0.23996985,0.159793288,0.704309225,-2.66692853
2.820003986,0.566048622,-0.132770747,-0.935843885,0.193293631,1.909976602,-0.069999389,-0.404896617,0.133480266,0.237729505,0.161744043,0.713581562,-2.665486574
2.825003147,0.550531566,-0.166057095,-0.940618157,0.194124222,2.054307222,-0.095492542,-0.405484587,0.13365835,0.236986652,0.163811043,0.723518074,-2.664150715
2.830003262,0.542385638,-0.168918699,-0.944097221,0.18320848,2.195406437,-0.131506801,-0.405937016,0.133795381,0.236415073,0.16579026,0.734159291,-2.662886858
2.835004568,0.554842174,-0.130278692,-0.942860782,0.181535825,2.344839096,-0.158811703,-0.409829885,0.134560987,0.22914058,0.167656392,0.745564103,-2.661495447
2.840006828,0.542593658,-0.110201925,-0.955300987,0.204744399,2.50120163,-0.188595086,-0.412825227,0.135150075,0.223543346,0.1696558,0.757730603,-2.660060883
2.84500432,0.529493809,-0.123948559,-0.968283713,0.219168767,2.676088333,-0.2208886,-0.413818419,0.135345399,0.221687406,0.171809942,0.770715356,-2.658693075
2.850008249,0.532386303,-0.137351736,-0.975546002,0.200995013,2.913025856,-0.270059288,-0.41458261,0.135495692,0.220259398,0.173909128,0.784892857,-2.657330751
2.855007172,0.525586426,-0.119595259,-0.992586136,0.176030248,3.174277782,-0.314423203,-0.417641163,0.135295555,0.214996547,0.175841123,0.800417602,-2.655941486
2.860007286,0.522305787,-0.042734638,-0.989627421,0.179916233,3.442903996,-0.325278521,-0.422830939,0.134888828,0.206104353,0.177843139,0.817200482,-2.654086828
2.865007877,0.50704962,0.040313244,-1.01664567,0.243746921,3.727101564,-0.292863756,-0.424551785,0.134753957,0.20315586,0.180544421,0.835386693,-2.651382208
2.870010138,0.479783028,0.077743083,-1.031036735,0.345753163,3.980485678,-0.209777743,-0.425875872,0.134650186,0.200887203,0.184618205,0.854628861,-2.647551298
2.875007153,0.430144101,0.074292369,-1.057835102,0.46726954,4.207250595,-0.111136965,-0.42631492,0.134615779,0.200134963,0.190407887,0.874675274,-2.642545462
2.88000536,0.417040676,0.061619218,-1.066259384,0.594653606,4.485156059,-0.026184004,-0.434883565,0.133784592,0.182980701,0.198053077,0.895924926,-2.636213779
2.885004282,0.448666304,0.075385176,-1.080469251,0.73369503,4.809702873,0.034477063,-0.437724769,0.133508995,0.17729266,0.207513481,0.918766141,-2.628416538
2.890004158,0.452047348,0.142205968,-1.109974146,0.910088539,5.107843876,0.1321363,-0.439910889,0.133296937,0.172916114,0.219337627,0.942868233,-2.618597746
2.895005703,0.446292192,0.219859987,-1.122049212,1.127442837,5.393960953,0.255476058,-0.440635741,0.133226618,0.171464935,0.234175548,0.968021929,-2.606231689
2.900008917,0.484543443,0.28700754,-1.12991035,1.389101148,5.685411453,0.410452187,-0.448306829,0.134014413,0.152737275,0.252986073,0.994338155,-2.590678215
2.905007362,0.563711405,0.306873739,-1.156231046,1.616916656,5.95804882,0.578884125,-0.452610642,0.134483948,0.142169625,0.276476979,1.021563172,-2.571158171
2.910005569,0.702615142,0.297049552,-1.128463268,1.784085512,6.186500549,0.7566275,-0.455922157,0.134845227,0.134038538,0.304873794,1.04943943,-2.547074318
2.915004492,0.869167447,0.324264616,-1.10697937,1.961791754,6.392828941,0.959098995,-0.457020193,0.134965017,0.131342426,0.339305818,1.077740312,-2.517094135
2.920004606,1.063639283,0.246851608,-1.068263173,2.118523121,6.585483074,1.128575683,-0.460766822,0.137132108,0.116029508,0.380735099,1.106138706,-2.480785847
2.925005674,1.366024852,0.133954972,-1.110774279,2.203708649,6.74656868,1.292276859,-0.464935243,0.139943004,0.097602457,0.42993176,1.134245157,-2.437025785
2.930007696,1.703550577,-0.041678827,-1.179129958,2.196991444,6.818433762,1.419224262,-0.468142569,0.142105788,0.083424099,0.487217456,1.161291361,-2.385304213
2.93500495,1.974173069,-0.133361578,-1.243732691,2.085524797,6.758295059,1.501616836,-0.469206035,0.142822936,0.07872282,0.551273227,1.186425686,-2.326175451
2.940002918,2.101694584,-0.090640165,-1.234223604,2.024050236,6.64050436,1.588844061,-0.470024318,0.143374726,0.075105511,0.622533619,1.209249616,-2.259009838
2.945002079,2.160013199,-0.044271134,-1.239130855,2.057014704,6.444253445,1.635480642,-0.471579671,0.149804816,0.047094222,0.700790465,1.22924614,-2.184965849
2.950001955,2.067810535,0.012325279,-1.216532946,2.143642902,6.24861145,1.683666348,-0.472776443,0.154752329,0.025541438,0.786187947,1.246170878,-2.104240894
2.955003023,2.091077328,0.024385583,-1.286306262,2.221243858,6.027761459,1.692586064,-0.473173261,0.156392828,0.018394943,0.877197444,1.259845495,-2.018466949
2.960005045,2.115630627,-0.01567441,-1.311062574,2.233724356,5.762675762,1.668086052,-0.473478585,0.15765509,0.012896201,0.971100152,1.270239472,-1.930103064
2.965002298,2.173633575,-0.029800598,-1.272144794,2.224985838,5.491533756,1.586220264,-0.470995605,0.161441714,-0.004189894,1.065908432,1.277778864,-1.84092474
2.970000029,2.081317902,0.045692563,-1.249212623,2.182424068,5.191468716,1.534040213,-0.466472089,0.167760938,-0.032769568,1.158924222,1.282562971,-1.75327301
2.974998951,2.061883926,0.129363596,-1.174997568,2.042648315,4.870375633,1.501517177,-0.464972168,0.16985628,-0.042246047,1.248145103,1.284771323,-1.668591738
2.979999542,2.094187737,0.001366507,-1.311588287,1.961004972,4.351671219,1.448254943,-0.463818073,0.171468496,-0.049537554,1.328022003,1.284233093,-1.593711615
2.98501277,1.83169806,-0.292340517,-1.561188102,1.760396004,3.645602465,1.415484071,-0.463435382,0.172003075,-0.051955283,1.391947269,1.280875087,-1.535966396
2.990020752,1.221648216,-0.554728866,-1.678173304,1.107375503,3.032829762,1.465376854,-0.451830983,0.178299993,-0.082128227,1.440233469,1.275031567,-1.492286921
2.995024204,0.713826716,-0.503688037,-1.820462227,0.225218058,2.495245934,1.522673368,-0.447983205,0.180387944,-0.092133,1.472777843,1.267938852,-1.460050106
3.000022173,0.615876973,-0.379484713,-1.694100738,-0.405883163,2.036962986,1.632072449,-0.445022613,0.181994468,-0.099830993,1.494285107,1.260210156,-1.435190916
3.005021811,1.03749752,-0.244173601,-1.542179108,-0.637091935,1.569510102,1.710550547,-0.444040924,0.18252717,-0.102383502,1.508283854,1.252087235,-1.416484118
3.010021925,1.215998292,-0.089675754,-1.508838296,-0.883793592,1.148895264,1.637823701,-0.435719907,0.187685996,-0.114870399,1.51376605,1.244670033,-1.404919863
3.015022993,1.075360775,0.149102166,-1.468898296,-1.132046938,0.761880517,1.563669682,-0.431088656,0.190571696,-0.121614747,1.512181401,1.237855554,-1.39881444
3.020025253,0.737333953,0.32551378,-1.297384501,-1.227590799,0.393828928,1.485805035,-0.427525222,0.192792058,-0.126804054,1.505738735,1.231388569,-1.397277117
3.025022507,0.507210374,0.419618875,-1.119225502,-1.159727097,0.070499189,1.38395083,-0.42634365,0.19352828,-0.128524736,1.496285558,1.225319862,-1.39950335
3.030020237,0.424007297,0.447964787,-1.000203848,-1.049764276,-0.18623814,1.25189364,-0.422149777,0.198269263,-0.131253958,1.484413385,1.219874501,-1.404969096
3.035019636,0.343775421,0.415966958,-0.95555681,-0.934103668,-0.368254334,1.114092112,-0.417446882,0.204050839,-0.133575991,1.471353889,1.214871764,-1.412499666
3.040019751,0.254136801,0.393504649,-0.917061388,-0.868982434,-0.505924821,0.944663405,-0.413828343,0.208499357,-0.135362655,1.45695591,1.210570335,-1.422003865
3.045021296,0.150206342,0.321063757,-0.879622221,-0.843070328,-0.599718511,0.738009274,-0.412628502,0.209974408,-0.13595508,1.441718817,1.207004786,-1.432892799
3.050023317,0.067890763,0.275025576,-0.826334834,-0.843210995,-0.660430193,0.493731439,-0.411705285,0.211109355,-0.136410907,1.425825715,1.204500794,-1.444668293
3.055020571,0.00780677,0.247173548,-0.776554525,-0.857232511,-0.704948425,0.255824268,-0.408695579,0.21705696,-0.134086028,1.40924108,1.203041315,-1.457142711
3.060018539,-0.021567527,0.211601257,-0.750820994,-0.885583699,-0.750268996,0.029518913,-0.406379819,0.221633241,-0.132297203,1.391702294,1.202512503,-1.470618963
3.065017462,-0.034914486,0.171171397,-0.731660724,-0.926036239,-0.801909566,-0.180847526,-0.405611962,0.223150656,-0.131704047,1.372893214,1.202815533,-1.485372901
3.070017815,-0.023856321,0.133382171,-0.707791805,-0.977643967,-0.869259596,-0.376156986,-0.405021131,0.224318177,-0.131247655,1.352533221,1.203839421,-1.501591444
3.07501936,-0.004031154,0.112499282,-0.688321352,-1.036688209,-0.952145636,-0.54971993,-0.404418319,0.226103589,-0.129090071,1.330239654,1.205478549,-1.51952517
3.08002162,0.007398692,0.108679384,-0.683546484,-1.080163956,-1.039956808,-0.697042704,-0.403543055,0.228891209,-0.125401303,1.30594933,1.207561612,-1.539331675
3.085018635,0.015008069,0.103266805,-0.685118616,-1.08536005,-1.135969281,-0.822476983,-0.40325284,0.229815528,-0.124178186,1.279687524,1.209906578,-1.561236143
3.090016603,0.037917372,0.092489839,-0.695444226,-1.067167163,-1.252114058,-0.927676439,-0.403029531,0.23052673,-0.123237073,1.251295805,1.212347031,-1.585528374
3.095015526,0.05448677,0.076309755,-0.708020926,-1.027417064,-1.380568385,-1.020469069,-0.402955472,0.230762541,-0.122925013,1.220677614,1.214717507,-1.612452865
3.10001564,0.075711884,0.04669366,-0.728402436,-0.987463295,-1.506458044,-1.095957041,-0.406545013,0.230329201,-0.116134942,1.187945366,1.216859937,-1.641931772
3.105016947,0.102897443,-0.004061551,-0.75450635,-0.955484033,-1.642932534,-1.165316582,-0.407735229,0.230185509,-0.113883488,1.152921796,1.218624353,-1.674143791
3.11001873,0.142665863,-0.063047506,-0.788677752,-0.945494354,-1.791817784,-1.230185747,-0.408651024,0.230074942,-0.112151138,1.115393519,1.219875097,-1.709207058
3.115016222,0.191901997,-0.120608278,-0.818101287,-0.959373593,-1.95358336,-1.288653135,-0.40895468,0.230038285,-0.111576729,1.075287104,1.220474243,-1.747055888
3.120020151,0.241343662,-0.173858702,-0.842559636,-0.998042345,-2.133044958,-1.341123581,-0.41322574,0.227498159,-0.104727343,1.032441735,1.220250964,-1.78774333
3.125019312,0.278846264,-0.213461384,-0.85809356,-1.050916076,-2.333114147,-1.382761836,-0.41564104,0.226034313,-0.100870684,0.986875772,1.21901238,-1.83112216
3.130019426,0.299837708,-0.240927339,-0.868341088,-1.11455512,-2.536019325,-1.41345644,-0.417499453,0.224907994,-0.097903244,0.938949645,1.216601729,-1.876761675
3.135020494,0.309582144,-0.255334109,-0.868406951,-1.175154328,-2.739222288,-1.429627299,-0.418115675,0.224534526,-0.096919298,0.889270782,1.212872386,-1.924038768
3.140022755,0.315584332,-0.257810861,-0.863555789,-1.224911451,-2.931571245,-1.430740356,-0.42148456,0.222299188,-0.090729713,0.838622391,1.207721949,-1.972192645
3.145020247,0.318041503,-0.259519428,-0.857986808,-1.254369974,-3.108074188,-1.421827912,-0.425520718,0.219593644,-0.08319924,0.787850857,1.201102018,-2.0204494
3.150017977,0.317227006,-0.258442372,-0.846951365,-1.261828303,-3.268270016,-1.404896736,-0.428626269,0.217511922,-0.077405058,0.737743974,1.193021536,-2.068118811
3.155016899,0.328057349,-0.25895828,-0.836267471,-1.243332744,-3.399368048,-1.370032668,-0.429655999,0.216821656,-0.075483821,0.689312339,1.183546662,-2.11425066
3.160017014,0.342105687,-0.265377104,-0.826765299,-1.208390951,-3.531864405,-1.336377263,-0.430448323,0.216290548,-0.074005559,0.642862558,1.172661543,-2.158666372
3.165018082,0.371165037,-0.283523738,-0.823442042,-1.160070539,-3.65986228,-1.303928494,-0.43677333,0.212172478,-0.060662553,0.598709881,1.160454988,-2.201151609
3.170020342,0.400454193,-0.308728129,-0.821809947,-1.115772128,-3.784351826,-1.278278828,-0.44163999,0.209003896,-0.050396014,0.556909204,1.146975517,-2.241621017
3.175017357,0.43877089,-0.33754003,-0.82122159,-1.085956931,-3.895220518,-1.247946501,-0.443253666,0.207953244,-0.046991825,0.517629385,1.132330894,-2.279798269
3.180015326,0.466865212,-0.372970939,-0.826678216,-1.071637511,-4.006010532,-1.221581817,-0.444495291,0.207144856,-0.044372533,0.480778217,1.116574407,-2.315738916
3.185014248,0.491775542,-0.407387555,-0.831858933,-1.072329164,-4.112270355,-1.201404691,-0.447517484,0.204549253,-0.034697823,0.446187109,1.09977293,-2.349553347
3.190014362,0.515219808,-0.442163587,-0.835995913,-1.088683963,-4.21355629,-1.183931231,-0.452482462,0.200198591,-0.018349344,0.413721293,1.082015157,-2.381277561
3.195015907,0.539010465,-0.46679306,-0.838184953,-1.126576662,-4.309099197,-1.171035528,-0.454128772,0.198755994,-0.012928499,0.383130699,1.063398123,-2.411008596
3.200018167,0.560506523,-0.483308196,-0.839567065,-1.165866494,-4.396609783,-1.158170104,-0.45539549,0.197646007,-0.008757527,0.35435003,1.043989539,-2.438779831
3.205015182,0.579654396,-0.494966894,-0.839666307,-1.209860444,-4.474651337,-1.145640135,-0.455815494,0.197277963,-0.007374512,0.327228665,1.023887277,-2.464711428
3.21001339,0.606513143,-0.497750074,-0.837852776,-1.247207046,-4.531342506,-1.126690865,-0.460963786,0.19086805,0.016594438,0.301783532,1.003235817,-2.488765955
3.215012312,0.634327769,-0.497540653,-0.843374014,-1.274306059,-4.580885887,-1.106094718,-0.462670863,0.188742653,0.024542088,0.277970821,0.982085109,-2.511016607
3.220012188,0.663275778,-0.487532765,-0.853671074,-1.286861897,-4.624635696,-1.083438516,-0.46398434,0.187107295,0.030657265,0.255670905,0.960492194,-2.531621933
3.225013494,0.698534966,-0.466834068,-0.866826713,-1.28151226,-4.666325092,-1.055203557,-0.464419872,0.186565042,0.032684941,0.234885231,0.938497424,-2.550613403
3.230015993,0.736774027,-0.447415829,-0.881558776,-1.255352855,-4.708103657,-1.020604968,-0.465293944,0.181141704,0.053705372,0.21563296,0.916128576,-2.568080902
3.235013485,0.771590233,-0.433398813,-0.90334022,-1.211608648,-4.754156113,-0.984047413,-0.465717137,0.178104654,0.065490849,0.197911963,0.893369555,-2.584131479
3.240011454,0.805432856,-0.425700247,-0.923860133,-1.156904459,-4.802923203,-0.945687354,-0.466042787,0.175767854,0.074558981,0.181675434,0.870236278,-2.598895788
3.245010376,0.838710666,-0.421840876,-0.946380198,-1.103845716,-4.852474213,-0.901748061,-0.466150761,0.174993008,0.077565797,0.166843578,0.846740663,-2.612422705
3.250010729,0.873268247,-0.421552122,-0.967503786,-1.051892519,-4.901753902,-0.861258924,-0.464866877,0.171236873,0.091383606,0.153288037,0.822916389,-2.624845266
3.255017996,0.901771486,-0.425696194,-0.985070944,-1.007645965,-4.952357769,-0.828368962,-0.463062704,0.166804925,0.1075662,0.140846387,0.798785627,-2.636311293
3.260020256,0.922387362,-0.432533741,-1.004401207,-0.977870524,-4.997795105,-0.801283658,-0.461674541,0.163394839,0.120017603,0.129358187,0.774367929,-2.646944046
3.265017509,0.942106962,-0.439807147,-1.026067019,-0.965448201,-5.035743713,-0.78139478,-0.461214244,0.162264124,0.124146253,0.118602313,0.749750197,-2.656874895
3.270015717,0.970529079,-0.447606683,-1.049440861,-0.964755416,-5.064559937,-0.77229315,-0.460860044,0.161394119,0.127322957,0.108447768,0.724980116,-2.666187525
3.275014639,1.001156449,-0.450323641,-1.076751351,-0.974007964,-5.08968544,-0.769557714,-0.453880072,0.156061813,0.148095369,0.098736189,0.700098276,-2.674963951
3.280014515,1.030826569,-0.43305096,-1.100320935,-0.987591982,-5.109400272,-0.773080885,-0.448509485,0.151958957,0.16407834,0.089345105,0.675144076,-2.683252096
3.28501606,1.055861592,-0.400302947,-1.121326208,-0.987799704,-5.121254444,-0.776867151,-0.446728677,0.150598541,0.169377998,0.080300175,0.650164545,-2.691040993
3.290018559,1.08718133,-0.362539172,-1.141930342,-0.974410474,-5.128497124,-0.777566373,-0.445358485,0.149551779,0.173455715,0.07165359,0.62519598,-2.698339939
3.295016527,1.129383445,-0.324928284,-1.162618399,-0.944606721,-5.14122057,-0.778065801,-0.43964693,0.145988941,0.185196757,0.063458405,0.600226521,-2.705142021
3.300014257,1.174947143,-0.29313463,-1.184769988,-0.899939656,-5.154734135,-0.780883372,-0.429936379,0.139995947,0.204735547,0.055785492,0.575252891,-2.711505651
3.305013418,1.22736454,-0.267836094,-1.205383182,-0.843450367,-5.170233727,-0.783553541,-0.426716536,0.138008788,0.211214229,0.048662975,0.5502913,-2.717477083
3.310013533,1.285136342,-0.239012688,-1.229066014,-0.782133341,-5.185888767,-0.779821455,-0.424239069,0.136479795,0.216199145,0.042106252,0.525341332,-2.723018408
3.315014362,1.3528862,-0.199824706,-1.24232614,-0.722930074,-5.204782009,-0.763928652,-0.423417598,0.135972813,0.217852056,0.036079343,0.50044024,-2.728037834
3.320016861,1.420233011,-0.151545241,-1.247919083,-0.654778719,-5.230490208,-0.736802518,-0.40603447,0.128160238,0.241742969,0.030614715,0.475533277,-2.732445955
3.32501483,1.481053829,-0.104059763,-1.24280858,-0.574627817,-5.260115623,-0.693802178,-0.400270551,0.125569746,0.249664739,0.025798807,0.450607181,-2.736229181
3.330013275,1.534551859,-0.057178807,-1.230433583,-0.484202415,-5.285230637,-0.636905789,-0.395835608,0.123576537,0.255760014,0.021688556,0.425689429,-2.739328384
3.335012197,1.58170259,-0.017360553,-1.206640244,-0.387399316,-5.297665596,-0.567811489,-0.394365072,0.122915626,0.257781088,0.018337956,0.400842726,-2.741728067
3.340012074,1.63534534,0.006880414,-1.161630988,-0.309301853,-5.29231739,-0.489538461,-0.378509969,0.117937885,0.274829715,0.015638724,0.376191974,-2.74336791
3.345013142,1.692917228,-0.016302643,-1.101405859,-0.262617141,-5.261250019,-0.41124168,-0.369609326,0.115181439,0.284316659,0.013478294,0.351896822,-2.744437218
3.350015402,1.750673532,-0.108503848,-1.049858332,-0.270570636,-5.196407318,-0.347808272,-0.362760872,0.113060549,0.291616201,0.011658104,0.328109622,-2.745223284
3.355012894,1.821535826,-0.222180754,-0.99531889,-0.391303837,-5.098333359,-0.303624928,-0.360490054,0.112357304,0.294036597,0.009556241,0.305022359,-2.745886087
3.360011101,1.872580886,-0.317504108,-0.929454029,-0.630355477,-4.960649967,-0.275763899,-0.349185199,0.110263482,0.304282337,0.006416165,0.282804936,-2.746400833
3.365010023,1.880069852,-0.36601615,-0.84409523,-0.941703856,-4.786167145,-0.260558605,-0.33579886,0.10800346,0.31613341,0.001773545,0.261569023,-2.746776819
3.370009899,1.871182442,-0.365027457,-0.745762587,-1.248660803,-4.584136009,-0.258289337,-0.325498998,0.106264524,0.325252026,-0.004409814,0.241430834,-2.746945858
3.375010967,1.860036731,-0.315096706,-0.611461937,-1.521674633,-4.34428072,-0.250390232,-0.322083741,0.105687924,0.328275591,-0.011962223,0.222539231,-2.746782303
3.380013466,1.821660399,-0.278909624,-0.503625512,-1.725138545,-4.082717419,-0.24054566,-0.319455951,0.105244271,0.33060202,-0.020515319,0.205002457,-2.746263504
3.385010958,1.786471367,-0.277997464,-0.401116699,-1.849441409,-3.806941032,-0.258602828,-0.300760925,0.100837708,0.342872143,-0.029591134,0.188831776,-2.745666265
3.390021086,1.79729414,-0.307532698,-0.303007066,-1.915912271,-3.522121191,-0.303696007,-0.286376387,0.097447157,0.352313161,-0.038888164,0.174165487,-2.745232582
3.395026207,1.838162422,-0.339216977,-0.199577451,-1.948821425,-3.249896288,-0.371061802,-0.281606734,0.096322909,0.355443656,-0.048301112,0.160963193,-2.745030165
3.400026321,1.88069582,-0.362412244,-0.085650824,-1.942406178,-2.987891674,-0.446537793,-0.277936816,0.095457874,0.35785234,-0.05766008,0.149148449,-2.745082617
3.40502739,1.920658231,-0.382825762,0.033475392,-1.897330761,-2.736478806,-0.526489854,-0.267741412,0.090554759,0.362766594,-0.066770494,0.138629586,-2.745440245
3.41002965,1.966855884,-0.401928931,0.158605918,-1.82049489,-2.48485446,-0.59946245,-0.250818014,0.082114361,0.37070927,-0.075493224,0.129436463,-2.746068478
3.415027142,2.003197432,-0.426027209,0.290356576,-1.714136958,-2.225437164,-0.658939183,-0.24520652,0.079315685,0.373342931,-0.083659783,0.121580511,-2.746930361
3.420025587,2.047632456,-0.454572499,0.419167817,-1.590664506,-1.952712893,-0.692651868,-0.240888864,0.077162296,0.37536937,-0.091151528,0.115172155,-2.747942448
3.425024748,2.076552629,-0.484842807,0.551794887,-1.471827507,-1.66661334,-0.701240897,-0.239457205,0.076448277,0.376041293,-0.098015256,0.110240959,-2.749016762
3.430024624,2.079388142,-0.520906448,0.657863736,-1.35555625,-1.362221956,-0.687395334,-0.222389281,0.064900652,0.383735627,-0.104259081,0.106849477,-2.750167131
3.435026169,2.056823015,-0.541815579,0.737351239,-1.246832013,-1.045593262,-0.645532846,-0.216729894,0.061071683,0.386286914,-0.109928668,0.105029389,-2.751260281
3.440028191,2.018445015,-0.518572688,0.791951716,-1.116430402,-0.721075714,-0.569896579,-0.212375373,0.058125548,0.388249934,-0.114997409,0.104803309,-2.752001524
3.445025206,1.966956615,-0.436301976,0.811106861,-0.942388892,-0.401079774,-0.447820127,-0.210931495,0.057148661,0.388900846,-0.119308576,0.106155753,-2.752019405
3.450023413,1.901487231,-0.313297927,0.804008961,-0.678209245,-0.094502553,-0.276715308,-0.202674881,0.049142025,0.390506923,-0.122410871,0.109015323,-2.751028776
3.455022573,1.839918852,-0.192142323,0.767781734,-0.320713997,0.197865024,-0.060413931,-0.198168933,0.044691909,0.391312957,-0.123750925,0.113357633,-2.748769522
3.460022449,1.795345545,-0.115256444,0.699053109,0.086359926,0.4680897,0.185173407,-0.19470191,0.04126785,0.391933143,-0.122957431,0.119110271,-2.745234251
3.465023518,1.735916257,-0.104474239,0.600534678,0.469446689,0.704178154,0.417847782,-0.193552315,0.040132497,0.392138779,-0.120043769,0.126053944,-2.740772963
3.470026016,1.709267616,-0.126247749,0.486149102,0.769168973,0.91446048,0.620313108,-0.191989049,0.038033634,0.39252609,-0.1154387,0.134071022,-2.735598564
3.475023985,1.383156896,-0.116763167,0.403936088,0.980915904,1.08502233,0.802856922,-0.190786257,0.036102116,0.392885536,-0.109762736,0.142510042,-2.730062246
3.48002243,0.989856184,0.156677514,0.181840792,1.775309801,1.613617778,1.118619084,-0.189860791,0.034615945,0.393162102,-0.100250281,0.152280048,-2.722572088
3.485021591,1.306273699,0.031130794,0.106826067,2.105829954,2.098750353,1.144795895,-0.189553931,0.034123156,0.393253833,-0.088433325,0.166536435,-2.715512991
3.490021706,0.210770607,0.36870113,-0.223386109,2.107031107,2.029512405,1.273931503,-0.189317808,0.033743992,0.393324405,-0.07754878,0.177159891,-2.708499908
3.495022535,-0.554516375,0.263098538,-1.06227994,2.165153265,2.208554983,1.317330122,-0.1928619,0.039220411,0.391477883,-0.065924838,0.186772808,-2.703348875
3.500025034,-0.89497298,-0.104435503,-1.839182258,2.065987349,2.710469484,1.08292377,-0.195588842,0.043434143,0.390057117,-0.054060198,0.198638737,-2.701676607
3.505022764,-1.545630693,-0.073137268,-2.258018017,1.693930387,3.311739683,0.589849114,-0.196493044,0.044831336,0.389586002,-0.044874649,0.211919323,-2.703752279
3.51002121,-1.440020919,0.354501992,-2.033919096,1.446921825,4.033569813,-0.071354166,-0.197188765,0.04590638,0.389223516,-0.039063696,0.229351982,-2.707207441
3.51502037,-0.618621051,0.39012444,-1.403116703,1.401455402,4.647620201,-0.725267231,-0.202180564,0.051649772,0.386419594,-0.034046497,0.251629978,-2.71216774
3.520020485,0.48142451,-0.058557831,-0.748149872,1.287187219,5.177792549,-1.231024861,-0.210835665,0.06151595,0.381548494,-0.029317413,0.278738022,-2.719245195
3.52502799,1.399255395,-0.573488653,-0.458522558,1.055733442,5.448048115,-1.697144747,-0.213705525,0.064787388,0.379933327,-0.025734715,0.308574736,-2.728781223
3.530030966,1.803626895,-1.075358868,-0.654901743,0.521533251,5.56881094,-2.199591398,-0.215913683,0.067304537,0.378690541,-0.025104124,0.339017808,-2.742297649
3.535028458,1.869291663,-1.216640949,-0.989191711,-0.117481165,5.536723614,-2.58377409,-0.216645867,0.068139181,0.378278464,-0.029048912,0.368819296,-2.758756638
3.540026903,1.926132202,-1.087281346,-1.306529999,-0.553154111,5.306797504,-2.612649441,-0.239918739,0.071930878,0.363938123,-0.03599022,0.397072226,-2.77514267
3.545026064,1.910302639,-0.930843115,-1.538444757,-0.794154227,4.917710781,-2.311416864,-0.247635573,0.073188134,0.359183133,-0.043913949,0.422883511,-2.789610863
3.55002594,1.804075003,-0.811585784,-1.589470267,-0.871325195,4.473997593,-1.785180092,-0.253573179,0.074155509,0.35552448,-0.051326208,0.446104437,-2.801047564
3.555027008,1.61212182,-0.732670426,-1.46084249,-0.930406511,4.048348427,-1.212873459,-0.25554198,0.074476272,0.354311347,-0.057819258,0.466995686,-2.809263468
3.560029507,1.441546321,-0.477353901,-1.271714926,-0.953373849,3.699605942,-0.688769102,-0.276593834,0.067260899,0.342626274,-0.063840643,0.486065537,-2.814222097
3.565026999,1.362103581,0.012031078,-1.150624394,-0.898665905,3.409815311,-0.2639727,-0.288408726,0.063021891,0.336091191,-0.069644883,0.503899097,-2.815336704
3.570024967,1.402731419,0.675461411,-1.116669416,-0.61777097,3.100708723,0.043297458,-0.297499478,0.059760258,0.331062883,-0.074506097,0.520299375,-2.812854767
3.575024128,1.898195505,1.641555548,-1.121639729,0.20344761,2.649044275,0.4755252,-0.300513804,0.058678761,0.329395592,-0.075566962,0.535236955,-2.804339409
3.580024004,1.955857277,1.850969791,-1.056173921,0.593573034,2.12516284,0.448646247,-0.310099065,0.055427264,0.323358506,-0.074528024,0.547513485,-2.795446157
3.585025072,1.558091998,1.874036312,-0.714232743,0.934130728,1.695072412,0.112206817,-0.320604295,0.051909462,0.316562593,-0.073421896,0.557015538,-2.789602041
3.590027094,0.953615844,1.302249074,-0.499495447,1.218986273,1.475634336,0.001642766,-0.32868737,0.049202751,0.311333597,-0.069896132,0.564723909,-2.786613703
3.595024109,0.703425765,0.313523829,-0.695339799,1.330665588,1.388519287,0.038265351,-0.331367582,0.048305254,0.309599757,-0.063236721,0.57178551,-2.786533356
3.600022554,0.732542157,-0.433620691,-0.978323221,1.215517879,1.292197108,0.201589465,-0.333429784,0.047614694,0.308265686,-0.055326626,0.578335881,-2.787399292
3.605021954,0.787476242,-0.746738374,-1.073995948,1.003952384,1.154060245,0.490239203,-0.340584487,0.050476387,0.30371365,-0.04709797,0.584306359,-2.786685944
3.61002183,0.790180862,-0.633761585,-1.004979134,0.787372649,1.04200995,0.717867315,-0.346089542,0.052678265,0.300211161,-0.039563939,0.58976227,-2.783795357
3.615022898,0.749399781,-0.16973713,-0.867260337,0.644757032,0.97772783,0.77508229,-0.347914904,0.053408366,0.299049824,-0.033714991,0.594956517,-2.779042482
3.62002492,0.71891582,0.246430978,-0.774489224,0.647008121,0.932236373,0.701725483,-0.349319398,0.053970128,0.298156232,-0.028964138,0.599980235,-2.773766756
3.625021935,0.724519193,0.316189706,-0.751204967,0.733824909,0.860248864,0.61873126,-0.351713419,0.056601185,0.295560509,-0.023986813,0.604603171,-2.768981218
3.63002038,0.727461696,0.080288701,-0.79392457,0.805727959,0.777227759,0.637453914,-0.355505258,0.061097667,0.291238248,-0.017807245,0.608736813,-2.764886379
3.635020018,0.710603535,-0.183254987,-0.874336123,0.802392244,0.700848818,0.757681131,-0.356762588,0.062588617,0.289805055,-0.010548724,0.612348676,-2.760688305
3.640019894,0.672504127,-0.278147757,-0.930951774,0.725181878,0.642483234,0.864729226,-0.357730001,0.063735805,0.288702309,-0.003180013,0.615539014,-2.756003141
3.645020962,0.674331009,-0.189982846,-0.920118749,0.629852355,0.59077394,0.91621232,-0.358050764,0.064116187,0.288336664,0.003548104,0.618453085,-2.750558853
3.65002346,0.693137765,-0.059744857,-0.903926253,0.582788825,0.531990945,0.913560033,-0.361329734,0.069786474,0.285262525,0.009720481,0.621118426,-2.74476099
3.655020714,0.734448612,-0.018529043,-0.915895879,0.571572959,0.457257181,0.902465224,-0.362416983,0.071666628,0.284243196,0.015771512,0.623438656,-2.73892951
3.660025358,0.780162156,-0.073384337,-0.929380238,0.569389343,0.356011838,0.886506319,-0.363253534,0.073113278,0.283458889,0.021963442,0.625242591,-2.733324766
3.665024996,0.712969244,-0.121832669,-0.902050793,0.546871245,0.254477203,0.873540819,-0.363530934,0.073592961,0.283198833,0.028095746,0.626374006,-2.728054523
3.67002511,0.675451934,-0.102785736,-0.877693295,0.511138916,0.184098899,0.874909103,-0.364772052,0.078758061,0.281936586,0.033956323,0.6271438,-2.722631931
3.675026178,0.714979827,-0.076480329,-0.848034561,0.498180211,0.11894729,0.853742421,-0.365437865,0.081657499,0.281255186,0.039619327,0.627673686,-2.717135668
3.6800282,0.698482156,-0.058830373,-0.830125809,0.485350072,0.077907443,0.812781096,-0.365950167,0.083888426,0.280730903,0.045008183,0.627989948,-2.711923599
3.685024977,0.661676407,-0.089721777,-0.829906285,0.458047718,0.037430298,0.779986739,-0.36612004,0.084628157,0.280557066,0.050199907,0.628025711,-2.707105875
3.690023661,0.668316901,-0.170641541,-0.844820738,0.422765583,0.019578323,0.730211437,-0.36602506,0.087647334,0.280061305,0.055230126,0.627960622,-2.702777386
3.69502306,0.674498558,-0.211894572,-0.850567341,0.378890932,0.023724852,0.64890933,-0.365766019,0.091119014,0.279531837,0.059792891,0.627966881,-2.69900012
3.700023413,0.677609026,-0.208696172,-0.850851655,0.318067044,0.035384011,0.552256107,-0.365566701,0.093790241,0.279124439,0.063635617,0.628047109,-2.695836782
3.705024242,0.639279366,-0.144242823,-0.858357966,0.270070314,0.048014294,0.470981836,-0.365500599,0.094675973,0.278989345,0.06675797,0.62814939,-2.693057537
3.710026503,0.603737712,-0.077892564,-0.86098814,0.241524681,0.052526731,0.414609104,-0.365449756,0.095357478,0.278885424,0.06941168,0.628222048,-2.690479279
3.715023518,0.620551229,-0.076008469,-0.848746181,0.22590822,0.048089802,0.36544925,-0.365018249,0.09877257,0.277689606,0.071859062,0.628356695,-2.688100338
3.720021963,0.640848041,-0.115937181,-0.83237952,0.199082956,0.027300762,0.315193653,-0.364686221,0.101400256,0.276769519,0.074111588,0.628426135,-2.686104536
3.725021124,0.638211668,-0.140097842,-0.830971599,0.16437155,0.005942877,0.257407218,-0.364576161,0.102271549,0.276464432,0.07599175,0.628389716,-2.684573889
3.730021715,0.624429464,-0.148125291,-0.84011358,0.132085547,-0.008797558,0.197415337,-0.364491463,0.102941953,0.276229709,0.077484168,0.628266156,-2.683483362
3.735022545,0.607831597,-0.136962116,-0.845293164,0.10255228,-0.014206724,0.142573908,-0.3645055,0.104063809,0.276421636,0.078588977,0.628106058,-2.682687283
3.740024567,0.59522897,-0.11548318,-0.838478208,0.085036725,-0.012157887,0.104217999,-0.364558905,0.1058366,0.276842088,0.079434127,0.627982736,-2.682077646
