Time,inertial-6253.76535:scaledAccelX,inertial-6253.76535:scaledAccelY,inertial-6253.76535:scaledAccelZ,inertial-6253.76535:scaledGyroX,inertial-6253.76535:scaledGyroY,inertial-6253.76535:scaledGyroZ,inertial-6253.76535:scaledMagX,inertial-6253.76535:scaledMagY,inertial-6253.76535:scaledMagZ,inertial-6253.76535:roll,inertial-6253.76535:pitch,inertial-6253.76535:yaw
0,0.473544925,-0.092774637,-0.879609168,0.004617216,-0.003280656,0.007153457,-0.369470775,0.027930094,0.357519597,0.123150326,0.483903378,3.091032982
0.00499712,0.471238732,-0.093762584,-0.877475977,0.005918565,-0.002759129,0.008310721,-0.369486511,0.027930157,0.357494384,0.123170458,0.483895212,3.091054916
0.009995008,0.472384781,-0.096145779,-0.876984239,0.006076008,-0.00075136,0.007867838,-0.36950025,0.028128562,0.357039005,0.123202808,0.483897507,3.091072321
0.01499392,0.474916279,-0.096405387,-0.877266884,0.005766863,-0.000206204,0.009689458,-0.369504809,0.028194349,0.356888026,0.12324103,0.483909696,3.091101646
0.019993857,0.475298166,-0.097511515,-0.878044486,0.00402967,-0.002931274,0.008436149,-0.369508296,0.028244969,0.356771857,0.12325725,0.483897239,3.091111898
0.02499456,0.476305246,-0.095701307,-0.877791584,0.004103117,-0.002387426,0.006587538,-0.369509459,0.028261753,0.356733352,0.123271935,0.48390466,3.091125965
0.029996799,0.47375071,-0.096233331,-0.877619863,0.003592805,-0.002148826,0.007253802,-0.369315952,0.028319173,0.356427431,0.123288997,0.483896554,3.091137886
0.034994178,0.474716842,-0.095582895,-0.877091885,0.004935801,-0.002083577,0.007604441,-0.369203687,0.028349224,0.356257617,0.123307526,0.483898461,3.091153383
0.039998207,0.473878235,-0.095643274,-0.87839222,0.004947717,-0.003405867,0.007453281,-0.36911729,0.028372347,0.356126964,0.123328358,0.483890027,3.091167688
0.044997375,0.47371158,-0.09743052,-0.876355708,0.004833534,-0.002661544,0.006828698,-0.36908865,0.028380016,0.356083661,0.123348199,0.48388961,3.091173649
0.049997311,0.473534018,-0.097422943,-0.878148198,0.003539965,-0.002449005,0.006517415,-0.369260997,0.028366195,0.356641293,0.123359881,0.483884513,3.091177225
0.054998271,0.475161046,-0.096348733,-0.877253652,0.003794804,-0.002844042,0.00797708,-0.369514108,0.028341727,0.357422143,0.123384699,0.483879805,3.091188669
0.060000256,0.475753874,-0.097022265,-0.875693798,0.004108946,-0.001498207,0.005298703,-0.369708866,0.028322902,0.358022958,0.123391815,0.483894289,3.09117651
0.064997375,0.474378079,-0.09685263,-0.87676084,0.002617862,-0.002648943,0.005548755,-0.369773477,0.02831666,0.358222187,0.123395212,0.483890176,3.09118104
0.069995522,0.472453117,-0.096885972,-0.87797004,0.00544687,-0.002068081,0.006199968,-0.369823188,0.028311856,0.35837546,0.123411395,0.483884335,3.091181755
0.07499443,0.473736972,-0.096137188,-0.876524568,0.003377439,-0.00221225,0.005935045,-0.369455397,0.02860775,0.358469814,0.123418637,0.483891159,3.091194153
0.079994366,0.473681599,-0.096086301,-0.876478314,0.004621627,0.000395527,0.0075079,-0.369172394,0.02883542,0.358542413,0.123433523,0.483898282,3.091207981
0.084995583,0.474848986,-0.096427493,-0.877257824,0.002799556,-0.001729652,0.005752898,-0.369078547,0.028910913,0.358566493,0.123442695,0.483899742,3.091216087
0.089997567,0.474764526,-0.095577113,-0.877893686,0.003419432,0.000388251,0.006765542,-0.369006336,0.028968999,0.35858503,0.123448074,0.48391372,3.091230154
0.094994687,0.475095838,-0.096037082,-0.877586901,0.003832522,-0.00217649,0.007995309,-0.368978083,0.028809123,0.357913464,0.123470105,0.483917296,3.091243029
0.099992573,0.474818707,-0.096101925,-0.877827585,0.004453689,-0.002884733,0.006176035,-0.368952006,0.028504975,0.356711477,0.123477474,0.483916283,3.091243982
0.104991488,0.473300487,-0.094664916,-0.877435029,0.003166426,-0.002731408,0.004704951,-0.368943363,0.028404124,0.356312931,0.123480208,0.483910978,3.09124732
0.109991424,0.474137217,-0.095074549,-0.876121283,0.002918748,-0.004741423,0.006461416,-0.368936718,0.028326526,0.356006294,0.123488374,0.483899653,3.091260672
0.114992388,0.473678827,-0.093863115,-0.875769138,0.003846539,-0.002704786,0.008215465,-0.368934512,0.028300798,0.355904579,0.123502485,0.483897895,3.09128809
0.119994365,0.474253535,-0.094572134,-0.876067817,0.004444076,-0.002290654,0.007300301,-0.368998766,0.028286872,0.356333584,0.123512872,0.483904392,3.091300011
0.124991491,0.472893029,-0.093141958,-0.876686513,0.005608363,-0.003336023,0.006646301,-0.369020075,0.028282257,0.35647583,0.123532251,0.483887702,3.091324091
0.129989371,0.47388503,-0.094509885,-0.878101826,0.005726847,-0.004648306,0.007422798,-0.369036466,0.028278705,0.356585264,0.123548321,0.483872116,3.091339111
0.134988293,0.474855125,-0.0970755,-0.8762936,0.006236245,-0.004238878,0.0075079,-0.36904192,0.028277528,0.356621563,0.123578556,0.48386234,3.09134078
0.139988989,0.476494253,-0.09767364,-0.876636207,0.005229787,-0.003999486,0.006954134,-0.369098812,0.028388014,0.357628495,0.123592086,0.483856499,3.091337442
0.144990206,0.475839019,-0.097499467,-0.876640022,0.004244213,-0.00527925,0.007920728,-0.369130731,0.028452214,0.358204633,0.123619072,0.483850539,3.091350317
0.149992451,0.474099964,-0.094881102,-0.876935124,0.003738611,-0.005056469,0.008119041,-0.369155288,0.028501609,0.358647943,0.12362434,0.483834267,3.091362238
0.154990077,0.475089818,-0.095320225,-0.877566218,0.004207346,-0.006100225,0.008348354,-0.369163424,0.028517989,0.358794928,0.123643555,0.483816534,3.091377497
0.159987971,0.474945098,-0.095351003,-0.878452957,0.003542817,-0.008447691,0.008166311,-0.369001746,0.028492073,0.358194649,0.123656385,0.483783871,3.091397762
0.164987132,0.47511211,-0.096384175,-0.87919265,0.005118405,-0.00615394,0.00950819,-0.368784279,0.028444571,0.357254863,0.123684041,0.483760923,3.091419458
0.169987068,0.475958467,-0.09781301,-0.876284778,0.005014774,-0.008240819,0.008108539,-0.368622482,0.028407952,0.356510162,0.123702079,0.483730108,3.091426611
0.174993917,0.474095851,-0.096922912,-0.876622736,0.005333539,-0.007854267,0.008473272,-0.368568838,0.028395809,0.35626325,0.123726279,0.483704388,3.091430902
0.179996163,0.472977608,-0.096166179,-0.876603961,0.00355468,-0.010285442,0.007344343,-0.368527561,0.028386468,0.356073231,0.123731211,0.483662605,3.091442823
0.184993282,0.473190874,-0.096451201,-0.876730263,0.004207192,-0.010249063,0.00834603,-0.368566185,0.028638566,0.35606274,0.123747669,0.483621687,3.091453552
0.189991161,0.473430902,-0.096497685,-0.876253128,0.00334861,-0.009749565,0.006533778,-0.368595898,0.028832538,0.356054664,0.123753689,0.483588189,3.091462851
0.194990084,0.471902341,-0.096392758,-0.878002703,0.003237175,-0.00938235,0.005129576,-0.368605763,0.028896855,0.356051981,0.123756349,0.483551651,3.091469288
0.199990019,0.474600434,-0.097274162,-0.875360012,0.004866865,-0.010762358,0.007379188,-0.368613333,0.028946346,0.356049955,0.123773605,0.483512074,3.091478348
0.204990715,0.476431251,-0.098646097,-0.874984086,0.002646875,-0.01116065,0.007494018,-0.368642479,0.028877674,0.356143415,0.12378595,0.483474553,3.091476202
0.209992707,0.478337079,-0.100472875,-0.877589226,0.001048234,-0.013629896,0.007036703,-0.368691862,0.028738802,0.356310487,0.123786807,0.483426481,3.091452837
0.214989826,0.477221638,-0.099218167,-0.878010571,0.000534604,-0.013166388,0.005585513,-0.368708223,0.028692754,0.356365889,0.123784393,0.483379006,3.091433287
0.219987974,0.477182567,-0.098745883,-0.87713635,-0.000716935,-0.013728735,0.00468848,-0.368720829,0.028657325,0.356408536,0.123767927,0.483319074,3.091411114
0.224986881,0.476929575,-0.09697362,-0.875041127,-0.00118427,-0.017139317,0.004910244,-0.368725002,0.028645577,0.356422663,0.123748273,0.483258754,3.091398954
0.22998707,0.474044621,-0.094573058,-0.874664128,-0.002516674,-0.01635449,0.005258038,-0.368728817,0.028445449,0.357664347,0.123714954,0.48319304,3.091394901
0.234988034,0.472510993,-0.094810188,-0.87532115,-0.002363659,-0.017580057,0.004952739,-0.368730068,0.02837909,0.358076066,0.123686939,0.483113348,3.091387272
0.239990279,0.473843247,-0.095453136,-0.875932336,-0.003554536,-0.017708661,0.005923068,-0.368731052,0.028328031,0.358392864,0.123655424,0.483039111,3.091373205
0.244987652,0.472405404,-0.094145462,-0.876661539,-0.000510598,-0.019926749,0.006103403,-0.36873138,0.0283111,0.358497918,0.123632886,0.482952356,3.091373682
0.249985531,0.47342357,-0.095142998,-0.876684725,-0.000738759,-0.020251604,0.006003834,-0.368290007,0.028178666,0.357538134,0.123613864,0.482864827,3.091365814
0.254984438,0.474224001,-0.096694171,-0.877976537,0.000313145,-0.02079143,0.007696586,-0.368034363,0.028105207,0.356962383,0.123603493,0.482774377,3.091362953
0.259984374,0.473818362,-0.097430937,-0.875599205,0.000236975,-0.021197896,0.007229715,-0.367837697,0.028048685,0.356519401,0.123596326,0.482683152,3.091343403
0.264985353,0.474007159,-0.096319057,-0.87683481,-0.000214007,-0.020484213,0.008949621,-0.36777246,0.028029943,0.356372505,0.123582393,0.482595384,3.091351986
0.269987583,0.472222775,-0.097065344,-0.877469003,-0.002002184,-0.023067078,0.006173363,-0.368028551,0.028112935,0.356820285,0.12355803,0.482482731,3.091332674
0.274985224,0.472756624,-0.096875481,-0.876904011,-0.002922246,-0.020724155,0.007436415,-0.368422329,0.028238688,0.35753426,0.123531267,0.482397765,3.091324806
0.279983103,0.472575814,-0.094016999,-0.879817247,-0.003367729,-0.021099949,0.007167399,-0.36872533,0.028335445,0.358083576,0.123497218,0.482300907,3.091341257
0.284982026,0.471323222,-0.096114293,-0.878699899,-0.005052936,-0.019689724,0.005922756,-0.368825793,0.028367529,0.358265728,0.12346141,0.482210457,3.091328859
0.289981693,0.470635891,-0.095494568,-0.879272223,-0.003559218,-0.018025631,0.007151294,-0.368903071,0.028392214,0.358405888,0.123433441,0.482130468,3.09133172
0.294982642,0.46856004,-0.094827645,-0.878653586,-0.00412205,-0.017756663,0.006054013,-0.368686199,0.028397191,0.358610839,0.123403922,0.482049793,3.091332436
0.299984634,0.469581097,-0.096583985,-0.880525172,-0.003621702,-0.016432608,0.006900032,-0.368519336,0.028401021,0.358768553,0.123377986,0.481980503,3.09132719
0.304982007,0.468802422,-0.093606472,-0.881018519,-0.002796552,-0.015962007,0.007337453,-0.368464023,0.028402291,0.358820826,0.123351246,0.481906384,3.091345072
0.309986055,0.470759183,-0.095462285,-0.881524444,-0.00121108,-0.011054971,0.00551158,-0.368421435,0.028403267,0.358861059,0.1233325,0.481863022,3.09134078
0.314985216,0.471690625,-0.094617702,-0.880340099,8.12E-05,-0.012029925,0.006314993,-0.368431568,0.028283196,0.358258516,0.12331561,0.481809288,3.09134388
0.319985151,0.472040713,-0.09710072,-0.880528927,-0.001341683,-0.009676661,0.006516966,-0.368463904,0.028069068,0.357172161,0.123303495,0.481775463,3.091342211
0.3249861,0.473273754,-0.100766726,-0.880358517,-0.001436304,-0.01067065,0.004313182,-0.368474633,0.027998067,0.356811941,0.123298317,0.481733829,3.091309071
0.329988092,0.472612113,-0.096953176,-0.878849685,-0.001457124,-0.010474078,0.005860135,-0.368482888,0.027943438,0.356534809,0.123284899,0.481702745,3.091304302
0.334985226,0.469849616,-0.098435201,-0.878879309,-0.000176744,-0.009983133,0.005128736,-0.36848563,0.027925326,0.356442899,0.123277016,0.481659919,3.091284037
0.339983612,0.469239742,-0.097847827,-0.877170742,-0.002896008,-0.009773233,0.004100018,-0.368431211,0.028129634,0.358247727,0.123243153,0.481618345,3.091263056
0.344982266,0.4712089,-0.093260311,-0.879110873,-0.003399562,-0.006716111,0.004535957,-0.36841318,0.028197378,0.358846158,0.123210706,0.481599778,3.091264486
0.349982202,0.468810201,-0.094148077,-0.878735423,-0.001462401,-0.006632222,0.00379251,-0.368399322,0.028249502,0.359306604,0.123179756,0.481575549,3.091259956
0.354982913,0.469279438,-0.09670689,-0.878781259,-0.002635211,-0.005140611,0.003813735,-0.368394703,0.028266788,0.359459281,0.123150647,0.481554508,3.091236353
0.359984905,0.468777716,-0.093419343,-0.879014134,-0.001824724,-0.004346622,0.004242857,-0.368147194,0.028223639,0.3594639,0.123127341,0.481542379,3.091247559
0.364982009,0.467073053,-0.092477299,-0.878159702,-0.000756394,-0.004555497,0.004907066,-0.368004769,0.028195364,0.359437495,0.123107761,0.481525719,3.091260433
0.369979918,0.467757642,-0.093268238,-0.877413929,-0.000391075,-0.00135566,0.007472576,-0.367895156,0.028173609,0.35941714,0.123101935,0.481528699,3.091277838
0.374978811,0.46855405,-0.092425004,-0.878276408,0.002587193,0.000315894,0.005237535,-0.367858797,0.028166395,0.359410405,0.123098969,0.481548429,3.091295242
0.379978746,0.46719116,-0.092349805,-0.876376331,0.002625374,0.002606728,0.008717231,-0.368077546,0.028077776,0.359256536,0.123105548,0.481562883,3.091331959
0.384979725,0.467457086,-0.092468679,-0.878085136,0.002088103,0.003926169,0.006049514,-0.368398845,0.027964626,0.359055579,0.123104274,0.481586754,3.091354609
0.389981687,0.467403322,-0.094428249,-0.87985301,0.004196214,0.005038918,0.008100889,-0.368646085,0.027877564,0.358900964,0.123120628,0.481612265,3.091378927
0.394978821,0.468333662,-0.094118185,-0.87958312,0.004948661,0.007156322,0.008801167,-0.368728042,0.027848696,0.358849704,0.123143069,0.481653303,3.091407537
0.399976969,0.469904602,-0.093406163,-0.878919005,0.004870018,0.007293723,0.0080351,-0.368791103,0.027826484,0.358810216,0.123163283,0.481703401,3.091429472
0.404975861,0.470235527,-0.095888235,-0.878395617,0.004966559,0.010295573,0.009591429,-0.368715286,0.028012291,0.357922852,0.123197928,0.481762141,3.091466904
0.409975797,0.471087545,-0.097208627,-0.881341279,0.004108553,0.011578375,0.007699003,-0.368656933,0.028155258,0.357240081,0.123218462,0.481821746,3.091480255
0.414976776,0.471614808,-0.095573165,-0.881652594,0.005774177,0.009792895,0.00676901,-0.368637592,0.028202664,0.357013702,0.12323869,0.481880814,3.091506004
0.419978738,0.472662508,-0.09482374,-0.881055355,0.005104657,0.013358479,0.006923219,-0.36862269,0.028239138,0.356839508,0.123257056,0.481956184,3.0915308
0.42497614,0.470431775,-0.093424022,-0.879920959,0.006450515,0.014697899,0.006947916,-0.368538082,0.028342303,0.357458651,0.123287827,0.482040703,3.091568947
0.42997402,0.471087009,-0.094106823,-0.879272342,0.004663064,0.016870264,0.006115598,-0.368392408,0.028513771,0.358619511,0.123302676,0.482122272,3.091589451
0.434972942,0.473034799,-0.095454887,-0.880340159,0.005404255,0.016482785,0.006489091,-0.368344128,0.028570626,0.359004438,0.123325378,0.482217997,3.09161067
0.439972878,0.471197277,-0.096394554,-0.880404592,0.005764436,0.015379555,0.004780424,-0.368306935,0.028614372,0.359300613,0.123349451,0.482300162,3.091619015
0.444979966,0.472007811,-0.097622745,-0.879444301,0.006501748,0.015063593,0.00526889,-0.368294597,0.028628876,0.359398812,0.123377845,0.482385248,3.091616631
0.449981958,0.472779125,-0.097488813,-0.878095865,0.005190284,0.018891275,0.005021905,-0.36834529,0.028369544,0.359261781,0.123401716,0.482492983,3.091621637
0.45497933,0.473468035,-0.098913647,-0.880075932,0.004634853,0.015079191,0.004542043,-0.368362129,0.028283555,0.359216332,0.12342345,0.482579231,3.091613293
0.45997721,0.474500358,-0.098222069,-0.877708733,0.003130356,0.016730651,0.004562815,-0.368375063,0.028217392,0.359181374,0.123435631,0.482676715,3.091602802
0.46497637,0.472215921,-0.095059626,-0.879196584,0.004554668,0.016207911,0.00424356,-0.368379354,0.028195452,0.359169781,0.123445548,0.482765555,3.0916152
0.469976306,0.474235982,-0.096313067,-0.878001928,0.004006243,0.014380066,0.004267735,-0.368528068,0.028228665,0.358782411,0.123460203,0.482852221,3.091618061
0.474977285,0.473615229,-0.093785472,-0.875713527,0.003284779,0.015327265,0.005845687,-0.368613392,0.028252073,0.358560324,0.123467617,0.482941687,3.091641188
0.479979277,0.473317027,-0.094468035,-0.875214994,0.0063766,0.015493092,0.005520038,-0.368679017,0.028270084,0.358389407,0.123493791,0.483026713,3.091655254
0.484976649,0.475068897,-0.097297058,-0.875178039,0.003605672,0.015861498,0.006927234,-0.368700802,0.028276056,0.358332753,0.123515196,0.483127981,3.091658831
0.489974797,0.474717349,-0.096796654,-0.875943303,0.005529631,0.012515591,0.007877006,-0.368717372,0.028362596,0.357794046,0.123548277,0.483198792,3.091676235
0.494973451,0.472414583,-0.097692423,-0.876357734,0.004968664,0.012424875,0.005467158,-0.368722707,0.028473927,0.357116163,0.123570077,0.483273357,3.091685057
0.499973387,0.47374332,-0.098252177,-0.878923953,0.004044505,0.013599734,0.006974663,-0.36872682,0.028559586,0.356594592,0.123596124,0.48334837,3.091699362
0.504974365,0.474910051,-0.096303172,-0.877805233,0.003682558,0.013176711,0.006581788,-0.368728191,0.028587988,0.35642162,0.123608373,0.483427823,3.091717958
0.509976327,0.47546801,-0.094998479,-0.876873732,0.002186607,0.01151586,0.006377044,-0.368729234,0.028609842,0.356288552,0.123615511,0.483496964,3.091741562
0.514973462,0.475147516,-0.096885525,-0.876386225,0.002784758,0.012063445,0.005681285,-0.368776172,0.028466269,0.356301427,0.123630457,0.483565718,3.091743231
0.519971609,0.474591017,-0.097013883,-0.876294494,0.003930783,0.010113025,0.005678089,-0.368812293,0.028355801,0.356311321,0.12364316,0.483629704,3.091747522
0.52497077,0.47481817,-0.096987225,-0.877270341,0.002758223,0.012768753,0.005528569,-0.368824273,0.028319173,0.356314629,0.123653427,0.483704388,3.091750622
0.529970706,0.473260462,-0.096663512,-0.878357708,0.002153197,0.011245024,0.00597365,-0.368833452,0.028290989,0.356317133,0.123664208,0.483771503,3.091767788
0.534971654,0.473965943,-0.095662579,-0.878021121,0.002366201,0.010997972,0.006249884,-0.368922085,0.028402481,0.356750667,0.123673491,0.48383677,3.09178257
0.539973915,0.473071516,-0.094589323,-0.878002644,0.002342885,0.011270861,0.003842433,-0.369076848,0.028610451,0.357521802,0.123670049,0.483903199,3.091797113
0.544971287,0.472825766,-0.097400457,-0.877318919,0.002678452,0.010778337,0.007308906,-0.369128168,0.02867941,0.357777476,0.123687282,0.483960688,3.091810226
0.549969435,0.473000973,-0.097281054,-0.877632976,0.002407378,0.01152021,0.005836946,-0.369167656,0.028732469,0.357974201,0.123695694,0.484030455,3.091821432
0.554968297,0.473279268,-0.096082486,-0.877013683,0.002473515,0.01051951,0.005124813,-0.369180739,0.028750062,0.358039439,0.123703539,0.484096289,3.091832161
0.559968531,0.472149938,-0.094782665,-0.877736151,0.002544933,0.011532087,0.00426929,-0.36924991,0.028618077,0.356791496,0.123702988,0.484160393,3.091840982
0.56496948,0.473377377,-0.094249211,-0.878347754,0.003587704,0.011088909,0.005778412,-0.369272858,0.028574312,0.356377691,0.123715259,0.48422429,3.091869593
0.56997174,0.473463535,-0.095395848,-0.876216352,0.003937772,0.012485276,0.006423205,-0.369290501,0.028540639,0.356059343,0.123731121,0.4842951,3.091897249
0.574969113,0.475869805,-0.095225818,-0.875951409,0.004146816,0.012971437,0.00598962,-0.369296342,0.028529475,0.355953753,0.123750538,0.484375119,3.09191823
0.5799734,0.474003941,-0.09651982,-0.876385212,0.003972902,0.01206775,0.005987551,-0.369252145,0.028471181,0.356089711,0.12376041,0.484447926,3.091931105
0.584973037,0.47459814,-0.099288739,-0.877809167,0.002090647,0.012339768,0.005105122,-0.369225413,0.028439552,0.356188536,0.123772591,0.484520108,3.0919168
0.589972973,0.47616899,-0.096459448,-0.878429949,0.002998211,0.012586004,0.004643434,-0.369204849,0.028415216,0.356264561,0.123776421,0.484599411,3.091917038
0.594973981,0.477478981,-0.096749708,-0.877078235,0.003302729,0.013491075,0.003481476,-0.369198024,0.028407147,0.356289804,0.123783924,0.48468399,3.09192276
0.599975944,0.475720197,-0.096181691,-0.878322005,0.001622058,0.011914731,0.004298178,-0.369302511,0.028373405,0.356218994,0.123778567,0.484756172,3.091926575
0.604973316,0.474628299,-0.09643776,-0.878288686,0.001487005,0.012020948,0.004171941,-0.369447827,0.028334456,0.356104523,0.123784669,0.484829247,3.09192872
0.609971225,0.47532028,-0.09590409,-0.878513813,0.001585402,0.011781993,0.004168973,-0.369559616,0.028304487,0.356016457,0.123780802,0.484903216,3.091930628
0.614970088,0.475921273,-0.096527331,-0.87674439,0.000374435,0.011487693,0.003978968,-0.36959666,0.02829455,0.355987251,0.123773448,0.484971046,3.09192276
0.619970024,0.475135982,-0.094072193,-0.876956701,0.000840899,0.011547205,0.004620227,-0.369625181,0.028286904,0.35596478,0.123764768,0.485041171,3.091940165
0.624971032,0.47562319,-0.095709056,-0.87747401,-0.000249155,0.011054133,0.00332717,-0.36953941,0.028288951,0.356662452,0.123758987,0.485110193,3.091934204
0.629972994,0.475097567,-0.094874926,-0.877185166,0.002102362,0.010368237,0.004879201,-0.369473428,0.028290525,0.357199281,0.123762794,0.485173315,3.091943979
0.634970367,0.4759112,-0.097752132,-0.874510527,0.003074621,0.01046008,0.006263297,-0.369451553,0.028291047,0.357377291,0.123775877,0.485238642,3.091937065
0.639968276,0.475916564,-0.096456036,-0.874710202,0.002877724,0.010730964,0.004836232,-0.369434685,0.028291447,0.357514262,0.123788893,0.485306263,3.091941833
0.644967437,0.474136621,-0.095183514,-0.875063598,0.002234287,0.010804443,0.006166611,-0.369403124,0.028406329,0.357557863,0.123794839,0.485366493,3.091970444
0.649967372,0.477124035,-0.096437901,-0.875067592,0.002140567,0.009829178,0.006987972,-0.369352549,0.028610755,0.357589602,0.12379653,0.485426426,3.091974258
0.654968321,0.476660401,-0.097092688,-0.87569344,0.002670845,0.008996634,0.006497052,-0.3693358,0.028678536,0.357600152,0.123813517,0.485485792,3.091983318
0.659970284,0.476330489,-0.095467255,-0.875783861,0.001878691,0.007089403,0.005879138,-0.369322896,0.02873069,0.357608229,0.123812728,0.485533386,3.091999531
0.664967418,0.476255834,-0.097534835,-0.875056922,0.0021582,0.007293212,0.004281417,-0.369318634,0.028747983,0.357610911,0.123815127,0.485584497,3.091994286
0.669965327,0.476825476,-0.098952599,-0.876836836,0.002118456,0.007949157,0.007173111,-0.369631886,0.028618123,0.356030762,0.123823747,0.485632181,3.091995478
0.674964249,0.475857913,-0.096324369,-0.877589464,0.001371617,0.006592328,0.006356614,-0.369735748,0.028575065,0.355506808,0.123824216,0.485672921,3.092013836
0.679964423,0.47760275,-0.097023651,-0.876489699,0.002368317,0.006743502,0.005807715,-0.369815677,0.028541932,0.355103642,0.123832382,0.485726118,3.092025995
0.684965372,0.476862878,-0.097244725,-0.875711799,0.002095317,0.004224255,0.006408444,-0.369842172,0.028530946,0.354969978,0.123837106,0.485756934,3.092036247
0.689967632,0.475991875,-0.097159818,-0.875300109,0.00169979,0.003462855,0.00668246,-0.369670928,0.02867298,0.355079263,0.123842724,0.485784262,3.092046738
0.694964707,0.475459635,-0.096126296,-0.873939633,-2.68E-05,0.004864127,0.003691681,-0.369566739,0.028757313,0.355168015,0.123822756,0.485819936,3.092040062
0.699962854,0.473590314,-0.09545216,-0.874886692,0.001224504,0.003729302,0.003025848,-0.369486541,0.0288222,0.355236292,0.123813532,0.485845834,3.092046738
0.704961777,0.474156559,-0.098311387,-0.874700308,0.001754837,0.006006062,0.004627825,-0.369459987,0.028843718,0.355258912,0.123821124,0.485887229,3.092042208
0.709961712,0.473501235,-0.097932681,-0.876476467,0.000904843,0.006070964,0.003234159,-0.36949563,0.028809343,0.355895698,0.12381795,0.485929996,3.092038393
0.714968562,0.474869877,-0.095517889,-0.87750423,0.001382537,0.007640275,0.004170048,-0.369564027,0.02874659,0.356731445,0.12380521,0.48597461,3.092036963
0.719970822,0.47554484,-0.096951999,-0.876012027,-4.85E-05,0.006466737,0.00311508,-0.369616628,0.028698305,0.35737446,0.123785876,0.486022621,3.092019558
0.724968195,0.477031678,-0.097529612,-0.875759244,-0.000730026,0.006941604,0.003236904,-0.369634092,0.028682295,0.357587665,0.123771474,0.486067057,3.092010021
0.729966342,0.476728499,-0.099309303,-0.876109719,-0.0011719,0.005322383,0.003653747,-0.369647503,0.028669976,0.357751727,0.123758644,0.48610571,3.091984034
0.734965265,0.475726634,-0.099185683,-0.874519944,-0.002256818,0.005329533,0.002336763,-0.369749516,0.028717529,0.357698679,0.123741083,0.48614648,3.091953278
0.7399652,0.476688266,-0.098211303,-0.875362039,-0.002703262,0.00387486,0.00237805,-0.369828045,0.028754117,0.35765785,0.123718984,0.486185044,3.091944218
0.744966149,0.477349907,-0.096418701,-0.876025677,-0.003482507,0.005020953,0.003828289,-0.369854063,0.028766248,0.35764432,0.123688839,0.486223549,3.091943026
0.749968886,0.478405833,-0.095446363,-0.87442255,-0.004258193,0.004999501,0.003186446,-0.36987406,0.028775584,0.357633889,0.123658381,0.486261934,3.091933727
0.754967034,0.479744494,-0.097008847,-0.874399722,-0.004027819,0.001745302,0.002093628,-0.369820923,0.028569939,0.356983036,0.123617701,0.486290306,3.091907978
0.759964943,0.480780303,-0.100839376,-0.873729944,-0.006167011,0.001920671,0.001058888,-0.369719565,0.028200638,0.3558276,0.123570181,0.486321628,3.091852903
0.764964104,0.481723547,-0.102765188,-0.874726772,-0.00831656,-0.000610287,-0.00151323,-0.369685978,0.028078185,0.355444491,0.123512596,0.486344993,3.091784477
0.769964039,0.481359661,-0.102849215,-0.874563754,-0.011331173,-0.00219466,0.000378073,-0.369660109,0.027983965,0.355149716,0.123447798,0.486353844,3.091720343
0.774964988,0.480068147,-0.100741073,-0.873221099,-0.012937495,-0.00583987,-0.001094637,-0.369651526,0.027952723,0.355051994,0.123359464,0.486344665,3.091656446
0.77996695,0.477286577,-0.098678201,-0.874230325,-0.012362028,-0.005694803,-0.002577514,-0.369656593,0.028546214,0.356126368,0.123272814,0.486334741,3.091603279
0.784964323,0.475791872,-0.097446159,-0.87394464,-0.012489595,-0.007440888,-0.003714896,-0.369658291,0.028743004,0.356482625,0.123174556,0.486310095,3.091551065
0.789962232,0.475647092,-0.097336508,-0.87649256,-0.01287638,-0.006692932,-0.003574391,-0.369659603,0.028894421,0.356756747,0.123077579,0.486297756,3.091497183
0.794961393,0.475196093,-0.090078071,-0.876131415,-0.013919549,-0.008421998,-0.003996026,-0.36966002,0.028944628,0.356847644,0.122955084,0.486270845,3.091475964
0.799961329,0.475539237,-0.092067719,-0.876108766,-0.011981894,-0.007452455,-0.003634331,-0.3697972,0.028472597,0.356273353,0.122855075,0.486246407,3.091436625
0.804962277,0.476843089,-0.097151704,-0.876550019,-0.011244732,-0.010046952,-0.004090655,-0.369876564,0.028189715,0.355923504,0.122766256,0.486213446,3.091361761
0.809964299,0.477983624,-0.097831637,-0.87783134,-0.011979124,-0.011064202,-0.004484015,-0.369937629,0.027972057,0.355654329,0.122669563,0.486180544,3.091287374
0.814961672,0.479742885,-0.096716002,-0.876336932,-0.012047757,-0.010922286,-0.005560796,-0.369957894,0.027899886,0.355565071,0.122570254,0.486149669,3.091211796
0.819959581,0.482444733,-0.095121697,-0.877183497,-0.011914285,-0.012744874,-0.005797847,-0.370001048,0.027844887,0.355496943,0.122459665,0.486109018,3.091142416
0.824958742,0.475192785,-0.093556188,-0.878296494,-0.013383034,-0.01545823,-0.005587186,-0.370043188,0.027827188,0.355474889,0.122347184,0.486044347,3.09107852
0.829958677,0.477349907,-0.089592613,-0.875877738,-0.011062082,-0.010813973,-0.003638814,-0.370075613,0.027813572,0.355457932,0.122244887,0.486013621,3.091057539
0.834959865,0.476662457,-0.090852447,-0.877698123,-0.009555052,-0.013617129,-0.002605547,-0.370086372,0.027809057,0.355452299,0.122154258,0.485963851,3.091023684
0.839961827,0.47584796,-0.093684047,-0.874430776,-0.010761902,-0.012908324,-0.001251677,-0.370094627,0.027805584,0.355447978,0.122070231,0.485916376,3.090982199
0.844958961,0.47605598,-0.096708454,-0.876662016,-0.01123818,-0.011845708,-0.001532251,-0.369758248,0.0277043,0.356311291,0.12198972,0.485880852,3.090917826
0.849963009,0.478134811,-0.098842546,-0.875994444,-0.01152318,-0.011696242,-0.000682043,-0.369499415,0.027626371,0.356975555,0.121914648,0.485845119,3.090849638
0.85496217,0.477610439,-0.095664687,-0.876423717,-0.01073401,-0.011736702,-0.001713788,-0.369413584,0.027600531,0.357195824,0.121823117,0.485810667,3.090796709
0.859962344,0.478641212,-0.092481539,-0.877307475,-0.01240545,-0.013639341,0.000678065,-0.369347543,0.027580649,0.35736528,0.121734738,0.485763252,3.090778589
0.864963353,0.478244066,-0.09147916,-0.875579774,-0.011397997,-0.013387096,-6.90E-07,-0.369489193,0.027543075,0.356838167,0.121641122,0.485715181,3.090754986
0.869965553,0.479381591,-0.095997669,-0.875122786,-0.012600702,-0.015474862,-0.001384696,-0.369763523,0.027482837,0.355842769,0.121553004,0.485659331,3.090697289
0.874962926,0.480095208,-0.098023243,-0.874244094,-0.012510104,-0.016239857,0.000175731,-0.36985448,0.027462862,0.355512708,0.121472366,0.485597879,3.090642452
0.879961073,0.480166048,-0.098838791,-0.874034584,-0.013971564,-0.019754546,-0.000598588,-0.369924486,0.027447494,0.355258763,0.121377721,0.485520482,3.090568781
0.884959996,0.480910242,-0.098692887,-0.875865161,-0.01696126,-0.021535039,-0.001891888,-0.369947672,0.027442399,0.355174541,0.12126375,0.485435009,3.090492249
0.88996017,0.479189992,-0.096337818,-0.874661863,-0.017957482,-0.024788212,-0.002915934,-0.369512618,0.027362294,0.355101824,0.121137165,0.485334933,3.090418577
0.894961178,0.477603436,-0.097570948,-0.87378186,-0.021034217,-0.023973005,-0.003377004,-0.369368345,0.027335733,0.355077714,0.120995931,0.485235572,3.090337753
0.899963379,0.474442303,-0.094283029,-0.875358462,-0.021244142,-0.026538137,-0.001544946,-0.369257331,0.027315296,0.355059177,0.120852329,0.485117257,3.090283632
0.904960752,0.472755402,-0.093537547,-0.876836121,-0.021273447,-0.025745193,-0.003501855,-0.369220525,0.02730852,0.355053037,0.120703258,0.485002875,3.090231895
0.909958661,0.476298183,-0.095060498,-0.876920879,-0.021146687,-0.027795939,-0.004986679,-0.36914292,0.027251614,0.355047911,0.120559625,0.48489213,3.090159416
0.914957583,0.477338612,-0.09832374,-0.877276301,-0.023558417,-0.028865455,-0.004180152,-0.369104981,0.027219955,0.355046123,0.120404139,0.484771073,3.090061426
0.919957519,0.480817497,-0.100200176,-0.877337635,-0.024853621,-0.028765552,-0.007449739,-0.369075805,0.027195595,0.355044752,0.120239623,0.484656513,3.089935064
0.924958467,0.481685758,-0.09766119,-0.876662791,-0.02917083,-0.031159712,-0.007037016,-0.369066119,0.027187517,0.355044276,0.120049618,0.48453629,3.089828014
0.92996043,0.479302675,-0.091926046,-0.876174748,-0.028992109,-0.034649614,-0.006787779,-0.369169742,0.027185695,0.355293125,0.11984688,0.48439005,3.089753866
0.934957802,0.474654287,-0.087606244,-0.878915429,-0.028544541,-0.034877349,-0.005362222,-0.369316071,0.027189521,0.355626941,0.119638182,0.484228313,3.089697361
0.939955711,0.470840305,-0.085227512,-0.877667367,-0.026781866,-0.033980962,-0.003379196,-0.369428694,0.027192464,0.355883777,0.119450994,0.484069318,3.089675188
0.944954872,0.470102161,-0.085790083,-0.878557563,-0.024108974,-0.032290876,-0.001009535,-0.369466007,0.02719344,0.355968952,0.119283214,0.483912438,3.089662075
0.949954808,0.472353488,-0.085517526,-0.877449453,-0.020150507,-0.03110259,0.002345284,-0.369494736,0.027194191,0.356034458,0.119146772,0.483770669,3.089665651
0.954956293,0.473911613,-0.084630497,-0.877206802,-0.017930519,-0.029941555,0.005130786,-0.369113863,0.026890859,0.356976628,0.119019307,0.483637393,3.089673519
0.959958255,0.473692715,-0.086563788,-0.875297964,-0.016418722,-0.030639803,0.008263154,-0.368820816,0.026657468,0.35770157,0.118925869,0.483492255,3.089697361
0.964955628,0.470921427,-0.084099971,-0.87539196,-0.015920298,-0.028365366,0.013817028,-0.368723631,0.026580079,0.357941955,0.118834689,0.483356208,3.089767218
0.969953537,0.469274461,-0.085727341,-0.875485003,-0.012590739,-0.02985052,0.016173314,-0.368648857,0.026520532,0.358126909,0.118776545,0.483207971,3.089838028
0.974952698,0.470887333,-0.0881273,-0.878204226,-0.00970811,-0.028981248,0.019434173,-0.368677318,0.026467955,0.35763371,0.118745938,0.483068943,3.08991456
0.979952872,0.472819269,-0.088367321,-0.875469327,-0.008804349,-0.029200783,0.022970291,-0.368753016,0.0263943,0.356693506,0.11872948,0.482925117,3.090012312
0.98496002,0.473334104,-0.087570652,-0.874510288,-0.008954499,-0.030314496,0.025910893,-0.36877811,0.026369877,0.356381744,0.118712299,0.48277849,3.090123415
0.98996222,0.473983794,-0.086226739,-0.877353907,-0.007200013,-0.031063154,0.026300123,-0.368797421,0.026351085,0.356141865,0.118697159,0.482631415,3.090242147
0.994959354,0.471873969,-0.088041335,-0.877300918,-0.010112179,-0.032959212,0.029607417,-0.368803829,0.026344853,0.356062323,0.118681252,0.482461393,3.090369701
0.999957263,0.469034404,-0.087758742,-0.877656996,-0.007655565,-0.033681892,0.028961575,-0.36901015,0.026497843,0.358099133,0.118674591,0.482290328,3.090495348
1.004956126,0.47136578,-0.088275336,-0.877919674,-0.006975842,-0.034944393,0.030407876,-0.369078577,0.026548572,0.358774513,0.118680917,0.482116342,3.090638876
1.009956121,0.474271029,-0.095154844,-0.875980735,-0.008726973,-0.035933986,0.033044565,-0.369131207,0.026587602,0.359294176,0.118699603,0.481939435,3.090740442
1.014957309,0.474684924,-0.095917486,-0.876345277,-0.009902428,-0.038290389,0.033657599,-0.369148672,0.026600545,0.359466463,0.118710771,0.481752187,3.090858936
1.019959569,0.474748552,-0.095912315,-0.87424165,-0.013339459,-0.039491277,0.032566544,-0.368962139,0.02649132,0.358073622,0.118694216,0.481561184,3.090962887
1.024956942,0.475581825,-0.096867368,-0.877161264,-0.015222275,-0.041041587,0.031317156,-0.368850768,0.026425611,0.357234329,0.118673593,0.481361389,3.091056585
1.029955029,0.474948853,-0.095915273,-0.875495136,-0.01781147,-0.044396617,0.030371992,-0.368765086,0.026375052,0.356588542,0.118637629,0.481139302,3.091156244
1.034953952,0.475122601,-0.097685114,-0.875987351,-0.0230138,-0.045945417,0.029170427,-0.368736684,0.026358288,0.356374413,0.118570864,0.480910897,3.091228008
1.039953947,0.476222098,-0.094791174,-0.877009511,-0.025541719,-0.050309964,0.030891526,-0.368526101,0.02646625,0.357223839,0.118483528,0.480664343,3.091324568
1.044954896,0.475814193,-0.091553912,-0.878217578,-0.030844403,-0.054354277,0.031708203,-0.368265957,0.026623927,0.358528227,0.118364714,0.480398834,3.091437101
1.049957156,0.472813427,-0.088913217,-0.878561795,-0.030157838,-0.056382664,0.032061536,-0.368065804,0.026745249,0.35953185,0.118254535,0.480121464,3.091568947
1.05495429,0.471082807,-0.084262036,-0.878207684,-0.031044763,-0.058449253,0.036893781,-0.367999464,0.026785478,0.359864622,0.118133828,0.479820639,3.091743231
1.059952378,0.466409087,-0.084646836,-0.881527424,-0.03074643,-0.060147181,0.037484206,-0.367948413,0.02681643,0.360120684,0.118016742,0.479506373,3.091919184
1.064951539,0.465745926,-0.08389274,-0.882800221,-0.030541161,-0.059106585,0.039464984,-0.368121713,0.02672,0.359231502,0.117910199,0.479195505,3.092118263
1.069951534,0.466774255,-0.081502274,-0.885650635,-0.027882056,-0.056797814,0.041904844,-0.368255049,0.026645806,0.35854733,0.117821902,0.478902131,3.092335939
1.074952483,0.468051225,-0.083835065,-0.885273695,-0.025994988,-0.055952702,0.043400891,-0.368299246,0.026621206,0.358320475,0.117752805,0.478604853,3.092543602
1.079954386,0.469040185,-0.084086984,-0.886016548,-0.025192065,-0.054053038,0.044562414,-0.36833328,0.026602276,0.358145922,0.117697671,0.478325546,3.092775106
1.084951758,0.465955943,-0.085124992,-0.88759172,-0.022685979,-0.054467466,0.045599621,-0.368042022,0.026648333,0.358143359,0.117636606,0.478027672,3.092989922
1.089949727,0.465489119,-0.087831475,-0.88420409,-0.021878259,-0.051169671,0.045924112,-0.367511988,0.02673669,0.358197331,0.117602244,0.477756649,3.093204498
1.094948649,0.467217237,-0.091075249,-0.886846781,-0.0232346,-0.04914438,0.045150921,-0.367336243,0.026765987,0.358215213,0.117564827,0.477506429,3.093398571
1.099948525,0.4658041,-0.090886228,-0.887830019,-0.023016907,-0.047323506,0.044876982,-0.36720103,0.026788531,0.358228952,0.117524415,0.47724849,3.093597651
1.104949474,0.462417364,-0.088601701,-0.886793911,-0.020972669,-0.044451665,0.044527411,-0.367156208,0.026796006,0.358233511,0.117484339,0.477006048,3.093809366
1.109951496,0.457542479,-0.085670166,-0.886113584,-0.022012182,-0.039629091,0.043208383,-0.366934866,0.026949402,0.360038519,0.117435597,0.476780742,3.094029427
1.114948869,0.451318294,-0.087610789,-0.88578397,-0.021060623,-0.035683606,0.040991683,-0.366861492,0.027000265,0.360637009,0.117394418,0.476560235,3.094221115
1.119952917,0.449059904,-0.08716435,-0.886699677,-0.022334451,-0.028140534,0.039828885,-0.366805017,0.027039401,0.361097544,0.117346041,0.476388574,3.094428539
1.124952316,0.447271556,-0.085234061,-0.892322123,-0.019715905,-0.017843531,0.035762336,-0.366786301,0.027052378,0.361250252,0.11729265,0.476260573,3.094625235
1.129952312,0.450225949,-0.082293712,-0.893140256,-0.015589878,-0.009697217,0.033735935,-0.366917789,0.027065679,0.361424923,0.117256671,0.476186216,3.094826221
1.13495326,0.451213866,-0.08606746,-0.895241559,-0.013067462,-0.003284828,0.030428827,-0.36699751,0.027070912,0.361496985,0.1172406,0.476140559,3.094993591
1.139955401,0.453701079,-0.084641464,-0.895091176,-0.013026884,0.007712136,0.027834836,-0.367058843,0.027074937,0.361552417,0.11720451,0.476152331,3.095160961
1.144953132,0.455842078,-0.082737565,-0.897555888,-0.010454283,0.014847958,0.025647972,-0.367079198,0.027076272,0.361570805,0.117185794,0.476201415,3.095337629
1.14995122,0.454462677,-0.081440307,-0.897815645,-0.006026253,0.022980956,0.024241295,-0.366955876,0.027126342,0.360933095,0.117179044,0.476296127,3.095505714
1.154950142,0.454735607,-0.077202953,-0.89448005,-0.002036898,0.033419244,0.023435744,-0.366774887,0.027192401,0.360064328,0.117192402,0.476439595,3.095717192
1.159950137,0.454452902,-0.081772327,-0.891613364,0.005012949,0.043978211,0.024163263,-0.366635621,0.027243229,0.359395862,0.117250979,0.476633966,3.095895767
1.164951086,0.457577497,-0.086247236,-0.893542826,0.012072169,0.055624831,0.023751298,-0.366592526,0.027260041,0.359162003,0.117360391,0.476895273,3.096059084
1.169953227,0.4659307,-0.086300671,-0.893642366,0.017593656,0.059026711,0.024281144,-0.366562486,0.027272936,0.358969778,0.117493309,0.477187306,3.096231699
1.174950361,0.469820023,-0.08920484,-0.89284879,0.023381162,0.065323085,0.021362523,-0.366506994,0.027383244,0.359502137,0.117663957,0.477515668,3.096379042
1.179948568,0.464763463,-0.097172327,-0.889235973,0.02254126,0.06620115,0.020284943,-0.366464287,0.027468117,0.35991174,0.11783655,0.47783643,3.096480846
1.184947491,0.461054236,-0.101338364,-0.891568899,0.019872269,0.07742878,0.019580131,-0.366450131,0.02749626,0.360047549,0.11799673,0.478203237,3.096572399
1.189947367,0.460395157,-0.098145075,-0.902866244,0.023715142,0.084315307,0.013648933,-0.366439253,0.027517913,0.360152066,0.118160538,0.478601545,3.096665859
1.194948316,0.46709922,-0.095548585,-0.900806546,0.029849038,0.095624194,0.006711727,-0.366628259,0.027472036,0.360283703,0.118336938,0.479064345,3.096731424
1.199950814,0.472074389,-0.093034774,-0.906188667,0.035884812,0.104912557,0.000814189,-0.366968423,0.027383087,0.36048305,0.118525729,0.479593039,3.096781254
1.204948425,0.475319445,-0.103564829,-0.911279082,0.036817782,0.112920441,-0.008539004,-0.367081225,0.027353592,0.360549182,0.11872603,0.480156392,3.096731663
1.209946871,0.477252156,-0.104988806,-0.911126196,0.031331919,0.12546508,-0.018896468,-0.367168039,0.027330898,0.360600024,0.118860193,0.480789125,3.096626759
1.214945793,0.47590071,-0.11277809,-0.91597116,0.026907725,0.136232048,-0.03691357,-0.367196798,0.027323373,0.360616922,0.118943781,0.481497973,3.096392155
1.219945669,0.471065819,-0.115777418,-0.915152669,0.025282282,0.158570066,-0.05608863,-0.367667854,0.027380558,0.359192669,0.118989371,0.482297629,3.0960536
1.224946737,0.410979688,-0.160102695,-0.940885961,-0.017515335,0.185935423,-0.073468089,-0.367824048,0.027399519,0.358720422,0.118876867,0.483157516,3.09547472
1.229948878,0.327237815,-0.183034807,-0.905799925,-0.08648774,0.22543107,-0.070626192,-0.367944211,0.02741411,0.358357072,0.118444256,0.484026372,3.094806671
1.234946012,0.270482659,-0.218180165,-0.974337161,-0.158121124,0.365969718,-0.072102651,-0.367984056,0.027418947,0.358236581,0.117727205,0.485539496,3.09415102
1.239943981,0.262773097,-0.281700492,-1.14185524,-0.303284436,0.466239333,-0.098691933,-0.368542612,0.027217576,0.35679695,0.116356947,0.487509698,3.093290091
1.244942904,0.22694163,-0.300028026,-1.081366301,-0.416700482,0.563132703,-0.131323099,-0.368858457,0.027100055,0.355986297,0.114326194,0.489817202,3.092151642
1.24994278,0.301394343,-0.335708886,-1.101143956,-0.5931831,0.761170864,-0.165700391,-0.369101495,0.027009629,0.355362535,0.111466289,0.49343887,3.090745449
1.254949927,0.318979442,-0.262593657,-1.135315776,-0.682361543,0.845493495,-0.180867732,-0.36918205,0.026979646,0.355155706,0.107900336,0.497396201,3.089748859
1.259952188,0.274608612,-0.197855413,-1.062528849,-0.717163622,1.023719192,-0.250831008,-0.369729012,0.026267709,0.354272634,0.104018845,0.50218147,3.0887115
1.26494956,0.301950961,-0.172865376,-1.104091525,-0.767186701,1.260526896,-0.340399295,-0.370399386,0.025336994,0.353249848,0.099671006,0.508356392,3.087320566
1.26994741,0.30082944,-0.255141973,-1.173809886,-0.860249341,1.443577051,-0.402515143,-0.370915204,0.024620872,0.352462858,0.094856642,0.515370727,3.085148335
1.274946332,0.266870946,-0.237383336,-1.147093534,-0.944244921,1.635888696,-0.434051096,-0.37108624,0.024383418,0.352201909,0.089464933,0.523219943,3.083033323
1.279946208,0.230739474,-0.098463073,-1.090580702,-0.883959055,1.915982604,-0.513638854,-0.371217847,0.024200715,0.352001131,0.08402504,0.532523394,3.081330776
1.284947157,0.182173073,-0.10296911,-1.117173314,-0.845082521,2.254882097,-0.652044356,-0.374351025,0.020537207,0.345401019,0.078416161,0.543548703,3.078639269
1.289949179,0.14973785,-0.13762486,-1.139303446,-0.835874498,2.622334242,-0.747520804,-0.376761824,0.017718386,0.340322673,0.072652027,0.556317151,3.075200081
1.294946551,0.146136209,-0.084196597,-1.161954522,-0.819907248,3.087439299,-0.836279154,-0.377561182,0.016783718,0.338638783,0.06654048,0.571453333,3.071678638
1.299944758,0.134230345,-0.045361187,-1.242739081,-0.844745994,3.475538969,-0.887301147,-0.378176242,0.016064554,0.337343156,0.060044158,0.588519752,3.068083763
1.304943919,0.177804992,-0.04649242,-1.238880038,-0.913974881,3.708607435,-0.793526053,-0.38133648,0.013378053,0.330822468,0.053387728,0.606571138,3.064790249
1.309943795,0.331524491,0.07219892,-1.270531297,-0.966487169,3.897436142,-0.648385644,-0.386757344,0.008835619,0.319646209,0.046632096,0.625657737,3.06297493
1.314944744,0.566985846,0.179830611,-1.35204339,-0.877647042,3.951364756,-0.550413728,-0.388554782,0.007329435,0.31594038,0.040370297,0.64512229,3.061942101
1.319946766,0.757038116,0.142051443,-1.598832488,-0.749305248,3.855360031,-0.448594719,-0.389937818,0.006170528,0.313088953,0.035105713,0.663987041,3.06098485
1.3249439,0.619240046,0.159032866,-1.54431808,-0.518138468,3.598800182,-0.284763217,-0.390396386,0.005786256,0.312143475,0.031646855,0.680988312,3.061053276
1.329941988,0.43277669,0.24588576,-1.131841421,-0.346458137,3.644774675,-0.188626468,-0.401387811,-0.00063073,0.290591657,0.029225001,0.698404193,3.061850786
1.33494091,0.551422775,0.436650962,-1.063200235,-0.055101275,3.840990067,-0.132748082,-0.405032367,-0.002758481,0.283445477,0.027894193,0.717400491,3.063679457
1.339941144,0.52025336,0.435049295,-1.311178923,0.25703454,3.786683559,-0.199157566,-0.407836616,-0.004395641,0.277946979,0.027937207,0.735792637,3.064990759
1.344942093,0.278955013,0.193667278,-1.292908311,0.553780377,3.540831804,-0.150071964,-0.408766419,-0.004938492,0.276123792,0.030200535,0.752120972,3.065333843
1.34994483,0.334583759,0.097811773,-1.347282171,0.910247326,3.391953945,-0.039789245,-0.415642321,-0.006544308,0.259410083,0.03512761,0.767838597,3.066504002
1.354942679,0.355965048,-0.054725129,-1.708707213,1.209909797,3.06449604,0.018329728,-0.419446647,-0.007370772,0.250079423,0.04221886,0.781542838,3.067810059
1.359940886,0.258452415,-0.318715394,-1.738690257,1.443334937,2.5601542,0.134451225,-0.422373831,-0.00800668,0.242900088,0.051560823,0.792110682,3.068965673
1.364939809,0.479431868,-0.679281831,-1.741739511,1.401563764,2.14812088,0.323212564,-0.423344404,-0.008217535,0.240519553,0.062816828,0.800986409,3.070373774
1.369939923,0.3946881,-0.864259541,-2.006271124,1.064423084,1.535295486,0.484247625,-0.426981181,-0.007385836,0.230981559,0.072974615,0.806224346,3.07267642
1.374940872,0.095859736,-0.906550944,-1.804300666,0.679107904,0.885145783,0.585341513,-0.431101292,-0.006107777,0.220047891,0.081472822,0.80766499,3.075440168
1.379943132,-0.158914655,-0.912665904,-1.57192719,0.286143333,0.442267388,0.651114702,-0.434271455,-0.005124399,0.211635172,0.088061616,0.807080269,3.078324318
1.384940505,-0.328367949,-0.83269316,-1.458373785,-0.020210456,0.083978705,0.700508296,-0.435322613,-0.004798329,0.208845675,0.092994146,0.804703712,3.081667185
1.389944553,-0.460568756,-0.734532475,-1.346144676,-0.230289131,-0.189856291,0.740809262,-0.436131418,-0.00454744,0.206699342,0.096738853,0.800960362,3.085336208
1.394943714,-0.52075088,-0.623069286,-1.258795857,-0.348071307,-0.370609313,0.776433527,-0.4372693,-0.000867246,0.203516662,0.09975291,0.796451807,3.089498281
1.399943709,-0.513141632,-0.5244928,-1.233926654,-0.366162658,-0.532622874,0.809715211,-0.438144803,0.001964413,0.20106779,0.102540493,0.791227818,3.09400177
1.404944658,-0.479486465,-0.467049122,-1.220605969,-0.301481783,-0.710395575,0.830941439,-0.438435107,0.002903338,0.200255796,0.105581194,0.785144269,3.098584175
1.40994668,-0.431909621,-0.456792414,-1.221654892,-0.203140959,-0.896163404,0.834183156,-0.438658476,0.003625776,0.19963102,0.108995758,0.778176308,3.102953434
1.414944053,-0.389068425,-0.468876958,-1.2358464,-0.089512117,-1.107954025,0.821935058,-0.437413186,0.00600892,0.20026949,0.112771422,0.770171523,3.106958628
1.419941902,-0.349702746,-0.483412087,-1.232538462,0.015029628,-1.322046161,0.791427135,-0.43512094,0.010010098,0.201615795,0.116733521,0.761154056,3.110446215
1.424940825,-0.316887766,-0.497876376,-1.225956798,0.106050476,-1.540101409,0.744679511,-0.434360862,0.011336814,0.202062219,0.12071614,0.751126885,3.113273859
1.429940701,-0.289239168,-0.50325191,-1.196152091,0.185499892,-1.753267407,0.685070455,-0.433776051,0.012357631,0.202405706,0.124605507,0.740139127,3.115396023
1.434941649,-0.265198797,-0.503094316,-1.162518382,0.249544874,-1.948453069,0.621291995,-0.433582127,0.012696114,0.202519596,0.128311366,0.728308797,3.116833687
1.439943671,-0.243341237,-0.488442212,-1.125539303,0.310744524,-2.122837305,0.551978707,-0.428306192,0.018599615,0.211115062,0.13178888,0.715730011,3.117663383
1.444941044,-0.221868142,-0.469792515,-1.087754488,0.374346316,-2.270745277,0.481586516,-0.426556826,0.020557104,0.213965148,0.135094941,0.702567577,3.117866755
1.449938893,-0.199756518,-0.448598891,-1.051313639,0.441040486,-2.395004511,0.407557398,-0.425210804,0.022063257,0.216158107,0.138249755,0.688940048,3.117457628
1.454938412,-0.167914361,-0.427285284,-1.023771644,0.506712437,-2.488408327,0.333101094,-0.424764454,0.02256267,0.216885254,0.141295627,0.675015092,3.116499186
1.459938526,-0.127553537,-0.411436081,-1.001513362,0.575158954,-2.567711353,0.264440596,-0.418149233,0.027392352,0.228474855,0.144299299,0.660842717,3.115054846
1.464939475,-0.075546429,-0.389384627,-0.990799248,0.642801404,-2.631097794,0.2070207,-0.414403766,0.030093815,0.235047176,0.147321403,0.646519542,3.113240242
1.469941497,-0.020485993,-0.361902833,-0.99477911,0.710827112,-2.684365749,0.165974885,-0.411521882,0.032172408,0.240104124,0.150444373,0.63206476,3.111200809
1.474938631,0.028396903,-0.331414431,-1.000758886,0.783559918,-2.72950983,0.13931638,-0.4105663,0.032861631,0.241780922,0.153719574,0.617495596,3.109031439
1.479936481,0.071761623,-0.300106287,-1.003828287,0.858155429,-2.754158497,0.127898395,-0.406240135,0.035800293,0.249304712,0.157274261,0.602893531,3.106868744
1.484935403,0.115208715,-0.280867249,-1.005915284,0.922621131,-2.765869617,0.129192412,-0.401184559,0.039203271,0.2580854,0.161098808,0.588337541,3.10475564
1.489935398,0.165183559,-0.272552013,-1.026219487,0.97883755,-2.765804052,0.152289778,-0.39729467,0.041821633,0.264841557,0.165250137,0.573860347,3.102770329
1.494936347,0.217522338,-0.261240363,-1.059773326,1.023351789,-2.767119884,0.189375952,-0.396004856,0.04268983,0.267081767,0.169691756,0.559408605,3.101032972
1.499938607,0.281864882,-0.257876009,-1.094251752,1.048253417,-2.772643566,0.239079699,-0.395012438,0.043357849,0.268805444,0.174373105,0.544985771,3.09955883
1.504935622,0.357756197,-0.25850293,-1.1354146,1.045966029,-2.787200689,0.288083375,-0.386864096,0.048551969,0.280262321,0.179119751,0.530548871,3.098356962
1.509933829,0.433312476,-0.261648744,-1.187620282,1.013733029,-2.822238445,0.344611883,-0.380594552,0.052548487,0.28907761,0.183790207,0.515988588,3.097402334
1.514932752,0.521289647,-0.255061239,-1.228098631,0.954206586,-2.87565279,0.399552315,-0.378515661,0.053873658,0.292000592,0.188208684,0.501207352,3.096682787
1.519932628,0.617313743,-0.246137455,-1.2941643,0.877098083,-2.964540243,0.449933439,-0.376916111,0.054893289,0.294249624,0.192246675,0.486091554,3.096139669
1.524939775,0.705028534,-0.223073602,-1.322896004,0.786494255,-3.090131283,0.489519984,-0.371531755,0.058268178,0.300116479,0.195762143,0.47041437,3.095746279
1.529942036,0.774425685,-0.186821863,-1.334242821,0.681964576,-3.223040342,0.515426397,-0.36248073,0.063935608,0.30980885,0.198634461,0.454199106,3.095439911
1.534939408,0.818950474,-0.137472793,-1.341639996,0.589676976,-3.365973234,0.528393924,-0.359479576,0.065814815,0.313022673,0.200887516,0.437369674,3.095169544
1.539937258,0.835216105,-0.081029482,-1.316518903,0.512261152,-3.500468016,0.519979715,-0.357170403,0.067260742,0.315495461,0.202577338,0.419967055,3.094849348
1.54493618,0.838917136,-0.029944345,-1.27715981,0.456491262,-3.59894228,0.49214682,-0.356404722,0.067740187,0.316315413,0.203845516,0.402209878,3.094397306
1.549936414,0.829689622,0.015143952,-1.238130927,0.422166556,-3.669263124,0.446320593,-0.342726052,0.075671315,0.330841839,0.204774126,0.384230971,3.093775272
1.554937363,0.82402271,0.053728644,-1.192952871,0.410071909,-3.709319115,0.381382674,-0.338190466,0.078301124,0.33565852,0.205508575,0.366206765,3.092862129
1.559939384,0.819699883,0.075222783,-1.153381944,0.410505831,-3.720766306,0.297996759,-0.334700644,0.080324583,0.339364618,0.206112444,0.348308682,3.091532946
1.564936399,0.821854293,0.08518099,-1.11386168,0.423253834,-3.706389666,0.205130145,-0.333543509,0.080995522,0.340593487,0.206685588,0.330654025,3.089733839
1.569934368,0.830830395,0.081429958,-1.082259893,0.441950887,-3.675832033,0.103925057,-0.321813673,0.085578233,0.354007363,0.207280084,0.313344002,3.087430239
1.57493329,0.837347031,0.054961555,-1.05569315,0.463996589,-3.635355234,0.008215167,-0.315242052,0.088104032,0.361540467,0.207978696,0.296393335,3.084552765
1.579933167,0.85069406,0.014952156,-1.027338028,0.478942931,-3.581331015,-0.076948076,-0.310185641,0.090047456,0.36733669,0.208793566,0.279872417,3.081132174
1.584934115,0.865942478,-0.023467962,-1.00940609,0.484166652,-3.521787167,-0.145735055,-0.308509022,0.090691864,0.369258612,0.209690869,0.263780415,3.077278614
1.589936137,0.877342999,-0.058862865,-0.984734893,0.493214846,-3.457049608,-0.186133415,-0.300498456,0.092920601,0.375837028,0.210740685,0.248102307,3.073150873
1.594933271,0.879590869,-0.087045535,-0.960869849,0.502444386,-3.380137205,-0.207345232,-0.291065365,0.095407076,0.38316074,0.211944491,0.23287116,3.068901062
1.599931121,0.877485216,-0.113516793,-0.942419767,0.514254808,-3.293565512,-0.200710848,-0.283807248,0.097320244,0.388795823,0.213372409,0.218093932,3.064683676
1.60493052,0.880063355,-0.128684208,-0.922566116,0.530565977,-3.204607725,-0.174622074,-0.281400591,0.097954616,0.390664339,0.215018824,0.203756183,3.060633183
1.609930515,0.888888955,-0.14512758,-0.899751186,0.545068681,-3.104444742,-0.135010615,-0.279548824,0.098442718,0.392102003,0.21688728,0.18992497,3.05678463
1.614931464,0.900451481,-0.150626093,-0.890346646,0.552104771,-3.003735542,-0.072564185,-0.267575949,0.100905247,0.401685357,0.218934223,0.176585436,3.053309917
1.619933486,0.930052042,-0.147323981,-0.884805858,0.55442667,-2.911329508,0.002162494,-0.258363605,0.102799989,0.409059107,0.221085891,0.163698405,3.050301313
1.624930859,0.963478744,-0.147423044,-0.874697387,0.541098714,-2.835214376,0.096205004,-0.255308986,0.103428252,0.41150412,0.223310232,0.151155144,3.047783375
1.629928708,0.989971519,-0.139750212,-0.85387975,0.513978422,-2.77200985,0.191870004,-0.252958655,0.103911653,0.413385391,0.225480512,0.138872951,3.045799255
1.634927869,1.018047214,-0.131298125,-0.83626312,0.472062916,-2.718658447,0.290576726,-0.246249229,0.1054307,0.417491704,0.227508798,0.126810238,3.044339657
1.639927864,1.036148667,-0.118726879,-0.808848917,0.416985095,-2.684039593,0.393264949,-0.235090554,0.107973427,0.42417264,0.229325816,0.114828095,3.043411493
1.644928813,1.034010291,-0.097454414,-0.759642005,0.354679018,-2.646991253,0.497007102,-0.231390536,0.108816549,0.426387876,0.230868652,0.102923386,3.043050766
1.649930954,1.006208062,-0.0631577,-0.695727646,0.289668173,-2.598706245,0.596503019,-0.228543624,0.109465271,0.42809239,0.232109308,0.091106251,3.043323755
1.654928088,0.967995524,-0.028757235,-0.609317183,0.225297183,-2.527753353,0.68325907,-0.227599636,0.109680377,0.428657562,0.233044177,0.079507604,3.044166803
1.659932137,0.934934497,0.012163364,-0.518350601,0.167841747,-2.421918869,0.752261162,-0.21364589,0.113562845,0.435658157,0.233687162,0.068340249,3.045569897
1.664931297,0.914405942,0.052543763,-0.429079831,0.104185127,-2.289274693,0.78999877,-0.209019095,0.114850201,0.43797946,0.233994082,0.05778734,3.047389269
1.669931531,0.909441769,0.086627766,-0.342842698,0.034818631,-2.131295919,0.802393496,-0.205459103,0.115840726,0.439765513,0.233928457,0.048023518,3.049500227
1.67493248,0.936212897,0.118965358,-0.268564641,-0.046979502,-1.957919836,0.787898719,-0.204278663,0.11616917,0.440357745,0.233421341,0.039214011,3.051800728
1.67993474,1.003536344,0.154767394,-0.211843342,-0.137329355,-1.791042447,0.747151196,-0.193847597,0.119014576,0.444677532,0.232402354,0.031414926,3.054188967
1.684931874,1.102324963,0.208777785,-0.160637692,-0.22638154,-1.645529628,0.679813504,-0.188032404,0.120599635,0.447066098,0.230833501,0.024582956,3.056601763
1.689929962,1.200547814,0.271873266,-0.105135769,-0.297706395,-1.516928673,0.590331793,-0.183558017,0.121819228,0.448903948,0.22880742,0.018640986,3.058935165
1.694928885,1.277319431,0.341556728,-0.039283454,-0.336582273,-1.391665101,0.485534161,-0.182074398,0.122223616,0.449513346,0.226499572,0.013537081,3.061170101
1.699929118,1.329959035,0.413137048,0.0312052,-0.333438069,-1.2536484,0.360891551,-0.176893026,0.123335317,0.4514696,0.224133164,0.009342528,3.063240528
1.704930067,1.355739594,0.465816766,0.095666327,-0.29780513,-1.09876883,0.217808068,-0.171101227,0.124511205,0.453618139,0.221915126,0.006106525,3.064987183
1.709932327,1.361216426,0.504233837,0.161368221,-0.229577392,-0.91894263,0.061596785,-0.166644841,0.125415981,0.455271304,0.220022663,0.003937046,3.066305399
1.7149297,1.336181641,0.534969151,0.219725028,-0.138970867,-0.700426877,-0.09098044,-0.165167183,0.125715986,0.455819458,0.218572453,0.002965055,3.067240953
1.719927788,1.275456905,0.561328769,0.276444256,-0.025946084,-0.430083513,-0.215976208,-0.164030224,0.125946805,0.45624122,0.217683747,0.003364344,3.067977905
1.724926949,1.204642653,0.588720262,0.317490846,0.117656171,-0.106245175,-0.311582237,-0.159097582,0.126458406,0.45802781,0.217489079,0.005358889,3.068770647
1.729926944,1.146966696,0.608940721,0.320444793,0.290739089,0.255612284,-0.369097412,-0.155302271,0.12685205,0.459402472,0.218150243,0.009143339,3.069862604
1.734927893,1.116387248,0.589936018,0.297682345,0.459056258,0.623116016,-0.392347723,-0.154043823,0.12698257,0.459858268,0.219710216,0.014715595,3.071184158
1.739929914,0.72270453,0.237138957,-0.164534777,0.155301094,1.064985991,-0.570983052,-0.153075516,0.127083004,0.460208982,0.22097294,0.021878911,3.071363688
1.744927287,0.278696656,-1.179777622,-0.609997272,-2.263614655,1.29502666,-0.497420728,-0.152842596,0.127630472,0.459641784,0.209997699,0.029339906,3.063110113
1.749925137,1.061738014,-0.654818416,0.194843516,-1.982452989,1.391124487,0.548454344,-0.152752519,0.128571615,0.458514243,0.200617373,0.038113613,3.064347744
1.754924297,-0.722869635,0.06692563,0.078781098,-1.877044201,1.423929334,0.350228637,-0.152722657,0.12888369,0.458140373,0.191593394,0.04245498,3.07021451
1.759924173,-1.27530992,-0.055014241,0.098082304,-1.960405946,2.145334959,0.233712539,-0.152699664,0.129123792,0.457852691,0.181373224,0.050075237,3.073586941
1.764925241,-0.607641816,0.173127741,-0.356169283,-1.410238862,3.485977888,0.443266153,-0.15269205,0.129203409,0.457757294,0.174508423,0.066972949,3.081166744
1.769927382,-0.299232125,0.297160745,-1.561027765,-0.911810458,3.772366047,0.145675763,-0.159827262,0.123187527,0.456518561,0.169444382,0.086077191,3.089557648
1.774925113,-0.205433771,-0.289889485,-1.832821369,-0.56058979,3.25372076,0.024002463,-0.162193149,0.121192776,0.456107795,0.167211562,0.101214856,3.091974735
1.779923201,-0.142877936,-0.022213921,-1.314709783,-0.054450288,3.280126333,0.119501874,-0.16401355,0.119657949,0.455791771,0.167179659,0.116381735,3.096745253
1.784922361,-0.076420873,0.632309377,-1.31681478,0.474956483,3.607293606,-0.036922496,-0.164617151,0.119149029,0.455686986,0.168806061,0.134066761,3.10515666
1.789922357,0.322230697,1.024057746,-1.428055406,0.804675341,3.63819313,-0.592448354,-0.176416606,0.117408633,0.450784475,0.170850083,0.153101429,3.112421751
1.794929624,0.474716187,0.441555738,-1.460748196,0.464960992,3.594768047,-1.29707098,-0.18313396,0.116497785,0.447965711,0.171552286,0.172533348,3.111826897
1.799931884,0.927557826,0.177021056,-1.228543758,0.124024361,3.584946156,-1.558178186,-0.188302517,0.115796946,0.445796847,0.17065236,0.192850217,3.108258247
1.804929256,1.138197184,0.084548458,-1.30367291,-0.081602968,3.489288092,-1.927313805,-0.190016314,0.115564562,0.445077717,0.168005288,0.213342577,3.1031847
1.809927464,1.27009511,-0.433380932,-1.530566335,-0.309488624,3.279921293,-1.976419687,-0.1992957,0.115411796,0.440108269,0.165246621,0.232562438,3.09449029
1.814926386,1.539420247,-0.606194437,-1.631486535,-0.544797003,3.016861439,-1.745453,-0.210400164,0.115387402,0.434007347,0.161444277,0.250627369,3.086550713
1.819926262,1.58863759,-0.902291358,-1.600093126,-0.637587547,2.733456373,-1.406729698,-0.218944281,0.115368634,0.429313093,0.15808706,0.266889781,3.078609943
1.824927211,1.548230052,-1.100367069,-1.471477509,-0.734470606,2.497723818,-0.98007822,-0.22177735,0.115362406,0.427756578,0.155254334,0.281469941,3.071622133
1.829929233,1.448184729,-1.142626166,-1.41258049,-1.002830029,2.324360132,-0.55590415,-0.223957196,0.115357615,0.426558942,0.151546434,0.294757962,3.066512346
1.834926367,1.354823351,-0.71543318,-1.384770989,-1.14782989,2.142701864,-0.166771501,-0.236745328,0.110768661,0.420792669,0.146688953,0.306681275,3.065850019
1.839924455,1.225308299,-0.146255746,-1.470806599,-1.158861399,1.945640206,0.083269224,-0.246584922,0.107237771,0.416355908,0.14109607,0.317273021,3.06925106
1.844923377,1.060828209,0.460386157,-1.510849357,-1.02916193,1.698343873,0.178185493,-0.249847546,0.106066994,0.414884746,0.135264203,0.326206982,3.075816154
1.849923372,0.841403902,0.977989554,-1.476596832,-0.831139028,1.490991831,0.050884161,-0.2523579,0.10516616,0.413752794,0.129410788,0.333941698,3.083896875
1.854924321,0.47668612,1.198501945,-1.278131843,-0.598359108,1.349250674,-0.256202191,-0.257654101,0.103028022,0.410829246,0.12383125,0.340637356,3.09074378
1.859926581,0.23379001,0.895470142,-1.054026127,-0.384471238,1.399572134,-0.49401018,-0.266242802,0.099522911,0.406003118,0.11972367,0.347577512,3.093866587
1.864923596,0.287439555,0.613604307,-1.047652602,-0.190016598,1.483341575,-0.58799845,-0.269090652,0.09836068,0.404402852,0.116953701,0.35532254,3.095370293
1.869921803,0.42297563,0.194247872,-1.065414667,-0.043503195,1.425804257,-0.579998195,-0.271281868,0.097466424,0.403171569,0.115665182,0.362873405,3.094721079
1.874920726,0.526603162,-0.162819743,-0.965479732,0.033811398,1.344769359,-0.454847813,-0.272008449,0.097169906,0.402763277,0.115644544,0.370010853,3.093024015
1.87992084,0.590893805,-0.419323474,-0.892620206,0.011438503,1.298791766,-0.263757885,-0.279226691,0.094056733,0.397408366,0.116243288,0.37696597,3.091170549
1.884921908,0.614616573,-0.463734359,-0.888905108,-0.048988249,1.221209764,-0.076680467,-0.281620115,0.093024462,0.395632774,0.116860941,0.383403152,3.090363741
1.889923811,0.604309738,-0.291672558,-0.904399097,-0.100733243,1.137784004,0.029634265,-0.28346172,0.092230201,0.394266576,0.116954483,0.389312655,3.091152906
1.894921184,0.565506399,-0.087110586,-0.971056879,-0.103268743,1.056967139,0.074338399,-0.28407234,0.091966838,0.39381358,0.116699703,0.394701183,3.093141079
1.899919391,0.527748883,0.078930438,-1.002354383,-0.072848722,0.975615203,0.049840242,-0.288747787,0.090902627,0.390293688,0.116267264,0.399575442,3.095697641
1.90491879,0.511855721,0.144752741,-1.01789093,-0.013163962,0.916664481,0.009382622,-0.291338772,0.090336554,0.388341784,0.115945727,0.40422982,3.098175526
1.909918427,0.475638002,0.056549594,-0.99251312,0.033657581,0.865903735,-0.026770547,-0.293332338,0.089901,0.386839926,0.116003603,0.408556283,3.099801302
1.914919376,0.512069762,-0.055441421,-0.97320199,0.082677163,0.84713614,-0.00945411,-0.293993384,0.089756578,0.386341959,0.116576567,0.412880957,3.100901842
1.919921398,0.601155639,-0.158255488,-0.999173462,0.095101684,0.79579246,0.021181528,-0.296373546,0.08969336,0.384110868,0.117457032,0.417099267,3.101769447
1.924918771,0.60861063,-0.247523025,-0.999222636,0.098619953,0.68571347,0.052227009,-0.299050033,0.089720704,0.381507605,0.118548431,0.420653701,3.102308989
1.929922819,0.60184741,-0.240059987,-0.948631346,0.063021675,0.6140064,0.081821211,-0.301109433,0.089741744,0.379504591,0.11945419,0.423817694,3.103042126
1.934922218,0.582793951,-0.176568136,-0.957920849,0.02686543,0.560454905,0.077232271,-0.301792294,0.089748725,0.378840417,0.119976349,0.426721632,3.104132414
1.939922214,0.598513484,-0.134019747,-1.013192415,0.005250862,0.485381067,0.061701808,-0.302317709,0.08975409,0.378329396,0.120240755,0.429276049,3.10529995
1.944923401,0.567128479,-0.148024246,-0.994845092,-0.001249331,0.379377067,0.049698927,-0.304823428,0.090233907,0.37558955,0.120469645,0.431201279,3.106196165
1.949925423,0.532034039,-0.157051563,-0.929865301,-0.010419055,0.34817189,0.053709943,-0.30675143,0.090603091,0.373481423,0.120728172,0.432949901,3.106989384
1.954922795,0.51052779,-0.139359206,-0.956144452,-0.015155555,0.32383278,0.060248289,-0.30739072,0.090725504,0.372782379,0.120896108,0.434631765,3.107985258
1.959920645,0.474861473,-0.106926396,-0.928738952,-0.008636171,0.283805221,0.057808135,-0.307882607,0.090819694,0.372244537,0.121054642,0.436004609,3.109091043
1.964920044,0.446217626,-0.085646354,-0.912562728,-0.009760644,0.286259025,0.042797867,-0.30873546,0.090891398,0.371893853,0.121128589,0.437404007,3.110203266
1.969920039,0.448024571,-0.0879623,-0.931072056,-0.006336942,0.281115115,0.02927996,-0.310089111,0.090987489,0.371449769,0.121194564,0.43880716,3.111210585
1.974920988,0.484496444,-0.115981877,-0.947683215,-0.003687416,0.257043213,0.021370366,-0.310537964,0.091019355,0.371302515,0.121298559,0.440128326,3.112001419
1.979922891,0.485722721,-0.138754472,-0.936720073,-0.004394806,0.215943366,0.031002223,-0.310883284,0.091043867,0.371189207,0.121480972,0.441215605,3.1127069
1.984919786,0.458430409,-0.134164438,-0.891226649,-0.026022859,0.205552727,0.030612744,-0.310997784,0.091051996,0.371151626,0.12153849,0.442220986,3.113434315
1.989917994,0.449792832,-0.11778833,-0.912620008,-0.049421396,0.214347407,0.012071516,-0.312314212,0.091408625,0.369986415,0.121356502,0.443316281,3.114185333
1.994916916,0.4446024,-0.120521009,-0.928583443,-0.069401011,0.195789859,-0.008363662,-0.312750727,0.091526873,0.369600058,0.121022597,0.444282144,3.114771366
1.99991703,0.453902066,-0.137296781,-0.921393275,-0.078815788,0.19615452,-0.011365773,-0.313086599,0.09161786,0.369302779,0.120685637,0.445270896,3.115223408
2.004918098,0.454278558,-0.125441626,-0.935345054,-0.093084157,0.180314988,-0.010259556,-0.31319797,0.091648027,0.369204223,0.120273411,0.44617486,3.115822315
2.009920359,0.462272614,-0.108961143,-0.923528314,-0.103923932,0.178442493,-0.020139182,-0.313859433,0.091271043,0.36854592,0.119732603,0.447080642,3.11638236
2.014917374,0.465357989,-0.09351559,-0.948073864,-0.106727578,0.166070446,-0.025780445,-0.314221233,0.091047011,0.368183494,0.119127043,0.447969675,3.117016077
2.019915581,0.442583978,-0.091293819,-0.916395962,-0.114097059,0.153511629,-0.038161885,-0.314499587,0.090874635,0.367904633,0.118468747,0.448695719,3.117540598
2.024914503,0.438450128,-0.109353051,-0.921127737,-0.115637451,0.167743132,-0.037422482,-0.314591885,0.090817474,0.367812157,0.117843039,0.449566245,3.117950201
2.029914618,0.447875142,-0.102277555,-0.923296332,-0.10956043,0.162285656,-0.030199973,-0.315019041,0.090689458,0.367254794,0.117260024,0.450387627,3.118486166
2.034915686,0.45480445,-0.092285551,-0.920315385,-0.10542728,0.15721339,-0.030988699,-0.31551981,0.090562262,0.366579682,0.116684459,0.451192319,3.119071245
2.039917707,0.457452744,-0.096203864,-0.91530031,-0.104097694,0.146674514,-0.035039671,-0.315905094,0.090464398,0.366060227,0.116104819,0.451957345,3.119575024
2.044914961,0.46454677,-0.102745526,-0.905607224,-0.10352885,0.147703975,-0.032985993,-0.316032827,0.090431944,0.365888,0.115535565,0.452732652,3.120040894
2.049913168,0.440316856,-0.103199609,-0.908163071,-0.102241524,0.138568684,-0.027703168,-0.316131145,0.090406977,0.365755469,0.115003228,0.453422904,3.12055397
2.05491209,0.431745619,-0.092125222,-0.887226522,-0.103417538,0.15085955,-0.034049962,-0.317219645,0.089698412,0.364597976,0.114413425,0.454176843,3.12106514
2.059911966,0.427245587,-0.084074624,-0.89506346,-0.093938246,0.164383367,-0.027415141,-0.318057179,0.089153215,0.363707364,0.113894202,0.454999775,3.121654987
2.064919233,0.419430017,-0.070682459,-0.894745529,-0.078594916,0.169684067,-0.017330689,-0.318334877,0.088972434,0.363412052,0.113461129,0.455836475,3.122393608
2.069921494,0.427969187,-0.061813772,-0.879234672,-0.06041218,0.189763322,-0.027796457,-0.31854856,0.08883334,0.363184839,0.113070853,0.456794173,3.123107433
2.074919224,0.445282847,-0.076056674,-0.886880398,-0.039853323,0.199755684,-0.029358845,-0.318537146,0.088759899,0.363447875,0.112824552,0.457839131,3.123708963
2.079916954,0.444812924,-0.09412995,-0.881632149,-0.014366001,0.199767977,-0.017168703,-0.318445206,0.088675767,0.363992453,0.112788975,0.458865464,3.124292135
2.084916115,0.444348097,-0.094207026,-0.861290753,-0.002191912,0.20937492,-0.014747614,-0.318414718,0.088647872,0.364173025,0.112800293,0.459925115,3.124901533
2.089916229,0.454063147,-0.099031277,-0.881992936,0.012650628,0.2128952,-0.010993874,-0.318391263,0.088626407,0.364311993,0.112911843,0.461038649,3.125513792
2.094917536,0.469380081,-0.089879908,-0.889417112,0.034493145,0.200844049,-0.00615125,-0.318383485,0.088619292,0.364358068,0.113113038,0.462060809,3.126226425
2.099919558,0.45908466,-0.096128426,-0.895667851,0.046129834,0.188701451,-0.000641515,-0.319398791,0.088144556,0.362539887,0.113420427,0.463006943,3.126900196
2.104917049,0.471240968,-0.09869682,-0.888912797,0.051555287,0.185777768,-0.006907001,-0.319735467,0.08798714,0.361937016,0.113704816,0.463969857,3.127515554
2.10991478,0.475389242,-0.107594699,-0.903383851,0.053426709,0.172506809,-0.012676175,-0.319994509,0.087866016,0.361473143,0.114003919,0.46486944,3.128060579
2.11491394,0.478290766,-0.112124205,-0.902863681,0.047589593,0.152864367,-0.017233931,-0.3200804,0.087825857,0.361319333,0.114257358,0.465646714,3.128544569
2.119914055,0.47032997,-0.11298544,-0.910026133,0.041246831,0.131357729,-0.023007194,-0.320683002,0.087908797,0.361427635,0.114454679,0.466341317,3.128991604
2.124915123,0.479966223,-0.115353234,-0.895995557,0.036259521,0.122330867,-0.030502006,-0.321015567,0.08796446,0.361519635,0.114600196,0.466989994,3.129357338
2.129917145,0.48163408,-0.104995787,-0.900239408,0.027885074,0.115593828,-0.030909019,-0.321271479,0.088007294,0.361590415,0.114689045,0.46761924,3.129779816
2.134914398,0.494498074,-0.097754076,-0.904434562,0.021010391,0.097198151,-0.041891765,-0.321356326,0.088021494,0.36161387,0.114695795,0.46816206,3.130183697
2.139912128,0.473522246,-0.106872626,-0.895343959,0.01296064,0.072542012,-0.047108579,-0.321643531,0.088150568,0.361480504,0.114668436,0.468543023,3.130465746
2.144911289,0.475697488,-0.112538509,-0.88022095,0.00127962,0.074917428,-0.051195927,-0.321962565,0.088312499,0.3612836,0.114578776,0.468982786,3.130696774
2.149911404,0.475822717,-0.114137173,-0.886651576,-0.003961322,0.072653994,-0.049549151,-0.322208047,0.088437088,0.361132085,0.11447797,0.46941033,3.130938053
2.154912472,0.467105955,-0.098899312,-0.889665902,-0.005770068,0.061145887,-0.054224625,-0.322289437,0.088478401,0.361081839,0.114316694,0.469756097,3.131239653
2.159914732,0.463351488,-0.087916985,-0.880871952,-0.008121753,0.065511718,-0.064338565,-0.322352082,0.088510185,0.361043185,0.114092536,0.47012648,3.131515741
2.164912224,0.465278894,-0.08408381,-0.890328646,-0.01152192,0.06882856,-0.069276646,-0.322657019,0.088158183,0.3596192,0.113840058,0.470539302,3.131796837
2.169910192,0.454537183,-0.083995804,-0.891414583,-0.013626306,0.060233198,-0.063188493,-0.322893173,0.087887324,0.358516574,0.113593273,0.470859349,3.132096052
2.174909115,0.440581888,-0.072711177,-0.884160101,-0.016042719,0.069671407,-0.051679805,-0.322971493,0.087797515,0.358150959,0.113343358,0.471206099,3.13253808
2.179909468,0.438799798,-0.062404867,-0.889368653,-0.009431338,0.077853128,-0.038550083,-0.323031723,0.087728411,0.357869655,0.11314325,0.471595377,3.133114338
2.184910297,0.429920524,-0.053384345,-0.890738249,0.001582722,0.080758385,-0.029006884,-0.323158979,0.087532453,0.357533395,0.11302042,0.471975416,3.133781672
2.189912558,0.438880593,-0.061899729,-0.885050416,0.01314199,0.094941966,-0.020163788,-0.32336539,0.087206699,0.357028931,0.11300648,0.472441733,3.134434462
2.194910049,0.450096428,-0.065879494,-0.888537586,0.023111697,0.103004433,-0.014212211,-0.323433816,0.08709868,0.356861681,0.11306864,0.472971231,3.135117292
2.199914217,0.452660322,-0.067724489,-0.887996912,0.024639791,0.099751458,-0.007510538,-0.323486447,0.087015569,0.356732965,0.113141559,0.473466814,3.135816097
2.204913616,0.455310881,-0.065634198,-0.882921457,0.022761784,0.100722685,-0.003817114,-0.323503911,0.08698801,0.356690288,0.113216259,0.473971605,3.136561394
2.209913969,0.463419497,-0.082397573,-0.886520088,0.018052928,0.100990862,0.005446296,-0.323842108,0.087107934,0.356662154,0.113318913,0.474490434,3.137253284
2.214915037,0.471874863,-0.094321869,-0.887191892,0.015674666,0.096781008,0.005879914,-0.323954254,0.087147698,0.356652826,0.113431156,0.474989831,3.137898207
2.219917059,0.473455101,-0.099685043,-0.88177377,0.002771332,0.090590402,0.003071871,-0.324040502,0.08717829,0.356645644,0.113478772,0.475447565,3.138494015
2.224914551,0.478519797,-0.103767343,-0.885434806,-0.006890724,0.087366596,-0.003825409,-0.324069113,0.087188438,0.356643289,0.113456875,0.475920498,3.139032602
2.229912281,0.484051734,-0.099330053,-0.886320293,-0.012862114,0.079793617,-0.01558088,-0.324429363,0.0871481,0.35621357,0.113360025,0.476360172,3.139526367
2.234911203,0.489500344,-0.095447481,-0.887369335,-0.018245401,0.079350337,-0.030674338,-0.324632496,0.087122805,0.355965197,0.113185242,0.476803362,3.139945745
2.239911079,0.470783055,-0.097795658,-0.893051386,-0.027092325,0.066075832,-0.041526016,-0.324788809,0.087103352,0.355774105,0.112968653,0.477141112,3.140286684
2.244912148,0.47352761,-0.102941163,-0.886682034,-0.035367519,0.068838127,-0.059833143,-0.324840635,0.0870969,0.355710745,0.112658091,0.477533966,3.140485525
2.249914169,0.475436479,-0.110250533,-0.895609915,-0.044024181,0.064415224,-0.060569167,-0.324910611,0.087183163,0.356124729,0.112311788,0.477903664,3.140651941
2.254911423,0.472733349,-0.105570361,-0.890745342,-0.053977996,0.060259853,-0.058211334,-0.324964136,0.087303765,0.356728613,0.111910135,0.478235364,3.14087534
2.259909391,0.478372335,-0.105649143,-0.888548553,-0.062742889,0.062499195,-0.055836931,-0.325005323,0.087396555,0.357193261,0.111464702,0.47859937,3.1410954
2.264908552,0.464032918,-0.103892811,-0.893903196,-0.061994843,0.057659477,-0.048329528,-0.325018972,0.087427326,0.357347339,0.111070283,0.478917181,3.141383886
2.269908428,0.468590736,-0.10229402,-0.877268851,-0.06787318,0.065310746,-0.047125224,-0.325029492,0.087450996,0.357465893,0.110627346,0.479275942,-3.141500711
2.274909496,0.472511947,-0.106625669,-0.885993421,-0.0710475,0.071971327,-0.043790739,-0.325556666,0.086900979,0.356434196,0.110187665,0.479679644,-3.141220093
2.279912233,0.480238587,-0.104818247,-0.888743222,-0.073281117,0.06932839,-0.044142179,-0.325962305,0.086477779,0.355640352,0.109738871,0.480067849,-3.140921354
2.28491044,0.477377325,-0.10194204,-0.880836308,-0.074728191,0.070968121,-0.043984421,-0.326096803,0.086337447,0.355377108,0.109286301,0.480460823,-3.140613317
2.289908648,0.472720236,-0.104405046,-0.876854181,-0.07879217,0.082479633,-0.039651383,-0.326200277,0.086229473,0.355174571,0.108815633,0.480917305,-3.140307665
2.294907808,0.467075825,-0.103328563,-0.877491415,-0.083373263,0.088281684,-0.024321016,-0.326479495,0.086022161,0.3547436,0.10837619,0.481383264,-3.139895201
2.299907923,0.46826598,-0.101000078,-0.879065812,-0.083414435,0.096759483,-0.010750934,-0.326941937,0.085689232,0.35404408,0.107960425,0.481890589,-3.139382124
2.304908752,0.459706038,-0.100019313,-0.876221776,-0.088211901,0.097260155,0.01397316,-0.32709527,0.085578837,0.353812128,0.10760095,0.482350171,-3.138726711
2.309911013,0.458023876,-0.091190547,-0.871435463,-0.091591574,0.103955932,0.035448939,-0.327213287,0.0854939,0.353633642,0.107270084,0.482854098,-3.137897015
2.314908504,0.457727194,-0.094022036,-0.871303499,-0.09600275,0.112835094,0.05480795,-0.327252388,0.085465737,0.353574455,0.106961243,0.483391345,-3.136986256
2.319906473,0.451143175,-0.08983624,-0.868818998,-0.105825722,0.11929395,0.086960472,-0.327473074,0.084922813,0.355128169,0.106686205,0.483915269,-3.135884285
2.324905634,0.442967743,-0.073380843,-0.870724499,-0.104229398,0.128361925,0.120077409,-0.327546239,0.084742792,0.355643362,0.106478848,0.484466463,-3.134483814
2.329905987,0.426329762,-0.058030125,-0.873877108,-0.098450989,0.138192192,0.149474859,-0.327602565,0.084604278,0.356039733,0.106359348,0.485016525,-3.132851601
2.334913015,0.417650491,-0.049903125,-0.877078831,-0.086395159,0.149825856,0.17182672,-0.327621251,0.084558345,0.356171191,0.106353737,0.485610187,-3.131044626
2.339915514,0.417172074,-0.047544122,-0.876370847,-0.076061897,0.159985811,0.190979332,-0.327783048,0.084724858,0.355837882,0.106428802,0.486246556,-3.129125595
2.344913006,0.423890412,-0.053809445,-0.879857123,-0.068853118,0.17191793,0.202926055,-0.32787317,0.084830016,0.355619878,0.106613979,0.486932635,-3.127171516
2.349910975,0.422264367,-0.062458333,-0.88838762,-0.060920853,0.181135952,0.208663672,-0.32794252,0.084910929,0.35545212,0.106863037,0.487658292,-3.125230312
2.354910135,0.419073075,-0.047370475,-0.895015717,-0.048696086,0.188212648,0.213570252,-0.327965498,0.084937759,0.355396479,0.107149705,0.488409877,-3.12315464
2.359910488,0.400755495,-0.041575201,-0.882021487,-0.032068312,0.1994472,0.219527438,-0.328042626,0.085303351,0.355134755,0.107539609,0.489177585,-3.121039152
2.364911318,0.397298127,-0.038849991,-0.884102404,-0.013667768,0.226170719,0.234134138,-0.328128099,0.085772417,0.354827225,0.108060338,0.49007985,-3.118801117
2.369913578,0.382966667,-0.038330812,-0.901143372,0.009526083,0.24143365,0.235020578,-0.328193873,0.086133339,0.354590625,0.108710393,0.491018742,-3.116535425
2.37491107,0.387221396,-0.049424268,-0.896830142,0.033542857,0.264162391,0.229722962,-0.328215659,0.08625301,0.354512185,0.109498776,0.492075056,-3.114368439
2.3799088,0.395403445,-0.066936813,-0.902152181,0.044553895,0.286970854,0.22764115,-0.328232437,0.086345084,0.354451805,0.110381939,0.493270785,-3.112290621
2.384907961,0.411450237,-0.082160123,-0.899830043,0.05058492,0.305057973,0.225712895,-0.329159915,0.086727865,0.352161944,0.111312389,0.49456498,-3.110282421
2.389908075,0.430611163,-0.085317075,-0.905412257,0.051636737,0.32828638,0.21329011,-0.329873532,0.087022394,0.350400031,0.112219602,0.496021718,-3.108305454
2.394908905,0.461520761,-0.090246089,-0.904369533,0.054027662,0.350340962,0.194761634,-0.330110162,0.087120056,0.349815816,0.113093503,0.497627139,-3.106446266
2.399910927,0.438502222,-0.098895311,-0.907268286,0.047479913,0.3549999,0.198837146,-0.330292255,0.087195203,0.349366307,0.113984756,0.499193579,-3.10462594
2.40490818,0.451710463,-0.107465073,-0.906692266,0.035866231,0.374273121,0.188289732,-0.330743849,0.087683648,0.348663777,0.114774674,0.500895739,-3.102864504
2.409906149,0.440737069,-0.098266631,-0.913468599,0.030659767,0.379589379,0.190142751,-0.331486911,0.088528171,0.347563565,0.115552686,0.502570927,-3.101004124
2.41490531,0.469953746,-0.102830045,-0.900984704,0.023325434,0.411672473,0.18566303,-0.331733286,0.088808201,0.347198755,0.116302542,0.50445807,-3.099197865
2.419905186,0.478882998,-0.106117621,-0.933284938,0.006749019,0.423373967,0.187443405,-0.331922859,0.089023665,0.346918046,0.116998121,0.506455302,-3.097353935
2.424906492,0.469233692,-0.119593933,-0.911283791,-0.019318696,0.423348546,0.182357296,-0.331985712,0.089095108,0.346825004,0.11754147,0.508352578,-3.095646143
2.429908752,0.485069871,-0.141346768,-0.919110656,-0.043574177,0.456272691,0.164458111,-0.333013594,0.089976773,0.346618533,0.117993608,0.510510623,-3.094058275
2.434906006,0.473930568,-0.15824911,-0.917675316,-0.06947194,0.47364831,0.178347185,-0.333354414,0.090269119,0.346550047,0.118353322,0.512685239,-3.092558622
2.439904213,0.44102478,-0.116506681,-0.916049361,-0.081958048,0.51826638,0.176964,-0.333616644,0.090494059,0.346497387,0.11863517,0.515059888,-3.090668917
2.444903612,0.434188038,-0.104212411,-0.934292734,-0.092138529,0.561971247,0.1737867,-0.333703607,0.090568647,0.346479923,0.118792832,0.517629325,-3.088816166
2.449903727,0.424268007,-0.111878119,-0.947912753,-0.104812369,0.615046501,0.163547456,-0.334795177,0.091289155,0.344684452,0.118983395,0.520429611,-3.086937904
2.454904795,0.425193936,-0.147579893,-0.950621128,-0.167532533,0.694124758,0.145972714,-0.335410714,0.09169215,0.343648136,0.118819356,0.523653507,-3.085356474
2.459907055,0.424952835,-0.152177557,-0.941828191,-0.173858225,0.795805573,0.138319686,-0.335884303,0.092002228,0.342850775,0.118681759,0.527387381,-3.083759069
2.46491003,0.435318589,-0.179264054,-0.98008281,-0.244307905,0.902437687,0.082599312,-0.336041331,0.092105046,0.342586368,0.118152313,0.531677783,-3.082468033
2.469908237,0.461841255,-0.252491474,-1.007066011,-0.361727268,1.005287051,0.041884437,-0.337371975,0.09224835,0.340552986,0.116992772,0.536529899,-3.081822157
2.47490716,0.45040071,-0.206946,-0.99204123,-0.432534486,1.089522481,0.023633873,-0.339033157,0.092360601,0.338033468,0.115381807,0.54174161,-3.080862045
2.479907513,0.475073427,-0.189052865,-1.002044082,-0.516724944,1.240640879,-0.033939414,-0.340311348,0.092446968,0.336094826,0.113171071,0.547820449,-3.080076456
2.484908581,0.457484633,-0.175900549,-1.019285083,-0.556389689,1.350245833,-0.088877037,-0.340735167,0.092475608,0.33545202,0.110613674,0.554419875,-3.079509497
2.489910841,0.452240556,-0.219686493,-0.985211074,-0.625425398,1.524388552,-0.178682029,-0.341061264,0.092497647,0.334957421,0.10765025,0.561912298,-3.0796597
2.494907856,0.471970946,-0.227538288,-1.062173605,-0.715000212,1.668603301,-0.23548463,-0.343765497,0.09139891,0.330451936,0.104016833,0.570194721,-3.080127239
2.499906063,0.457424402,-0.183913529,-1.034318805,-0.775515974,1.813051939,-0.310219169,-0.345846236,0.090553507,0.32698527,0.099798895,0.579115748,-3.080679417
2.504905224,0.4552975,-0.209613428,-1.034244418,-0.838610113,2.019009829,-0.3933312,-0.34653616,0.090273187,0.325835794,0.095115773,0.589141905,-3.081884146
2.509905338,0.478607982,-0.232057497,-1.112000346,-0.900935769,2.192643642,-0.486796111,-0.347067028,0.090057507,0.324951351,0.089854069,0.600070238,-3.083651543
2.514906406,0.438273281,-0.294947743,-1.048521161,-1.006626368,2.351008654,-0.589685082,-0.349694908,0.088445246,0.321172118,0.083850704,0.611661196,-3.086530924
2.519908667,0.472537994,-0.299747109,-1.062278509,-1.146189809,2.592812538,-0.70783186,-0.354196101,0.085646786,0.314739376,0.076666594,0.624637127,-3.090071917
2.52490592,0.4921588,-0.28822276,-1.143508196,-1.289944768,2.774595499,-0.821379423,-0.355688602,0.084718868,0.312606424,0.06825196,0.63847506,-3.094270229
2.529904366,0.443656176,-0.312617481,-1.097635627,-1.456744075,2.977499962,-0.950315952,-0.356836975,0.084004901,0.31096524,0.058419611,0.653158188,-3.099626064
2.534903526,0.429388136,-0.257071018,-1.118282914,-1.595481515,3.264792919,-1.05301404,-0.357217759,0.083768167,0.310421079,0.047252912,0.66933918,-3.105469942
2.539903402,0.361418456,-0.213415697,-1.156373739,-1.700971127,3.54013896,-1.175734997,-0.36545527,0.076762855,0.299251199,0.034759779,0.686681688,-3.112254381
2.54490447,0.263143659,-0.199075893,-1.154475451,-1.778458357,3.84281826,-1.259485602,-0.368186653,0.074440032,0.295547456,0.021264922,0.705324769,-3.119925022
2.549906492,0.197390884,-0.159911036,-1.12927568,-1.831003547,4.183829308,-1.316385269,-0.370288283,0.072652772,0.292697698,0.006850644,0.725537598,-3.128196001
2.554903746,0.171956554,-0.093456492,-1.116097093,-1.850018024,4.580168724,-1.344102621,-0.37098515,0.072060153,0.291752785,-0.008395933,0.747623324,-3.136897326
2.559901714,0.26930657,-0.020317975,-1.216756701,-1.861036062,5.008324146,-1.360375643,-0.378953248,0.063951574,0.276412219,-0.024494477,0.771851003,3.136920929
2.564900875,0.181464717,-0.056375973,-1.228577733,-1.916035295,5.315230846,-1.428956985,-0.383434355,0.05936927,0.267709434,-0.041912947,0.797163367,3.125911474
2.569900751,0.062476151,-0.155628666,-1.023567796,-1.983764052,5.763575554,-1.474196911,-0.386882275,0.055843499,0.26101324,-0.060673188,0.82455498,3.112981081
2.574902058,0.210555077,-0.155692473,-0.95413667,-2.08585453,6.386152267,-1.481253743,-0.388025552,0.054674417,0.258792907,-0.081425667,0.855398059,3.09853816
2.579904318,0.468035311,-0.027291216,-1.214771032,-2.127098799,6.843650818,-1.500506401,-0.394511431,0.048890755,0.243692979,-0.104585774,0.888327122,3.082453489
2.584901571,0.59142071,0.065703176,-1.399249673,-2.000217438,6.917896748,-1.567510843,-0.402315348,0.042047858,0.225182176,-0.129445016,0.920727968,3.064025402
2.589899778,0.606034517,0.037709679,-1.277075768,-1.91272521,7.042320251,-1.654401898,-0.40831992,0.036782715,0.210939363,-0.156521514,0.953234851,3.042218447
2.594898939,0.941844523,0.038767293,-1.436305523,-2.003742933,7.295069695,-1.661488652,-0.410310924,0.035036892,0.206216723,-0.187161043,0.986971617,3.017019033
2.599905014,1.29381454,0.142768413,-1.704740405,-1.837446451,7.14718771,-1.477585793,-0.411842853,0.0336936,0.202582955,-0.218619645,1.019489884,2.990934372
2.604906559,1.140697002,0.320001483,-1.49138236,-1.502999663,6.900654793,-1.284817934,-0.421177804,0.024255658,0.170385376,-0.249369234,1.050101042,2.9648211
2.609908581,1.236720443,0.492786199,-1.359050632,-1.381213784,6.946933746,-1.224522352,-0.428360432,0.016993802,0.145611525,-0.28367126,1.080899835,2.935732126
2.614905834,1.469057918,0.390699744,-1.471806765,-1.173176289,6.870752811,-1.133234143,-0.430742055,0.014585909,0.137396991,-0.319763005,1.11103344,2.90272975
2.619904041,1.687693119,0.344218314,-1.511015058,-0.912403226,6.665593624,-0.915397227,-0.43257457,0.012733198,0.131076455,-0.355152011,1.139825583,2.868748903
2.624902964,1.665576458,0.467172772,-1.477863193,-0.697021365,6.420539379,-0.773782432,-0.435596734,0.008687937,0.111002363,-0.392199159,1.167038202,2.833128452
2.62990284,1.40486908,0.537165701,-1.193691134,-0.499872386,6.299471378,-0.660181761,-0.440363586,0.002106169,0.077377819,-0.43229261,1.193213224,2.794346333
2.634903908,1.398381114,0.588175178,-1.156331182,-0.256147832,6.485849857,-0.661352336,-0.441944182,-7.62E-05,0.066228561,-0.478753418,1.219945073,2.748007059
2.639905691,1.296942949,0.466202706,-1.44777894,-0.017632667,6.266926765,-0.672610283,-0.443160325,-0.001755421,0.057649966,-0.528853655,1.24419558,2.695851564
2.644902945,1.12684083,0.387235731,-1.242735863,0.263679206,5.99084568,-0.629738092,-0.443563581,-0.002312212,0.054805469,-0.581410587,1.266354561,2.639866352
2.649901152,0.819153786,0.184173271,-1.0985322,0.381590426,5.909091473,-0.613683701,-0.442801714,-0.007428939,0.013847783,-0.640767753,1.287656307,2.575627565
2.654900074,0.533017635,-0.065667279,-0.994721413,0.34064731,5.719274521,-0.578305066,-0.44254908,-0.00912555,0.000266992,-0.7063362,1.307293296,2.504537582
2.65989995,0.326887578,-0.320789099,-0.928460598,0.120752193,5.45430088,-0.489539921,-0.442354709,-0.010430976,-0.010182505,-0.777512252,1.325191498,2.428200483
2.66490078,0.233281031,-0.610972583,-1.124487519,-0.273763478,4.959750652,-0.384815842,-0.442290276,-0.01086383,-0.01364736,-0.849217355,1.340398908,2.352238894
2.66990304,0.357333839,-0.96377486,-1.321298003,-0.768281043,4.207113743,-0.218111113,-0.438781828,-0.013934416,-0.042232409,-0.913611531,1.352714539,2.284547567
2.674900532,1.094453812,-0.988494873,-1.332101822,-1.272897601,3.500267029,0.133523539,-0.436762601,-0.015629973,-0.058124419,-0.968046665,1.363913536,2.229141474
2.679898739,2.003720999,-0.650386453,-1.88400197,-1.798300624,2.728030682,0.373310059,-0.435208946,-0.01693459,-0.070352241,-1.010812402,1.372836351,2.189878225
2.684897423,1.985174775,-0.382582754,-2.384047508,-1.969240665,1.405103803,0.593036413,-0.434693784,-0.017367177,-0.074406758,-1.020642281,1.377749681,2.186114788
2.689897537,1.372434616,-0.309960216,-1.974403143,-2.044878721,0.268600941,0.807219625,-0.431746393,-0.016964944,-0.086384788,-1.00496769,1.380539894,2.209437609
2.694898367,0.731136084,-0.236875966,-1.442012787,-2.136919022,-0.339565128,1.025966763,-0.428196639,-0.016090319,-0.099289209,-0.979785502,1.383010745,2.244114161
2.699900627,0.382225424,-0.069881842,-1.15674746,-2.072377205,-0.718309879,1.191970587,-0.425465345,-0.015417354,-0.109218284,-0.946709692,1.384940028,2.2876513
2.704897881,0.272268295,0.076862358,-1.029755354,-1.828428149,-0.998721778,1.285910487,-0.424559712,-0.015194212,-0.112510577,-0.906210899,1.386012673,2.338084936
2.709895611,0.231150717,0.164917365,-0.966234207,-1.462738514,-1.232808709,1.333072782,-0.423862875,-0.01502252,-0.115043774,-0.858758628,1.386038661,2.393897057
2.714894772,0.194424108,0.192887023,-0.874843061,-1.087929964,-1.411001682,1.330043793,-0.42314291,-0.00822784,-0.116078384,-0.807020009,1.385012984,2.452344418
2.719894886,0.139210746,0.171589673,-0.756518304,-0.755150318,-1.502292871,1.282521844,-0.422588915,-0.002999796,-0.116874442,-0.754603982,1.383120894,2.509744406
2.724895716,0.08546593,0.138594687,-0.666213155,-0.463489652,-1.546566367,1.221206903,-0.422405243,-0.001266275,-0.117138401,-0.703006029,1.380480051,2.564764977
2.729897976,0.056147866,0.096562043,-0.607324123,-0.209091961,-1.585424304,1.130057931,-0.422263891,6.76E-05,-0.117341489,-0.653180063,1.376995564,2.616559029
2.73490119,0.048058588,0.039972216,-0.5714733,-0.015029773,-1.626907945,1.027615547,-0.423163086,0.004473368,-0.114501901,-0.605618,1.372647882,2.664936781
2.739899635,0.065149359,-0.013757555,-0.564933717,0.122426771,-1.685728908,0.908830047,-0.424811512,0.011871109,-0.109377667,-0.560949087,1.367349148,2.709542036
2.744899035,0.091905378,-0.059217747,-0.568452835,0.21296832,-1.761524796,0.787021399,-0.425358117,0.01432406,-0.10767857,-0.519501865,1.36105442,2.750250101
2.749898911,0.120781943,-0.092277177,-0.573526561,0.267152011,-1.850801229,0.664334416,-0.425778687,0.016211439,-0.106371231,-0.481553882,1.353761435,2.78702879
2.754900217,0.14612563,-0.116614223,-0.579008877,0.302755654,-1.9451226,0.544987082,-0.425918132,0.016837258,-0.105937742,-0.447226971,1.345503688,2.819892168
2.759902239,0.16936858,-0.131862059,-0.585664093,0.327173859,-2.044492245,0.433689535,-0.428837866,0.022977307,-0.097304299,-0.416437358,1.336334229,2.849085569
2.764899492,0.200647682,-0.137094513,-0.600344777,0.355941266,-2.148903847,0.3407287,-0.429806024,0.025013231,-0.094441615,-0.388616979,1.326313138,2.875112772
2.769897699,0.230202377,-0.144702807,-0.617731512,0.390139967,-2.262466669,0.259369075,-0.430550933,0.026579738,-0.092238978,-0.363379121,1.31543529,2.898312092
2.77489686,0.256776601,-0.151997417,-0.634295762,0.433258772,-2.383143902,0.190724537,-0.430797935,0.02709916,-0.091508619,-0.340248823,1.303727746,2.919111252
2.779896736,0.283106148,-0.166585431,-0.651339054,0.482934862,-2.506090879,0.137451932,-0.43370831,0.029305359,-0.08215978,-0.318797708,1.291227102,2.937928677
2.784897804,0.315123349,-0.181125239,-0.668361783,0.537667036,-2.63010335,0.094682433,-0.435346484,0.030483926,-0.076885544,-0.298766732,1.277972341,2.954974413
2.789899826,0.345282197,-0.194305241,-0.687416494,0.593790829,-2.756695509,0.064636521,-0.436606973,0.031390753,-0.072827376,-0.279901206,1.263978481,2.970490932
2.794896841,0.374650657,-0.204970717,-0.709577143,0.655760646,-2.8815341,0.044691063,-0.437024921,0.031691439,-0.071481772,-0.261953086,1.249269485,2.984736681
2.799895525,0.40468055,-0.216398403,-0.728683591,0.724649668,-3.007766247,0.03716968,-0.439378142,0.032101009,-0.064634614,-0.244671926,1.233863354,2.997937441
2.804894686,0.435027301,-0.233372211,-0.748186588,0.787159443,-3.133504391,0.041764475,-0.442207098,0.032416519,-0.056503642,-0.22788997,1.217788935,3.010262251
2.8098948,0.468644649,-0.251258492,-0.772008121,0.851264596,-3.258605242,0.062996306,-0.4443838,0.032659281,-0.050247412,-0.211380869,1.201068044,3.021938324
2.814895868,0.511256218,-0.26094979,-0.802270055,0.911206663,-3.397511721,0.101926103,-0.445105553,0.032739777,-0.048172966,-0.194924906,1.183628082,3.033262491
2.819898129,0.55465287,-0.278747499,-0.825766087,0.970465124,-3.54788208,0.153678551,-0.445660889,0.032801714,-0.04657682,-0.178394422,1.165439963,3.044339657
2.824895382,0.588593364,-0.295456946,-0.845263541,1.024207473,-3.700935841,0.214443922,-0.448302746,0.032477532,-0.033326335,-0.161804035,1.146497607,3.055235147
2.829893589,0.621033907,-0.314307183,-0.864203215,1.068993807,-3.852981329,0.281382203,-0.450335443,0.032228097,-0.023130991,-0.145196468,1.126799464,3.065913439
2.834892273,0.650688171,-0.330596745,-0.873456836,1.104066133,-4.004074097,0.357523024,-0.451009452,0.032145388,-0.019750407,-0.128595501,1.106366158,3.076444626
2.839892149,0.684276342,-0.337385833,-0.886807442,1.126463532,-4.155379295,0.439085901,-0.451528072,0.032081753,-0.017149277,-0.112124525,1.085195661,3.086820602
2.844892979,0.707551122,-0.343269318,-0.891792119,1.143134832,-4.308489323,0.523284972,-0.453357667,0.032409359,-0.006778737,-0.095828764,1.063261628,3.09705925
2.849895,0.718528628,-0.343456745,-0.888507366,1.159074903,-4.452196598,0.608010113,-0.456441522,0.033014029,0.010814819,-0.079768181,1.040616512,3.10712409
2.854891777,0.718671799,-0.339583963,-0.880053163,1.16878736,-4.581604958,0.691625953,-0.457464069,0.033214528,0.016648509,-0.064060666,1.01733017,3.116934538
2.859889746,0.714725137,-0.337757289,-0.868428826,1.176754713,-4.695636272,0.77235204,-0.45825085,0.033368796,0.021137135,-0.048715875,0.993472099,3.126453876
2.864888668,0.70913589,-0.32801041,-0.85837853,1.179488301,-4.786216259,0.849838018,-0.45851174,0.033419952,0.02262548,-0.03382295,0.969160974,3.135689259
2.869894505,0.702276409,-0.315863401,-0.850352824,1.177429318,-4.853477955,0.923824131,-0.460694015,0.03636346,0.049788307,-0.019425184,0.94449842,-3.138529778
2.874895334,0.693917692,-0.307331562,-0.84269613,1.174588323,-4.893898964,0.985573113,-0.461417615,0.037339471,0.05879499,-0.005560957,0.919618487,-3.129971504
2.879897118,0.693937898,-0.307049781,-0.849777222,1.171849489,-4.910299301,1.045963645,-0.461974382,0.038090449,0.065725021,0.007808979,0.894634843,-3.121829748
2.884894133,0.698524714,-0.298802942,-0.868486762,1.168944716,-4.92054987,1.108625889,-0.462159008,0.038339455,0.068022884,0.020771844,0.869561017,-3.113946915
2.889892101,0.714005649,-0.293768466,-0.878855526,1.161998749,-4.920770168,1.166036367,-0.461437523,0.042112429,0.091592662,0.033260997,0.844465077,-3.106325865
2.894891024,0.741681337,-0.289090574,-0.916063368,1.154378653,-4.91768074,1.230958104,-0.460984617,0.044249702,0.104802854,0.045374475,0.819364846,-3.098907948
2.899890661,0.779900849,-0.272666126,-0.960003912,1.1436373,-4.937951088,1.29930687,-0.460636109,0.045894187,0.114967197,0.057101801,0.794102788,-3.091595411
2.904891729,0.813094258,-0.252457947,-0.991788864,1.129419804,-4.96358633,1.368066072,-0.460520566,0.046439469,0.118337505,0.068459101,0.76867193,-3.084368706
2.909893751,0.84717232,-0.228076905,-1.028674126,1.118904591,-4.986564159,1.426015615,-0.458799958,0.049973201,0.134110734,0.07937672,0.743102551,-3.077229023
2.914890766,0.882478178,-0.195086241,-1.069831371,1.112099409,-5.01336956,1.470948935,-0.456584036,0.054285247,0.152631521,0.089842379,0.717383742,-3.070176363
2.919888496,0.91388166,-0.175008833,-1.109059215,1.107275486,-5.041141033,1.496189356,-0.454878986,0.057603072,0.166882008,0.099829257,0.691517472,-3.063458443
2.92488718,0.947384477,-0.146104172,-1.151229858,1.100038886,-5.068282604,1.506327271,-0.454313636,0.058703199,0.171607196,0.109289862,0.665534496,-3.057060957
2.929887295,0.985076249,-0.109695025,-1.196368456,1.091543078,-5.101068497,1.503615856,-0.453878641,0.059549671,0.175242916,0.118161999,0.639423132,-3.051019192
2.934888124,1.027769566,-0.074843787,-1.235960007,1.088084459,-5.144886494,1.483195066,-0.447465569,0.065655448,0.19969663,0.126467839,0.61315167,-3.045290947
2.939890146,1.065951586,-0.039180234,-1.265880346,1.091245532,-5.199773312,1.44665432,-0.442531139,0.070353426,0.218512103,0.134237647,0.58669132,-3.040045261
2.9448874,1.100890994,-0.02430159,-1.291953921,1.092576265,-5.250324726,1.386444807,-0.440894961,0.071911186,0.224750951,0.141474426,0.560094953,-3.035472155
2.94988513,1.131051302,-0.019165866,-1.325388193,1.091271162,-5.302268505,1.310904145,-0.439636052,0.073109776,0.229551315,0.148193285,0.533362448,-3.031616211
2.954883814,1.1722368,-0.01238399,-1.368036151,1.08365202,-5.358316898,1.222896099,-0.433424115,0.076993726,0.243342489,0.154354826,0.506508827,-3.028430939
2.95988369,1.214962125,-0.002198109,-1.416606307,1.073872447,-5.414072037,1.127270937,-0.422785312,0.08350759,0.266289413,0.159977347,0.479549915,-3.025920868
2.96488452,1.258496284,0.026057502,-1.464779854,1.069662333,-5.475040436,1.030088544,-0.4192577,0.085667461,0.273898154,0.165105015,0.452466369,-3.024025679
2.969886541,1.309056044,0.070434637,-1.511999726,1.079016328,-5.53798151,0.928020656,-0.416543424,0.087329336,0.279752582,0.169847459,0.425288409,-3.022648811
2.974883556,1.375078678,0.130403519,-1.546772242,1.111011267,-5.606532574,0.821686924,-0.415643424,0.08788038,0.281693816,0.174326107,0.398034096,-3.021733522
2.979881525,1.451157451,0.197802871,-1.560131073,1.169881225,-5.669511795,0.697631538,-0.396657079,0.094693474,0.312529027,0.178689972,0.370794237,-3.021280289
2.984880209,1.536670685,0.255434513,-1.550843477,1.259731889,-5.721429348,0.558709264,-0.390361547,0.096952565,0.32275337,0.183151737,0.343660533,-3.021447182
2.989880085,1.621565223,0.29296273,-1.519908786,1.365188241,-5.754273415,0.406075507,-0.385517567,0.098690785,0.330620289,0.187880546,0.316762447,-3.022369862
2.994880915,1.71686101,0.288668931,-1.493198276,1.454976678,-5.761418819,0.256551206,-0.383911401,0.099267147,0.333228827,0.192926273,0.290266335,-3.024172068
2.999882936,1.806550026,0.299150199,-1.471522212,1.498767257,-5.772083759,0.16007936,-0.365002781,0.103414565,0.355730951,0.198110819,0.264063925,-3.026415825
3.004886389,1.875156403,0.342174679,-1.427845836,1.517478466,-5.774534702,0.098298512,-0.354359835,0.105706319,0.368263781,0.203312725,0.238112956,-3.028766155
3.009884834,1.941767216,0.365030259,-1.319123149,1.499914765,-5.747759342,0.063890643,-0.346170813,0.107469663,0.377906948,0.208512485,0.212571844,-3.031297684
3.014883995,2.010978937,0.39337337,-1.195122957,1.436510682,-5.683270454,0.065958783,-0.343455493,0.108054355,0.381104439,0.213488221,0.187622935,-3.033765793
3.019884109,2.067232132,0.454523563,-1.05552578,1.342692375,-5.598331451,0.107528932,-0.329913765,0.110357769,0.392893612,0.218076944,0.163269699,-3.035749912
3.024884939,2.087746382,0.531674623,-0.870299876,1.226231575,-5.486697674,0.16747804,-0.31387493,0.112990625,0.406209975,0.222203746,0.139525771,-3.037115574
3.029886723,2.076508522,0.55359906,-0.632850707,1.053213716,-5.319078445,0.213486269,-0.301534176,0.115016431,0.416455984,0.225678831,0.11663951,-3.03826499
3.034883738,2.071829081,0.498829901,-0.390506297,0.790929079,-5.083511353,0.239633262,-0.297442198,0.115688153,0.419853389,0.228158548,0.095006891,-3.039568186
3.039881945,2.095205784,0.37198025,-0.173762456,0.410330027,-4.828938961,0.262328386,-0.294293731,0.116204992,0.42246747,0.229095012,0.074730605,-3.041289806
3.044880867,2.155195951,0.226817325,0.036688488,-0.073394477,-4.583034515,0.282879919,-0.271859586,0.119638257,0.436530054,0.227942258,0.05577739,-3.043394566
3.049880743,2.241280794,0.129220977,0.225324541,-0.632816851,-4.345884323,0.32975015,-0.254598022,0.122279912,0.447350293,0.224242806,0.038075384,-3.045464039
3.054881811,2.355493307,0.128821477,0.401744127,-1.214842439,-4.118194103,0.389666498,-0.248874426,0.12315584,0.450938046,0.217646077,0.021596387,-3.046864033
3.059883595,2.458105564,0.24887827,0.581562579,-1.700168729,-3.870977879,0.463846594,-0.244470507,0.123829804,0.453698605,0.208479375,0.00637664,-3.04686904
3.06488061,2.502889156,0.480647266,0.750613928,-2.026932478,-3.560990334,0.50948441,-0.232200697,0.123181343,0.460744023,0.197411776,-0.007321638,-3.044921398
3.06987834,2.453676701,0.716589212,0.931559741,-2.1515944,-3.148678303,0.535164952,-0.211829767,0.121800743,0.472363442,0.185475811,-0.019122498,-3.041190624
3.074877262,2.33762908,0.94109422,1.09615612,-2.061462879,-2.592918873,0.534605443,-0.20507516,0.121342957,0.476216227,0.173790649,-0.028331144,-3.035655022
3.079877138,2.153749704,1.158524156,1.204725623,-1.755073786,-1.894013524,0.528696835,-0.199877948,0.120990723,0.479180664,0.163396448,-0.034313098,-3.028262854
3.084877968,1.946600318,1.346385598,1.242824197,-1.248014212,-1.095342875,0.494409978,-0.198154658,0.120873928,0.480163634,0.155370921,-0.036587004,-3.019310236
3.08987999,0.87269026,1.393648624,1.163273573,-0.652954876,-0.068205431,0.426601261,-0.177289605,0.111382864,0.489317626,0.150290996,-0.035570282,-3.010276794
3.094877481,1.13950789,1.325141311,1.452974439,-0.046679646,1.43340826,0.593248129,-0.170371145,0.108235806,0.492352933,0.14896208,-0.026938902,-3.000255108
3.099875212,1.848706841,1.599317074,1.40574491,0.174319327,2.956102133,0.471538693,-0.165047854,0.10581436,0.494688392,0.14727512,-0.00736893,-2.985817194
3.104874134,1.269866467,1.318962336,1.256698251,0.67631489,3.560111284,0.176919222,-0.163282767,0.105011456,0.495462775,0.149543166,0.012697479,-2.975493193
3.109874249,0.35266456,0.355616719,0.900630236,0.052605465,4.018368721,-0.373522758,-0.160054773,0.102925465,0.494788289,0.149756745,0.033731803,-2.974094391
3.114875078,0.287953138,-0.818000078,0.289678097,-0.52337116,4.551508427,-0.440998167,-0.158521727,0.101870485,0.494250298,0.148656845,0.056938272,-2.979312897
3.1198771,0.824355364,-1.014019966,-1.366847038,-0.745303512,4.887712002,0.242661506,-0.157342166,0.101058744,0.493836343,0.14642787,0.083255738,-2.978256226
3.124873877,0.810230255,-0.120957345,-2.697366714,-0.503793001,3.90758419,0.358870983,-0.15695104,0.100789584,0.493699104,0.143319294,0.103216529,-2.969218254
3.129871845,-0.077333719,-0.04075909,-1.987136722,0.222871915,3.1303792,0.066961363,-0.165023789,0.100337923,0.490238786,0.143997446,0.116372198,-2.966016769
3.134871244,-0.551745474,0.184253037,-1.390462637,1.185207009,3.667826653,0.045747515,-0.17614457,0.099941544,0.485708475,0.150261328,0.133101135,-2.962140799
3.139877319,-0.564886868,0.665945888,-1.389419436,2.020893335,3.941060543,-0.270212442,-0.184701249,0.099636562,0.482222736,0.159758344,0.151857838,-2.955852985
3.144878387,-0.405241817,0.084024996,-1.316732883,1.656942964,4.248540401,-0.938285828,-0.18753849,0.099535435,0.481066912,0.167748094,0.172917098,-2.956862926
3.149880409,0.240455255,-0.039719924,-0.865422904,1.342178702,4.538643837,-1.247822404,-0.18972154,0.099457629,0.480177581,0.173834175,0.196859494,-2.959393024
3.154877424,0.85379982,0.025452614,-0.9350757,1.007332802,4.838264942,-1.97784698,-0.204894796,0.10277018,0.470555395,0.17702955,0.224202693,-2.963016033
3.159875393,1.673611283,-0.829939902,-1.587430596,0.278462142,4.601356983,-2.213246822,-0.216569588,0.105318964,0.463151783,0.177544266,0.2514714,-2.973072767
3.164874792,2.340100765,-0.793006539,-1.819065809,-0.203136712,3.934170008,-2.130289793,-0.220441326,0.106164075,0.460691869,0.174797311,0.275557578,-2.980759621
3.169874668,2.37039566,-1.163922071,-1.855570316,-0.582048178,3.381183147,-1.921313763,-0.223420948,0.106814317,0.458794057,0.171261892,0.296285957,-2.990612507
3.174875498,2.36784935,-1.244353175,-1.666990161,-0.854673564,2.908342838,-1.544106245,-0.233923912,0.106061868,0.452061623,0.166867748,0.314353853,-2.999302626
3.179877281,2.049539566,-1.235095859,-1.541499019,-1.057649255,2.529755831,-1.094479322,-0.251626343,0.104504049,0.440710217,0.16209273,0.329604775,-3.006300926
3.184874296,1.748090744,-0.880344033,-1.471295476,-1.254968405,2.229973316,-0.601340175,-0.257496148,0.1039875,0.436946303,0.156397045,0.342556655,-3.009044409
3.189872026,1.437241554,-0.191803083,-1.508933544,-1.305359364,1.938683867,-0.27297762,-0.262012511,0.103590056,0.434050202,0.149475485,0.353379071,-3.006813049
3.194870949,1.068918109,0.548503041,-1.526384473,-1.14991796,1.674012065,-0.175229788,-0.263510078,0.103458278,0.433089912,0.14229773,0.362276971,-3.0009377
3.199870825,0.649872065,1.063319564,-1.351080775,-0.895803571,1.458631992,-0.395803481,-0.27923879,0.09479849,0.424422204,0.135136247,0.369671553,-2.994755745
3.204871655,0.328626066,1.062738657,-1.101653337,-0.619136751,1.472398639,-0.629830122,-0.284454137,0.091927066,0.421548158,0.129116565,0.377118617,-2.991317511
3.209873438,0.252328008,0.820400536,-1.027768731,-0.391846776,1.501881838,-0.785650074,-0.28846699,0.089717701,0.419336766,0.124496982,0.38495028,-2.990089893
3.214870453,0.379000306,0.313911051,-0.965255499,-0.236689046,1.484063745,-0.81095469,-0.289797574,0.088985115,0.41860351,0.121598229,0.392854273,-2.991813421
3.219868422,0.604322016,-0.096649215,-0.922405899,-0.186748236,1.474328637,-0.674234688,-0.296484023,0.084376231,0.413247228,0.119931772,0.400968283,-2.994609833
3.224867344,0.805206716,-0.356013805,-0.982099593,-0.207910553,1.35546279,-0.483771592,-0.300102383,0.081847012,0.410285354,0.118819878,0.408642769,-2.997275829
3.229866982,0.904452085,-0.387995154,-0.970561743,-0.274203688,1.168879867,-0.286522239,-0.302886486,0.07990095,0.40800637,0.117691875,0.415180326,-2.998868942
3.23486805,0.901446402,-0.175145879,-1.028234363,-0.338216424,1.033410072,-0.176217377,-0.303809613,0.07925567,0.407250702,0.115907505,0.420992851,-2.998552084
3.239870548,0.784860611,-0.023626499,-1.118021369,-0.34386456,0.824911654,-0.195653662,-0.307280928,0.077407666,0.404329836,0.113619044,0.425486714,-2.997905254
3.244868279,0.601945698,-0.031824809,-1.029774904,-0.320341796,0.683660805,-0.230706558,-0.311216146,0.075432055,0.401002228,0.111510642,0.428958267,-2.998193026
3.249866247,0.52134937,-0.110522486,-0.954107881,-0.301671356,0.701382279,-0.242036968,-0.314244032,0.073911957,0.398441851,0.109662905,0.43259567,-2.999075651
3.25486517,0.516141355,-0.215151846,-1.012960076,-0.288613498,0.708530664,-0.215429634,-0.315248042,0.073407926,0.397592872,0.108145967,0.436342269,-3.000295877
3.259865046,0.524310589,-0.243920133,-1.011441946,-0.262407422,0.670896113,-0.142883077,-0.316020519,0.073020101,0.396939635,0.106968887,0.439789832,-3.001189232
3.264866114,0.545655966,-0.176980495,-0.950022101,-0.227353796,0.629351854,-0.102529161,-0.318968058,0.071103156,0.395273119,0.105888292,0.443089932,-3.001491547
3.269868135,0.542944252,-0.114507109,-0.975826144,-0.258361131,0.618557155,-0.115201607,-0.321236014,0.069628201,0.393990844,0.104493894,0.446350634,-3.001507998
3.274871111,0.529434144,-0.104838274,-0.985653162,-0.259105504,0.532110929,-0.116849989,-0.321988016,0.069139138,0.393565655,0.103020146,0.449079782,-3.001726151
3.279868841,0.559614778,-0.083375759,-0.981409967,-0.26574716,0.493577302,-0.110795721,-0.322566628,0.068762831,0.393238515,0.101496629,0.451692998,-3.001731157
3.284867525,0.519085526,-0.129159585,-0.978054166,-0.271814644,0.410939336,-0.105809681,-0.323822111,0.068040088,0.391675383,0.10005933,0.453794241,-3.002125502
3.289867401,0.522421062,-0.132879496,-0.915284455,-0.286177337,0.408959121,-0.084566623,-0.32586357,0.066879354,0.389001757,0.098605625,0.455915421,-3.002441883
3.294868469,0.588416219,-0.096444421,-1.007859945,-0.30171451,0.369925916,-0.080540322,-0.32654047,0.066494472,0.388115227,0.096957736,0.457984626,-3.002423286
3.299870491,0.587716997,-0.085651301,-1.002172589,-0.326893955,0.250733048,-0.091042928,-0.327061325,0.066198327,0.387433112,0.095117278,0.459350169,-3.002474308
3.304867268,0.46639806,-0.116229415,-0.883183718,-0.354860961,0.249041498,-0.10973423,-0.32723403,0.066100135,0.387206942,0.093167916,0.460537851,-3.003052473
3.309865236,0.421189755,-0.106654175,-0.934206963,-0.359686434,0.302797079,-0.104026943,-0.329220176,0.064710684,0.386939287,0.091188148,0.462080181,-3.003496885
3.314864159,0.404983371,-0.069526531,-0.957014799,-0.336229026,0.295314729,-0.09650103,-0.329878747,0.064249963,0.386850536,0.089292839,0.463473946,-3.0036726
3.319864035,0.412754625,-0.047691859,-0.924082339,-0.3122738,0.324524879,-0.093816668,-0.330385447,0.063895471,0.386782259,0.087519467,0.465055615,-3.003731251
3.324864864,0.446721047,-0.053948212,-0.94355154,-0.296953171,0.341172546,-0.09839496,-0.330553472,0.063777931,0.386759639,0.085823447,0.466814786,-3.003827095
3.329866648,0.489917666,-0.088421136,-0.950042605,-0.292088211,0.320761323,-0.102183089,-0.331676751,0.062167771,0.384930074,0.084220886,0.468474686,-3.0041852
3.334863901,0.51503551,-0.118995629,-0.941864371,-0.30289492,0.287220776,-0.105600961,-0.332295179,0.061257817,0.383875012,0.082588568,0.469998032,-3.004711628
3.33986187,0.522958875,-0.136593491,-0.930258811,-0.327770829,0.260951102,-0.110367887,-0.332771003,0.060557663,0.383063167,0.080832422,0.471385092,-3.005365849
3.344860554,0.53152597,-0.129499808,-0.934478402,-0.348659903,0.227295756,-0.103575043,-0.332928807,0.060325507,0.382793993,0.078947529,0.47262606,-3.005924702
3.349860668,0.520286858,-0.088548727,-0.922549844,-0.357782274,0.192756757,-0.103541642,-0.333535671,0.059487116,0.381893605,0.076938137,0.473664016,-3.006278992
3.354861259,0.496517599,-0.066855028,-0.915303409,-0.360355258,0.173189729,-0.105396383,-0.334226429,0.058543816,0.380895942,0.074869484,0.474579722,-3.006605625
3.359863281,0.489455134,-0.068663441,-0.91485405,-0.36199975,0.155240595,-0.11425551,-0.334757894,0.05781801,0.380128324,0.072789773,0.47539857,-3.007035255
3.364860058,0.492628723,-0.083251089,-0.910091579,-0.366452217,0.140744686,-0.119457088,-0.334934115,0.057577349,0.379873782,0.070715234,0.476165295,-3.007580996
3.369858027,0.497678936,-0.083613575,-0.905044615,-0.37612766,0.126655474,-0.122000203,-0.335069716,0.057392176,0.379677951,0.068578236,0.476871997,-3.008140802
3.374857187,0.504004061,-0.080213048,-0.901081264,-0.383177578,0.115670092,-0.129732952,-0.336113542,0.055826962,0.379540712,0.066375077,0.477540225,-3.008758068
3.379856825,0.500112474,-0.070403732,-0.900024533,-0.384146005,0.101117134,-0.133491397,-0.336916685,0.054622632,0.379435122,0.064132884,0.478128046,-3.009364605
3.384857893,0.489729881,-0.051505055,-0.89203763,-0.37654081,0.090242065,-0.136514828,-0.337182969,0.054223299,0.379400104,0.061898448,0.47864756,-3.009884357
3.389859676,0.474634647,-0.039209593,-0.884256184,-0.361557484,0.084625624,-0.140340865,-0.33738786,0.053916037,0.379373163,0.059709322,0.47912392,-3.010383606
3.394856691,0.461874872,-0.031841397,-0.881647527,-0.340200305,0.086048149,-0.137991577,-0.337689757,0.052836791,0.379132837,0.057633124,0.479590237,-3.010883331
3.39985466,0.449939579,-0.021202166,-0.881484091,-0.319840819,0.090603903,-0.130087212,-0.338158607,0.051018115,0.378713936,0.055658378,0.480067551,-3.011303186
3.404853582,0.446876228,-0.001500795,-0.883176446,-0.293177962,0.096830875,-0.119357303,-0.338314056,0.050415076,0.378575057,0.053819377,0.480560184,-3.011550426
3.409859419,0.437067151,0.007428841,-0.879576921,-0.262770772,0.106629774,-0.111592256,-0.338433653,0.04995108,0.378468215,0.052145921,0.481094867,-3.011725664
3.414860249,0.428510666,0.010949878,-0.877441823,-0.23300077,0.117512189,-0.104428619,-0.33847332,0.049797226,0.378432781,0.050639629,0.481668919,-3.011856318
3.41986227,0.425511777,0.010592504,-0.877964258,-0.209397882,0.126764789,-0.095034108,-0.338541716,0.047855239,0.377993435,0.04927944,0.482282579,-3.011991024
3.424859285,0.432058126,0.011058153,-0.87866503,-0.187950611,0.139938965,-0.089625113,-0.338564396,0.047211315,0.377847731,0.048035856,0.482978761,-3.012059212
3.429857254,0.439040303,0.007621745,-0.883033991,-0.165994883,0.146662861,-0.0804931,-0.33858186,0.046715856,0.377735645,0.046930727,0.483711332,-3.012109995
3.434856176,0.446549147,0.006094443,-0.881827533,-0.147713438,0.150874913,-0.076639012,-0.338587642,0.046551574,0.377698481,0.045938771,0.48446092,-3.012139559
3.439856052,0.4548482,0.007292285,-0.883125424,-0.129513979,0.152963176,-0.072512612,-0.339021832,0.045779318,0.37828365,0.045050371,0.485235274,-3.012149096
3.444857597,0.461013824,0.004595978,-0.880357146,-0.113034852,0.148431659,-0.072046913,-0.339272171,0.045363434,0.378629565,0.0442474,0.485993147,-3.012161016
3.449859619,0.471369833,-0.014449069,-0.87911582,-0.104249716,0.142291978,-0.072261944,-0.339464784,0.045043439,0.37889573,0.043528687,0.486732394,-3.012290001
3.454856634,0.481527776,-0.028866211,-0.874756634,-0.09870737,0.130655572,-0.065828823,-0.33952865,0.044937335,0.378983974,0.042873736,0.487419426,-3.01245141
3.459854603,0.492244333,-0.039778333,-0.881936729,-0.105085708,0.114950374,-0.06153331,-0.339624941,0.044335444,0.378780812,0.042213228,0.488048196,-3.012635946
3.464853287,0.498413116,-0.039422937,-0.878612995,-0.116739497,0.096392862,-0.058024686,-0.339704424,0.043611255,0.378440052,0.041488335,0.488573432,-3.012799025
3.469853163,0.497496724,-0.042286638,-0.877543688,-0.135128424,0.078621089,-0.051387362,-0.339765579,0.043054041,0.378177881,0.040690199,0.489006221,-3.012949467
3.474853992,0.495314091,-0.04117582,-0.877577484,-0.152867377,0.058136508,-0.051925454,-0.339785874,0.042869277,0.378090948,0.039789617,0.48933509,-3.013104677
3.479856014,0.483769834,-0.033852667,-0.873010933,-0.168757707,0.04601641,-0.047161065,-0.33980149,0.042727116,0.378024071,0.038814828,0.489582002,-3.013198853
3.484853268,0.467040539,-0.020637363,-0.881494999,-0.176531807,0.030677443,-0.041697331,-0.340474814,0.042072184,0.376716793,0.03777995,0.489723802,-3.013229132
3.489851236,0.447132409,-0.009488686,-0.8765589,-0.17938675,0.032333869,-0.035782568,-0.340992868,0.041568257,0.375710934,0.036737975,0.489839345,-3.013191462
3.494850159,0.441704303,0.000138645,-0.882384479,-0.172824994,0.031329114,-0.026900325,-0.341164649,0.041401166,0.375377417,0.035745185,0.489960015,-3.013041973
3.499850512,0.432247609,0.011620278,-0.870183051,-0.165602505,0.037983451,-0.015924517,-0.341296822,0.041272599,0.375120789,0.034796629,0.490098655,-3.012795448
3.504851103,0.43234399,0.020765863,-0.875693381,-0.153085679,0.04088375,-0.003951106,-0.341499776,0.040772036,0.375043988,0.033932507,0.490264565,-3.012428522
3.509853125,0.426023543,0.021086853,-0.86640209,-0.136189282,0.04908549,0.01154195,-0.341816783,0.039923847,0.374993265,0.033214301,0.490459144,-3.011999607
3.51485014,0.424448133,0.020737816,-0.866529167,-0.118260108,0.057562012,0.030263184,-0.341921896,0.039642602,0.374976426,0.032633327,0.490693927,-3.011468887
3.51984787,0.417692423,0.02741931,-0.865414679,-0.097760096,0.067180909,0.055423334,-0.342002809,0.039426204,0.374963492,0.032205705,0.490957886,-3.010756254
3.524846792,0.411853552,0.0386043,-0.867259204,-0.065446407,0.075316653,0.086366601,-0.342029631,0.039354451,0.374959201,0.032005467,0.491247237,-3.009811163
3.529846668,0.405864269,0.056200795,-0.870459139,-0.029578563,0.085800067,0.120935656,-0.341854662,0.038967535,0.375967413,0.032057613,0.491568506,-3.008579016
3.534847498,0.404265642,0.070363872,-0.86946559,0.011662273,0.096765757,0.152388468,-0.341796637,0.038839243,0.376301706,0.032387402,0.491952419,-3.007090807
3.53984952,0.394416571,0.076503836,-0.863760531,0.056154102,0.117349423,0.187286347,-0.341751993,0.038740531,0.376558959,0.033021919,0.492417246,-3.005413055
3.544852734,0.401116461,0.087614439,-0.867599964,0.108864583,0.134516209,0.214164227,-0.341737181,0.0387078,0.376644254,0.033974297,0.492979288,-3.003502607
3.549851179,0.409376562,0.08206737,-0.867350519,0.166239664,0.151950032,0.239775091,-0.341826648,0.038987022,0.376490861,0.035296001,0.493631154,-3.001489639
3.554850101,0.407581002,0.076882198,-0.874657571,0.220851809,0.162287951,0.264728606,-0.341881275,0.039154932,0.376385808,0.036997899,0.494304001,-2.999351501
3.559849739,0.425995946,0.055706657,-0.872931242,0.268251836,0.172487453,0.272663027,-0.341923296,0.039284129,0.376304984,0.038969602,0.495064706,-2.997279406
3.564850807,0.456512064,0.022665037,-0.889689863,0.3075881,0.16812861,0.288918197,-0.341937214,0.039326966,0.376278192,0.041253809,0.495830774,-2.995275974
3.569852352,0.466090143,-0.008782377,-0.902084768,0.332786977,0.154617101,0.305574536,-0.342563897,0.040198166,0.375241071,0.043770395,0.496527523,-2.993321896
3.574849606,0.484229416,-0.027218658,-0.889388621,0.343472689,0.142624736,0.300907671,-0.343392819,0.041332316,0.373872161,0.046300035,0.497158468,-2.991430998
3.579847097,0.506097615,-0.05055185,-0.899490714,0.344941169,0.127967268,0.296832502,-0.344030619,0.042204969,0.372818887,0.048872698,0.497757465,-2.989690065
3.58484602,0.517627537,-0.067650199,-0.909307837,0.338051319,0.097780809,0.296290725,-0.344242096,0.042494323,0.372469634,0.051450022,0.498228401,-2.988013983
3.589845657,0.509517968,-0.08650928,-0.882428467,0.310037494,0.090078421,0.276628494,-0.344404787,0.042716965,0.372200936,0.053812291,0.49859944,-2.986562729
3.594847202,0.515504837,-0.106709167,-0.896423042,0.282299429,0.084254518,0.260408044,-0.344487876,0.044726327,0.37285167,0.056028217,0.498993188,-2.985261917
3.599849224,0.528825223,-0.113243982,-0.90149194,0.250953913,0.068739288,0.24239403,-0.344551802,0.046272393,0.373352349,0.05805121,0.499309927,-2.984076023
3.604846239,0.510119915,-0.115007132,-0.901990771,0.214987144,0.052330136,0.228380576,-0.344572991,0.046785038,0.373518378,0.059858892,0.499530107,-2.982998371
3.609844208,0.518394649,-0.111296624,-0.887931406,0.181597859,0.051191807,0.199328512,-0.344589293,0.047179483,0.37364614,0.061378665,0.4997693,-2.98203969
3.61484313,0.518074632,-0.121822268,-0.895577252,0.149500355,0.046638217,0.18555963,-0.344771385,0.048147313,0.373466283,0.062744394,0.499988109,-2.981229305
3.619843006,0.523811817,-0.111397959,-0.89524579,0.112703405,0.046403818,0.166730464,-0.345090121,0.049738366,0.373103201,0.063837238,0.500218511,-2.980414391
3.624843836,0.506279945,-0.100794509,-0.898585737,0.083784558,0.034758668,0.149336398,-0.3451958,0.050265931,0.37298283,0.064720213,0.500342667,-2.979680777
3.629845858,0.493795276,-0.082209341,-0.894587398,0.058889929,0.036319256,0.133885562,-0.345277101,0.050671853,0.372890204,0.065395147,0.500479221,-2.978932858
3.634842634,0.468047619,-0.076230071,-0.891405582,0.039853569,0.048695099,0.127363935,-0.345304072,0.050806452,0.372859508,0.065958232,0.500649512,-2.978228331
3.639840603,0.461362183,-0.065277241,-0.892047286,0.027277289,0.065968484,0.12181925,-0.345343471,0.052515373,0.371372998,0.066433109,0.500894487,-2.977448702
3.644839764,0.453347713,-0.063212968,-0.893778801,0.022504471,0.080048308,0.121117108,-0.345356524,0.053082019,0.370880097,0.066877507,0.501218915,-2.97669363
3.64983964,0.436762422,-0.045795124,-0.888557553,0.030409601,0.099849828,0.124851972,-0.345366567,0.053518016,0.370500863,0.067360356,0.50159359,-2.975804567
3.654840231,0.437130123,-0.044181615,-0.894170702,0.031599876,0.126685143,0.131605268,-0.345369905,0.053662583,0.370375097,0.06786564,0.502129018,-2.974885702
3.659842253,0.437825859,-0.035334412,-0.894510746,0.034904927,0.146878734,0.13555567,-0.344942063,0.054127086,0.370972812,0.06839744,0.5027439,-2.973853827
3.664839506,0.424224079,-0.029999454,-0.898858249,0.04037432,0.174394473,0.144706339,-0.344693691,0.054368522,0.371342868,0.068957433,0.503478408,-2.972780228
3.669837236,0.394995153,0.00133058,-0.884842455,0.060981724,0.204581976,0.160373881,-0.344502598,0.054554291,0.371627599,0.069624536,0.50430429,-2.971425772
3.674836159,0.387109816,0.010076641,-0.898724973,0.088338576,0.247534111,0.171517223,-0.344439238,0.054615889,0.371722013,0.070461348,0.505354106,-2.969980717
3.679842234,0.398786068,-0.002890539,-0.908799529,0.113608249,0.271671772,0.192032531,-0.344973624,0.055016395,0.37136969,0.071528047,0.506518483,-2.968470097
3.684843302,0.388550431,-0.030671708,-0.917435169,0.129523441,0.294918954,0.22139594,-0.345738828,0.055505268,0.370824337,0.072824419,0.507761061,-2.966930389
3.689845324,0.404057801,-0.045580491,-0.904464304,0.132961437,0.317778736,0.234232977,-0.346327603,0.055881426,0.37040472,0.074193917,0.509131253,-2.965360641
3.6948421,0.42671442,-0.048404016,-0.911807716,0.125658512,0.355434924,0.243292093,-0.346522838,0.056006152,0.370265603,0.075541914,0.510727167,-2.96370244
3.699840307,0.413030863,-0.04444997,-0.914491355,0.123584732,0.365078241,0.258714885,-0.346673042,0.056102119,0.370158553,0.076927349,0.512312591,-2.961955547
3.70483923,0.427698821,-0.05863608,-0.898120582,0.114213556,0.408270299,0.230131269,-0.347507417,0.057043638,0.368061781,0.078231722,0.51416254,-2.960357666
3.709838867,0.450682819,-0.112725236,-0.918340206,0.07898806,0.442304969,0.220581368,-0.348149389,0.057768073,0.366448432,0.079387799,0.516224086,-2.959192514
3.714839697,0.464906394,-0.081179768,-0.895573437,0.05680266,0.465260625,0.206417397,-0.348362267,0.05800828,0.36591351,0.08040645,0.518394589,-2.957710266
3.719841719,0.512140512,-0.128111094,-0.914444387,-0.00068113,0.510757864,0.159154072,-0.348526061,0.058193102,0.36550191,0.08102119,0.520912528,-2.956851721
3.724838972,0.532408774,-0.154927343,-0.928806543,-0.071328849,0.505542576,0.137797549,-0.349111319,0.058891252,0.3645657,0.081300668,0.523393452,-2.956146955
3.729836702,0.53060782,-0.161678091,-0.903526545,-0.149516478,0.518969297,0.10925775,-0.350098521,0.060072403,0.363036722,0.081093058,0.525925875,-2.955612183
3.734835625,0.518754542,-0.168807134,-0.916495502,-0.220979452,0.55144316,0.074751496,-0.350425839,0.060464051,0.362529725,0.08046589,0.528644264,-2.955319881
3.739835501,0.490460664,-0.128487915,-0.907720864,-0.261101753,0.578945279,0.035233207,-0.350677669,0.060765397,0.362139642,0.079426348,0.531442106,-2.955005169
3.74483633,0.505956948,-0.156992972,-0.920033514,-0.317073226,0.638981462,-0.02294288,-0.350761175,0.060865317,0.3620103,0.078044437,0.534609497,-2.955214024
3.749838352,0.512491524,-0.180937439,-0.952590406,-0.392772436,0.658660054,-0.036312919,-0.352499634,0.061216701,0.358905554,0.076281257,0.537884057,-2.955663919
3.754835606,0.494630665,-0.131896168,-0.917492032,-0.44156763,0.698545814,-0.063026898,-0.353076071,0.061333213,0.357876092,0.074055322,0.541287243,-2.955883741
