Time,inertial-6253.76535:scaledAccelX,inertial-6253.76535:scaledAccelY,inertial-6253.76535:scaledAccelZ,inertial-6253.76535:scaledGyroX,inertial-6253.76535:scaledGyroY,inertial-6253.76535:scaledGyroZ,inertial-6253.76535:scaledMagX,inertial-6253.76535:scaledMagY,inertial-6253.76535:scaledMagZ,inertial-6253.76535:roll,inertial-6253.76535:pitch,inertial-6253.76535:yaw
0,0.4251792728900909,0.3548490703105927,-0.834187746,-0.008331796,-0.007830638,-0.003889642,0.047043998,-0.034594744,0.2587766647338867,-0.387708634,0.43936795,-0.419802606
0.00499712,0.4246775507926941,0.3555075228214264,-0.83407867,-0.008649497,-0.009145344,-0.005489702,0.047047436,-0.034609746,0.2587749361991882,-0.387777209,0.4393175840377808,-0.419836044
0.009995264,0.4271581470966339,0.3532858192920685,-0.835524857,-0.007118296,-0.009618444,-0.004327059,0.047005396,-0.034780737,0.2579026222229004,-0.387833536,0.4392732977867126,-0.419849366
0.014994432,0.4232144355773926,0.3545926809310913,-0.83386296,-0.009515477,-0.007611314,-0.003904706,0.0469804,-0.034876887,0.2573978304862976,-0.387909174,0.439223588,-0.419869721
0.019994369,0.4239321947097778,0.3589794337749481,-0.834599137,-0.008072383,-0.006161151,-0.003369953,0.046961166,-0.034950871,0.2570094168186188,-0.38798368,0.4391818642616272,-0.419907451
0.024995329,0.4225603342056274,0.3594917953014374,-0.835289955,-0.006962995,-0.008148368,-0.003860303,0.046954788,-0.034975402,0.2568806409835815,-0.388042569,0.4391276836395264,-0.419939101
0.030003712,0.4244293570518494,0.3585130870342255,-0.835356593,-0.007471233,-0.007515962,-0.002776455,0.047198817,-0.034935042,0.2574764788150787,-0.388101637,0.439086378,-0.419961393
0.035007488,0.4260541796684265,0.3547505438327789,-0.834741354,-0.005789819,-0.005771075,-0.002073921,0.047530755,-0.03486193,0.25837481,-0.388152391,0.4390564858913422,-0.419977874
0.040006146,0.4252040386199951,0.3563794195652008,-0.835092723,-0.005389208,-0.007655359,-0.001078705,0.047786158,-0.03480567,0.2590660154819489,-0.38819927,0.4390199780464172,-0.419991016
0.045005057,0.423763096,0.3562078773975372,-0.835659206,-0.005754856,-0.004513356,0.000422297,0.047870845,-0.034787018,0.2592951953411102,-0.388243198,0.4389975965023041,-0.420004547
0.050004993,0.4244130849838257,0.3585665822029114,-0.834088445,-0.005400447,-0.005127216,-0.001094077,0.047936004,-0.034772668,0.2594715356826782,-0.388300478,0.4389674067497253,-0.420025885
0.055005953,0.4217761754989624,0.357489139,-0.834777534,-0.00612582,-0.003735589,-0.000600305,0.047667835,-0.035071719,0.2590251564979553,-0.388355494,0.4389384090900421,-0.420048565
0.060007937,0.4224086999893188,0.3573806285858154,-0.834632874,-0.005245383,-0.003633405,0.000793397,0.047461499,-0.035301816,0.2586816847324371,-0.388396859,0.4389167726039886,-0.420054108
0.065005057,0.4231344163417816,0.3558927774429321,-0.83525598,-0.006120697,-0.004196359,0.000583767,0.04739308,-0.035378113,0.2585678100585938,-0.388449192,0.4388951659202576,-0.420063913
0.070002943,0.4238847494125366,0.3568746149539948,-0.834245503,-0.004215008,-0.002589341,0.001235184,0.047340438,-0.03543682,0.2584801614284515,-0.388492703,0.4388868510723114,-0.420072258
0.075002111,0.4259665906429291,0.3554417490959167,-0.834383607,-0.004868533,-0.005352079,-0.000423528,0.047294937,-0.035400443,0.2581883668899536,-0.388535023,0.4388617277145386,-0.420074046
0.080002047,0.4263190925121307,0.3570906221866608,-0.834169984,-0.004750011,-0.00392111,0.000934341,0.047231574,-0.035315987,0.2576981782913208,-0.388582289,0.4388476312160492,-0.420080245
0.085003011,0.4264238476753235,0.3549012243747711,-0.83304894,-0.005020918,-0.004103226,0.000110402,0.047210563,-0.035287984,0.2575356364250183,-0.38862583,0.4388327598571777,-0.420082718
0.090005763,0.4256965219974518,0.3542439937591553,-0.835018098,-0.0037975,-0.005565996,0.000495402,0.047194395,-0.035266437,0.2574105858802795,-0.388665736,0.4388068318367004,-0.420082152
0.09500365,0.4271260499954224,0.3538805842399597,-0.834614635,-0.004554025,-0.005921461,-0.00132548,0.047189035,-0.035259292,0.2573691308498383,-0.388705611,0.4387812912464142,-0.420085371
0.100001536,0.4270392060279846,0.3547975122928619,-0.833132029,-0.006480347,-0.007513534,-0.002556164,0.04705593,-0.035321891,0.2569990158081055,-0.38876605,0.4387463331222534,-0.42009747
0.10500019,0.4270441234111786,0.3546125590801239,-0.833578289,-0.007342419,-0.006919784,-0.002638804,0.047011796,-0.035342649,0.2568762898445129,-0.388823748,0.4387179315090179,-0.42010653
0.110000126,0.4268076419830322,0.3572387397289276,-0.833161116,-0.007557633,-0.007763405,-0.001737769,0.046977837,-0.035358619,0.2567818760871887,-0.388888001,0.4386746287345886,-0.420120835
0.11500109,0.4252133369445801,0.3583754003047943,-0.833031237,-0.007224252,-0.008760442,-0.001684854,0.046966579,-0.035363913,0.2567505538463593,-0.388948262,0.4386296570301056,-0.420132637
0.120003074,0.4225842952728271,0.3587550222873688,-0.831607163,-0.007438434,-0.00771622,-0.0009814,0.046859566,-0.035366554,0.256676972,-0.389006793,0.4385838210582733,-0.420152724
0.124999933,0.4209224581718445,0.3599675893783569,-0.833085597,-0.006392766,-0.008875052,6.617867620661855e-05,0.046799745,-0.035367072,0.2566403448581696,-0.389063776,0.4385376274585724,-0.420166552
0.12999782,0.4205378293991089,0.3616715669631958,-0.833197176,-0.004960661,-0.005970011,-0.000139242,0.046753719,-0.035367474,0.2566121518611908,-0.389120042,0.4385048747062683,-0.420195937
0.134996742,0.4218661487102509,0.3611359298229218,-0.832609236,-0.005544869,-0.006740861,-0.000843988,0.046738457,-0.035367608,0.2566027939319611,-0.38917309,0.4384623765945435,-0.420213401
0.139996678,0.4221969544887543,0.3596915006637573,-0.833776474,-0.005288039,-0.005678462,0.002570165,0.046808101,-0.035306033,0.2572061717510223,-0.389221609,0.4384405314922333,-0.420225978
0.144997373,0.4222053289413452,0.3630675971508026,-0.833073199,-0.004064619,-0.006127758,0.002821338,0.046913262,-0.035223417,0.2580219805240631,-0.389264196,0.4384060800075531,-0.420237213
0.149999619,0.4239851236343384,0.3589215278625488,-0.83420831,-0.003307918,-0.007738384,0.001656552,0.046994176,-0.035159849,0.2586496770381927,-0.389300942,0.4383738934993744,-0.420249343
0.154996991,0.423930436,0.3569619655609131,-0.834406734,-0.003808072,-0.007657461,0.001415508,0.047021005,-0.035138771,0.2588578164577484,-0.389335096,0.4383397698402405,-0.420258105
0.159995139,0.4248198270797729,0.3536019325256348,-0.83483541,-0.005101783,-0.008309839,0.001478917,0.047041647,-0.035122551,0.2590179443359375,-0.389361501,0.4383063316345215,-0.420243949
0.165000707,0.4224819839000702,0.3561542928218842,-0.834577143,-0.003347697,-0.008398156,0.002734347,0.047048636,-0.035117645,0.259019673,-0.389388084,0.4382674992084503,-0.420243591
0.170001402,0.4241522252559662,0.3559426069259644,-0.834041297,-0.004738444,-0.008522137,0.000485703,0.047054015,-0.035113867,0.259020984,-0.389431179,0.4382267594337463,-0.420255214
0.175002366,0.4251439273357391,0.3540551662445068,-0.833388627,-0.005497359,-0.0085841,-0.000713198,0.0470558,-0.035112616,0.2590214014053345,-0.389467359,0.4381941556930542,-0.420249224
0.180004358,0.425964743,0.3548935949802399,-0.831822336,-0.005321596,-0.009849558,0.001788686,0.04705717,-0.035111651,0.2590217590332031,-0.389507085,0.4381565749645233,-0.420243949
0.185001478,0.4248422980308533,0.354511023,-0.832028091,-0.005567455,-0.009749383,-9.50E-05,0.04717062,-0.035089713,0.2584649324417114,-0.389547199,0.4381060004234314,-0.420238465
0.189999357,0.4237379729747772,0.3567366600036621,-0.832686126,-0.007220123,-0.00962358,-0.001553834,0.04737217,-0.035050977,0.2574733197689056,-0.389600635,0.438055545,-0.420247495
0.194998279,0.4238710105419159,0.3590283691883087,-0.832310557,-0.006893606,-0.010909969,0.000601725,0.047438998,-0.035038132,0.2571445107460022,-0.389650822,0.4380068182945251,-0.420252115
0.199998468,0.4212663471698761,0.3594867289066315,-0.833665907,-0.007326078,-0.009628019,0.001281762,0.047490422,-0.035028249,0.2568915188312531,-0.389712274,0.4379539489746094,-0.420259058
0.204999417,0.4230462610721588,0.35890463,-0.833725572,-0.007652736,-0.008547654,-0.000314338,0.047507472,-0.035024971,0.2568076550960541,-0.389768064,0.4379115402698517,-0.4202694
0.210001409,0.4215186834335327,0.3631187379360199,-0.836170793,-0.006111951,-0.008052387,0.001528655,0.047715191,-0.03514941,0.2580382823944092,-0.389825195,0.4378726780414581,-0.420279831
0.214998528,0.4233691692352295,0.359443188,-0.833418667,-0.005329521,-0.008322188,0.002083026,0.047784064,-0.035190672,0.2584463655948639,-0.389865816,0.43783623,-0.420285136
0.219996423,0.4241554141044617,0.3588435351848602,-0.834873974,-0.004589509,-0.006228354,0.003654942,0.047837056,-0.035222419,0.2587603330612183,-0.389896512,0.437814862,-0.420276344
0.22499533,0.4239995777606964,0.3630133271217346,-0.834607601,-0.002881583,-0.005179918,0.004355278,0.047854628,-0.035232946,0.2588644325733185,-0.389938116,0.4377999603748322,-0.42028451
0.229995266,0.4199350476264954,0.361109734,-0.831399977,-0.002954698,-0.004091672,0.004548402,0.047919393,-0.035248574,0.2582241296768188,-0.38997072,0.4377860426902771,-0.420288593
0.234996483,0.4242987036705017,0.3583296537399292,-0.833924472,-0.001141322,-0.00372085,0.004306393,0.04795355,-0.035255618,0.2578335702419281,-0.389985412,0.4377740025520325,-0.420276493
0.239999235,0.4250227808952332,0.3574458956718445,-0.834635317,-0.002190407,-0.003757053,0.002978469,0.047979832,-0.035261039,0.2575330436229706,-0.390014708,0.4377609491348267,-0.420277596
0.244997382,0.4239655733108521,0.3598887324333191,-0.833590686,-0.000822262,-0.00569113,0.004733305,0.047988545,-0.035262834,0.2574333846569061,-0.390030444,0.4377442896366119,-0.42026332
0.249995261,0.4232115149497986,0.3591228127479553,-0.834282517,-0.001355831,-0.005032787,0.005101885,0.047910217,-0.035258859,0.2577669024467468,-0.390045732,0.437726229,-0.420251697
0.254994184,0.423569918,0.3572496771812439,-0.833765864,-0.000890875,-0.005975674,0.006687433,0.047798499,-0.035252135,0.2582911252975464,-0.390050769,0.4377074241638184,-0.420227289
0.259994358,0.4249793589115143,0.3585244119167328,-0.833939254,-0.001484625,-0.00551407,0.005003769,0.047712542,-0.035246965,0.2586944699287415,-0.39007163,0.4376968741416931,-0.420224339
0.264995337,0.4250155389308929,0.3584295213222504,-0.834501088,-0.001096859,-0.006537487,0.00445226,0.04768404,-0.035245251,0.258828193,-0.390089661,0.4376702308654785,-0.42021367
0.269997299,0.4236961007118225,0.3592635989189148,-0.834869862,-0.001620894,-0.004414245,0.003231975,0.047662109,-0.035243932,0.2589310705661774,-0.39011538,0.4376531839370728,-0.420211375
0.274994165,0.4236898124217987,0.3588286638259888,-0.83327806,-0.000955174,-0.005390596,0.00450101,0.047560338,-0.035448566,0.2585582137107849,-0.390131116,0.4376366138458252,-0.420198202
0.279992312,0.4223083853721619,0.3588140308856964,-0.833871782,-0.000407075,-0.001990024,0.004011465,0.047482029,-0.035606019,0.258271337,-0.390152752,0.4376249015331268,-0.42019397
0.284991235,0.4221546649932861,0.3596302568912506,-0.83387202,0.001694973,-0.00407393,0.005581597,0.047456063,-0.035658225,0.2581762075424194,-0.390153468,0.4376108646392822,-0.420179248
0.28999117,0.4212423264980316,0.3588912487030029,-0.832892835,-0.000660704,-0.004204643,0.006147019,0.047436085,-0.035698395,0.2581029832363129,-0.390168101,0.4375948905944824,-0.420162261
0.294992387,0.4201129376888275,0.3585637807846069,-0.834372461,-6.07E-05,-0.003600589,0.005100408,0.047401335,-0.03565561,0.2578451633453369,-0.39017117,0.4375812709331512,-0.420150399
0.300000519,0.4223870635032654,0.359809935,-0.834471881,0.001590624,-0.000412775,0.007173306,0.04734616,-0.035565954,0.2574105858802795,-0.390177786,0.4375918805599213,-0.420137644
0.305003524,0.4219067692756653,0.3600955903530121,-0.833698094,0.001287529,-0.001483109,0.008225922,0.047327865,-0.035536226,0.257266492,-0.390176117,0.4376004338264465,-0.4201186
0.31000191,0.424073339,0.3608762919902802,-0.832157612,0.002658145,-0.001317783,0.008379678,0.047313787,-0.035513353,0.2571556270122528,-0.390172362,0.4376050531864166,-0.420101285
0.315000832,0.4237533807754517,0.3601976335048676,-0.831330001,0.004132892,-0.00216004,0.008714474,0.047309123,-0.035505768,0.2571188807487488,-0.390161991,0.4376135468482971,-0.420080394
0.320001274,0.4245843291282654,0.3602328300476074,-0.832818031,0.001620197,-0.002088163,0.00855888,0.047433563,-0.035493102,0.2581124007701874,-0.390165001,0.4376230239868164,-0.420065999
0.325002253,0.4246204197406769,0.360097349,-0.835044265,0.002605953,-0.00130078,0.0088301,0.047474824,-0.035488904,0.258441836,-0.390155911,0.4376331567764282,-0.420047492
0.330004215,0.4235179126262665,0.3587798774242401,-0.835846245,0.004217479,-0.001161297,0.008980098,0.047506571,-0.03548567,0.2586953341960907,-0.390131682,0.4376389682292938,-0.420021415
0.335001349,0.4230068027973175,0.3599169254302979,-0.835254908,0.004227811,-0.000380075,0.008406477,0.047517098,-0.035484597,0.258779377,-0.390125751,0.4376529455184937,-0.420016795
0.339999229,0.4225676953792572,0.3597413301467896,-0.837091327,0.005909136,-0.000586372,0.008942884,0.047775559,-0.035599068,0.2578640282154083,-0.390101433,0.4376593828201294,-0.419986963
0.344998151,0.420363575,0.3586278855800629,-0.835584641,0.005732506,-0.001585312,0.008909187,0.047923211,-0.035665553,0.2573180198669434,-0.390083194,0.4376549124717712,-0.419961244
0.349997818,0.4230882823467255,0.3589950501918793,-0.836904407,0.003725169,0.000544876,0.00862431,0.048036821,-0.035716712,0.256897897,-0.390069872,0.4376776516437531,-0.419935405
0.354998797,0.4244452118873596,0.3570961356163025,-0.836141169,0.00423909,0.000912394,0.009257677,0.048074491,-0.035733674,0.2567586004734039,-0.390048534,0.4376998841762543,-0.419900745
0.360000521,0.4234241843223572,0.3590238094329834,-0.835370898,0.002470781,0.002451891,0.008964457,0.048017394,-0.035682864,0.2571484744548798,-0.390038729,0.4377241134643555,-0.419876754
0.364997625,0.424429864,0.3604377508163452,-0.835286915,0.003926309,0.003427715,0.008877462,0.047911659,-0.035601623,0.2577790319919586,-0.390032411,0.4377540349960327,-0.419872165
0.369995534,0.4235287308692932,0.3604415059089661,-0.834000528,0.005383182,0.00161362,0.007814278,0.047830302,-0.035539117,0.2582641839981079,-0.390019596,0.4377748966217041,-0.419865638
0.374994427,0.4248034656047821,0.3580718636512756,-0.835456848,0.003518659,0.002593467,0.009413254,0.047803327,-0.035518389,0.2584250271320343,-0.390007675,0.437808096,-0.41984266
0.379994631,0.4243859648704529,0.3561905026435852,-0.836019933,0.004433777,0.001313102,0.007200118,0.04778257,-0.035502441,0.2585488259792328,-0.389992416,0.4378229081630707,-0.419829339
0.38499558,0.4257148206233978,0.357258141,-0.835938573,0.003366008,0.002243041,0.009144246,0.047383584,-0.03544718,0.2576718628406525,-0.389977634,0.4378519356250763,-0.419802487
0.389997572,0.424305797,0.356915683,-0.835467994,0.002927338,0.001348484,0.007073619,0.04707659,-0.03540466,0.2569970786571503,-0.389971316,0.4378656148910522,-0.419787049
0.394994676,0.4237649440765381,0.3570983111858368,-0.833480835,0.003443151,0.002241909,0.006842099,0.046974797,-0.035390563,0.2567733526229858,-0.389965832,0.4378939867019653,-0.419777244
0.39999333,0.4233143031597137,0.3564203977584839,-0.832378149,0.002435505,0.001060735,0.007075764,0.046896473,-0.035379712,0.2566012144088745,-0.389966488,0.4379064440727234,-0.41976428
0.404992521,0.4225867688655853,0.3577471673488617,-0.834827542,0.001835007,0.001152283,0.005691527,0.046869446,-0.035400167,0.2570697367191315,-0.389965266,0.4379103183746338,-0.419763803
0.409992456,0.4220316410064697,0.3553929924964905,-0.836008012,0.001728498,3.185879904776812e-05,0.007150222,0.046847586,-0.035440225,0.2579617202281952,-0.389956355,0.4379242658615112,-0.419746906
0.414993674,0.4210460186004639,0.3564836084842682,-0.83538568,0.003818703,0.001094897,0.005950559,0.046840336,-0.035453506,0.2582574784755707,-0.389953971,0.4379357397556305,-0.41974467
0.419996172,0.4219811260700226,0.3587768971920013,-0.834293306,0.001910204,0.00116675,0.007277281,0.046834759,-0.035463724,0.2584850490093231,-0.389953971,0.437952071,-0.419740617
0.424993783,0.4236342310905457,0.3573846518993378,-0.833793581,0.003771952,-0.001136422,0.006655403,0.046832912,-0.035467114,0.2585605084896088,-0.38994801,0.4379613399505615,-0.41973719
0.429991931,0.4236655831336975,0.3563306033611298,-0.833466709,0.003023839,0.000880305,0.005966227,0.047161136,-0.035612945,0.2584089040756226,-0.389943123,0.4379709362983704,-0.419725776
0.434996992,0.4246654808521271,0.3546261489391327,-0.835553288,0.001017956,-0.001542634,0.006117147,0.04726997,-0.035661299,0.2583586275577545,-0.389943689,0.4379711151123047,-0.419703126
0.439997435,0.4237724244594574,0.3562676012516022,-0.835806787,0.001871061,-0.001342581,0.006853906,0.047353711,-0.035698503,0.2583199739456177,-0.389940441,0.4379744529724121,-0.419682443
0.444998413,0.4253180325031281,0.3564397990703583,-0.83380419,-0.000213752,0.001300823,0.005685568,0.047381479,-0.035710838,0.258307159,-0.389952332,0.4379926919937134,-0.419672161
0.450000376,0.4252009689807892,0.3564890325069427,-0.835240781,0.000752651,0.000500688,0.00432875,0.04739929,-0.035466306,0.2582944631576538,-0.389960647,0.4380019903182983,-0.419671893
0.454997241,0.4225767850875854,0.3576076924800873,-0.832880676,0.000385356,0.00088944,0.004714619,0.047404315,-0.035322364,0.2582895755767822,-0.389979601,0.438005805,-0.419677377
0.459995896,0.4257118105888367,0.3604485392570496,-0.832672596,0.002391136,0.000318164,0.007751081,0.047408182,-0.035211612,0.2582858204841614,-0.389980674,0.4380239844322205,-0.419668317
0.464994818,0.4245325922966003,0.3597454428672791,-0.834938824,0.00199028,0.001434451,0.007018524,0.047409464,-0.035174888,0.2582845687866211,-0.389982939,0.4380402565002441,-0.419671893
0.469994754,0.422541082,0.3610204756259918,-0.834349036,0.003561915,0.001751408,0.008834479,0.047328901,-0.035235297,0.2578775882720947,-0.389976978,0.4380597174167633,-0.419667423
0.474995703,0.4241313934326172,0.3620404899120331,-0.833606422,0.003572806,0.000624151,0.008554086,0.047219951,-0.035344739,0.2573332488536835,-0.38997215,0.4380741119384766,-0.419654727
0.479997963,0.4258580207824707,0.3610343635082245,-0.834376276,0.004118309,0.001984091,0.009114404,0.047136124,-0.035428945,0.2569144070148468,-0.389965534,0.438099742,-0.419642419
0.484995335,0.4251766800880432,0.361593097,-0.83377862,0.005278894,0.001302616,0.008275114,0.04710833,-0.035456866,0.2567755281925201,-0.389954627,0.4381206631660461,-0.419628173
0.489993215,0.4235783815383911,0.3585481345653534,-0.832877874,0.004171031,0.000864437,0.008972925,0.047086943,-0.035478346,0.2566686868667603,-0.389935911,0.4381417036056519,-0.419605881
0.494992137,0.4246819317340851,0.3573717772960663,-0.834876359,0.005764818,-0.000123392,0.010828126,0.047272127,-0.035376869,0.2578102946281433,-0.389902622,0.4381648600101471,-0.419577062
0.499992311,0.4249970018863678,0.3562049269676208,-0.836319208,0.005109316,0.001047113,0.009649027,0.047414616,-0.035298787,0.2586886882781982,-0.389880091,0.4381832480430603,-0.419556618
0.50499326,0.4235990345478058,0.3572151362895966,-0.83707267,0.004918582,0.003016695,0.008671169,0.047461916,-0.035272911,0.2589786946773529,-0.389858246,0.438209057,-0.419534385
0.509994984,0.4242455959320068,0.3590304553508759,-0.835217059,0.004979157,0.00219621,0.009944507,0.047498368,-0.035253014,0.2592005729675293,-0.389846444,0.4382316470146179,-0.419520259
0.514992118,0.4255340993404388,0.3571790158748627,-0.835127652,0.005163295,0.00217865,0.008563789,0.047539797,-0.03522398,0.2586312890052795,-0.389826655,0.4382593333721161,-0.419501305
0.519990265,0.4251050353050232,0.3565349876880646,-0.834844768,0.004161465,0.001809661,0.008409039,0.047601346,-0.035178941,0.2575432062149048,-0.389811099,0.4382760524749756,-0.419481277
0.524989426,0.4275733530521393,0.3558859527111053,-0.834895313,0.00288293,0.002105632,0.008352887,0.047621753,-0.03516401,0.2571824193000793,-0.389804929,0.4383049607276917,-0.419453502
0.529989123,0.4252331554889679,0.3564046323299408,-0.834063888,0.002418339,-0.000354021,0.005984573,0.047637459,-0.035152521,0.256904811,-0.389798492,0.4383170604705811,-0.419435501
0.534990072,0.4238725304603577,0.3554525077342987,-0.833272457,0.003711188,0.001392781,0.007263333,0.047642667,-0.03514871,0.2568127810955048,-0.389793307,0.4383373260498047,-0.419420749
0.539992332,0.4250055849552155,0.3555304110050201,-0.832896292,0.003093565,0.000734993,0.007481222,0.047325347,-0.035545137,0.256684422,-0.389785409,0.4383554458618164,-0.419393897
0.544989944,0.4249410927295685,0.3564650416374207,-0.834416628,0.002241042,0.00213988,0.006289849,0.047220126,-0.035676587,0.2566418647766113,-0.389780521,0.4383788108825684,-0.419382662
0.549987853,0.4240779876708984,0.3573596477508545,-0.834974289,0.002611153,0.000685099,0.006897528,0.047139168,-0.035777725,0.2566091120243073,-0.389773607,0.4383862614631653,-0.419361115
0.554986775,0.4225422739982605,0.3574670553207397,-0.833794415,0.002507124,-0.000162024,0.007174487,0.047112323,-0.03581126,0.2565982639789581,-0.389767408,0.4383968412876129,-0.419342071
0.559986711,0.4228942394256592,0.3582296073436737,-0.833093405,0.003963081,-0.001754057,0.007721635,0.047233276,-0.035577442,0.2575092613697052,-0.389760315,0.4384000897407532,-0.419333577
0.564987659,0.4238623678684235,0.3591130971908569,-0.832434118,0.003255698,-0.000788721,0.007130225,0.047308426,-0.035435669,0.2580388486385345,-0.389753878,0.4384084343910217,-0.419322342
0.569996059,0.4252336919307709,0.3570412695407867,-0.832913399,0.005205246,-0.001922388,0.007961368,0.047366247,-0.035326581,0.2584463059902191,-0.389729798,0.4384171664714813,-0.419303656
0.574999809,0.424265981,0.3578128218650818,-0.831526339,0.003947086,-0.002368471,0.007769925,0.047385421,-0.035290409,0.2585813999176025,-0.389718413,0.4384257197380066,-0.419293404
0.579998493,0.4250058531761169,0.3593515157699585,-0.833424866,0.005495301,-0.002759247,0.008776571,0.047374714,-0.035325341,0.2580736875534058,-0.389695883,0.438423753,-0.419270515
0.584997356,0.4252279996871948,0.3561662435531616,-0.834549248,0.004251378,-0.003569751,0.00562375,0.047345497,-0.035400216,0.2572885751724243,-0.389680624,0.4384161829948425,-0.419247985
0.589997292,0.4249741733074188,0.3544749915599823,-0.833576083,0.002809017,-0.003183005,0.007102733,0.047323015,-0.035457827,0.2566844522953033,-0.389665276,0.4384158253669739,-0.419208497
0.5949983,0.4254124164581299,0.3579315841197968,-0.834330022,0.002424955,-0.003534793,0.007127745,0.04731556,-0.03547693,0.2564841508865356,-0.389661908,0.4384120106697083,-0.419193804
0.600000739,0.4253147542476654,0.3580465912818909,-0.835118592,0.001911651,-0.002011507,0.006345095,0.047309823,-0.035491627,0.2563300132751465,-0.389663458,0.4384142458438873,-0.419179648
0.604998171,0.4250185489654541,0.3565235435962677,-0.831944287,0.004341445,-0.000922411,0.006078319,0.047306065,-0.035587303,0.2574619650840759,-0.389650404,0.4384171962738037,-0.419161171
0.609996021,0.4256904125213623,0.3579756021499634,-0.83242631,0.002303197,-0.001862439,0.005712317,0.04730317,-0.035660923,0.2583329677581787,-0.389655203,0.43842575,-0.419156492
0.614994943,0.4245576858520508,0.3569034337997437,-0.834780097,0.002132987,-0.001495088,0.005413817,0.047302213,-0.035685334,0.2586217522621155,-0.389650822,0.4384274184703827,-0.419145256
0.619994879,0.4237717092037201,0.3573711216449738,-0.834361553,0.002274804,-0.001108033,0.007693506,0.047301471,-0.035704117,0.2588439583778381,-0.389646232,0.43842721,-0.419126004
0.624995828,0.4245104193687439,0.3571930229663849,-0.834868014,0.002323169,-0.000872662,0.006995282,0.047330569,-0.035742939,0.2585672438144684,-0.389644891,0.4384397268295288,-0.419108033
0.629997849,0.424104244,0.3581109642982483,-0.834822655,0.002701471,-0.001863824,0.006676781,0.047382627,-0.035805762,0.257999986,-0.389643461,0.4384443461894989,-0.419088542
0.634994686,0.423626721,0.3604108691215515,-0.833454728,0.002722278,-0.001638205,0.006347343,0.047399886,-0.035826597,0.2578119039535522,-0.389640749,0.4384461641311646,-0.419080466
0.639992595,0.4224604070186615,0.3597033619880676,-0.83392489,0.003033021,-0.00137244,0.007811469,0.047413167,-0.035842627,0.2576671838760376,-0.389636487,0.4384499490261078,-0.41906178
0.644991994,0.4243851900100708,0.3564253747463226,-0.835377991,0.003478229,-0.000104476,0.005713644,0.047417574,-0.035847943,0.2576192021369934,-0.389625788,0.4384640753269196,-0.419044018
0.649992168,0.4251896440982819,0.3560199439525604,-0.8333413,0.003037524,0.000801408,0.008231061,0.047485258,-0.035913944,0.2583329081535339,-0.389624834,0.4384823441505432,-0.419022262
0.654993176,0.4248490929603577,0.3556279838085175,-0.833675146,0.002702136,0.000602019,0.007096384,0.0475077,-0.03593583,0.2585695385932922,-0.389622867,0.438499242,-0.41900754
0.659995675,0.424871951,0.3562653064727783,-0.833484113,0.00251593,-0.000142042,0.00702617,0.047524966,-0.035952669,0.2587516307830811,-0.389615655,0.4385142028331757,-0.418986171
0.664993525,0.4266919493675232,0.3568601608276367,-0.832383215,0.002883736,-0.001272481,0.007052393,0.047530692,-0.035958253,0.2588120102882385,-0.389613152,0.4385255575180054,-0.418967396
0.669991434,0.4245785772800446,0.3579313158988953,-0.833156288,0.001965761,-0.00098482,0.006355894,0.04714385,-0.036012307,0.2581471502780914,-0.389613092,0.4385278522968292,-0.418949693
0.674990356,0.4240700602531433,0.3569320738315582,-0.835037649,0.00220201,-0.000409837,0.006850688,0.046918761,-0.036042541,0.2577506899833679,-0.389607728,0.4385381042957306,-0.418930918
0.679989994,0.4230124652385712,0.3561024963855743,-0.835128069,0.003039661,-0.002058958,0.005952132,0.046745572,-0.036065806,0.2574456334114075,-0.389603257,0.4385347962379456,-0.41891402
0.684991002,0.4253190755844116,0.3554930686950684,-0.834170461,0.002293901,-0.00010668,0.007760273,0.046688147,-0.036073521,0.2573444843292236,-0.38959232,0.4385541379451752,-0.41888243
0.689992964,0.4257887303829193,0.3553486168384552,-0.834572196,0.002234767,-0.000796476,0.006512468,0.046726078,-0.035965141,0.2573221325874329,-0.389586568,0.4385612010955811,-0.418866098
0.694990098,0.4279493093490601,0.3557847142219543,-0.833624661,0.002264275,0.00089128,0.00696242,0.046821464,-0.035813931,0.2573706805706024,-0.389582038,0.4385832250118256,-0.418843478
0.699994624,0.4258323907852173,0.3580476939678192,-0.832197249,0.0011452,0.000669888,0.008169723,0.046894856,-0.035697587,0.2574080228805542,-0.389591753,0.4386012554168701,-0.418829083
0.704994559,0.4261557459831238,0.3582574427127838,-0.832132876,0.003288951,-0.000927655,0.007412853,0.046919193,-0.035659008,0.2574204206466675,-0.389583349,0.4386126101016998,-0.41881153
0.709994495,0.4234378039836884,0.3580188751220703,-0.830670774,0.002032573,-3.02E-05,0.008938097,0.046937916,-0.035629325,0.2574299573898315,-0.389588773,0.4386270940303802,-0.418799669
0.714995444,0.4236305952072144,0.3582017421722412,-0.832516849,0.003400662,0.001368201,0.006155558,0.047042195,-0.035474606,0.2568128407001495,-0.389583379,0.4386422336101532,-0.418798089
0.719997466,0.4241563677787781,0.35715583,-0.83360672,0.00396732,0.002034589,0.007236566,0.047122426,-0.03535556,0.2563380300998688,-0.389579594,0.4386649131774902,-0.418787479
0.72499454,0.4251166880130768,0.3554845154285431,-0.833848655,0.00155712,0.000890043,0.009106419,0.047149029,-0.035316087,0.2561805844306946,-0.38957268,0.4386888742446899,-0.41876027
0.729992449,0.4240788221359253,0.3583457469940186,-0.833592355,0.003620722,0.00136396,0.008150922,0.047169499,-0.035285719,0.2560594379901886,-0.389567435,0.4387078285217285,-0.418746263
0.734991372,0.4239508211612701,0.3580423891544342,-0.832791924,0.001658527,0.00014113,0.007960207,0.047147106,-0.035271108,0.2564575672149658,-0.38956672,0.4387219250202179,-0.418735921
0.739991307,0.4247356057167053,0.3562186658382416,-0.833582759,0.003267986,0.000402503,0.008396989,0.047100373,-0.035255272,0.2572070360183716,-0.389555603,0.4387355446815491,-0.418714345
0.744992256,0.4223443269729614,0.3561790883541107,-0.833562732,0.003738319,0.0016151,0.008980532,0.047084875,-0.035250019,0.2574555575847626,-0.389539629,0.4387586712837219,-0.418695301
0.749994516,0.4228222966194153,0.35705182,-0.832744062,0.004407114,0.001257584,0.010225887,0.047072951,-0.035245977,0.257646769,-0.389528722,0.4387804865837097,-0.418673456
0.754991889,0.42214036,0.3597784340381622,-0.833502769,0.003532323,0.001961215,0.009446416,0.047068994,-0.03524464,0.2577101588249207,-0.389525503,0.4388014078140259,-0.418665409
0.759989738,0.4244999885559082,0.3615642189979553,-0.832199752,0.004866867,0.001823511,0.009744342,0.046940565,-0.035452351,0.2568077147006989,-0.389514625,0.4388335049152374,-0.418660462
0.764988661,0.424191803,0.3605826497077942,-0.833354115,0.005203596,0.003583466,0.010036143,0.046897981,-0.035521224,0.25650847,-0.389502853,0.438865453,-0.418650955
0.769989133,0.4237240552902222,0.3579570949077606,-0.832775116,0.00744901,0.003501114,0.011558855,0.046865217,-0.035574216,0.2562782168388367,-0.389473855,0.4389021694660187,-0.418614537
0.774990082,0.4258788228034973,0.3553109467029572,-0.834287167,0.007570303,0.003890497,0.010796395,0.046854354,-0.035591785,0.2562018632888794,-0.389434218,0.4389442205429077,-0.418577701
0.779992044,0.4252116978168488,0.3548502624034882,-0.834004521,0.005587559,0.002528429,0.009640433,0.046989027,-0.035495751,0.2573210895061493,-0.3894099,0.4389764666557312,-0.418555528
0.784989178,0.4257453978061676,0.356357068,-0.833190262,0.005318401,0.003115925,0.009005842,0.047069073,-0.035436798,0.2579837143421173,-0.389394581,0.4390096366405487,-0.418535471
0.789987326,0.4252885282039642,0.3559952080249786,-0.833015025,0.005746587,0.003221484,0.009707989,0.047130667,-0.035391435,0.2584935426712036,-0.389365375,0.4390401840209961,-0.418513775
0.794986725,0.4252122640609741,0.3554948270320892,-0.834306002,0.005098682,0.003279057,0.00801629,0.047151089,-0.035376392,0.2586625814437866,-0.38935101,0.4390698671340942,-0.418500841
0.79998666,0.4246671497821808,0.3583381772041321,-0.832969069,0.003216647,0.002895494,0.007940166,0.04722314,-0.035367239,0.2586456835269928,-0.389349669,0.4390990138053894,-0.418502599
0.804987669,0.4243278205394745,0.3579431474208832,-0.833242953,0.004983728,0.003779535,0.008187101,0.047303841,-0.035366636,0.2584918737411499,-0.389334202,0.4391312003135681,-0.418496102
0.809990168,0.4242556095123291,0.3585221767425537,-0.832843721,0.005847101,0.001512069,0.009872736,0.04736593,-0.035366174,0.2583735287189484,-0.389317572,0.4391487240791321,-0.418475837
0.814987779,0.4246686398983002,0.3595461845397949,-0.833288014,0.007087098,0.002891804,0.00877329,0.04738652,-0.035366021,0.2583342790603638,-0.389299989,0.4391759037971497,-0.41847229
0.819985926,0.4235572516918182,0.3558835685253143,-0.832635224,0.006085071,0.002838148,0.009389634,0.04740236,-0.035365902,0.258304089,-0.389283031,0.4392053782939911,-0.418453336
0.824984848,0.4250620305538177,0.3577926754951477,-0.833174944,0.006152858,0.003791392,0.010155237,0.047262438,-0.035516828,0.2581444382667542,-0.389259517,0.4392430782318115,-0.418431222
0.829984486,0.4254887700080872,0.3592980802059174,-0.83402729,0.007402651,0.003231917,0.011390152,0.04715478,-0.035632957,0.2580215632915497,-0.389233142,0.4392797946929932,-0.418414474
0.834991634,0.4249314069747925,0.358737439,-0.832502425,0.010132456,0.002245435,0.009842717,0.047119081,-0.035671465,0.2579808235168457,-0.389184535,0.4393111169338226,-0.418393791
0.839993596,0.4260907173156738,0.3549651801586151,-0.834435284,0.008569916,0.003083543,0.011138149,0.047091614,-0.035701092,0.2579495012760162,-0.389140338,0.4393454790115356,-0.41835025
0.844990969,0.4258601665496826,0.3543784320354462,-0.834727585,0.008764801,0.003079256,0.008173161,0.047190893,-0.03550899,0.2581681907176971,-0.389106929,0.4393765926361084,-0.418339014
0.849988878,0.4276614785194397,0.3536612987518311,-0.835845649,0.006166428,0.002315313,0.009015652,0.047376875,-0.035157003,0.2585680782794952,-0.389073104,0.4394083619117737,-0.41830653
0.854988039,0.4296457767486572,0.356349766,-0.833741426,0.006752187,0.001185336,0.007687632,0.047438543,-0.035040289,0.2587006688117981,-0.389052331,0.4394364356994629,-0.418298304
0.859987974,0.4259302318096161,0.3571242690086365,-0.834137022,0.005923399,0.001197454,0.007783882,0.047485992,-0.034950487,0.2588026821613312,-0.389028907,0.439454198,-0.418290794
0.864988923,0.4247563183307648,0.3583111166954041,-0.834381461,0.003904252,0.002642481,0.009078948,0.047501724,-0.034920711,0.2588365375995636,-0.38902691,0.4394796788692474,-0.418287754
0.869991183,0.4241938292980194,0.3582381904125214,-0.83611989,0.004324766,0.002247373,0.007692283,0.047059931,-0.035031449,0.2580534219741821,-0.389008701,0.4394982755184174,-0.418283761
0.874988556,0.4253926575183868,0.3563284277915955,-0.833448589,0.005609452,0.004194644,0.007466211,0.046913441,-0.035068166,0.2577937543392181,-0.388989627,0.4395334124565125,-0.418280125
0.879986405,0.4249955713748932,0.3575831651687622,-0.832762837,0.00486793,0.003662607,0.005388807,0.046800729,-0.035096418,0.25759396,-0.388994008,0.4395546615123749,-0.418295145
0.884985328,0.4257732927799225,0.3576026260852814,-0.833164513,0.005071922,0.003741273,0.004453161,0.046763353,-0.035105787,0.2575277090072632,-0.388991833,0.4395787417888641,-0.418304592
0.889985263,0.426718682,0.3544367253780365,-0.833658993,0.004930212,0.003668234,0.004637093,0.046931997,-0.035263587,0.2580913007259369,-0.388976216,0.4396046102046967,-0.418299556
0.894986212,0.4284209012985229,0.3533136546611786,-0.835628211,0.004784185,0.00523216,0.004482995,0.047036763,-0.035353173,0.2584302723407745,-0.388964057,0.439638078,-0.418293476
0.899988234,0.4230335056781769,0.3560179173946381,-0.833262682,0.003688722,0.004069242,0.005028437,0.047117375,-0.035422102,0.2586910426616669,-0.388961494,0.4396548867225647,-0.418302476
0.90498507,0.4237603843212128,0.3596438467502594,-0.834908485,0.002036251,0.002982576,0.006636259,0.047144104,-0.035444956,0.258777529,-0.388973713,0.4396788477897644,-0.418308258
0.909982979,0.4238804578781128,0.3576145172119141,-0.834058166,0.004385065,0.004360268,0.004558856,0.047136709,-0.035351932,0.2582596838474274,-0.388978243,0.4396979212760925,-0.418325782
0.914981902,0.4255185723304749,0.3549123108386993,-0.834433019,0.000185481,0.005352771,0.006413542,0.047106061,-0.035209548,0.2574986815452576,-0.388990343,0.4397380352020264,-0.418321162
0.919981837,0.4258213639259338,0.3530847430229187,-0.835922062,-1.55E-05,0.004965181,0.005532856,0.047082484,-0.035099994,0.2569131255149841,-0.388997674,0.4397673010826111,-0.418319851
0.924982548,0.425826758,0.3545395731925964,-0.833308578,-0.000132662,0.006646559,0.00609621,0.047074664,-0.035063665,0.2567189633846283,-0.389015377,0.4398075342178345,-0.418321222
0.929985046,0.4252404570579529,0.3543975949287415,-0.833083987,-0.000912959,0.005717685,0.004517334,0.047068648,-0.035035715,0.2565695941448212,-0.389031529,0.4398347735404968,-0.418322563
0.934982657,0.4264195263385773,0.3550044894218445,-0.834085703,-0.002069425,0.005180517,0.00418279,0.047263626,-0.035224084,0.2575463056564331,-0.389056981,0.4398693442344666,-0.418326497
0.939980805,0.4239614307880402,0.3568621873855591,-0.834418118,-0.001367799,0.004237346,0.003197821,0.047413647,-0.035369024,0.2582978010177612,-0.389088303,0.4398905336856842,-0.418347359
0.944979727,0.4240440428256989,0.3581728339195251,-0.834612548,-0.001667023,0.006016334,0.004826537,0.047463391,-0.035417084,0.2585469782352448,-0.389122605,0.4399262368679047,-0.418365449
0.949979663,0.4248887896537781,0.3583885133266449,-0.83469373,-0.001531217,0.007796403,0.004577911,0.047501665,-0.035454061,0.2587386965751648,-0.389151245,0.4399626851081848,-0.4183864
0.954980612,0.4258880913257599,0.3580782413482666,-0.833551049,8.705233631189913e-05,0.006252402,0.004611122,0.047373727,-0.035323363,0.2583656311035156,-0.389171898,0.4399958252906799,-0.418403983
0.959982872,0.4245403409004211,0.3610572516918182,-0.833877206,-0.000241799,0.003589744,0.006356358,0.047133088,-0.035078246,0.2576370537281036,-0.389195383,0.4400175809860229,-0.418416739
0.964979947,0.4261480271816254,0.3570906817913055,-0.832619429,0.001193748,0.004143027,0.005422949,0.047053296,-0.034996968,0.257395476,-0.389202952,0.4400478601455688,-0.41841808
0.969983995,0.4262532889842987,0.3572333753108978,-0.833164632,0.000994575,0.005792009,0.004695324,0.046991903,-0.034934431,0.2572095990180969,-0.389223903,0.4400843381881714,-0.418434024
0.974983156,0.4240934252738953,0.3584432303905487,-0.835597694,0.000221072,0.006811002,0.0061335,0.046971548,-0.034913696,0.2571479678153992,-0.389244139,0.4401224851608276,-0.418450177
0.979983091,0.4240083694458008,0.3602873682975769,-0.835442662,-0.000843647,0.006256455,0.007143364,0.047086369,-0.035156582,0.2586033046245575,-0.389272422,0.4401591420173645,-0.418462276
0.98498404,0.4231428205966949,0.3602021038532257,-0.833307981,0.000201795,0.007339666,0.006637924,0.047124442,-0.035237119,0.2590858638286591,-0.389296055,0.4401990175247192,-0.418477446
0.989985764,0.4262849688529968,0.3579205572605133,-0.834534526,-0.000313498,0.007946389,0.006932895,0.047153734,-0.035299085,0.2594572007656097,-0.389305472,0.4402525424957275,-0.418482572
0.994982898,0.4266210794448853,0.3570412993431091,-0.833631814,0.000709966,0.007721958,0.006460821,0.047163449,-0.03531963,0.2595803141593933,-0.389319003,0.4402983486652374,-0.418488145
0.999980807,0.4267382323741913,0.3559319674968719,-0.834047198,0.000952536,0.008410298,0.004990602,0.046926271,-0.035190478,0.2583419680595398,-0.389335573,0.4403434991836548,-0.418502867
1.00497973,0.4275819361209869,0.3547078967094421,-0.833956122,-0.002220069,0.007027339,0.005119976,0.046787087,-0.035111781,0.2576014697551727,-0.389364392,0.4403902888298035,-0.418513268
1.009979367,0.4277946949005127,0.3520724773406982,-0.833927631,-0.002152253,0.006968223,0.004809841,0.046679996,-0.03505123,0.2570317387580872,-0.389387488,0.4404310882091522,-0.418517888
1.014980555,0.429565966,0.3527393043041229,-0.833331466,-0.001657594,0.008279728,0.002716932,0.046644486,-0.035031151,0.2568428218364716,-0.38941586,0.4404784739017487,-0.4185341
1.019982576,0.4284033477306366,0.3544512689113617,-0.831345379,-0.00308792,0.005743372,0.003592368,0.04653383,-0.035126016,0.2570797502994537,-0.389448017,0.4405094385147095,-0.418547958
1.024979711,0.4267618358135223,0.3577668368816376,-0.831209779,-0.003641647,0.003240456,-0.000102967,0.046413105,-0.035268709,0.2575437724590302,-0.389500916,0.4405217468738556,-0.418584943
1.02997756,0.4266330003738403,0.3558902442455292,-0.831281364,-0.004014703,0.003758927,0.000535377,0.046320215,-0.035378501,0.2579008042812347,-0.389542043,0.4405431151390076,-0.418610424
1.034977078,0.4262422919273376,0.3531718850135803,-0.83158505,-0.003250704,0.00362242,-9.96E-06,0.046289414,-0.035414908,0.2580191791057587,-0.389588743,0.4405563473701477,-0.418637872
1.039976954,0.4286469519138336,0.3532565236091614,-0.834030569,-0.005204076,0.00260665,-4.05E-05,0.046265714,-0.035442919,0.2581102550029755,-0.389628828,0.4405810832977295,-0.418649733
1.044977903,0.4279097020626068,0.3581793010234833,-0.831218004,-0.004385364,0.002206658,0.000367296,0.04709474,-0.035515919,0.2584846615791321,-0.389681667,0.4405834376811981,-0.418666303
1.049979925,0.4258707165718079,0.3584523797035217,-0.8323735,-0.005365588,0.001496771,-0.000690979,0.047732618,-0.035572089,0.2587727606296539,-0.389743447,0.4405877888202667,-0.418705583
1.054977059,0.4246381819248199,0.3584021627902985,-0.835042417,-0.005461346,0.003023423,-0.000251712,0.047944125,-0.035590712,0.2588682770729065,-0.389795601,0.4405995607376099,-0.41873157
1.059974909,0.4260392487049103,0.3578471839427948,-0.835049093,-0.005332662,0.003440812,0.001769286,0.048106864,-0.035605043,0.2589417695999146,-0.389842033,0.4406115710735321,-0.418748349
1.064973831,0.4267700016498566,0.3599265515804291,-0.834632397,-0.004162493,0.002380459,0.001194501,0.04777069,-0.035606753,0.2584775388240814,-0.389896661,0.4406270980834961,-0.418774337
1.069973707,0.4274406135082245,0.3616921007633209,-0.833877385,-0.00456787,0.004138173,0.004913446,0.047117539,-0.035604998,0.2576263248920441,-0.389945984,0.4406518340110779,-0.418786973
1.074974775,0.4270505905151367,0.3597623705863953,-0.834149778,-0.000509224,0.003075829,0.005223063,0.046900965,-0.035604417,0.2573440968990326,-0.389963448,0.4406712055206299,-0.418797135
1.079976678,0.426103264,0.359627366,-0.832673252,0.000943223,0.002969218,0.005220706,0.046734329,-0.03560397,0.2571269273757935,-0.389981747,0.4406961798667908,-0.418804586
1.084973812,0.42601186,0.3556771576404572,-0.833937585,0.000231362,0.002838115,0.006244465,0.046679076,-0.035603821,0.2570549249649048,-0.38999027,0.4407201409339905,-0.41879645
1.089971662,0.4276214241981506,0.3542530536651611,-0.834968448,-0.001149242,0.005139696,0.004900104,0.046831928,-0.035539992,0.2569949924945831,-0.390010953,0.440758228,-0.418790877
1.094970822,0.427179217,0.3557694852352142,-0.836313486,-0.001070948,0.003550606,0.003446743,0.046882611,-0.035518829,0.2569751143455505,-0.390031755,0.4407751858234406,-0.418795884
1.099971294,0.426457018,0.3554625809192657,-0.834800363,-0.002270929,0.004304075,0.003116826,0.046921611,-0.035502546,0.2569598257541656,-0.390057147,0.4408021867275238,-0.418805957
1.104978442,0.4261142909526825,0.3557536602020264,-0.834757984,-0.004307341,0.00498203,0.002608628,0.046934541,-0.035497148,0.2569547593593597,-0.390096545,0.440825492,-0.418816715
1.109980702,0.4267730414867401,0.3540854454040527,-0.835497618,-0.005383145,0.004560065,0.000721067,0.046841722,-0.03538008,0.2579793930053711,-0.390149534,0.4408484101295471,-0.418847084
1.114977837,0.4287668764591217,0.3540004789829254,-0.836312175,-0.006266959,0.00572261,-0.001435933,0.046785515,-0.035313323,0.2585736811161041,-0.390205085,0.4408752918243408,-0.418878704
1.119975924,0.4269289672374725,0.3542996346950531,-0.835764766,-0.006569383,0.005781016,-0.00271745,0.046742268,-0.035261959,0.2590309083461761,-0.390266836,0.4408967792987823,-0.418922037
1.124974847,0.4279583394527435,0.3521482944488525,-0.833217978,-0.008874439,0.007233779,-0.00100525,0.046727929,-0.035244927,0.2591825127601624,-0.390340388,0.4409289658069611,-0.418959022
1.129974842,0.4292692840099335,0.352180153,-0.833084881,-0.009517122,0.006970944,-0.003502388,0.046942644,-0.035242818,0.2585653364658356,-0.390416384,0.4409580826759338,-0.418999255
1.134976029,0.4260563850402832,0.3523567318916321,-0.833095074,-0.01075785,0.008733393,-0.003278807,0.047241479,-0.035253208,0.2576206624507904,-0.390499711,0.4409898221492767,-0.419045359
1.13997829,0.4250372350215912,0.3572105765342712,-0.832091033,-0.012108784,0.006909644,-0.004097434,0.047471415,-0.035261203,0.2568938136100769,-0.390602529,0.4410053491592407,-0.419103503
1.144975305,0.4224388897418976,0.3619442880153656,-0.82985884,-0.011891326,0.007674289,-0.000596249,0.047547657,-0.035263855,0.2566527724266052,-0.390711188,0.4410310685634613,-0.419162571
1.149973512,0.4208292365074158,0.3630044460296631,-0.830635309,-0.011583844,0.012674575,0.000334115,0.047606323,-0.035265896,0.256467342,-0.39081645,0.4410820305347443,-0.419233203
1.154972672,0.4212809503078461,0.3609991371631622,-0.83247149,-0.012646833,0.011708497,-0.000146381,0.046838131,-0.035349183,0.2568332254886627,-0.390915662,0.4411230087280273,-0.419296801
1.159972548,0.4227705597877502,0.3587886393070221,-0.832449138,-0.012074562,0.013449244,0.00134414,0.046247061,-0.035413265,0.2571147680282593,-0.391012698,0.441184402,-0.419349909
1.164973617,0.4219591319561005,0.3600291907787323,-0.828634322,-0.010667871,0.013996718,0.004426361,0.046051074,-0.035434514,0.2572081089019775,-0.39110136,0.4412451982498169,-0.419396818
1.169975519,0.4271835088729858,0.361641914,-0.82758373,-0.010369217,0.015232816,0.005544182,0.045900274,-0.035450865,0.2572799324989319,-0.391186059,0.4413293,-0.419439197
1.174972653,0.4298645555973053,0.3614674210548401,-0.827389538,-0.009271748,0.011685452,0.004948372,0.046047404,-0.03554716,0.2572425901889801,-0.391269088,0.4414011240005493,-0.419475406
1.17997086,0.4293223023414612,0.3578493297100067,-0.826659679,-0.009317604,0.012555862,0.006706017,0.046359938,-0.03571314,0.2571519911289215,-0.391332984,0.4414737522602081,-0.419480532
1.184969783,0.4313092827796936,0.3565821051597595,-0.829850316,-0.008096361,0.011039613,0.007633868,0.046463571,-0.035768174,0.2571219205856323,-0.391392112,0.4415498077869415,-0.41948238
1.189969659,0.4308844208717346,0.3543862998485565,-0.830770671,-0.010283328,0.01138064,0.006749367,0.046543311,-0.035810523,0.2570988237857819,-0.391455114,0.4416207671165466,-0.419478506
1.194970846,0.426952451,0.3582560420036316,-0.829574108,-0.008342695,0.01088124,0.006829808,0.04656975,-0.035824563,0.2570911645889282,-0.391522348,0.4416782557964325,-0.419496447
1.199972868,0.4267418384552002,0.357073963,-0.831149459,-0.007702285,0.010846999,0.006676447,0.046521235,-0.035887253,0.258657843,-0.391584635,0.4417428970336914,-0.419508547
1.204970002,0.4276731610298157,0.3592705130577087,-0.830350399,-0.01023401,0.00994966,0.005023037,0.046505149,-0.03590804,0.2591773271560669,-0.391666979,0.4417917728424072,-0.419542789
1.209967852,0.4280805289745331,0.3570042550563812,-0.831120908,-0.010486958,0.010363271,0.004871604,0.04649277,-0.035924036,0.2595770359039307,-0.391734511,0.4418463408946991,-0.419560075
1.214967012,0.4256017506122589,0.3591066896915436,-0.832094789,-0.008230379,0.007779353,0.005997468,0.046488665,-0.035929337,0.2597095668315887,-0.391794682,0.4418892860412598,-0.419576168
1.219967008,0.4254266619682312,0.3567220568656921,-0.830246806,-0.009417131,0.008290693,0.006695056,0.046342194,-0.035993576,0.2584788501262665,-0.391859621,0.4419359862804413,-0.419575632
1.224967957,0.4234157204627991,0.3590498566627502,-0.83026129,-0.008805938,0.008281351,0.003669763,0.046258166,-0.036029764,0.2577409744262695,-0.391934395,0.4419667720794678,-0.419607371
1.229970694,0.4248794615268707,0.3575083911418915,-0.831261337,-0.007266914,0.007661314,0.006432422,0.04619351,-0.036057606,0.2571732401847839,-0.391988248,0.4420083165168762,-0.419611007
1.234968305,0.4257681965827942,0.3584020137786865,-0.83038336,-0.006892865,0.006414193,0.004737626,0.046172071,-0.036066838,0.2569850087165833,-0.392048419,0.4420498609542847,-0.419620514
1.239972353,0.4286989867687225,0.3572843670845032,-0.830541432,-0.006528266,0.006980625,0.008535118,0.046434421,-0.035994135,0.2566879391670227,-0.392080426,0.4421008229255676,-0.419600546
1.244971275,0.4269481301307678,0.3605903387069702,-0.831392944,-0.007465146,0.006261704,0.008297665,0.046802599,-0.035889547,0.256435901,-0.392135739,0.4421375393867493,-0.419596344
1.249971151,0.43002665,0.3618036806583405,-0.829703629,-0.006831309,0.00462726,0.005541327,0.047085885,-0.035809077,0.2562419772148132,-0.392193496,0.4421709179878235,-0.419603556
1.254972458,0.4311047494411469,0.3617598414421082,-0.828683913,-0.005671096,0.004260766,0.007993726,0.047179818,-0.035782393,0.2561776638031006,-0.392237842,0.4422091841697693,-0.419602007
1.25997436,0.4288318157196045,0.3642594814300537,-0.830495059,-0.00302551,0.003398155,0.006049472,0.047252093,-0.035761863,0.2561281621456146,-0.392274946,0.4422352313995361,-0.419615746
1.264971495,0.4300831854343414,0.3619931638240814,-0.829464555,-0.002328711,0.001416295,0.007384904,0.046832424,-0.035793528,0.2565319538116455,-0.392290592,0.4422563314437866,-0.419602692
1.269969463,0.4295115172863007,0.3591204583644867,-0.830973148,0.00041435,0.001359691,0.006182773,0.046509515,-0.035817891,0.2568426430225372,-0.392306507,0.4422754049301147,-0.419599265
1.274968624,0.4283013343811035,0.3570924997329712,-0.829559922,0.000186562,0.000996798,0.007020507,0.046402443,-0.035825972,0.2569456696510315,-0.392317474,0.4422934651374817,-0.419581801
1.279968739,0.4252038,0.3576461374759674,-0.831654489,-0.001785512,0.002264315,0.006696244,0.046320062,-0.035832189,0.2570249140262604,-0.39234075,0.4423131048679352,-0.419580221
1.284969687,0.4226212799549103,0.358907163,-0.831335366,-0.003812786,0.002502011,0.007362523,0.046349321,-0.035864983,0.2569628953933716,-0.392372817,0.4423263669013977,-0.419576406
1.289972425,0.4210435450077057,0.3629713952541351,-0.831005812,-0.001227675,0.002611093,0.008638687,0.046429042,-0.035921291,0.2568259239196777,-0.392400503,0.4423428773880005,-0.419586271
1.294970393,0.4224149584770203,0.3651274442672729,-0.829799235,-0.000846651,0.005175219,0.006928923,0.046455476,-0.035939962,0.2567804753780365,-0.392434597,0.4423713982105255,-0.419606864
1.299968719,0.4246591627597809,0.3627019226551056,-0.82905221,0.001052747,0.004859437,0.010373709,0.046475813,-0.035954326,0.2567455470561981,-0.392436355,0.442412794,-0.419597387
1.304967642,0.4256750643253326,0.3635328114032745,-0.829454482,0.002757662,0.00567578,0.009466099,0.046482556,-0.035959091,0.2567339539527893,-0.392436385,0.4424587190151215,-0.419597864
1.309967637,0.427663654,0.3611995279788971,-0.829313695,0.005100326,0.005196337,0.009914137,0.045957249,-0.035478804,0.2568663954734802,-0.392423034,0.4425021111965179,-0.419598222
1.314968586,0.428636223,0.3600216507911682,-0.831001103,0.00386335,0.00567338,0.008967834,0.045783069,-0.035319552,0.2569103240966797,-0.392413199,0.442543089,-0.419603556
1.319970846,0.4296479225158691,0.3574047684669495,-0.829888046,0.003532898,0.005529233,0.007654095,0.045649052,-0.03519702,0.2569441199302673,-0.392407387,0.4425896406173706,-0.419597149
1.324968457,0.4319300949573517,0.3585841059684753,-0.829826653,0.00281763,0.004138988,0.009321728,0.045604613,-0.035156388,0.2569553256034851,-0.392398208,0.4426294565200806,-0.419583231
1.329966307,0.4307897686958313,0.3609861135482788,-0.82730037,0.005635361,0.002058579,0.006721186,0.046360753,-0.035439089,0.2576202750205994,-0.392393917,0.4426544308662415,-0.419587791
1.334965467,0.4271494746208191,0.3571033179759979,-0.827633321,0.005416117,0.002295212,0.005210323,0.046807047,-0.035610519,0.2580031454563141,-0.392373025,0.4426696598529816,-0.419580728
1.339966178,0.4318121075630188,0.3568026423454285,-0.830907881,0.004888129,0.002178671,0.003065819,0.047150441,-0.035742424,0.2582977414131165,-0.39236778,0.4426920115947723,-0.419586569
1.344967127,0.4298498928546906,0.3571236133575439,-0.828985512,0.004612447,6.471830420196056e-05,0.003439369,0.047264304,-0.035786163,0.2583954036235809,-0.392364442,0.442699134,-0.4195894
1.349969149,0.4315325021743774,0.3597779273986816,-0.828725219,0.003703059,-0.001239296,0.002340457,0.047130052,-0.035876658,0.2580961287021637,-0.392366886,0.4427020251750946,-0.419595033
1.354966283,0.4295260012149811,0.3572624921798706,-0.830023766,0.004967595,-0.001725208,0.002542785,0.046861812,-0.035963979,0.2576192915439606,-0.392356336,0.4426952004432678,-0.419593334
1.359964132,0.4273343682289124,0.3542583882808685,-0.832391322,0.005075468,-0.004816992,0.001692007,0.046655416,-0.036031168,0.257252425,-0.392340004,0.442669153,-0.419587523
1.364963293,0.4280065298080444,0.352841318,-0.833328307,0.001589538,-0.003936153,0.000630584,0.046586983,-0.036053445,0.2571307718753815,-0.392341822,0.4426547288894653,-0.419577241
1.369963288,0.4296077489852905,0.352730006,-0.831566334,0.000461616,-0.002662666,0.000427766,0.046534322,-0.036070589,0.2570371925830841,-0.392353415,0.4426496922969818,-0.419577003
1.374970675,0.4291132688522339,0.353767604,-0.83029747,-0.002071418,-0.004508345,0.000510143,0.046416808,-0.035972293,0.2570582926273346,-0.392377257,0.4426299035549164,-0.419570148
1.379973173,0.4322836101055145,0.355908602,-0.830848157,-0.002871799,-0.003650816,-0.001811056,0.046326391,-0.035896659,0.2570745348930359,-0.392416656,0.4426165819168091,-0.419592559
1.384971023,0.427866131,0.3559238314628601,-0.829668045,-0.004130509,-0.004990109,-0.004167818,0.04629641,-0.03587158,0.2570799291133881,-0.392463267,0.4425805509090424,-0.419623286
1.389968872,0.4279578328132629,0.3550143837928772,-0.83147192,-0.006520356,-0.003623872,-0.003224407,0.046273343,-0.035852283,0.257084072,-0.392512918,0.4425562024116516,-0.419641137
1.394967794,0.4278953075408936,0.3592469096183777,-0.830389023,-0.008873106,-0.003248379,-0.004142852,0.046322271,-0.035876621,0.256997138,-0.392596811,0.4425288438796997,-0.419683248
1.399968505,0.4298481047153473,0.3614274263381958,-0.829996645,-0.008655498,-0.000632402,-0.004574662,0.046417125,-0.03592642,0.2568410038948059,-0.392678797,0.4425171613693237,-0.419733495
1.404969454,0.4277913570404053,0.3667522668838501,-0.828838408,-0.007923676,-0.000845491,-0.003706678,0.046448573,-0.035942931,0.2567892074584961,-0.392768085,0.4425035715103149,-0.419794291
1.409971476,0.4238522946834564,0.3661329448223114,-0.826229215,-0.008046217,0.001679863,-0.001817383,0.046472773,-0.035955638,0.2567493617534637,-0.392854929,0.4424996674060822,-0.41985774
1.414968371,0.4220161139965057,0.3663036525249481,-0.82904768,-0.006427961,0.005750625,-0.001175868,0.046480797,-0.035959851,0.2567361891269684,-0.392937243,0.4425163567066193,-0.419924736
1.419966698,0.4219897985458374,0.3690211176872253,-0.82970804,-0.003784146,0.006436182,0.001143912,0.046548247,-0.035821844,0.2575426995754242,-0.393002063,0.4425317645072937,-0.419989347
1.424966097,0.4216768443584442,0.3674257397651672,-0.828699172,-0.002117845,0.009582522,0.003975474,0.04657061,-0.035776086,0.2578101456165314,-0.393045932,0.4425749182701111,-0.420039207
1.429966092,0.4258962571620941,0.3661286234855652,-0.830299437,-6.09E-05,0.009498288,0.003145133,0.046587817,-0.035740875,0.258015901,-0.39308548,0.4426220059394836,-0.420083374
1.434967041,0.4251081347465515,0.3657683134078979,-0.83121562,0.001030192,0.009558981,0.004464128,0.046593525,-0.0357292,0.2580841183662415,-0.393113613,0.4426645040512085,-0.420125842
1.43996954,0.4262413382530212,0.3641089498996735,-0.831333935,0.000743883,0.010586431,0.003524679,0.046648584,-0.035871238,0.2583943009376526,-0.393147588,0.4427137970924377,-0.420167655
1.444966912,0.4285757839679718,0.3662202656269073,-0.830295324,0.001928926,0.011599092,0.004389043,0.046679378,-0.035955705,0.2585609257221222,-0.393182516,0.4427797794342041,-0.42021811
1.449964762,0.4286827445030212,0.3674001395702362,-0.828697801,0.002779164,0.014358925,0.005381297,0.04670307,-0.036020692,0.2586891055107117,-0.393206418,0.4428569078445435,-0.420261919
1.454963684,0.4272814691066742,0.3675535619258881,-0.830256999,0.003282125,0.015038805,0.006801311,0.046710923,-0.036042243,0.2587316036224365,-0.393222958,0.4429311156272888,-0.420298964
1.459963918,0.4272635877132416,0.36653018,-0.830155134,0.0027311,0.018334258,0.007517517,0.046578113,-0.036086835,0.2585630416870117,-0.393244952,0.443025529,-0.420346141
1.464964867,0.4267800748348236,0.3691217303276062,-0.828134596,0.00652013,0.017114379,0.008650672,0.046394054,-0.03612987,0.2583042085170746,-0.393255949,0.4431196749210358,-0.420383692
1.469967127,0.429387629,0.3692965507507324,-0.827400982,0.009365303,0.019736983,0.009557056,0.046252429,-0.036162987,0.2581050097942352,-0.393248528,0.4432334303855896,-0.42042762
1.474964261,0.4310992062091827,0.3678037524223328,-0.827747822,0.009962078,0.020497762,0.009386718,0.046205472,-0.036173966,0.2580389678478241,-0.3932347,0.4433464705944061,-0.420472085
1.479962111,0.4330107867717743,0.3656290769577026,-0.827427924,0.012259126,0.020697072,0.010187198,0.046169341,-0.036182411,0.2579881548881531,-0.393206775,0.4434709846973419,-0.420503736
1.484961271,0.4329169988632202,0.3635377585887909,-0.82659024,0.015238372,0.019755261,0.009597527,0.04620504,-0.036132541,0.2582781314849854,-0.393158138,0.443589985,-0.42052874
1.489961743,0.4357264637947083,0.3649439215660095,-0.827291727,0.01626504,0.01990761,0.009660346,0.046232507,-0.03609417,0.2585012316703796,-0.393110782,0.4437042772769928,-0.420555711
1.494962692,0.4353441894054413,0.3644325435161591,-0.828253031,0.021795966,0.016548134,0.008026103,0.046241615,-0.036081448,0.2585752308368683,-0.393033743,0.4437964558601379,-0.42058447
1.499964714,0.4395270347595215,0.3641563951969147,-0.830928683,0.024060899,0.014648072,0.007049971,0.046248622,-0.036071658,0.2586321532726288,-0.392947376,0.4438890218734741,-0.420613527
1.504961848,0.4401916265487671,0.3642034530639648,-0.830118477,0.028357757,0.011382134,0.008125138,0.046141226,-0.036100712,0.258039802,-0.392822087,0.4439695477485657,-0.420613825
1.509965777,0.4378571212291718,0.3638292551040649,-0.831673443,0.032054026,0.01024056,0.006736419,0.045947652,-0.036155727,0.2569659650325775,-0.392686337,0.4440358877182007,-0.420632958
1.514964938,0.4397542476654053,0.364671379,-0.833645344,0.034897219,0.008106406,0.007072173,0.045883469,-0.03617397,0.2566098868846893,-0.392527074,0.4440947771072388,-0.420629382
1.519964933,0.4389760196208954,0.3682394921779633,-0.832282424,0.038629729,0.007671733,0.00720158,0.045834079,-0.036188006,0.2563359141349792,-0.39236334,0.4441482424736023,-0.420646161
1.524965882,0.439026803,0.3694475293159485,-0.831483066,0.041699208,0.007972067,0.00599422,0.045817703,-0.036192663,0.2562450766563416,-0.392191112,0.4442000091075897,-0.420678645
1.529968143,0.4375005662441254,0.3655511438846588,-0.835211515,0.046357807,0.009426506,0.007529811,0.046058342,-0.035851274,0.2575320899486542,-0.391984522,0.4442620277404785,-0.420692772
1.534965515,0.428318053,0.3600123226642609,-0.832976282,0.044521384,0.013191687,0.00455445,0.046138134,-0.035738073,0.257958859,-0.391784787,0.4443263411521912,-0.420720488
1.539963365,0.4218294322490692,0.3528278470039368,-0.835386217,0.040957753,0.021172138,0.00508453,0.046199527,-0.035650976,0.2582871913909912,-0.391602695,0.444418192,-0.420751601
1.544962287,0.4252026677131653,0.3503868281841278,-0.842910886,0.034674343,0.026517896,0.006011181,0.046219882,-0.035622098,0.2583960890769958,-0.391447663,0.4445442855358124,-0.420779467
1.549962282,0.4236910343170166,0.3482668697834015,-0.845921457,0.029152842,0.0342356,0.006137738,0.046040848,-0.035603579,0.2576614320278168,-0.391323239,0.4446998238563538,-0.420814425
1.55496347,0.4153982996940613,0.3478076457977295,-0.845933557,0.022465538,0.043658294,0.007668837,0.045933302,-0.035598356,0.2572153210639954,-0.391229719,0.4448909163475037,-0.420860499
1.559965491,0.4169535338878632,0.3538075387477875,-0.851037681,0.012912574,0.059975263,0.012358965,0.045850556,-0.035594337,0.2568720579147339,-0.391204178,0.4451649487018585,-0.420941114
1.564962268,0.413438469,0.3607337176799774,-0.853963256,0.007733122,0.074750118,0.013898528,0.045823116,-0.035593003,0.2567582428455353,-0.391225427,0.4454975128173828,-0.421070099
1.569960237,0.4083802103996277,0.3642344772815704,-0.857379317,0.000656568,0.09270487,0.01841783,0.04571851,-0.035619207,0.256672591,-0.391295552,0.445922315,-0.421215445
1.574959159,0.4075293242931366,0.3709529936313629,-0.857872725,-0.009954319,0.1144538521766663,0.027202122,0.045599632,-0.035655353,0.2566461563110352,-0.391422987,0.4464488327503204,-0.421371758
1.579959035,0.4047483503818512,0.3772010505199432,-0.860158086,-0.021902688,0.1376875340938568,0.03733784,0.045508161,-0.035683163,0.2566258013248444,-0.391623259,0.4471096396446228,-0.421558768
1.584959745,0.3956103622913361,0.3805432915687561,-0.860898912,-0.036742002,0.1645259857177734,0.053004574,0.045477834,-0.035692386,0.2566190361976624,-0.391888976,0.4478990435600281,-0.421721637
1.589962244,0.3875336050987244,0.3908591568470001,-0.865770519,-0.058153801,0.196869358,0.076720893,0.045454498,-0.035699479,0.2566138505935669,-0.392257631,0.4488722085952759,-0.421869129
1.594959617,0.3733856678009033,0.408103347,-0.878268421,-0.097951747,0.2185235023498535,0.1246786937117577,0.045444343,-0.035548478,0.2567132413387299,-0.392756552,0.4499918818473816,-0.421862692
1.599957466,0.3457513749599457,0.4154146015644073,-0.881523907,-0.155064926,0.2422749549150467,0.1962799280881882,0.045436531,-0.035432294,0.2567896842956543,-0.393418163,0.451316774,-0.421552062
1.604956388,0.2895475924015045,0.378979355,-0.898276269,-0.249180838,0.2832633256912231,0.2915719747543335,0.045433939,-0.035393767,0.2568150460720062,-0.394286692,0.4529183506965637,-0.420723259
1.609956384,0.2928337752819061,0.3658969104290009,-0.916075766,-0.341548592,0.3503327667713165,0.3804426789283752,0.045431945,-0.035364125,0.2568345665931702,-0.395456731,0.4550424516201019,-0.419593394
1.614957333,0.2828348875045776,0.1431654095649719,-1.039051771,-0.659741759,0.4123806357383728,0.5374475717544556,0.045127787,-0.035637122,0.256820947,-0.397341013,0.4576869606971741,-0.417023778
1.619959354,0.1725794523954391,0.2718738913536072,-1.02427721,-0.927066565,0.522229791,0.7492662668228149,0.044586871,-0.036133152,0.2567901611328125,-0.400835007,0.4610952436923981,-0.413905025
1.624956369,0.1188616156578064,0.4668270349502563,-1.017885685,-0.905223072,0.7160765528678894,0.8203721642494202,0.044407513,-0.036297623,0.2567799687385559,-0.404370457,0.4654486179351807,-0.411861777
1.629954576,0.1803547888994217,0.3984443843364716,-1.049284935,-0.988917887,0.8737941980361938,0.9460174441337585,0.04426951,-0.036424175,0.2567721009254456,-0.407864183,0.470903605,-0.409051687
1.634953737,0.2229337394237518,0.4602900147438049,-1.069140315,-1.038901567,1.011719465255737,1.059264540672302,0.044223752,-0.036466137,0.2567695081233978,-0.411627233,0.4772685170173645,-0.406044334
1.639953971,0.2171095460653305,0.5064786076545715,-1.080827832,-1.072531343,1.157893300056458,1.120871305465698,0.042057998,-0.038419444,0.2562843561172485,-0.415610135,0.4843210279941559,-0.403321326
1.644960999,0.2539737820625305,0.5198193788528442,-1.107605338,-1.124272704,1.301227569580078,1.202472091,0.041339874,-0.039067123,0.2561234831809998,-0.419796765,0.4922541379928589,-0.400495529
1.649963021,0.2941879332065582,0.5291616916656494,-1.108488083,-1.191585064,1.425365209579468,1.320423245429993,0.040787328,-0.03956547,0.2559996843338013,-0.424172193,0.5010450482368469,-0.39732635
1.654960155,0.3230495154857635,0.6304371356964111,-1.074184895,-1.181810379,1.525261282920837,1.443648099899292,0.040604115,-0.039730713,0.2559586465358734,-0.428520679,0.5105903744697571,-0.394046247
1.659958005,0.3416225910186768,0.715672493,-1.049103975,-1.082777262,1.605105519294739,1.451799511909485,0.037246939,-0.042233136,0.2560678720474243,-0.432470798,0.5204850435256958,-0.391237795
1.664956927,0.3128078281879425,0.6443599462509155,-1.040892601,-1.034362555,1.686693311,1.426431655883789,0.035337906,-0.043650664,0.2561389207839966,-0.436154425,0.5306070446968079,-0.388606727
1.669956923,0.3420806527137756,0.5772019028663635,-1.077623725,-1.020027161,1.733828902244568,1.417081952095032,0.033869036,-0.044741355,0.256193608,-0.439735442,0.5409787893295288,-0.38592869
1.67495811,0.3980163335800171,0.5519458651542664,-1.102286339,-1.006718278,1.726258277893066,1.433623909950256,0.033381987,-0.045103006,0.2562117278575897,-0.443089157,0.5514036417007446,-0.382973254
1.679960012,0.3743662238121033,0.5387746095657349,-1.103482604,-0.992687106,1.692998528,1.447525978088379,0.030234776,-0.046837553,0.255187064,-0.446269631,0.5616016387939453,-0.37987411
1.684957147,0.3362488150596619,0.5570189952850342,-1.080892801,-0.931682408,1.655173182487488,1.462930083274841,0.026395485,-0.048881203,0.2537999749183655,-0.449053407,0.571607769,-0.376678824
1.689955115,0.2130512744188309,0.5546020865440369,-1.124986172,-0.835737169,1.595797181129456,1.425209045410156,0.023441412,-0.050453652,0.2527326941490173,-0.451272875,0.5810279846191406,-0.373605669
1.694954991,0.1556766182184219,0.6329226493835449,-1.188043237,-0.693358541,1.489082336425781,1.353752136230469,0.022461897,-0.050975047,0.2523788213729858,-0.452926368,0.5895662307739258,-0.370908976
1.699954987,0.162114292,0.7626757025718689,-1.292926073,-0.480767787,1.330078601837158,1.264693737030029,0.021708228,-0.051376224,0.2521065175533295,-0.453626841,0.5970605611801147,-0.368561447
1.704955935,0.068993032,0.8292322158813477,-1.332641602,-0.233159631,1.154501438140869,1.117554664611816,0.016305048,-0.052629936,0.2519749104976654,-0.453264832,0.603158176,-0.366779685
1.709957838,0.1099867224693298,0.8201320171356201,-1.363364816,-0.023857448,0.9886011481285095,0.9608809947967529,0.012147671,-0.053594586,0.251873642,-0.452049494,0.6082255244255066,-0.365344942
1.714954972,0.096356936,0.7868860960006714,-1.384815931,0.1603712439537048,0.7993067502975464,0.8259715437889099,0.010769162,-0.053914446,0.2518400549888611,-0.449928313,0.6121337413787842,-0.363907456
1.719953179,-0.027055858,0.762031078,-1.396728635,0.3150632381439209,0.5968773365020752,0.6493778228759766,0.009708494,-0.054160558,0.251814216,-0.447243571,0.6145013570785522,-0.362933904
1.724952102,-0.157277256,0.7086774706840515,-1.398057461,0.4330164194107056,0.3852753043174744,0.4598642587661743,0.006840079,-0.054056421,0.2510644793510437,-0.444185704,0.6153072118759155,-0.362410843
1.729952216,-0.266274542,0.6264382600784302,-1.374540329,0.5125593543052673,0.2045128345489502,0.2871114909648895,0.002088234,-0.053788476,0.2497381716966629,-0.440898865,0.6148447394371033,-0.362205267
1.734953523,-0.363894492,0.5432812571525574,-1.345225096,0.5391205549240112,0.056146462,0.1536292135715485,0.000512613,-0.053699628,0.2492983937263489,-0.437589496,0.6133960485458374,-0.362172276
1.739956021,-0.44347018,0.4852576851844788,-1.313374162,0.5267623066902161,-0.072986081,0.055836625,-0.000699721,-0.053631268,0.2489600032567978,-0.43442601,0.6111401319503784,-0.362247586
1.744954109,-0.490739226,0.4486803114414215,-1.286534548,0.48841393,-0.19363448,-0.012468928,-0.001101708,-0.053608604,0.2488477975130081,-0.431493819,0.6081956624984741,-0.362373918
1.749952555,-0.508587718,0.4249244332313538,-1.270996094,0.4334698915481567,-0.311503917,-0.052038334,-0.004655483,-0.050828088,0.2488614469766617,-0.428781122,0.6046507954597473,-0.362405598
1.754951477,-0.505131483,0.4060808420181274,-1.264703035,0.366539329,-0.436850637,-0.072864532,-0.005833848,-0.049906123,0.2488659620285034,-0.426273048,0.6005207300186157,-0.362177789
1.759951353,-0.490703404,0.393135667,-1.259254932,0.2977491617202759,-0.559076786,-0.0847333,-0.006740519,-0.049196735,0.2488694489002228,-0.423966438,0.5958576202392578,-0.361671418
1.764952302,-0.475657016,0.3944411873817444,-1.251823902,0.2312083095312119,-0.685832679,-0.09272714,-0.007041154,-0.048961513,0.2488705962896347,-0.421874374,0.5906214714050293,-0.360903889
1.769954562,-0.453941971,0.4075900912284851,-1.243156195,0.176238164,-0.808304787,-0.096702144,-0.008525781,-0.046793643,0.2468690872192383,-0.419947982,0.5848618745803833,-0.359970063
1.774951696,-0.430851847,0.4293362498283386,-1.234496474,0.1369167417287827,-0.928536117,-0.098135978,-0.00932819,-0.045583159,0.2457099258899689,-0.418135434,0.5785916447639465,-0.358846247
1.779955745,-0.411651582,0.4505548179149628,-1.221438527,0.1164350509643555,-1.03809154,-0.101750001,-0.009945589,-0.044651773,0.2448180317878723,-0.416346908,0.5718456506729126,-0.357564986
1.784954906,-0.383938223,0.4664302468299866,-1.20988965,0.1129304245114326,-1.134774089,-0.107958876,-0.010150308,-0.044342943,0.244522288,-0.414520562,0.5647016167640686,-0.35614574
1.78995502,-0.345755696,0.476804793,-1.202663779,0.120947465,-1.221025348,-0.117352426,-0.010513675,-0.043297708,0.243851826,-0.412624151,0.5572198629379272,-0.354642272
1.794956088,-0.302710712,0.4891646504402161,-1.19466424,0.1319345831871033,-1.30053246,-0.134713143,-0.01084174,-0.042136736,0.2431828826665878,-0.410676092,0.5494201183319092,-0.353105068
1.799958229,-0.264742672,0.5002683997154236,-1.180789471,0.1508847177028656,-1.372464657,-0.150265828,-0.011094165,-0.041243445,0.2426681816577911,-0.408646733,0.541320264,-0.351536393
1.804955363,-0.22461161,0.5111521482467651,-1.169035077,0.1732301712036133,-1.433062434,-0.166353002,-0.011177864,-0.040947247,0.242497519,-0.406546384,0.5329949259757996,-0.349966407
1.80995357,-0.191320673,0.5182476043701172,-1.152088284,0.1964430212974548,-1.48500061,-0.184015885,-0.011242265,-0.040719341,0.2423661947250366,-0.404377013,0.5244643688201904,-0.348424494
1.81495297,-0.153878465,0.5250822305679321,-1.137227893,0.2240261733531952,-1.524678946,-0.201986,-0.010936539,-0.039380796,0.2422505915164948,-0.402133286,0.5158016085624695,-0.346960604
1.819952846,-0.108448938,0.5326068997383118,-1.124896049,0.2503275871276855,-1.558130026,-0.218396842,-0.010701303,-0.038350876,0.2421616464853287,-0.399823904,0.5070356130599976,-0.345548272
1.824953914,-0.060612358,0.5412386059761047,-1.117085099,0.2790284156799316,-1.599028111,-0.234541357,-0.010623303,-0.038009375,0.242132157,-0.397422731,0.4981423020362854,-0.34416604
1.829955816,-0.01778952,0.5548387169837952,-1.118700027,0.298334152,-1.649947882,-0.23910363,-0.010563288,-0.037746612,0.2421094626188278,-0.394948244,0.4890685975551605,-0.342741698
1.83495295,0.038380448,0.5628171563148499,-1.126663089,0.2974328994750977,-1.715333939,-0.24608627,-0.010050104,-0.036865398,0.2416455894708633,-0.392463565,0.4797483682632446,-0.341222674
1.8399508,0.108147532,0.5534231066703796,-1.141020536,0.2704662680625916,-1.791743517,-0.264921933,-0.009156457,-0.03538442,0.2408272475004196,-0.390115678,0.470152348,-0.339586139
1.844949722,0.1788793802261353,0.5360258817672729,-1.150872588,0.2156161963939667,-1.880700707,-0.29569006,-0.008860141,-0.034893356,0.2405558973550797,-0.388038188,0.4601901471614838,-0.337826997
1.849949718,0.2421357333660126,0.5203514695167542,-1.162528396,0.1274404525756836,-1.976524353,-0.337477207,-0.008632145,-0.034515515,0.2403471171855927,-0.386443198,0.4497967958450317,-0.336031765
1.854950905,0.2987332046031952,0.5101877450942993,-1.165794969,0.012311773,-2.076312304,-0.39824605,-0.008556546,-0.03439023,0.240277886,-0.385514617,0.4389271140098572,-0.334319413
1.859952927,0.3461637496948242,0.5000224113464355,-1.16024065,-0.119952083,-2.173519611,-0.47527951,-0.006493404,-0.032387756,0.2387982755899429,-0.385378063,0.4275463819503784,-0.332781643
1.864950061,0.3758184909820557,0.4939986169338226,-1.144270062,-0.257791668,-2.263232708,-0.562685847,-0.005809305,-0.031723771,0.2383076697587967,-0.386079133,0.4156619906425476,-0.331505984
1.86994791,0.3974279761314392,0.4927990436553955,-1.117436528,-0.393961161,-2.336974382,-0.656645238,-0.005282938,-0.031212881,0.2379301786422729,-0.387633294,0.403336376,-0.330554485
1.874947071,0.4085436761379242,0.4988681375980377,-1.083918452,-0.514879704,-2.392493725,-0.751058102,-0.005108404,-0.031043481,0.2378050088882446,-0.389974833,0.3906500041484833,-0.330010355
1.879947066,0.4116171598434448,0.5061936378479004,-1.042007446,-0.613502383,-2.429976225,-0.839933753,-0.002916473,-0.030239535,0.2379180639982224,-0.392974228,0.3776835203170776,-0.329847932
1.884948015,0.4097365736961365,0.5139326453208923,-0.996605277,-0.686575949,-2.447199583,-0.914032459,-0.001680502,-0.029806279,0.2380073517560959,-0.396474868,0.3645550906658173,-0.330033481
1.889950156,0.4077185392379761,0.5210320353507996,-0.955078006,-0.727289319,-2.445307493,-0.984153509,-0.000729506,-0.029472917,0.2380760461091995,-0.400304228,0.3513554930686951,-0.330575198
1.894947529,0.4179046452045441,0.5161840319633484,-0.921763718,-0.736500084,-2.430111408,-1.047940254,-0.000414174,-0.029362381,0.2380988299846649,-0.404243559,0.3381814658641815,-0.331394196
1.899945736,0.4229098558425903,0.5065820813179016,-0.889994383,-0.725964308,-2.40584445,-1.10496974,0.001533696,-0.029253164,0.238024577,-0.408198148,0.3250631392002106,-0.332461059
1.904944658,0.4331672489643097,0.4900670349597931,-0.869185627,-0.700866699,-2.376477003,-1.157228589,0.003899133,-0.029192582,0.2379074245691299,-0.412071139,0.3120273351669312,-0.333727986
1.909944534,0.4331765174865723,0.4658077657222748,-0.848418355,-0.669784725,-2.33706522,-1.201876283,0.005719176,-0.029145967,0.2378172874450684,-0.415803701,0.2991234660148621,-0.33518064
1.914951682,0.4357040524482727,0.4376482665538788,-0.832298577,-0.635137141,-2.290975809,-1.247571945,0.006322668,-0.029130511,0.2377873957157135,-0.419388592,0.2863782644271851,-0.336824208
1.919953942,0.4400940835475922,0.4013721346855164,-0.806248605,-0.60861814,-2.231256008,-1.279496193,0.006787014,-0.02911862,0.2377643883228302,-0.42284441,0.2738677263259888,-0.338623405
1.924951077,0.4426868855953217,0.3848856687545776,-0.801505089,-0.57729274,-2.171991587,-1.312726498,0.010438119,-0.029281577,0.2379476726055145,-0.42616123,0.2616114318370819,-0.340592772
1.929948926,0.4549104869365692,0.3643040359020233,-0.800397515,-0.555904567,-2.105204821,-1.33151865,0.013247397,-0.029406961,0.2380886971950531,-0.429365546,0.2496727257966995,-0.342677653
1.934948087,0.4775906503200531,0.3524632453918457,-0.792921126,-0.539856493,-2.0440588,-1.34612608,0.0141789,-0.029448535,0.2381354570388794,-0.432496309,0.2380314022302628,-0.344867229
1.939948559,0.5017720460891724,0.3344849050045013,-0.784822166,-0.528805375,-1.983807206,-1.348766446,0.014895628,-0.029480526,0.2381714284420013,-0.435554475,0.2267142683267593,-0.347102404
1.944949508,0.5274772047996521,0.3377033174037933,-0.784079671,-0.517509162,-1.934236646,-1.346378803,0.017058853,-0.029294988,0.2384355664253235,-0.438545883,0.2156836986541748,-0.349352717
1.94995153,0.5582985281944275,0.3427177667617798,-0.78400898,-0.50395155,-1.891684413,-1.334746361,0.02067036,-0.028953897,0.2388938218355179,-0.44145599,0.2049327790737152,-0.351588905
1.954948664,0.5921958684921265,0.3455572128295898,-0.783566058,-0.486642659,-1.863351107,-1.323372364,0.021867866,-0.028840799,0.2390457689762115,-0.444242418,0.1943833827972412,-0.353757143
1.95994699,0.6137852072715759,0.3372748494148254,-0.794778168,-0.473689556,-1.849000812,-1.310554028,0.022789266,-0.028753776,0.2391626834869385,-0.446894139,0.1839675307273865,-0.355802536
1.964945912,0.6436676383018494,0.3503287434577942,-0.7855165,-0.465934783,-1.843346477,-1.298793316,0.023094786,-0.028724922,0.2392014414072037,-0.449515581,0.1736491024494171,-0.357793003
1.96994555,0.6747121214866638,0.3614799380302429,-0.775827944,-0.44575426,-1.843500018,-1.287582397,0.027052281,-0.028363576,0.2398380041122437,-0.452024281,0.1634268760681152,-0.359682232
1.974946618,0.6923959255218506,0.3749274909496307,-0.772166014,-0.418280303,-1.83636117,-1.279540658,0.028364513,-0.02824376,0.2400490790605545,-0.454380393,0.153283417,-0.361565858
1.979948521,0.7121577858924866,0.3767488896846771,-0.760671198,-0.388157934,-1.830900431,-1.270627856,0.029374184,-0.02815157,0.2402114868164063,-0.456566423,0.1432255208492279,-0.363369942
1.984945655,0.7369555234909058,0.3668290376663208,-0.751413822,-0.362110913,-1.822892547,-1.260948062,0.029708972,-0.028121,0.2402653396129608,-0.458571076,0.1332865953445435,-0.365078866
1.989943504,0.7493335604667664,0.3436242640018463,-0.739031613,-0.343366027,-1.811217427,-1.248950601,0.032908637,-0.027289083,0.2404460161924362,-0.460436463,0.1234590858221054,-0.366683573
1.994942427,0.7462775707244873,0.3141281604766846,-0.714080334,-0.33109203,-1.790287018,-1.233802795,0.034697607,-0.026813196,0.2405403703451157,-0.462192982,0.1137677878141403,-0.368201613
1.99994266,0.735299826,0.2806946635246277,-0.685218453,-0.325099945,-1.757799864,-1.210865378,0.036074098,-0.026447032,0.2406129837036133,-0.46387428,0.1042807176709175,-0.36964035
2.004943609,0.7102640867233276,0.2463100552558899,-0.651842594,-0.32311815,-1.715719819,-1.173669219,0.036530517,-0.026325619,0.2406370639801025,-0.465502828,0.095041491,-0.370964885
2.009945631,0.6777149438858032,0.2159799039363861,-0.619119525,-0.323349655,-1.653372645,-1.126037359,0.03846902,-0.025883174,0.2411460876464844,-0.467092901,0.086164266,-0.372200727
2.014942646,0.6525262594223022,0.1926247328519821,-0.590692103,-0.319393843,-1.576223969,-1.066649318,0.040712435,-0.025384512,0.2418095171451569,-0.468627155,0.077756748,-0.373318672
2.019940853,0.6234380006790161,0.1686728447675705,-0.557890892,-0.309030056,-1.484036922,-1.003484249,0.042438589,-0.025000826,0.2423199713230133,-0.470082104,0.069871768,-0.374372095
2.024940014,0.6192674040794373,0.1626370996236801,-0.541587472,-0.294062585,-1.387492299,-0.929663658,0.04301095,-0.024873601,0.242489219,-0.47144416,0.062625527,-0.375303417
2.02993989,0.609797478,0.1695086061954498,-0.52065599,-0.272319585,-1.285094976,-0.850497842,0.043451339,-0.024775712,0.2426194548606873,-0.472713679,0.055991489,-0.376158535
2.034940958,0.6129626631736755,0.1856312602758408,-0.50812155,-0.233910426,-1.189377666,-0.771625698,0.046591237,-0.024186544,0.2431634664535522,-0.473807156,0.049983531,-0.376896381
2.03994298,0.6262702941894531,0.1938087791204453,-0.508679986,-0.188045681,-1.099698901,-0.698715091,0.049007174,-0.023733221,0.2435820400714874,-0.474657476,0.044568021,-0.377517939
2.044940233,0.6518879532814026,0.19840008,-0.525019467,-0.139892638,-1.023671865,-0.636033833,0.049808253,-0.023582906,0.2437208294868469,-0.475237817,0.039684668,-0.377993971
2.049944401,0.6737225651741028,0.1961266398429871,-0.540226519,-0.101486742,-0.962517262,-0.579334736,0.050424628,-0.023467248,0.243827611,-0.475597501,0.035229776,-0.378308892
2.054943323,0.6759629249572754,0.1881250441074371,-0.5542503,-0.067699492,-0.913299203,-0.536606371,0.051602136,-0.023098957,0.2441322058439255,-0.475776583,0.031073283,-0.378517449
2.059943914,0.6539919972419739,0.1738116294145584,-0.561983228,-0.038889192,-0.857725084,-0.495146424,0.05349214,-0.022481959,0.2446387708187103,-0.475779921,0.027211227,-0.378669918
2.064944983,0.6269482970237732,0.1533742100000381,-0.562962711,-0.018233228,-0.804311633,-0.441747606,0.054118831,-0.022277374,0.2448067367076874,-0.475644141,0.023670813,-0.378687382
2.069946766,0.6003002524375916,0.1403302848339081,-0.560345352,0.002630288,-0.75193733,-0.377474338,0.054601025,-0.02211996,0.2449359744787216,-0.475404561,0.020474507,-0.378539085
2.074944019,0.5711359977722168,0.1339940279722214,-0.555627942,0.033239849,-0.697712541,-0.303311795,0.054760911,-0.022067765,0.2449788302183151,-0.474998415,0.017647276,-0.378210574
2.079941988,0.5425484180450439,0.1267362982034683,-0.544100404,0.075700626,-0.640012503,-0.215767622,0.05722155,-0.021111803,0.2467315196990967,-0.474356443,0.015227905,-0.377650112
2.08494091,0.5252504348754883,0.1118572056293488,-0.546307623,0.1225546449422836,-0.575433314,-0.122352093,0.058037452,-0.020794826,0.2473126798868179,-0.473441601,0.013303385,-0.376805842
2.089940786,0.5304694175720215,0.1045314148068428,-0.553025961,0.1639408767223358,-0.51809293,-0.014902234,0.058665235,-0.020550933,0.2477598488330841,-0.472312391,0.011903493,-0.375572979
2.094941616,0.5500991344451904,0.1119509264826775,-0.556848347,0.2008279412984848,-0.477285147,0.094760008,0.058873396,-0.020470062,0.2479081153869629,-0.471009731,0.010965917,-0.373942077
2.099943876,0.5746192336082458,0.1259882599115372,-0.558636665,0.2289182543754578,-0.448541731,0.1975100934505463,0.059915859,-0.020072171,0.2476928979158401,-0.469585508,0.010428444,-0.371928155
2.104941368,0.61407578,0.1350519806146622,-0.560722649,0.2495181858539581,-0.432180762,0.2932146191596985,0.060479846,-0.019857176,0.2475400567054749,-0.468078405,0.010234546,-0.369502962
2.109939814,0.6538099646568298,0.1417734175920486,-0.552965045,0.2499015182256699,-0.417896003,0.3782097399234772,0.060913797,-0.01969175,0.2474224418401718,-0.466581106,0.010346177,-0.366718829
2.114938736,0.6972613930702209,0.1473570913076401,-0.537265301,0.2295604050159454,-0.404029965,0.440165639,0.061057687,-0.019636899,0.2473834455013275,-0.465231031,0.010728652,-0.363690764
2.119938612,0.7285995483398438,0.1528007537126541,-0.510367513,0.1995458006858826,-0.376615196,0.4771690666675568,0.061527427,-0.019284103,0.2473721355199814,-0.464068592,0.011352268,-0.360599458
2.12493968,0.7405075430870056,0.1584239900112152,-0.476432383,0.1646090596914291,-0.336268693,0.495756596,0.062045224,-0.01885392,0.2473872303962708,-0.463124037,0.012210375,-0.357582331
2.12994194,0.743256688,0.1684585064649582,-0.432515323,0.1263928264379501,-0.268154085,0.4938317537307739,0.062443633,-0.018522924,0.247398853,-0.46243313,0.013366389,-0.354817033
2.134939194,0.7577304244041443,0.1778115928173065,-0.39532277,0.1009723916649818,-0.175348282,0.4833194613456726,0.062575735,-0.018413171,0.2474027127027512,-0.461900592,0.014958053,-0.352374107
2.139936924,0.7843403816223145,0.1940560042858124,-0.359222442,0.086929224,-0.074637227,0.466434509,0.062677383,-0.018328724,0.2474056780338287,-0.461487114,0.017025594,-0.3502931
2.144936562,0.8206743001937866,0.2169157266616821,-0.322979569,0.09366937,0.031207506,0.4539176523685455,0.063007839,-0.018504493,0.2479684948921204,-0.461093366,0.019601759,-0.348568082
2.149936438,0.8687453269958496,0.2357247620820999,-0.294089854,0.1181129813194275,0.1368688195943832,0.4496707618236542,0.063262098,-0.018639734,0.2484015375375748,-0.460603684,0.022728384,-0.347113609
2.154937267,0.9275867342948914,0.2460797280073166,-0.266805142,0.1526901423931122,0.239680216,0.4576555490493774,0.063346408,-0.018684579,0.2485451251268387,-0.459970295,0.02644741,-0.345846295
2.159939289,0.9873045682907104,0.2399126887321472,-0.242874697,0.1855373978614807,0.3335892558097839,0.4803300201892853,0.063411273,-0.018719083,0.2486556172370911,-0.459160358,0.030730847,-0.344623804
2.164936781,-0.37036556,-0.287397444,-0.65640831,0.1855609565973282,0.635274351,0.6927465796470642,0.063325047,-0.018934583,0.2482297122478485,-0.457210869,0.034220915,-0.342650354
2.169934511,1.157433748245239,0.2236357033252716,0.2589375376701355,0.031708483,1.323370695114136,1.077551723,0.063149758,-0.019306732,0.2474343329668045,-0.457708776,0.044926822,-0.341152728
2.174933434,-0.081196189,0.05896005,0.023831215,0.3894326984882355,1.483226776123047,1.309856653213501,0.063091636,-0.019430131,0.2471705973148346,-0.455558598,0.055099592,-0.339126348
2.179933548,-1.070281982,0.4130706489086151,0.07831049,0.4336159527301788,1.851163864135742,1.456343173980713,0.063046917,-0.019525077,0.2469676584005356,-0.45374012,0.063966423,-0.339643478
2.184940815,-0.079246268,0.9083994030952454,-0.584816456,0.4908653795719147,2.112463474273682,1.666673302650452,0.063032091,-0.01955656,0.2469003796577454,-0.452244908,0.077742122,-0.338772267
2.189943075,-0.08790309,0.632244349,-1.184957862,0.2991105914115906,2.174963712692261,1.730011463165283,0.060347341,-0.020333385,0.2475236654281616,-0.450185716,0.091145188,-0.336245149
2.194940329,-0.194317132,0.9656732678413391,-1.300680637,0.2668501734733582,2.359086513519287,1.725696444511414,0.059457127,-0.020590967,0.2477303296327591,-0.449464589,0.1048644185066223,-0.335186303
2.199938297,-0.038005456,1.399034976959229,-1.35821259,0.4030230641365051,2.410801172,1.62989068,0.058772169,-0.020789158,0.2478893548250198,-0.44847554,0.1191112101078033,-0.335703909
2.204937696,0.018037571,1.595129132270813,-1.058773398,0.612571657,2.506850242614746,1.437928676605225,0.058545049,-0.020854874,0.2479420900344849,-0.446974337,0.133084625,-0.337954164
2.209937811,0.1352069228887558,1.085901141166687,-1.114458084,0.6375099420547485,2.797861814498901,1.271004438400269,0.053502537,-0.021272121,0.2476702630519867,-0.444328725,0.1484244465827942,-0.340229362
2.214938879,0.4439131319522858,0.8649015426635742,-0.913090885,0.5389235615730286,3.186517715454102,1.105212450027466,0.050625995,-0.02150121,0.2475028336048126,-0.442623228,0.1659322679042816,-0.343375981
2.219940901,0.5663194060325623,0.6252758502960205,-0.930611253,0.3886870145797729,3.435064315795898,0.9092223644256592,0.048412692,-0.021677477,0.2473739981651306,-0.441606104,0.1842727810144424,-0.347410738
2.224937677,0.8182635307312012,0.5442476868629456,-1.106045127,0.3357884287834167,3.620257139205933,0.7491974830627441,0.047678802,-0.021735925,0.2473312765359879,-0.440883547,0.2033655345439911,-0.352170229
2.229935884,1.180174708366394,0.5979796648025513,-1.405171275,0.3198517560958862,3.568121671676636,0.7056916952133179,0.043560587,-0.021430613,0.2466046959161758,-0.440256357,0.2226138859987259,-0.356356084
2.234934807,1.425867557525635,0.3694961965084076,-1.567049503,0.250063032,3.268475294113159,0.7696114778518677,0.038611695,-0.020976156,0.2456642538309097,-0.43904981,0.2407401949167252,-0.35853219
2.239934683,1.407961010932922,0.1132616698741913,-1.670571446,0.14764066,2.918130159378052,0.8329982161521912,0.03480386,-0.020626482,0.2449406385421753,-0.437752932,0.2571659088134766,-0.359063506
2.244936228,1.420809864997864,-0.03274481,-1.624605417,-0.090120234,2.657562494277954,0.9109127521514893,0.033541251,-0.020510536,0.2447007,-0.4374246,0.272621363,-0.358201504
2.249938488,1.288849353790283,0.084111683,-1.428867579,-0.233298868,2.399961471557617,0.9879319667816162,0.032569762,-0.020421324,0.2445160746574402,-0.437997699,0.2868751883506775,-0.357280016
2.254935503,1.106382846832275,0.2608290612697601,-1.234023333,-0.295686603,2.207153081893921,1.013782620429993,0.024962008,-0.020453494,0.2446484863758087,-0.439181566,0.2999530434608459,-0.35672152
2.25993371,1.142201185,0.4603821337223053,-1.135816932,-0.38034144,2.061258316040039,0.9698331356048584,0.019108357,-0.020478245,0.2447503656148911,-0.441059947,0.3124822378158569,-0.356514126
2.264932632,1.058719277381897,0.7615798115730286,-1.060283303,-0.349232107,1.895189642906189,0.8761319518089294,0.017167397,-0.020486452,0.2447841465473175,-0.44343242,0.3237687945365906,-0.357543498
2.269932985,0.9112723469734192,0.8514752984046936,-0.937439024,-0.291468173,1.747421264648438,0.762784481,0.015673961,-0.020492768,0.2448101341724396,-0.44570002,0.333901048,-0.359156549
2.274934053,0.7957500815391541,0.8112426400184631,-0.868028224,-0.19769606,1.649211168289185,0.6742810010910034,0.012279173,-0.020990497,0.2444721311330795,-0.447457492,0.3432623445987701,-0.360967904
2.279936075,0.6373648047447205,0.6611889600753784,-0.849758506,-0.118212499,1.556552886962891,0.6293121576309204,0.006735173,-0.021874631,0.2438615709543228,-0.448541731,0.3518980741500854,-0.362504661
2.28493309,0.5997143983840942,0.5184047222137451,-0.884196579,-0.06783323,1.474244236946106,0.624528706,0.004896888,-0.022167793,0.2436591237783432,-0.449053705,0.3601505756378174,-0.363401949
2.289931297,0.6026203036308289,0.4655898809432983,-0.917827129,-0.014473727,1.354718208312988,0.6423788070678711,0.003482452,-0.022393361,0.2435033470392227,-0.449111581,0.3679118156433105,-0.363823771
2.29493022,0.6619542241096497,0.4263663291931152,-0.94214195,0.029961897,1.216764092445374,0.6624197363853455,0.003013452,-0.022468155,0.2434516996145248,-0.448682368,0.3751769661903381,-0.36362803
2.299930096,0.6503863334655762,0.3940446078777313,-0.940362632,0.064175993,1.079987645149231,0.6589891910552979,-0.001595787,-0.022460269,0.2416499555110931,-0.447949529,0.3817744851112366,-0.363058865
2.304931164,0.580871582,0.4166697263717651,-0.901508093,0.08300525,0.9753422141075134,0.6384261250495911,-0.003124123,-0.022457656,0.2410525232553482,-0.447163165,0.3877105116844177,-0.362572312
2.309933662,0.5591359734535217,0.485196978,-0.884051621,0.1032430082559586,0.898216724,0.6230279803276062,-0.004300074,-0.022455644,0.2405928522348404,-0.446397275,0.3932506442070007,-0.362240821
2.314931154,0.5651630163192749,0.5505635142326355,-0.890800416,0.1275534331798553,0.8132120370864868,0.5870623588562012,-0.004689997,-0.022454977,0.2404404282569885,-0.445604503,0.3983281850814819,-0.362040758
2.319935083,0.614613414,0.5827428698539734,-0.897033095,0.1704622656106949,0.7087639570236206,0.5466961860656738,-0.007647561,-0.022457112,0.2400150746107101,-0.444605142,0.4029207825660706,-0.361836374
2.324934244,0.5731653571128845,0.5321797132492065,-0.88775301,0.2000275105237961,0.6198244094848633,0.491693527,-0.00928585,-0.022458473,0.2397978007793427,-0.443364143,0.4068747162818909,-0.361566901
2.32993412,0.5662192702293396,0.4520329236984253,-0.904043078,0.2199810296297073,0.5336928367614746,0.4647702276706696,-0.010546402,-0.022459522,0.2396306246519089,-0.441829979,0.4104084968566895,-0.360980749
2.33493495,0.5355007648468018,0.3914363384246826,-0.910230219,0.2282297313213348,0.456987202,0.4469492137432098,-0.010964378,-0.02245987,0.2395751923322678,-0.440130115,0.4135127067565918,-0.360121608
2.339936972,0.5182067155838013,0.3744404911994934,-0.90737462,0.2243411093950272,0.4005981385707855,0.4251190721988678,-0.012211341,-0.022213878,0.2392850816249847,-0.438424736,0.4163031578063965,-0.359251827
2.344934464,0.4738281965255737,0.3809385895729065,-0.886570394,0.2041278779506683,0.3843476176261902,0.3913725614547729,-0.01355794,-0.021883985,0.2389393448829651,-0.436933219,0.4188863039016724,-0.358618736
2.349932432,0.4450360536575317,0.384641021,-0.884159029,0.1753529012203217,0.3889824151992798,0.3542276918888092,-0.014594056,-0.021630155,0.2386732995510101,-0.435689509,0.421387106,-0.3582412
2.35493207,0.4457978904247284,0.3714883923530579,-0.883905649,0.1513854563236237,0.3947588801383972,0.326629251,-0.014937612,-0.021545989,0.2385850995779037,-0.434606344,0.4238811731338501,-0.357965946
2.359931946,0.4968715012073517,0.3420843780040741,-0.911167562,0.1279538571834564,0.3901877701282501,0.3037608563899994,-0.015201955,-0.021481231,0.23851724,-0.433586776,0.426397443,-0.357618421
2.364932775,0.4980614483356476,0.3036700189113617,-0.910386205,0.1076051667332649,0.3543884754180908,0.2790307998657227,-0.016086785,-0.02092942,0.2392750531435013,-0.432615578,0.4286677241325378,-0.357212245
2.369934797,0.4857815802097321,0.2882517278194427,-0.888559759,0.067321703,0.3355668783187866,0.2547687888145447,-0.016767602,-0.02050484,0.2398581504821777,-0.431871116,0.4307865798473358,-0.356872976
2.374932289,0.5086331963539124,0.2966185510158539,-0.899478018,0.016517289,0.3063842952251434,0.2214740067720413,-0.016993349,-0.020364055,0.2400514930486679,-0.431472272,0.4327386915683746,-0.356668532
2.379930019,0.4889601171016693,0.2937401831150055,-0.883235931,-0.03499157,0.2821450233459473,0.19476372,-0.017167045,-0.020255731,0.2402002513408661,-0.431372494,0.4344770610332489,-0.356554329
2.384928942,0.4781906008720398,0.3114337027072906,-0.880034745,-0.080612272,0.2675187587738037,0.1803319007158279,-0.0177837,-0.020099726,0.2395878583192825,-0.431539416,0.4361160397529602,-0.356534392
2.389929056,0.4607227742671967,0.3469046950340271,-0.871636689,-0.109520406,0.2619449496269226,0.160394624,-0.018823471,-0.019858262,0.2384475618600845,-0.431969792,0.4376524984836578,-0.356739879
2.394929886,0.4589270353317261,0.3709891438484192,-0.856613517,-0.119195104,0.2759520709514618,0.1346457600593567,-0.019168239,-0.019778196,0.2380694597959518,-0.432538271,0.4392059445381165,-0.357188106
2.399932146,0.4597026109695435,0.3609788417816162,-0.84344691,-0.109093592,0.3055539727210999,0.1038625240325928,-0.019433515,-0.019716593,0.2377785295248032,-0.433143348,0.4408634901046753,-0.357846379
2.404929161,0.4348948895931244,0.3624801635742188,-0.821872711,-0.086222753,0.3477088809013367,0.083593652,-0.019521475,-0.019696165,0.2376820743083954,-0.433718383,0.4426248669624329,-0.358746707
2.409927368,0.427149773,0.4008414149284363,-0.821559548,-0.053453725,0.3951047956943512,0.062286254,-0.020377075,-0.019785296,0.2392632812261581,-0.434291601,0.4445527195930481,-0.360006452
2.414926529,0.4144145846366882,0.4441125690937042,-0.792459548,-0.006106874,0.4379007518291473,0.051633347,-0.020660777,-0.019814851,0.2397875785827637,-0.434787393,0.4466389417648315,-0.361593455
2.419926882,0.4133611023426056,0.4731133580207825,-0.775793552,0.051080007,0.4763295650482178,0.058728147,-0.020879066,-0.01983759,0.2401909828186035,-0.435058266,0.4489184319972992,-0.363291085
2.424927711,0.4274449944496155,0.5026180744171143,-0.769926786,0.1165455728769302,0.4982602000236511,0.080802672,-0.020951446,-0.01984513,0.2403247505426407,-0.435021192,0.451368123,-0.364997864
2.429930449,0.4311108291149139,0.5394012928009033,-0.75880754,0.1754924058914185,0.5002225041389465,0.1041866838932037,-0.021445353,-0.019907253,0.2388951033353806,-0.434705347,0.4538508951663971,-0.366680205
2.434928179,0.4474611282348633,0.5519095659255981,-0.755573392,0.2322026044130325,0.4855068325996399,0.114873968,-0.021717561,-0.01994179,0.2380418181419373,-0.434093714,0.4563017785549164,-0.368284762
2.439926386,0.4719586074352264,0.5261897444725037,-0.749311864,0.2732781767845154,0.4614105224609375,0.1266145557165146,-0.021927008,-0.019968363,0.2373852729797363,-0.433160037,0.4587069153785706,-0.369654775
2.44492507,0.488328755,0.4957997500896454,-0.754296064,0.3043226599693298,0.4233628809452057,0.1388236880302429,-0.021996457,-0.019977175,0.2371675819158554,-0.431973577,0.4609848260879517,-0.370764703
2.449925184,0.4796808362007141,0.4713861346244812,-0.764436781,0.3257318139076233,0.3799812495708466,0.1568625122308731,-0.022836396,-0.019709684,0.2369538843631744,-0.430548549,0.4630759358406067,-0.371630013
2.454932213,0.4702387154102325,0.4602242112159729,-0.778714597,0.341221809,0.326804131,0.1808577626943588,-0.023908013,-0.019344412,0.2368364334106445,-0.42890057,0.4649377763271332,-0.372206867
2.459934235,0.4652256667613983,0.4420171976089478,-0.798715949,0.3516982793807983,0.2713685631752014,0.2105191797018051,-0.024732551,-0.019063359,0.236746073,-0.427038074,0.4665939807891846,-0.372423828
2.46493125,0.4701617956161499,0.4217827618122101,-0.821809173,0.3613329827785492,0.2106428444385529,0.2322958707809448,-0.02500595,-0.018970167,0.2367161065340042,-0.424970269,0.4680182933807373,-0.372297108
2.469929218,0.4674393236637115,0.384405255,-0.823693812,0.3548034429550171,0.1484442353248596,0.2523819506168365,-0.025216313,-0.018898465,0.2366930544376373,-0.422745436,0.4691777527332306,-0.371833265
2.474928141,0.4878382682800293,0.3771556913852692,-0.837243915,0.3526526987552643,0.083817109,0.2740855515003204,-0.026181588,-0.018246004,0.2369012385606766,-0.420423031,0.4701396822929382,-0.371068776
2.479928255,0.4911824464797974,0.3718781173229218,-0.829246283,0.3493964672088623,0.027961757,0.2865179777145386,-0.026924303,-0.017743981,0.2370614260435104,-0.41802913,0.4708640277385712,-0.370117664
2.484929323,0.4678849577903748,0.3448792099952698,-0.813642204,0.3380759358406067,-0.013743734,0.294546366,-0.027170572,-0.01757752,0.2371145337820053,-0.415595591,0.4713751375675201,-0.369003117
2.489931345,0.3716322779655457,0.3116313517093658,-0.787390888,0.3103785514831543,-0.005533676,0.3038334548473358,-0.027360061,-0.017449439,0.237155408,-0.413253576,0.4718225300312042,-0.367857456
2.49492836,0.3114147484302521,0.3424395024776459,-0.830877304,0.2778447568416595,0.031454835,0.310583234,-0.027456753,-0.016974198,0.2371063530445099,-0.411178142,0.4723650217056274,-0.366918296
2.499926567,0.3090336322784424,0.3941664099693298,-0.858748972,0.2657443881034851,0.05435814,0.3191695511341095,-0.02756539,-0.016170934,0.237005278,-0.409239411,0.4730049967765808,-0.366131157
2.504925489,0.3407776355743408,0.4125219285488129,-0.830197096,0.2717289328575134,0.072789505,0.32738781,-0.027601412,-0.015904587,0.2369717657566071,-0.407285571,0.4738131463527679,-0.365367621
2.509925365,0.4094745218753815,0.3841783404350281,-0.822601795,0.2692952454090118,0.095796943,0.3238506317138672,-0.027629128,-0.015699651,0.2369459867477417,-0.405318201,0.4748598039150238,-0.364527911
2.51492691,0.4414097964763641,0.3069446384906769,-0.835011065,0.2464672029018402,0.1162579506635666,0.315403014,-0.027638318,-0.015631698,0.2369374334812164,-0.403349489,0.4760258793830872,-0.363475114
2.519928932,0.4491727650165558,0.2425974160432816,-0.859001577,0.2141842544078827,0.1294524818658829,0.3105392158031464,-0.027920185,-0.014629828,0.236857146,-0.401448101,0.4772311151027679,-0.362294316
2.524926186,0.4420255124568939,0.2449094504117966,-0.857379496,0.1879102736711502,0.1385245770215988,0.3027061223983765,-0.028013647,-0.014297627,0.2368305176496506,-0.399736792,0.4784376323223114,-0.361225963
2.529924154,0.4406366944313049,0.2844084203243256,-0.843602479,0.1637443602085114,0.1465415060520172,0.2972456812858582,-0.02808556,-0.014042021,0.236810029,-0.398268819,0.4796526432037354,-0.360367656
2.534923315,0.4555204212665558,0.3040024936199188,-0.839302123,0.1450957804918289,0.1515156179666519,0.2829017341136932,-0.028109405,-0.013957267,0.2368032336235046,-0.396971345,0.4808882474899292,-0.359632909
2.539923429,0.4591969847679138,0.2957821190357208,-0.847928822,0.1207491308450699,0.1535009741783142,0.2728222012519836,-0.02838679,-0.01316663,0.237822637,-0.395778835,0.4821123480796814,-0.35892424
2.544924259,0.4602659940719604,0.2810428440570831,-0.855260849,0.090178363,0.1544304639101028,0.2614286243915558,-0.028542865,-0.012724961,0.2384141981601715,-0.394730031,0.4833092391490936,-0.358211458
2.549926043,0.4725811779499054,0.2882281243801117,-0.864384115,0.059190989,0.1461406350135803,0.2474001348018646,-0.028662955,-0.012385127,0.2388693690299988,-0.393886894,0.4844518899917603,-0.35757333
2.554923058,0.4872328042984009,0.3006540238857269,-0.857434511,0.025998127,0.1334558427333832,0.2292361110448837,-0.028702775,-0.012272445,0.2390202879905701,-0.393267512,0.4855116307735443,-0.357037365
2.559921503,0.5114814639091492,0.3242712318897247,-0.844790459,0.001807078,0.115317628,0.2104580104351044,-0.028985908,-0.012123171,0.2391405999660492,-0.392852843,0.486485094,-0.356630266
2.564920902,0.5110445022583008,0.3276260197162628,-0.829871774,-0.00409123,0.1081377640366554,0.1827413290739059,-0.029334405,-0.01201058,0.2391847372055054,-0.392530382,0.4873764216899872,-0.356371492
2.569921017,0.4980939030647278,0.3220931887626648,-0.82493782,0.003864446,0.1257259845733643,0.1315945535898209,-0.029602552,-0.011923947,0.2392186969518661,-0.392291963,0.4882372617721558,-0.356416196
2.574922085,0.4896190464496613,0.3215628564357758,-0.811757386,0.031457599,0.1755190342664719,0.074811235,-0.029691463,-0.011895223,0.2392299473285675,-0.392121017,0.4892304241657257,-0.356926024
2.579924107,0.487976611,0.3462465703487396,-0.802988708,0.055212181,0.2323179095983505,0.020527773,-0.029759875,-0.01187312,0.2392386049032211,-0.392079264,0.4903906285762787,-0.357944548
2.584921598,0.4668388068675995,0.3588917553424835,-0.793245077,0.066698864,0.2893170118331909,-0.001219705,-0.030075746,-0.011770678,0.2379099279642105,-0.39211452,0.4917420148849487,-0.359272212
2.589925528,0.4585960805416107,0.3743308782577515,-0.794977129,0.056502737,0.3303342461585999,0.020782007,-0.030318785,-0.011691856,0.2368876188993454,-0.392206877,0.4933379590511322,-0.360564828
2.594924688,0.4603408575057983,0.3853072822093964,-0.789464176,0.042657178,0.3459405899047852,0.053272106,-0.030399373,-0.01166572,0.2365486323833466,-0.392338097,0.4950481653213501,-0.361716926
2.599925041,0.4890493452548981,0.4007432162761688,-0.788396418,0.038275052,0.3440258204936981,0.075939059,-0.03046138,-0.01164561,0.2362878173589706,-0.392470449,0.4968143701553345,-0.362767369
2.604926109,0.4852244555950165,0.4091314971446991,-0.777737737,0.054893538,0.3264622688293457,0.097834513,-0.030905467,-0.011479903,0.2369373440742493,-0.392416835,0.498517245,-0.363702148
2.60992837,0.477069616,0.4223260283470154,-0.77457732,0.082068704,0.3213646709918976,0.1127855554223061,-0.031675413,-0.011191592,0.2381813377141953,-0.39222157,0.500200093,-0.364600658
2.614925623,0.4921247959136963,0.413615346,-0.775900841,0.1098684519529343,0.3233034014701843,0.1093649789690971,-0.031930715,-0.011095992,0.2385938167572021,-0.391875595,0.5019273161888123,-0.36549288
2.61992383,0.494229257,0.4040916562080383,-0.7719661,0.1480706483125687,0.3257317543029785,0.1032744273543358,-0.032127149,-0.011022436,0.2389111816883087,-0.391323149,0.5036569237709045,-0.366392851
2.624923229,0.5007917881011963,0.3921823501586914,-0.783963919,0.1703842729330063,0.3100667595863342,0.1025057658553123,-0.032192282,-0.010998046,0.2390164285898209,-0.390619814,0.5053178071975708,-0.367217153
2.629923105,0.4887906908988953,0.3821809887886047,-0.79346782,0.1966774761676788,0.2930351793766022,0.1017725989222527,-0.032762486,-0.010915998,0.237536147,-0.389778435,0.5068439841270447,-0.367968142
2.634923935,0.4927478134632111,0.3645257651805878,-0.805974007,0.2130451202392578,0.2765626907348633,0.09747193,-0.032951556,-0.010888793,0.2370453029870987,-0.38878274,0.5082899928092957,-0.368631244
2.639925957,0.4932153820991516,0.3488859236240387,-0.817261815,0.2227781862020493,0.2475511878728867,0.097293913,-0.033097032,-0.010867859,0.2366676479578018,-0.387681365,0.5095924735069275,-0.369182646
2.644923449,0.4949080348014832,0.3424968123435974,-0.82123214,0.2205927968025208,0.2240497618913651,0.1030991151928902,-0.033145268,-0.010860918,0.2365424185991287,-0.386560142,0.5108086466789246,-0.369628489
2.649921179,0.5037071108818054,0.335260421,-0.825301468,0.2159851938486099,0.2039912343025208,0.1086336970329285,-0.033922911,-0.010641356,0.2360983043909073,-0.385405689,0.5119599103927612,-0.369966626
2.654920101,0.5019071102142334,0.3328948616981506,-0.824600995,0.2093264758586884,0.1816316395998001,0.1145355850458145,-0.034364007,-0.010515543,0.235864982,-0.384240389,0.5130091905593872,-0.370228171
2.659920216,0.4971908032894135,0.3283803164958954,-0.820746601,0.2065148055553436,0.1594051718711853,0.1217377185821533,-0.034703404,-0.010418739,0.2356854528188705,-0.383046925,0.5139604210853577,-0.370401472
2.664921284,0.5013023614883423,0.3403303623199463,-0.81066215,0.2082930654287338,0.1410015672445297,0.1285512298345566,-0.034815941,-0.01038664,0.2356259226799011,-0.381849885,0.5148530602455139,-0.370540947
2.669923306,0.5016632080078125,0.3530342578887939,-0.799834013,0.2297094464302063,0.1214768439531326,0.1342404335737228,-0.034990221,-0.01007261,0.2354909926652908,-0.380535513,0.5156888961791992,-0.370661974
2.674920797,0.4737292528152466,0.3619833588600159,-0.775080264,0.2398179769515991,0.1061017662286758,0.1336739510297775,-0.035136439,-0.009676723,0.2353563755750656,-0.379195482,0.5163852572441101,-0.370854139
2.679918528,0.4732169210910797,0.3717785477638245,-0.780306756,0.2658553123474121,0.09249413,0.138610378,-0.035248943,-0.009372115,0.2352527976036072,-0.377679646,0.5170429944992065,-0.370986193
2.684917688,0.4665539562702179,0.3742664158344269,-0.7888695,0.2868540585041046,0.077149943,0.1403988599777222,-0.035286248,-0.009271113,0.2352184504270554,-0.376045227,0.5176029801368713,-0.371077776
2.689917803,0.4660493731498718,0.3491547703742981,-0.800574362,0.3015561997890472,0.071514957,0.1510322391986847,-0.035314951,-0.009193398,0.2351920157670975,-0.37423104,0.5181597471237183,-0.370982021
2.694918633,0.4658738076686859,0.3298362493515015,-0.815711617,0.3053849041461945,0.072033294,0.1595881581306458,-0.035684273,-0.008287417,0.2362594604492188,-0.372354925,0.5187222361564636,-0.370821059
2.699921131,0.4659395813941956,0.3321138322353363,-0.828641593,0.3003723323345184,0.07637237,0.1589961051940918,-0.035968442,-0.007590326,0.2370807826519012,-0.370523632,0.5193026661872864,-0.370692194
2.704918861,0.469978541,0.338645875,-0.828063726,0.2957350611686707,0.081427999,0.1605576723814011,-0.036062669,-0.007359183,0.2373531311750412,-0.368724465,0.5199229717254639,-0.37056303
2.70991683,0.4775185883045197,0.3485035300254822,-0.818968415,0.297349215,0.09789554,0.171378881,-0.036135171,-0.007181334,0.2375626862049103,-0.366956472,0.5206352472305298,-0.370483428
2.714915752,0.4574266374111176,0.3594422936439514,-0.825255454,0.3106761872768402,0.1053833812475204,0.1821606457233429,-0.036300808,-0.006921169,0.2372532486915588,-0.365071416,0.5213904976844788,-0.370379448
2.719915867,0.4607915282249451,0.3358837366104126,-0.828729689,0.2976868450641632,0.1089562773704529,0.1892057806253433,-0.036571439,-0.006517552,0.2366320043802261,-0.363232553,0.5221503376960754,-0.370179653
2.724922895,0.4642464518547058,0.3302794396877289,-0.827376246,0.2941465675830841,0.1118176206946373,0.201319084,-0.036661174,-0.00638372,0.2364260107278824,-0.361370206,0.522968054,-0.369872987
2.729925156,0.4756807684898376,0.3213956654071808,-0.837229311,0.2891994416713715,0.1239295899868011,0.2167692482471466,-0.036730219,-0.006280746,0.2362675219774246,-0.359457791,0.523895264,-0.369466573
2.734922171,0.4824270009994507,0.2924075722694397,-0.840619802,0.2638320326805115,0.1338040679693222,0.2396730780601501,-0.036753114,-0.006246602,0.2362149655818939,-0.357560456,0.5249065160751343,-0.368859529
2.739920378,0.4866368770599365,0.3063745498657227,-0.837434351,0.2451586127281189,0.1389946341514587,0.2578303515911102,-0.037574135,-0.004921816,0.2362436950206757,-0.355785131,0.5259819626808167,-0.368231922
2.7449193,0.4786517322063446,0.3005663752555847,-0.839546442,0.225348562,0.148188591,0.2654381692409515,-0.037846372,-0.004482543,0.2362532317638397,-0.354096055,0.5270707011222839,-0.367620945
2.749919653,0.4676853716373444,0.3091181814670563,-0.841530323,0.1964985728263855,0.1692767441272736,0.2921645939350128,-0.038055837,-0.004144551,0.2362605631351471,-0.352499187,0.5282903909683228,-0.36687246
2.754920959,0.462141365,0.3157903850078583,-0.858462274,0.2124917656183243,0.1981316059827805,0.3056620359420776,-0.038125291,-0.00403248,0.2362630069255829,-0.350799263,0.5296660661697388,-0.366196126
2.759922981,0.4700844585895538,0.3041353225708008,-0.85466373,0.1740802973508835,0.222427636,0.3296608924865723,-0.037989575,-0.003342751,0.2359974086284637,-0.349219561,0.5312132239341736,-0.365321726
2.764919996,0.4640522301197052,0.3178951740264893,-0.857991874,0.1380450278520584,0.2442173212766647,0.3563122749328613,-0.037897762,-0.002964712,0.235843152,-0.347825646,0.5328750610351563,-0.364416182
2.769918203,0.4431368410587311,0.3408737182617188,-0.860536516,0.1166708618402481,0.2715628743171692,0.3769352734088898,-0.037827123,-0.002673838,0.235724464,-0.346551001,0.5346567034721375,-0.363579452
2.774917126,0.4410320222377777,0.3271618187427521,-0.871609926,0.078915849,0.2982797026634216,0.4134756922721863,-0.037803698,-0.002577389,0.2356851100921631,-0.345334649,0.5366291999816895,-0.362498105
2.77991724,0.4438755512237549,0.3306326866149902,-0.870546937,0.038206894,0.3331400454044342,0.4554735720157623,-0.038096204,-0.002295004,0.2356876879930496,-0.344241977,0.5388248562812805,-0.361244857
2.784918547,0.4371186196804047,0.3107095062732697,-0.873946309,-0.002168489,0.3883962631225586,0.491003543,-0.038506329,-0.001991449,0.2357216775417328,-0.343268335,0.5413361191749573,-0.359862983
2.789920568,0.4481728971004486,0.2630250453948975,-0.890249133,-0.06402947,0.453914613,0.5286266207695007,-0.038821891,-0.001757884,0.235747829,-0.34242171,0.5442612171173096,-0.358222485
2.794917822,0.4581441879272461,0.2747862935066223,-0.893869638,-0.15482302,0.5140188932418823,0.5623131394386292,-0.038926523,-0.001680438,0.2357564866542816,-0.342095613,0.5475217700004578,-0.356527835
2.799915791,0.4490793645381927,0.3163022398948669,-0.885862708,-0.167870581,0.6012401580810547,0.5833421945571899,-0.039007034,-0.001620849,0.2357631623744965,-0.341966927,0.5511768460273743,-0.355116397
2.804914951,0.4617809057235718,0.2429178506135941,-0.912978828,-0.207619622,0.6908434629440308,0.5997620820999146,-0.040018775,-0.001436198,0.2350631803274155,-0.341761589,0.5553399920463562,-0.353476465
2.809915066,0.4773186147212982,0.204022005,-0.927412271,-0.31539768,0.7623496055603027,0.6170925498008728,-0.040797241,-0.001294121,0.2345245778560638,-0.34211868,0.5598689317703247,-0.351681828
2.814916372,0.4740052819252014,0.2732527554035187,-0.920468926,-0.368496895,0.8613827228546143,0.6238686442375183,-0.041055363,-0.001247012,0.2343459874391556,-0.343059838,0.5648372769355774,-0.350387841
2.819918394,0.4661743938922882,0.26810807,-0.915081501,-0.368384212,0.977530837,0.6263652443885803,-0.041253973,-0.001210764,0.2342085689306259,-0.343976736,0.5703685879707336,-0.349329114
2.824915409,0.4787419140338898,0.202885628,-0.945385635,-0.436433196,1.086519122123718,0.6339849829673767,-0.042101886,-0.001214314,0.2339740991592407,-0.345156938,0.57643646,-0.348113835
2.829913378,0.4790029227733612,0.2278901636600494,-0.944810033,-0.49659124,1.194033980369568,0.6475018262863159,-0.043545086,-0.00123279,0.2336026728153229,-0.346826971,0.5829907059669495,-0.347151399
2.834912539,0.4714112877845764,0.2683055698871613,-0.947896481,-0.518440664,1.330778718,0.6504054665565491,-0.044023622,-0.001238916,0.2334794998168945,-0.348843277,0.5901846289634705,-0.346686602
2.839912415,0.4642387330532074,0.2306970506906509,-0.964918077,-0.544809639,1.475663065910339,0.6529756784439087,-0.044391822,-0.001243629,0.2333847433328629,-0.350973785,0.5980408191680908,-0.34632197
2.844913483,0.4666388630867004,0.2196177542209625,-1.000654459,-0.605706573,1.618842959403992,0.6614097356796265,-0.044513911,-0.001245192,0.2333533316850662,-0.353542566,0.6065603494644165,-0.346129179
2.849915981,0.4432691037654877,0.2438577860593796,-0.988580942,-0.645686209,1.790673971176147,0.6573472023010254,-0.047868233,-0.001865067,0.2326483279466629,-0.356633037,0.6158042550086975,-0.346522242
2.854913712,0.4355711042881012,0.2479466199874878,-1.014173031,-0.676537156,1.985475301742554,0.6513293385505676,-0.048980463,-0.002070606,0.2324145585298538,-0.360120118,0.6259356141090393,-0.347398818
2.859917879,0.4554373323917389,0.2322995513677597,-1.068259597,-0.722716808,2.187620401382446,0.6510144472122192,-0.049836248,-0.002228754,0.2322347015142441,-0.364061832,0.6370030641555786,-0.348663449
2.86491704,0.414232463,0.1981862932443619,-1.083056331,-0.809927285,2.407568216323853,0.6470921039581299,-0.050120011,-0.002281192,0.2321750521659851,-0.368690729,0.648996115,-0.350354433
2.869916916,0.4151815474033356,0.1849265098571777,-1.119087577,-0.931703985,2.648294925689697,0.6262545585632324,-0.05362314,-0.003226758,0.2317921221256256,-0.374417841,0.6620364189147949,-0.35279581
2.874917984,0.3937799632549286,0.1186700239777565,-1.150463223,-1.095857501,2.904467344284058,0.5926445722579956,-0.055597536,-0.003764288,0.2315817326307297,-0.381384671,0.6761388778686523,-0.355863988
2.879919767,0.3748704791069031,0.052650124,-1.195254803,-1.334224463,3.189291000366211,0.541907787,-0.057116706,-0.004177882,0.2314198613166809,-0.390204906,0.6913730502128601,-0.359873891
2.884917021,0.3648063540458679,0.041968826,-1.227615833,-1.600005865,3.502058982849121,0.4967045187950134,-0.057620432,-0.004315021,0.2313661724328995,-0.401256233,0.7078858017921448,-0.365144253
2.889915228,0.341203362,0.1198946237564087,-1.244383335,-1.835521698,3.848554611206055,0.4690705537796021,-0.061290387,-0.005267616,0.2295888811349869,-0.414728165,0.7257704734802246,-0.372204959
2.89491415,0.3006859123706818,0.3064457476139069,-1.253293753,-1.979676962,4.249584197998047,0.5028002858161926,-0.0658172,-0.006437666,0.2272489815950394,-0.430241853,0.745331883,-0.381361723
2.899914265,0.2543632984161377,0.5297034978866577,-1.250426292,-2.021565199,4.665814876556396,0.6126079559326172,-0.069300279,-0.00733794,0.2254485785961151,-0.447321862,0.7667391300201416,-0.392593861
2.904915094,0.1546715199947357,0.7786760926246643,-1.262332797,-1.916832209,5.062446117401123,0.8566070795059204,-0.070455201,-0.007636454,0.224851593,-0.464613974,0.7900850772857666,-0.405084312
2.909917355,0.1268810778856277,0.9912807941436768,-1.268247604,-1.708481431,5.437124252319336,1.112459182739258,-0.071343839,-0.00786614,0.2243922650814056,-0.481555253,0.8153606653213501,-0.418703318
2.914914608,0.1338846981525421,1.058446288108826,-1.301769018,-1.479765892,5.766400337219238,1.379906177520752,-0.078625649,-0.01084629,0.2197320759296417,-0.497745246,0.8424988985061646,-0.432756841
2.919913054,0.1064102798700333,1.011510491371155,-1.264231205,-1.335639954,6.086963176727295,1.669795632362366,-0.084228508,-0.013139312,0.2161463797092438,-0.513413131,0.8715450763702393,-0.446771294
2.924912214,0.072802268,0.9876663088798523,-1.244729877,-1.272574544,6.455595016479492,1.958678364753723,-0.08608631,-0.013899635,0.2149574309587479,-0.529557347,0.9028081893920898,-0.461427361
2.929912329,0.1758001893758774,0.9700869917869568,-1.249199986,-1.24643755,6.771664619445801,2.259485006332397,-0.087515764,-0.014484651,0.2140426188707352,-0.546284616,0.9361343383789063,-0.476577491
2.934913397,0.4273602664470673,1.004618167877197,-1.292134762,-1.221567988,7.008704662322998,2.573369026184082,-0.09389931,-0.015232265,0.2101832330226898,-0.563296616,0.9712837338447571,-0.49185577
2.939915419,0.6908535361289978,1.051597237586975,-1.30054903,-1.182408094,7.208733558654785,2.787970066070557,-0.104786508,-0.016367313,0.2036180049180984,-0.581492543,1.007760286331177,-0.508388281
2.94491291,1.053450226783752,1.185998916625977,-1.372998357,-1.060722828,7.310230255126953,2.962497234344482,-0.1083965,-0.016743673,0.2014410942792892,-0.6009112,1.044924736022949,-0.526814461
2.949910879,1.260409951210022,1.305491805076599,-1.396279454,-0.808243215,7.281267166137695,3.207471609115601,-0.111174144,-0.017033255,0.1997660994529724,-0.61960566,1.082402586936951,-0.545725465
2.954909801,1.497876405715942,1.390145540237427,-1.505440712,-0.452605903,7.127985954284668,3.413372039794922,-0.112095155,-0.017129276,0.1992107033729553,-0.636285067,1.119504451751709,-0.564373136
2.959909678,1.788052082061768,1.388700842857361,-1.599949718,-0.057949804,6.814556121826172,3.572324752807617,-0.12837787,-0.014648848,0.1870381534099579,-0.649782121,1.155510544776917,-0.581374168
2.964910746,1.698673844337463,1.363386034965515,-1.364506364,0.3723949491977692,6.591451644897461,3.745514154434204,-0.133776903,-0.013826385,0.1830019652843475,-0.660547733,1.191186666488647,-0.597670197
2.969912767,1.684175372123718,1.348753452301025,-1.349496841,0.7879473567008972,6.397692680358887,3.878137588500977,-0.137931094,-0.013193555,0.1798963844776154,-0.668908894,1.226391792297363,-0.613476992
2.974910259,1.680274724960327,1.347293019294739,-1.309899092,1.159680724143982,6.189257621765137,3.930876493453979,-0.139308542,-0.012983721,0.1788666397333145,-0.67480433,1.260860443115234,-0.628615081
2.97990799,1.643759965896606,1.206829667,-1.34973228,1.35240376,5.936262130737305,3.860243082046509,-0.151311576,-0.006259566,0.1672663241624832,-0.679951847,1.293926119804382,-0.643764734
2.98490715,1.528905868530273,1.118484020233154,-1.336715341,1.503322005271912,5.669544219970703,3.810442209243774,-0.157999471,-0.002406005,0.1607454121112823,-0.683200479,1.325759887695313,-0.657293975
2.989907503,1.455471396446228,0.9701665043830872,-1.373793602,1.622165799,5.382003784179688,3.556017398834229,-0.163145348,0.000559049,0.1557280123233795,-0.687963665,1.355566501617432,-0.672896326
2.994914532,1.108154892921448,0.5927855968475342,-1.184915781,1.503275156021118,5.054035663604736,3.330900669,-0.164851621,0.001542205,0.154064342,-0.693420768,1.383796811103821,-0.687510967
2.999916792,0.7110835909843445,0.1067520976066589,-1.215566993,1.130957603,4.609318256378174,3.022232532501221,-0.1707277,0.007704832,0.1476461291313171,-0.699222326,1.409680008888245,-0.699657321
3.004914284,0.40860185,-0.479208201,-1.613512516,0.1827563047409058,3.915900468826294,2.801524401,-0.17727761,0.015199786,0.1403367072343826,-0.693485022,1.431954979896545,-0.693726122
3.009913206,0.8808367848396301,-0.430993348,-2.110827923,-0.971796155,2.967041969299316,2.699001550674438,-0.182317317,0.020966643,0.1347126066684723,-0.666241527,1.449445724487305,-0.659968793
3.014912367,1.228632092475891,0.063654773,-2.019875526,-1.829292297,1.954173207,2.572937012,-0.183988392,0.022878824,0.1328477561473846,-0.619515657,1.461691379547119,-0.603615165
3.019912243,1.792462706565857,0.5399399995803833,-1.908076048,-2.085289001,1.160384178161621,2.354131222,-0.185274169,0.024350118,0.1314128786325455,-0.556975663,1.469753503799438,-0.531683028
3.024913073,1.814663767814636,0.8849039077758789,-2.100888491,-2.133129597,0.2474228739738464,2.112908601760864,-0.190769419,0.032904513,0.124725878,-0.478758872,1.472156167030334,-0.445034921
3.029915333,0.7009412050247192,1.245860934257507,-1.687908173,-1.971147895,-0.645145059,1.897182583808899,-0.194997638,0.039486539,0.1195806860923767,-0.395510614,1.469300150871277,-0.355258703
3.034912825,0.003980547,1.358027338981628,-1.246863365,-1.573286891,-1.20059514,1.670035719871521,-0.196399644,0.041669011,0.1178746372461319,-0.321958661,1.463455080986023,-0.277612746
3.039910555,-0.012716176,1.279599309,-1.054155469,-1.072417498,-1.518760324,1.448542952537537,-0.197478384,0.043348275,0.1165619492530823,-0.259383231,1.455779790878296,-0.213299349
3.044909477,-0.002525979,1.189033508300781,-0.967985809,-0.581689358,-1.745833874,1.261996984481812,-0.198354378,0.046780128,0.1171547695994377,-0.207230672,1.446617245674133,-0.161770985
3.049909592,-0.176527694,1.081178307533264,-0.854593813,-0.158828795,-1.899473667,1.067830085754395,-0.199552491,0.052327815,0.1186504438519478,-0.165401116,1.436441064,-0.122517988
3.054910898,-0.328797609,0.9376869797706604,-0.736524105,0.1223117336630821,-1.988579988,0.8136845231056213,-0.199949771,0.054167323,0.1191463842988014,-0.135237038,1.425681591033936,-0.095952071
3.059913158,-0.368254244,0.7901370525360107,-0.642838418,0.2707138657569885,-2.049726009,0.5299859642982483,-0.200255439,0.055582702,0.1195279732346535,-0.116286382,1.414532423019409,-0.080947988
3.064910412,-0.350472093,0.6713084578514099,-0.596144199,0.3256479203701019,-2.093246937,0.2358831018209457,-0.200356796,0.056052014,0.1196544989943504,-0.107216649,1.403080940246582,-0.075893894
3.069908142,-0.327196062,0.6051488518714905,-0.560321987,0.3105248808860779,-2.122046709,-0.056959424,-0.199485525,0.062703781,0.1232131123542786,-0.106788829,1.391360878944397,-0.079402305
3.074907303,-0.327127397,0.582247794,-0.532702684,0.2737911939620972,-2.1361866,-0.342144579,-0.199196622,0.064909384,0.1243930757045746,-0.113842487,1.379477143287659,-0.090289824
3.079907656,-0.330899805,0.5799228549003601,-0.503458798,0.2289807200431824,-2.129024506,-0.610048831,-0.198974341,0.066606447,0.1253009885549545,-0.126728594,1.367513179779053,-0.106908008
3.084908485,-0.317351878,0.5953073501586914,-0.47963807,0.209464818,-2.123484373,-0.8632797,-0.19890064,0.06716916,0.1256020367145538,-0.144118622,1.355397462844849,-0.128132954
3.089910746,-0.287088096,0.6045024394989014,-0.467500478,0.2146351933479309,-2.122163534,-1.095601559,-0.19767271,0.071216442,0.1291617006063461,-0.164569497,1.343068004,-0.152746409
3.094907999,-0.238668039,0.6100283861160278,-0.466687799,0.2460923194885254,-2.129180431,-1.30933857,-0.196975723,0.073452823,0.131165549,-0.186910629,1.330420494,-0.17957966
3.099905968,-0.180656239,0.6142685413360596,-0.475824386,0.3011062741279602,-2.150243998,-1.50719738,-0.19643943,0.075173564,0.1327073872089386,-0.210303321,1.317360639572144,-0.207904801
3.10490489,-0.119895473,0.6117259860038757,-0.49459666,0.3731988072395325,-2.192198515,-1.683540344,-0.196261615,0.07574413,0.1332186311483383,-0.233731568,1.303738355636597,-0.236766204
3.109905005,-0.057600178,0.5938079953193665,-0.516434491,0.4445925056934357,-2.259872675,-1.847055912,-0.196081951,0.076885685,0.1348289102315903,-0.256651044,1.289422392845154,-0.265572578
3.114906073,0.012738899,0.565093458,-0.541134179,0.5107378959655762,-2.33540535,-1.99323523,-0.195979193,0.077972643,0.1365899741649628,-0.278609276,1.274407625198364,-0.293785989
3.119908094,0.093512639,0.5346922278404236,-0.571877122,0.5620629787445068,-2.436666012,-2.128118038,-0.195900112,0.078808986,0.1379449963569641,-0.299316823,1.258553504943848,-0.321018279
3.124905109,0.1751986742019653,0.5110942721366882,-0.599147201,0.6029645800590515,-2.563400745,-2.243757963,-0.195873901,0.079086304,0.1383942812681198,-0.318488687,1.241797089576721,-0.346920699
3.129909515,0.2420199662446976,0.4947353601455688,-0.615173817,0.637528658,-2.703673363,-2.344037294,-0.195853725,0.079299681,0.1387399882078171,-0.33595711,1.224103808403015,-0.371311069
3.134908915,0.297982395,0.4793409705162048,-0.628431559,0.6657977700233459,-2.851740122,-2.427059889,-0.196746007,0.079622738,0.1423637717962265,-0.351609886,1.205475807189941,-0.394041449
3.139909029,0.3486140966415405,0.4635211825370789,-0.642103612,0.6840296387672424,-3.013828278,-2.491794586,-0.197432563,0.079871312,0.1451520323753357,-0.36532855,1.185908794403076,-0.414910734
