Time,inertial-6253.76535:scaledAccelX,inertial-6253.76535:scaledAccelY,inertial-6253.76535:scaledAccelZ,inertial-6253.76535:scaledGyroX,inertial-6253.76535:scaledGyroY,inertial-6253.76535:scaledGyroZ,inertial-6253.76535:scaledMagX,inertial-6253.76535:scaledMagY,inertial-6253.76535:scaledMagZ,inertial-6253.76535:roll,inertial-6253.76535:pitch,inertial-6253.76535:yaw
0,0.6170445084571838,0.072842754,-0.783255637,0.001241084,-0.003734045,0.006902143,-0.159900889,0.092630178,0.253763884,-0.072128639,0.6612988710403442,-1.335034013
0.005001216,0.6163443326950073,0.072983876,-0.783831,0.002030092,-0.002372156,0.005752796,-0.159874201,0.092600733,0.2535085082054138,-0.072126918,0.6612914204597473,-1.335048795
0.0100032,0.6164201498031616,0.074494779,-0.784592867,0.003385506,-0.000921034,0.006968343,-0.159853667,0.092578083,0.2533120214939117,-0.072121494,0.6612955331802368,-1.335059404
0.01500672,0.6170479655265808,0.074097224,-0.784835875,0.002964905,-0.001457589,0.006365874,-0.159876257,0.092686452,0.2532461285591125,-0.072117634,0.6612921357154846,-1.33506918
0.02000512,0.6183620691299438,0.07433752,-0.784135163,0.002910284,-0.000760129,0.006679866,-0.15992336,0.092887014,0.2531946897506714,-0.072115228,0.6612955331802368,-1.335073709
0.025004288,0.6209231019020081,0.073809519,-0.785591543,0.003337092,-0.000627631,0.005766013,-0.159938976,0.092953511,0.2531776428222656,-0.072112381,0.6613078117370605,-1.33507967
0.030004224,0.6197386980056763,0.074238688,-0.786138594,0.005004141,0.001029554,0.006396503,-0.159951001,0.093004674,0.25316453,-0.072094932,0.6613194942474365,-1.335079074
0.035005439,0.6179516911506653,0.073568642,-0.784739614,0.002608149,0.002388564,0.006662151,-0.159954995,0.093021639,0.2531601786613464,-0.072097719,0.6613339781761169,-1.335080624
0.040007681,0.6177542805671692,0.074346527,-0.784668207,0.002822222,0.001255676,0.006131679,-0.160090849,0.092981935,0.2544950842857361,-0.07210324,0.6613458395004272,-1.335080624
0.04500531,0.6192413568496704,0.075664021,-0.785543382,0.003919438,0.001714522,0.007165617,-0.16013588,0.092968769,0.2549377083778381,-0.072098039,0.6613634824752808,-1.335070133
0.050003458,0.6174874305725098,0.073559277,-0.78494221,0.003190416,0.000990506,0.008097341,-0.16017054,0.092958644,0.2552782893180847,-0.072087772,0.6613771319389343,-1.335057855
0.055002879,0.617230237,0.071526624,-0.784416318,0.00350408,0.00047318,0.006886664,-0.160182029,0.092955284,0.2553912401199341,-0.072074831,0.6613881587982178,-1.335042834
0.060002815,0.6165980696678162,0.073086068,-0.78527087,0.002026375,0.001528662,0.00686272,-0.160388261,0.093059011,0.2555865347385406,-0.072076805,0.6614032387733459,-1.335047364
0.065003775,0.6184933185577393,0.074272744,-0.784445286,0.003206767,0.00147742,0.006101669,-0.160505489,0.093119711,0.255678117,-0.072075121,0.6614146828651428,-1.335045576
0.070006013,0.6178501844406128,0.073223308,-0.784481704,0.00227558,0.001161703,0.004623638,-0.160595685,0.093166411,0.2557485699653625,-0.072075538,0.6614310145378113,-1.335049391
0.07500314,0.6170917153358459,0.072267838,-0.785384536,0.001650686,0.001276696,0.005797468,-0.160625592,0.093181893,0.2557719349861145,-0.072076634,0.6614439487457275,-1.335051656
0.08000128,0.6180407404899597,0.072111346,-0.784364939,0.001673003,0.002084648,0.006572252,-0.160425559,0.09313184,0.25578627,-0.072074138,0.6614664793014526,-1.335033774
0.085000195,0.6197924613952637,0.074099265,-0.78553915,0.001022214,0.002033686,0.006900852,-0.160134315,0.093052752,0.2557873725891113,-0.072081976,0.6614934206008911,-1.33501339
0.090000384,0.6201952695846558,0.070778586,-0.785367548,0.003518838,0.001867675,0.006593044,-0.159910232,0.092991903,0.2557882070541382,-0.072060719,0.6615068912506104,-1.334983587
0.095001347,0.6195145845413208,0.072940357,-0.785821378,0.003632048,0.002354395,0.007123554,-0.15983592,0.092971727,0.2557884752750397,-0.072049215,0.6615303754806519,-1.334958911
0.100003585,0.6204150915145874,0.07245487,-0.783470154,0.002390164,0.000801569,0.006510589,-0.159778744,0.092956193,0.2557886838912964,-0.072046787,0.6615469455718994,-1.334929705
0.105000705,0.6220992207527161,0.072868988,-0.78294003,0.00362022,0.001972998,0.006819461,-0.159808412,0.092951022,0.2556839287281036,-0.072038852,0.661574125,-1.334904671
0.109998845,0.6179962754249573,0.072341986,-0.784458458,0.003358104,-3.32E-05,0.007004481,-0.159831241,0.092947051,0.2556033432483673,-0.072029293,0.6615808010101318,-1.33488977
0.114998013,0.6191059947013855,0.074942261,-0.783879578,0.004055912,0.000480758,0.005999073,-0.159838796,0.09294574,0.2555766105651855,-0.072026454,0.6615946292877197,-1.33487916
0.119998209,0.617949903,0.075727761,-0.783026338,0.00356726,0.000166032,0.007682985,-0.159844622,0.092944726,0.255556047,-0.072024211,0.6616081,-1.334863424
0.124999166,0.6185305714607239,0.074450679,-0.784705639,0.005644308,0.00041471,0.00564562,-0.160010934,0.092885002,0.255012572,-0.072011955,0.6616146564483643,-1.334881306
0.130001411,0.6183330416679382,0.073388219,-0.784133613,0.003350597,-0.00037224,0.006644142,-0.160305083,0.092778996,0.2540517449378967,-0.072001599,0.6616220474243164,-1.334885597
0.13499853,0.6194034218788147,0.072187468,-0.782247365,0.003884506,0.000799525,0.007007007,-0.160402626,0.092743844,0.2537331581115723,-0.071987197,0.6616395711898804,-1.334880829
0.139996678,0.619319737,0.072641693,-0.782177627,0.004653522,0.00152218,0.006773884,-0.160477668,0.092716806,0.2534880340099335,-0.071978301,0.6616587042808533,-1.33488512
0.144995585,0.6200295686721802,0.073750652,-0.782835722,0.004939909,0.000182037,0.006834741,-0.160502553,0.092707835,0.2534067332744598,-0.071963973,0.6616642475128174,-1.33487606
0.15000166,0.6192934513092041,0.072430991,-0.783333361,0.004565313,-0.000513766,0.005977735,-0.160203218,0.092909269,0.2546707391738892,-0.071952075,0.6616771221160889,-1.334852934
0.155002877,0.6183246374130249,0.072991349,-0.784246325,0.003116558,-0.000808179,0.00713425,-0.160103977,0.092976063,0.2550898492336273,-0.071946397,0.6616796255111694,-1.334837914
0.160004869,0.6183630228042603,0.072376311,-0.782167435,0.003117252,-0.000487448,0.004941193,-0.160027608,0.093027458,0.25541237,-0.071938209,0.6616886258125305,-1.334820747
0.165002242,0.6193712949752808,0.072872199,-0.784337759,0.002209684,0.000235077,0.005841474,-0.160002291,0.093044505,0.255519301,-0.071937121,0.6617019772529602,-1.334800839
0.170000121,0.6201298832893372,0.072709017,-0.783739746,0.001139264,-0.001116828,0.006200708,-0.160223588,0.09304978,0.2542314529418945,-0.071935281,0.6617071628570557,-1.33480525
0.174999297,0.6195357441902161,0.072347775,-0.783467293,0.002262783,-0.000452687,0.005144863,-0.160356551,0.093049593,0.2534653842449188,-0.07193625,0.6617194414138794,-1.334824681
0.180000007,0.6187739372253418,0.071424432,-0.784563959,0.001155425,-0.000774142,0.005465248,-0.160458848,0.093049452,0.252875954,-0.071935683,0.6617234945297241,-1.334836483
0.185001731,0.6185025572776794,0.072933301,-0.785495818,0.001678002,-6.86E-05,0.004953569,-0.160492763,0.0930494,0.2526805102825165,-0.071943104,0.6617293357849121,-1.334872842
0.190003708,0.6163681149482727,0.074198648,-0.783437729,0.001533141,-0.000527815,0.005587266,-0.160660744,0.093089402,0.2534633278846741,-0.071950004,0.6617304086685181,-1.334891677
0.195001081,0.6191511154174805,0.073708147,-0.785598576,0.003541818,0.000540816,0.004545091,-0.160859525,0.093143024,0.2546639740467072,-0.071942419,0.6617394685745239,-1.334892511
0.199998975,0.6175929307937622,0.073144332,-0.784511626,0.003368817,-0.000283519,0.006363624,-0.161012471,0.093184292,0.2555877566337585,-0.071936935,0.6617484092712402,-1.334885597
0.20499815,0.6193225383758545,0.072608709,-0.785360157,0.003320851,-4.09E-05,0.005582439,-0.161063194,0.093197972,0.2558940649032593,-0.071935281,0.6617547273635864,-1.334882736
0.209998086,0.6200523376464844,0.074061826,-0.784963787,0.002208244,-0.001573171,0.005382426,-0.16110222,0.093208499,0.2561297714710236,-0.071937144,0.6617521643638611,-1.33487916
0.214999303,0.6203004717826843,0.072666459,-0.784791529,0.003752362,-0.000219831,0.005362738,-0.160577446,0.093299754,0.255826324,-0.071922466,0.6617624759674072,-1.334857821
0.220001534,0.6186307668685913,0.072304986,-0.78372556,0.003357707,-0.000452598,0.006272254,-0.160173655,0.093369968,0.2555928230285645,-0.071910411,0.6617710590362549,-1.334836483
0.224998653,0.6179517507553101,0.071829885,-0.783915639,0.002890362,-0.001681553,0.006298737,-0.160039768,0.093393251,0.2555154263973236,-0.0719072,0.661766529,-1.334822059
0.229996547,0.6191378235816956,0.070987426,-0.783551514,0.003221758,-0.001076123,0.00499541,-0.159936741,0.093411162,0.2554558515548706,-0.071899913,0.661768913,-1.334804416
0.234995455,0.6193262338638306,0.072121568,-0.784290731,0.003662616,-0.002391672,0.005810545,-0.159928352,0.093245998,0.2555886805057526,-0.071883202,0.6617668867111206,-1.334775567
0.239995643,0.6185038685798645,0.072137892,-0.785175383,0.004004431,-0.0014663,0.006791921,-0.159947976,0.092945904,0.2558451890945435,-0.071878321,0.6617637872695923,-1.334756851
0.244996607,0.6193035840988159,0.073741771,-0.78545928,0.0024223,-0.002984834,0.004499041,-0.159954488,0.092846394,0.2559302449226379,-0.071882695,0.661759079,-1.334749818
0.249998853,0.6184445023536682,0.073384322,-0.784236848,0.001056751,-0.003589844,0.005729889,-0.15995948,0.092769824,0.2559956610202789,-0.071890719,0.661753774,-1.334736586
0.254995972,0.6168515086174011,0.07238704,-0.785352826,0.001777934,-0.001892857,0.006026798,-0.159961134,0.09274444,0.2560173869132996,-0.07187935,0.6617543697357178,-1.334717393
0.259994119,0.6186663508415222,0.073572516,-0.784616351,0.003217858,-0.001731327,0.005486661,-0.160096213,0.092997327,0.2560335993766785,-0.071875572,0.6617476940155029,-1.334699392
0.264993012,0.6204677224159241,0.072109766,-0.783319116,0.003005089,-0.004386825,0.006562382,-0.160141006,0.093081176,0.2560389637947083,-0.07186766,0.6617335677146912,-1.334673405
0.269993216,0.61884129,0.074648462,-0.784232676,0.004879014,-0.003650023,0.005208769,-0.160175458,0.093145698,0.2560430765151978,-0.071861953,0.6617295145988464,-1.334665775
0.274994165,0.6192159652709961,0.07487458,-0.784149826,0.003109687,-0.004249775,0.00642527,-0.160186872,0.093167089,0.2560444474220276,-0.071860544,0.6617199182510376,-1.334656596
0.279996425,0.6194884777069092,0.07437706,-0.78265357,0.003427833,-0.004216937,0.004232295,-0.160292774,0.093183018,0.2557830214500427,-0.071857281,0.6617054343223572,-1.334651113
0.28499943,0.6197463274002075,0.072495043,-0.783345997,0.003362274,-0.003355507,0.004936696,-0.160351917,0.093188174,0.2556313574314117,-0.071858898,0.6617032289505005,-1.334640384
0.289997578,0.617927611,0.073154174,-0.783516824,0.002487826,-0.003413437,0.00516318,-0.160397425,0.093192138,0.2555146813392639,-0.071860716,0.6616917252540588,-1.334642649
0.29499647,0.6189302206039429,0.072886504,-0.784263253,0.004126443,-0.003237268,0.005688535,-0.160412505,0.093193449,0.2554759979248047,-0.07184761,0.6616853475570679,-1.334630013
0.299996674,0.6179259419441223,0.072847754,-0.784462154,0.002370162,-0.003055318,0.005311297,-0.160314634,0.093252726,0.2557437419891357,-0.071848258,0.6616751551628113,-1.334628463
0.304997623,0.6172739267349243,0.073610932,-0.783929646,0.002548945,-0.004352518,0.005084481,-0.160171792,0.093331143,0.2561325132846832,-0.071851648,0.66166091,-1.334620118
0.309999615,0.6169230341911316,0.071938902,-0.782702208,0.004517048,-0.002963457,0.006720447,-0.160061881,0.093391478,0.2564316689968109,-0.071836516,0.6616552472114563,-1.334588051
0.314996749,0.618858814,0.071944691,-0.782364726,0.002683107,-0.002063053,0.007766016,-0.160025433,0.093411483,0.2565308511257172,-0.071824774,0.6616594791412354,-1.334550738
0.319994628,0.6182657480239868,0.071135364,-0.783493221,0.002813693,-0.002884464,0.00526298,-0.159997389,0.093426876,0.2566071748733521,-0.071821526,0.6616549491882324,-1.334540844
0.324993551,0.6173664331436157,0.074028522,-0.785425782,0.001990005,-0.004455778,0.005551764,-0.160423815,0.093425512,0.2550017237663269,-0.07182692,0.6616331338882446,-1.334578514
0.329993725,0.6184510588645935,0.073712043,-0.783031702,0.003719366,-0.001992847,0.006122375,-0.160751924,0.093424462,0.2537664175033569,-0.071823098,0.6616403460502625,-1.334597349
0.334994942,0.6184213161468506,0.073179029,-0.783584356,0.002721547,-0.003916549,0.005673948,-0.160860717,0.093424119,0.2533568143844604,-0.071816407,0.6616269946098328,-1.334619164
0.339996934,0.6168769001960754,0.072300397,-0.784501851,0.001104031,-0.002236274,0.004825816,-0.160944432,0.093423851,0.2530416548252106,-0.071825214,0.6616262197494507,-1.334654808
0.344994038,0.616663396,0.07349427,-0.784142315,0.003800382,-0.002651441,0.006964118,-0.160915181,0.09330789,0.2529974281787872,-0.071813174,0.661617637,-1.334671497
0.349991947,0.6167872548103333,0.075084016,-0.783480048,0.002443423,-0.003015821,0.004561468,-0.160835028,0.093101501,0.2530243098735809,-0.07182619,0.6616100072860718,-1.334712863
0.354991615,0.617833674,0.073653117,-0.783821046,0.002445237,-0.00300196,0.005041094,-0.160808459,0.093033068,0.2530332207679749,-0.071824484,0.6616059541702271,-1.334730029
0.359992057,0.6189401745796204,0.073945776,-0.783638418,0.004509734,-0.002229299,0.003509236,-0.160788015,0.092980415,0.253040075,-0.071825631,0.6616031527519226,-1.334755182
0.364993274,0.6180806756019592,0.073560901,-0.784309983,0.002197653,-0.002441834,0.00462272,-0.160781235,0.09296295,0.2530423700809479,-0.071826696,0.6616003513336182,-1.334781289
0.369995266,0.618103564,0.072616622,-0.783084929,0.003150077,-0.003591434,0.005305296,-0.160647675,0.09308131,0.2529698610305786,-0.071831688,0.6615890264511108,-1.334803939
0.374992639,0.6169552803039551,0.073565826,-0.784808099,0.002446222,-0.0030073,0.005460625,-0.160603389,0.09312056,0.2529458105564117,-0.071828909,0.6615762710571289,-1.334834456
0.379990786,0.6174548864364624,0.074136071,-0.785796404,0.003015631,-0.002921057,0.003817676,-0.160569325,0.093150757,0.2529273331165314,-0.071832672,0.6615732908248901,-1.334875226
0.384989947,0.6183538436889648,0.073642612,-0.785013318,0.002426114,-0.000859315,0.006187835,-0.160558015,0.093160771,0.2529211938381195,-0.071835674,0.6615839004516602,-1.33488977
0.389989883,0.6181761622428894,0.073899485,-0.783855557,0.003995165,-0.000852186,0.007282344,-0.160503641,0.093178168,0.2540788352489471,-0.071818642,0.661580503,-1.334879994
0.394990861,0.6180016994476318,0.071983039,-0.784170389,0.002371584,-0.000749957,0.005227514,-0.1604743,0.093186326,0.2547503411769867,-0.071817063,0.6615840792655945,-1.334869742
0.399992824,0.6185162663459778,0.072237991,-0.784131229,0.003479281,-0.001083653,0.004855725,-0.16045174,0.093192607,0.2552670240402222,-0.071820088,0.6615867614746094,-1.334865928
0.404989958,0.6178986430168152,0.072337218,-0.783981979,0.004601447,-0.001112505,0.005804379,-0.16044426,0.093194693,0.2554383277893066,-0.071811967,0.661587119,-1.334866524
0.409988105,0.6183321475982666,0.072278358,-0.783771992,0.002970912,-0.000937867,0.005669934,-0.160300329,0.093251005,0.2555367946624756,-0.071806058,0.6615937948226929,-1.334848881
0.414986998,0.6189729571342468,0.072884075,-0.784856856,0.001021025,-0.0012885,0.005351322,-0.16011326,0.093324848,0.2555358409881592,-0.071814209,0.6615990400314331,-1.334845066
0.419993103,0.6200924515724182,0.074467413,-0.784552634,0.001838262,0.00046265,0.007773529,-0.15996933,0.093381666,0.2555350959300995,-0.071811274,0.6616134643554688,-1.334819436
0.42499429,0.6188008189201355,0.074125312,-0.78448081,0.002750755,-0.002655988,0.007541483,-0.159921601,0.093400508,0.2555348575115204,-0.071802229,0.6616074442863464,-1.334804535
0.42999655,0.6197128295898438,0.074279673,-0.783547223,0.003078222,-0.001296004,0.006415698,-0.159884885,0.093415,0.2555346786975861,-0.071801148,0.6616159081459045,-1.334789753
0.434993654,0.6185493469238281,0.074540488,-0.783061206,0.003778477,-0.001605315,0.006418717,-0.159965917,0.093261153,0.2546392679214478,-0.071793333,0.6616159081459045,-1.33479166
0.439991802,0.618479848,0.070677355,-0.784810603,0.002629104,-0.001775229,0.006876392,-0.160028264,0.09314277,0.253950298,-0.071780801,0.66161871,-1.334782839
0.444990963,0.6183342337608337,0.07203152,-0.785309494,0.003228445,-0.001568978,0.005925946,-0.160048947,0.093103513,0.2537218630313873,-0.071779586,0.66161871,-1.334792972
0.449991167,0.6196382641792297,0.073217079,-0.784746706,0.002132771,-0.001363849,0.006926452,-0.160064846,0.093073316,0.2535460889339447,-0.071778379,0.6616228818893433,-1.334787846
0.454992384,0.619280219,0.074709758,-0.785008609,0.003263382,-0.002930858,0.004369386,-0.160180733,0.093063809,0.2533097565174103,-0.071786255,0.6616134643554688,-1.334818602
0.459994614,0.6172775626182556,0.072872274,-0.786226928,0.000877079,-0.001149839,0.006050167,-0.160381749,0.093056999,0.2529478967189789,-0.071787015,0.6616160869598389,-1.334840655
0.464991748,0.6183110475540161,0.072886556,-0.785262287,0.00296503,-0.002190365,0.005781906,-0.160448402,0.093054742,0.252827913,-0.071784787,0.6616071462631226,-1.334853768
0.469989628,0.619849682,0.071180351,-0.784210563,0.002798621,-0.001710864,0.006731987,-0.160499707,0.093052998,0.2527355849742889,-0.071768805,0.6616119742393494,-1.33485508
0.474988788,0.6182894110679626,0.072248176,-0.782496095,0.002949072,-0.002307625,0.007219649,-0.160516709,0.093052424,0.2527049779891968,-0.071761869,0.6616160869598389,-1.334842086
0.479988992,0.614202619,0.074668437,-0.782776952,0.001656215,-0.002413944,0.006641346,-0.160076991,0.092921719,0.2541497647762299,-0.071774125,0.6616088151931763,-1.334844589
0.484990209,0.6164155006408691,0.073882714,-0.784067571,0.002092608,-0.002275207,0.006606301,-0.159931183,0.092878371,0.2546288371086121,-0.071771942,0.6616038084030151,-1.334837198
0.489992201,0.6187816262245178,0.071258262,-0.783834994,0.002278367,-0.00134164,0.007048813,-0.159818992,0.092845023,0.2549974620342255,-0.071765654,0.6616075038909912,-1.334807992
0.494989306,0.6197150945663452,0.073386751,-0.784594297,0.003148474,-0.001247179,0.005857719,-0.159781784,0.092833966,0.2551196813583374,-0.071756847,0.6616143584251404,-1.334784627
0.499987215,0.618672788,0.071661718,-0.783841491,0.002814668,-0.001592441,0.006824048,-0.160196573,0.09303806,0.2553256750106812,-0.071753584,0.6616158485412598,-1.33478272
0.504986346,0.6206724047660828,0.072249725,-0.786059618,0.003131918,-0.002565557,0.005166498,-0.160443842,0.093158334,0.2554216682910919,-0.071740195,0.6616125702857971,-1.334768534
0.509986579,0.6195935606956482,0.073015794,-0.785424531,0.002888864,-0.001072229,0.005058597,-0.160634086,0.093250878,0.2554955184459686,-0.071740746,0.6616156697273254,-1.334775805
0.514987767,0.6196492910385132,0.072465613,-0.785003424,0.00333498,-0.003376285,0.00417174,-0.160697177,0.093281567,0.2555200159549713,-0.071734399,0.6616138219833374,-1.334778309
0.519989789,0.6193011403083801,0.07252004,-0.78594768,0.00016604,-0.003367311,0.005387989,-0.16074267,0.093185171,0.2550296783447266,-0.071749344,0.6616078615188599,-1.334786654
0.524986863,0.6200072765350342,0.072969109,-0.784878075,0.001971577,-0.002099691,0.005136597,-0.16075471,0.093032189,0.2543536126613617,-0.07175009,0.6616055369377136,-1.334800601
0.529985011,0.6186763644218445,0.07290753,-0.785171092,0.001396755,-0.004285187,0.006622067,-0.160763964,0.092914477,0.2538334429264069,-0.071752176,0.6615911722183228,-1.334812164
0.534984171,0.6204957365989685,0.073280379,-0.785077333,0.002031377,-0.002737273,0.004782988,-0.160767034,0.092875443,0.2536609470844269,-0.071758188,0.66159004,-1.334826469
0.539984405,0.6208481192588806,0.07386712,-0.785353601,0.002183581,-0.001821308,0.00630001,-0.160769388,0.092845418,0.2535282373428345,-0.071757376,0.6615938544273376,-1.334835052
0.544986129,0.6212480068206787,0.073357642,-0.78461653,0.004474652,-0.002684674,0.006148933,-0.16047883,0.09288539,0.2540068030357361,-0.071744628,0.6615877151489258,-1.334818602
0.549988627,0.6203687787055969,0.074007429,-0.784862339,0.003599265,-0.002678766,0.006368972,-0.160255268,0.092916146,0.2543750405311584,-0.071740359,0.6615874767303467,-1.334811807
0.554991603,0.616947353,0.073553056,-0.78459096,0.002464938,-0.002342983,0.006047618,-0.160181135,0.092926346,0.2544971406459808,-0.071742527,0.661582351,-1.334819078
0.559989989,0.6177698969841003,0.072353899,-0.786539733,0.000946494,-0.003449699,0.006441052,-0.160124093,0.092934199,0.2545910775661469,-0.071744621,0.6615700125694275,-1.334815025
0.564988911,0.6182588934898376,0.072607115,-0.783919096,0.003554644,-0.003684899,0.005111088,-0.16016303,0.093055412,0.2548622488975525,-0.071734294,0.6615644097328186,-1.334806919
0.569989145,0.6182830929756165,0.072140947,-0.784796834,0.002351068,-0.002236576,0.005587501,-0.160251483,0.093268618,0.2553135752677917,-0.071732894,0.6615562438964844,-1.334797978
0.574990094,0.6187314987182617,0.074441724,-0.784254909,0.001541294,-0.003108742,0.006956777,-0.160280809,0.093339309,0.2554632127285004,-0.071731858,0.6615533232688904,-1.33478725
0.579992294,0.6174941062927246,0.074571326,-0.784749329,0.002512512,-0.002339954,0.006896382,-0.160303369,0.093393706,0.255578339,-0.071731433,0.6615515947341919,-1.334776402
0.584989429,0.6180002093315125,0.071472265,-0.783388674,0.003576931,-0.001835472,0.00632493,-0.16031085,0.093411744,0.2556165456771851,-0.071717009,0.661548376,-1.334765673
0.589987576,0.6193487644195557,0.07128334,-0.784300029,0.002412064,-0.002732164,0.005708446,-0.160310671,0.093212925,0.2545239329338074,-0.071706787,0.6615444421768188,-1.334761381
0.594987273,0.6181390285491943,0.072409436,-0.784090877,0.00253487,-0.003042027,0.006363909,-0.160310596,0.093147002,0.2541616559028625,-0.071701683,0.6615358591079712,-1.334766865
0.599987984,0.6192338466644287,0.072052278,-0.783889949,0.00301673,-0.002203762,0.006273575,-0.160310552,0.093096279,0.253882885,-0.071688034,0.6615314483642578,-1.334757686
0.604988933,0.6176044344902039,0.071835354,-0.783692718,0.003216914,-0.004257816,0.006754072,-0.160310537,0.093079463,0.2537904679775238,-0.071676798,0.661522388,-1.334753156
0.609991193,0.6177018880844116,0.073045053,-0.784634292,0.003566336,-0.002295326,0.005361191,-0.160315841,0.093326211,0.2543510794639587,-0.071671732,0.6615170240402222,-1.33475256
0.614988267,0.6177270412445068,0.070335418,-0.784284115,0.003345058,-0.003715281,0.00606423,-0.160318911,0.093472287,0.2546932995319366,-0.071662582,0.6615135073661804,-1.334750891
0.619986415,0.6191310882568359,0.074156508,-0.784807026,0.003441808,-0.001150113,0.005858345,-0.16032128,0.093584687,0.2549566030502319,-0.071662061,0.6615237,-1.334746361
0.624985874,0.6191478371620178,0.073432945,-0.784684122,0.004240676,-0.000944084,0.005084758,-0.16032207,0.093621954,0.2550439238548279,-0.07164789,0.661526084,-1.334744573
0.629985809,0.6177051067352295,0.073397644,-0.783838212,0.003131113,-0.001515222,0.005851909,-0.160180241,0.093498819,0.2545695006847382,-0.071647905,0.6615283489227295,-1.334756136
0.634986758,0.619077206,0.07148739,-0.784477413,0.003292021,-0.00070767,0.005252061,-0.159989595,0.093304917,0.253866047,-0.071644194,0.6615344882011414,-1.334760666
0.639989018,0.61882484,0.072294824,-0.785128355,0.00093105,0.000299553,0.004299467,-0.159842908,0.093155719,0.2533248066902161,-0.07164941,0.6615415215492249,-1.334775448
0.644986629,0.6182152032852173,0.070894025,-0.78367275,0.003496578,-0.001683543,0.006376538,-0.159794271,0.093106247,0.2531453371047974,-0.071635373,0.6615399718284607,-1.334769249
0.649984777,0.6187050938606262,0.071007602,-0.783413053,0.001720915,-0.001046777,0.005970087,-0.159756839,0.093068182,0.2530072331428528,-0.071641631,0.6615473031997681,-1.33477211
0.654983938,0.6195335984230042,0.071807526,-0.784458399,0.001117272,-0.001953294,0.00495622,-0.160281822,0.093015186,0.2529723346233368,-0.071650051,0.6615431904792786,-1.334793925
0.659983873,0.6184538602828979,0.072993755,-0.784206212,0.001219786,0.000302156,0.005872929,-0.160685763,0.092974409,0.2529454827308655,-0.071660005,0.6615579724311829,-1.334816933
0.664985359,0.619559646,0.073639244,-0.784608066,0.000869997,-0.000940028,0.005078326,-0.160819709,0.092960887,0.2529366016387939,-0.071678534,0.6615610122680664,-1.334852099
0.669987321,0.6184288263320923,0.075037397,-0.783705533,0.001951242,-0.000893378,0.004698783,-0.160922766,0.092950486,0.2529297471046448,-0.071683601,0.6615634560585022,-1.334880233
0.674984694,0.6180452108383179,0.076534927,-0.782959402,0.002027586,-0.000980209,0.00527613,-0.160820663,0.093035527,0.2534343302249908,-0.071694806,0.6615727543830872,-1.334890962
0.679982841,0.6180292367935181,0.074721612,-0.783555686,0.00307647,-0.000675016,0.007295457,-0.160604328,0.093190432,0.2543351054191589,-0.071689412,0.6615724563598633,-1.334890604
0.684982002,0.6168312430381775,0.074635237,-0.783157587,0.001687987,-0.000763006,0.006463089,-0.160532594,0.093241796,0.2546337842941284,-0.071689434,0.6615806221961975,-1.334888816
0.689988077,0.616400421,0.074504584,-0.784273386,0.003311605,-0.001173247,0.007252545,-0.160477385,0.093281314,0.2548635900020599,-0.071675099,0.6615780591964722,-1.334886909
0.694989324,0.6174708008766174,0.075520679,-0.784223258,0.004037576,-0.001297474,0.00839761,-0.160459086,0.093294419,0.2549397945404053,-0.071665667,0.6615796089172363,-1.334875584
0.699991286,0.6160178184509277,0.072872773,-0.785428286,0.004342617,-3.11E-05,0.00765249,-0.159858823,0.093225069,0.2549176812171936,-0.071648166,0.6615821123123169,-1.334860921
0.70498842,0.6185796856880188,0.073035553,-0.784852803,0.003645097,-0.001254514,0.007333588,-0.159659788,0.093202069,0.2549103498458862,-0.071634069,0.6615883111953735,-1.334839702
0.709987044,0.6196528673171997,0.071990125,-0.78591615,0.00347887,-0.000527155,0.006570001,-0.159506649,0.093184374,0.2549046874046326,-0.071624868,0.6615989208221436,-1.334819555
0.714986265,0.6200737357139587,0.07220047,-0.785514534,0.003265269,0.000593253,0.006924591,-0.159455866,0.093178511,0.2549028098583221,-0.071612626,0.6616103649139404,-1.334790945
0.719986439,0.6187515258789063,0.07247971,-0.78496021,0.003594656,-0.001004142,0.006932893,-0.159953997,0.093229875,0.2543294727802277,-0.071600892,0.6616157293319702,-1.334794283
0.724987388,0.6190673112869263,0.074557297,-0.78446722,0.002863131,-0.002083664,0.00704651,-0.160252109,0.093260728,0.2539978623390198,-0.071593098,0.6616237759590149,-1.334797382
0.729989886,0.6179490685462952,0.072180741,-0.78243041,0.004090833,0.000987946,0.006744384,-0.160481483,0.093284465,0.2537426948547363,-0.071580194,0.6616392135620117,-1.33479929
0.734987259,0.6200922727584839,0.072173215,-0.784320652,0.003304021,0.000672615,0.006847491,-0.160557538,0.093292341,0.2536580860614777,-0.071577176,0.6616482734680176,-1.334802151
0.739985406,0.6190080046653748,0.072964355,-0.784336865,0.003298514,0.000181363,0.00810134,-0.160449728,0.093241341,0.2540108561515808,-0.071563952,0.6616594791412354,-1.334783316
0.744984329,0.6182510256767273,0.073176891,-0.783993065,0.001419216,0.001321844,0.006160705,-0.160246268,0.093166895,0.2545491456985474,-0.071567208,0.6616767644882202,-1.334773421
0.749984503,0.6199175715446472,0.075212821,-0.783096433,0.003775452,-4.22E-05,0.008300331,-0.160089716,0.093109623,0.2549633383750916,-0.071548268,0.661685586,-1.334737659
0.75498575,0.6189200878143311,0.074283622,-0.784507394,0.003571243,0.001195893,0.00723129,-0.160037816,0.093090624,0.2551006674766541,-0.071544252,0.6617072224617004,-1.334727287
0.75998795,0.61874789,0.07345137,-0.784440339,0.002430893,0.000688533,0.006681631,-0.159997866,0.093076013,0.2552063465118408,-0.071539514,0.6617233157157898,-1.334719896
0.764985323,0.6180455088615417,0.073345445,-0.78324753,0.004514159,0.000954746,0.005982801,-0.160323858,0.093018793,0.2543495893478394,-0.071527719,0.6617411375045776,-1.334736824
0.76998347,0.6191330552101135,0.073398106,-0.783387601,0.003563487,0.002097488,0.005645507,-0.160574675,0.092974767,0.2536903619766235,-0.071523212,0.6617564558982849,-1.33475101
0.774982393,0.6166965365409851,0.072956778,-0.782050073,0.004935466,0.002411585,0.005519968,-0.160657853,0.092960164,0.2534717917442322,-0.071510293,0.6617754697799683,-1.334767342
0.779983103,0.6171107888221741,0.072318934,-0.784213424,0.003797175,0.002502656,0.006316186,-0.160721853,0.092948936,0.253303587,-0.071499445,0.6617936491966248,-1.334783792
0.784984291,0.6183483600616455,0.073256798,-0.784969151,0.003679288,0.002030529,0.006913336,-0.160688058,0.093000986,0.2531560361385345,-0.071493044,0.6618115901947021,-1.334801674
0.789986312,0.6182020902633667,0.071925022,-0.783453643,0.003452639,0.002092215,0.007548354,-0.160606444,0.093097433,0.2529497146606445,-0.071487762,0.6618363261222839,-1.334807754
0.794983685,0.6199045181274414,0.072045237,-0.783930302,0.003367525,0.001185656,0.006476566,-0.160579368,0.093129411,0.2528812885284424,-0.071469553,0.6618553400039673,-1.334804296
0.799982071,0.6192881464958191,0.072316006,-0.785916567,0.002753805,0.001552155,0.005971835,-0.160558552,0.093154013,0.2528286576271057,-0.071459368,0.6618698835372925,-1.334818721
0.80498153,0.6178389191627502,0.072736233,-0.783533812,0.002531203,0.00257028,0.00616603,-0.160551652,0.093162172,0.2528111934661865,-0.07145571,0.6618905067443848,-1.334832668
0.809981465,0.61924094,0.072238348,-0.783850968,0.003891062,0.00139439,0.008622047,-0.159960911,0.093155846,0.2526459693908691,-0.071437575,0.6619107723236084,-1.334813595
0.814982653,0.6183580756187439,0.073091462,-0.785179675,0.004156501,0.002761997,0.00586706,-0.15976502,0.093153752,0.2525911927223206,-0.071427673,0.6619294285774231,-1.33483088
0.819984615,0.6194108724594116,0.072005838,-0.78523916,0.003918847,0.003183328,0.005985913,-0.159614295,0.093152136,0.2525490522384644,-0.071414635,0.6619513630867004,-1.334835172
0.824988186,0.6189532876014709,0.072666816,-0.784428477,0.00442753,0.001491976,0.00812886,-0.159564316,0.093151599,0.2525350749492645,-0.071400642,0.6619765758514404,-1.334825039
0.829986572,0.6199847459793091,0.07275603,-0.784573376,0.004469204,0.004052258,0.007510243,-0.160017446,0.093120031,0.253644735,-0.071384586,0.6620076894760132,-1.334816337
0.834985733,0.6196422576904297,0.072549075,-0.783810377,0.004777952,0.002892745,0.005637375,-0.160289332,0.093101852,0.2542899250984192,-0.071369164,0.6620320081710815,-1.334812284
0.839985907,0.6194047927856445,0.074551269,-0.783487201,0.005509937,0.001937709,0.006322205,-0.16049853,0.093087867,0.254786342,-0.07135503,0.6620429754257202,-1.334800482
0.844987154,0.6184749007225037,0.074090593,-0.783284307,0.004498003,0.000595717,0.006682714,-0.160567895,0.093083225,0.2549509406089783,-0.071341321,0.6620560884475708,-1.334794998
0.849989355,0.6201726198196411,0.071772046,-0.783946037,0.005433231,0.00109789,0.007693958,-0.16064772,0.093075797,0.2545976638793945,-0.071319796,0.6620716452598572,-1.334786177
0.854987025,0.6181769967079163,0.071586043,-0.783177555,0.005220133,0.002121252,0.008144557,-0.160700858,0.093069449,0.2539965510368347,-0.071291126,0.6620929837226868,-1.334783196
0.859985173,0.6188943982124329,0.071920194,-0.783386111,0.005228456,0.002619164,0.004974122,-0.160741732,0.093064569,0.2535340785980225,-0.071283333,0.6621050834655762,-1.334801793
0.864984334,0.6216617226600647,0.073776148,-0.784912527,0.002933124,0.000923681,0.007015517,-0.160755292,0.093062945,0.2533807158470154,-0.071274742,0.6621245145797729,-1.334796548
0.869984508,0.6197581887245178,0.072380789,-0.784189761,0.003729761,-0.000162679,0.006598365,-0.160765722,0.0930617,0.2532626986503601,-0.071265675,0.6621309518814087,-1.334808707
0.874985456,0.6191588044166565,0.071511917,-0.784691989,0.003295116,0.001081404,0.008283355,-0.160719857,0.092962168,0.253593922,-0.0712483,0.6621479988098145,-1.334796548
0.879987717,0.6197574138641357,0.073115431,-0.784446478,0.003842261,-0.001169704,0.007627659,-0.160684571,0.092885584,0.2538487613201141,-0.071231931,0.6621488332748413,-1.334785938
0.884984851,0.6196181178092957,0.073288709,-0.784797013,0.004123734,-0.001145643,0.007651254,-0.160672873,0.092860192,0.2539332509040833,-0.071223743,0.662159801,-1.334782362
0.889982998,0.6205531358718872,0.072399601,-0.783128738,0.003976243,0.000457897,0.005932227,-0.160663873,0.092840649,0.2539983093738556,-0.071213081,0.6621719598770142,-1.334779501
0.894982398,0.6192543506622314,0.07321734,-0.783406913,0.003170338,-0.000463604,0.005928691,-0.160329506,0.092889234,0.2544332146644592,-0.071209043,0.6621829271316528,-1.334758997
0.899982572,0.6179368495941162,0.073285855,-0.78539592,0.003495395,-9.78E-05,0.005572381,-0.159737155,0.0929823,0.2551858127117157,-0.071209677,0.6621865630149841,-1.334754944
0.90498358,0.618878186,0.071472116,-0.78378433,0.002187054,-0.000321957,0.006232976,-0.159540743,0.09301316,0.2554353475570679,-0.071199156,0.662189782,-1.334719419
0.909985781,0.6186917424201965,0.07244464,-0.784172118,0.003252476,-0.000633151,0.005864783,-0.159389615,0.093036905,0.2556273639202118,-0.07119675,0.6621971130371094,-1.334700823
0.914982915,0.6181870102882385,0.073878907,-0.784934759,0.003028939,0.001095776,0.003967228,-0.159339502,0.09304478,0.2556910216808319,-0.071198128,0.6622065305709839,-1.334719658
0.919981539,0.6200753450393677,0.072229758,-0.784358203,0.001824973,-0.001749556,0.004230234,-0.159945369,0.092980519,0.2540668845176697,-0.07121028,0.6622032523155212,-1.334738851
0.924980462,0.6175525188446045,0.070187479,-0.785174191,0.000282024,-0.001428971,0.003467691,-0.160146266,0.09295921,0.2535283267498016,-0.071228884,0.662203848,-1.334776163
0.929980695,0.6198882460594177,0.071812868,-0.783250451,0.001039476,-0.002149847,0.002714165,-0.160300836,0.092942812,0.2531139552593231,-0.07123667,0.6622051000595093,-1.33478868
0.934981883,0.6208418011665344,0.072439998,-0.782723486,0.002558015,-0.001980787,0.002749187,-0.160352081,0.09293738,0.2529765665531158,-0.071251541,0.66220808,-1.334815502
0.939984381,0.6203598380088806,0.072094686,-0.782981694,0.001530552,-0.001795342,0.002161406,-0.1604442,0.093043439,0.2537167370319366,-0.07127101,0.6622072458267212,-1.334832549
0.944981754,0.620145321,0.068519309,-0.783052862,0.000612356,-0.002285342,0.002532867,-0.160487786,0.093105882,0.2541714608669281,-0.071283244,0.6622108817100525,-1.334837437
0.949979663,0.6202772855758667,0.069428153,-0.78259933,-0.001081046,-0.00265777,0.001090591,-0.160521314,0.093153931,0.2545213401317596,-0.071311243,0.6622065305709839,-1.334846139
0.954978824,0.6211305856704712,0.069693096,-0.780972302,-0.001567089,-0.005166552,0.002034815,-0.16053243,0.093169861,0.2546373605728149,-0.071339957,0.6621894836425781,-1.334843993
0.959985137,0.620261014,0.06903898,-0.78139782,-0.000990624,-0.00646708,0.00108295,-0.160374314,0.093151428,0.2548738718032837,-0.071369752,0.6621743440628052,-1.334844828
0.964986622,0.61850214,0.069256775,-0.781655729,-0.002911556,-0.006385478,0.000816935,-0.160153821,0.093114376,0.2551007866859436,-0.071404152,0.6621485352516174,-1.334851027
0.969988585,0.6211045384407043,0.068966463,-0.780492604,-0.003885859,-0.008952591,-0.002104081,-0.159984171,0.093085863,0.2552753984928131,-0.071457095,0.6621153950691223,-1.334856033
0.974985719,0.6278619170188904,0.055795319,-0.778786898,-0.009208955,-0.008820705,-0.009707692,-0.15992792,0.093076408,0.2553333044052124,-0.071543574,0.6620967388153076,-1.334863305
0.979983628,0.627304733,0.038689792,-0.785229325,-0.022368619,-0.009551426,-0.008037326,-0.159884632,0.093069136,0.255377859,-0.071635552,0.6620743870735168,-1.334794521
0.984982789,0.6074454188346863,0.1041362509131432,-0.784892082,-0.011805713,-0.014355322,-0.002830436,-0.160111666,0.093012452,0.2544989585876465,-0.071829639,0.6619778275489807,-1.335000873
0.989982724,0.6025341749191284,0.1197637021541595,-0.782933831,0.001990463,-0.008675968,5.872081965208054e-05,-0.160286352,0.092968844,0.2538227140903473,-0.071973585,0.6619149446487427,-1.335255861
0.994983673,0.6141257882118225,0.073087245,-0.786395788,0.005696092,-0.00780658,0.013059086,-0.160344288,0.092954382,0.2535984814167023,-0.071881734,0.6618815660476685,-1.335187197
0.999985933,0.6180007457733154,0.06634061,-0.787675381,0.008117314,-0.010962942,0.014004901,-0.160388857,0.092943251,0.2534259259700775,-0.071790718,0.6618384718894958,-1.335111499
1.004983306,0.6181535720825195,0.081413649,-0.782354891,0.010295486,-0.013346853,0.008811207,-0.160183936,0.093026161,0.2538439631462097,-0.07176517,0.661777139,-1.335113764
1.009981751,0.6224058866500854,0.074582003,-0.780871272,0.011433562,-0.01178022,0.011758571,-0.159804121,0.093177527,0.2546461522579193,-0.071692586,0.6617403030395508,-1.335031033
1.014980912,0.6253450512886047,0.06704668,-0.780619025,0.008406833,-0.01124133,0.009399485,-0.159678176,0.093227714,0.2549121379852295,-0.071630761,0.6617106795310974,-1.334939122
1.019980788,0.6284834742546082,0.049536631,-0.781352937,0.002530643,-0.012643891,0.00466329,-0.159581274,0.093266338,0.2551167905330658,-0.071579888,0.6616727709770203,-1.334836721
1.024981976,0.6222987174987793,0.060837902,-0.787479639,-0.004988359,-0.016231883,0.003613557,-0.159549147,0.093279146,0.2551846504211426,-0.071612313,0.6615976691246033,-1.334801078
1.029984236,0.6158188581466675,0.089463755,-0.784013689,-0.000622097,-0.016757099,0.003468473,-0.159590811,0.093294747,0.2557299733161926,-0.071678519,0.6615099906921387,-1.334849238
1.03498137,0.6139145493507385,0.085565999,-0.78381151,0.004440236,-0.014976817,0.004629746,-0.159604609,0.093299918,0.2559107840061188,-0.071691632,0.6614388227462769,-1.334888458
1.039979577,0.615649402,0.066698007,-0.787706435,0.003728398,-0.013655552,0.009760267,-0.159615234,0.093303904,0.2560499012470245,-0.071636789,0.661376417,-1.334825754
1.04497838,0.622405469,0.063399859,-0.78499043,0.00239997,-0.015100331,0.00434979,-0.15961875,0.093305223,0.2560960352420807,-0.071622312,0.6613085269927979,-1.334766269
1.049978614,0.6248161196708679,0.066689596,-0.781285465,-0.001057944,-0.016763456,0.002772715,-0.159862533,0.093299367,0.2548671364784241,-0.071638532,0.6612434387207031,-1.334756255
1.054979563,0.6177693605422974,0.06767647,-0.782791436,-0.003699089,-0.016856955,-0.000999476,-0.160003021,0.093295731,0.2541467845439911,-0.071678713,0.6611576080322266,-1.334789038
1.059981585,0.6199998259544373,0.06156512,-0.786367536,-0.004940891,-0.0193124,-0.004463867,-0.160111114,0.093292929,0.2535925209522247,-0.071732052,0.6610720157623291,-1.334841132
1.064978719,0.6217443943023682,0.059191342,-0.787026942,-0.007138796,-0.022582527,-0.009137233,-0.160146967,0.093291998,0.2534087300300598,-0.071803004,0.6609646677970886,-1.334889054
1.069976807,0.6228571534156799,0.059716843,-0.784290969,-0.012069673,-0.022154614,-0.012690717,-0.16020149,0.093124025,0.253840297,-0.071928769,0.6608609557151794,-1.334958911
1.074976563,0.6210454106330872,0.068902664,-0.782187223,-0.015624532,-0.020974385,-0.006868819,-0.160246745,0.092899658,0.2545612156391144,-0.0720535,0.6607725620269775,-1.334996462
1.079976678,0.6162172555923462,0.085756809,-0.782039642,-0.01328923,-0.023618668,-0.006381155,-0.160281569,0.09272702,0.2551158964633942,-0.072202303,0.6606602072715759,-1.335094571
1.084977627,0.6138678789138794,0.080969594,-0.780970216,-0.01046991,-0.021752931,-0.005183632,-0.160293117,0.092669778,0.255299836,-0.072324641,0.6605600118637085,-1.335173845
1.089979887,0.6205512285232544,0.072634101,-0.782112896,-0.010590984,-0.02507956,-0.003751813,-0.160301998,0.092625737,0.2554413378238678,-0.07241524,0.6604411602020264,-1.335203767
1.09498322,0.6231575608253479,0.075868487,-0.777515769,-0.007855651,-0.027575957,-0.001192085,-0.160111681,0.092760652,0.2555885910987854,-0.072485164,0.6603313684463501,-1.335180044
1.099981546,0.6201580762863159,0.080430917,-0.77775085,-0.008431221,-0.029704178,-0.001325986,-0.159965247,0.092864454,0.25570187,-0.072585538,0.6601946353912354,-1.335207343
1.104980707,0.6164564490318298,0.072296299,-0.786396086,-0.006725314,-0.032453183,-0.004349425,-0.159916699,0.092898868,0.2557394504547119,-0.072657853,0.6600338220596313,-1.335259318
1.109980702,0.6182751059532166,0.065365762,-0.787279367,-0.006361641,-0.031285089,-0.004910359,-0.159879342,0.092925355,0.2557683289051056,-0.07271383,0.6598814725875854,-1.335287571
1.11498189,0.6205487847328186,0.06998156,-0.783503115,-0.008656951,-0.03177394,0.001683198,-0.160114989,0.092904918,0.2552125155925751,-0.072771497,0.659741223,-1.335289359
1.11998415,0.6177716255187988,0.086787403,-0.784192324,-0.006283153,-0.029379642,0.001339629,-0.160547093,0.092859663,0.2542131245136261,-0.072856516,0.6596065163612366,-1.335357666
1.124981761,0.6117264628410339,0.083989516,-0.784328043,-0.00413901,-0.028835349,0.003856946,-0.160690367,0.092844658,0.2538817524909973,-0.072912753,0.6594556570053101,-1.33543098
1.12997961,0.6148374080657959,0.074125998,-0.787124753,-0.003210803,-0.029020952,0.004771857,-0.160800621,0.092833109,0.2536267936229706,-0.072935864,0.6593184471130371,-1.335458994
1.134978771,0.6162763833999634,0.069229022,-0.785078824,-0.003189009,-0.030380186,0.006206513,-0.160837173,0.09282928,0.2535422444343567,-0.072934963,0.659183145,-1.335428119
1.139978766,0.6167466044425964,0.075494923,-0.783466935,-0.003361885,-0.026611017,0.005198769,-0.160282269,0.092692912,0.254872739,-0.072970949,0.6590568423271179,-1.335420728
1.144979954,0.6151606440544128,0.07511279,-0.784892976,-0.005723657,-0.028801493,0.004938658,-0.16009827,0.092647702,0.255313903,-0.073003948,0.6589201688766479,-1.335412621
1.149981976,0.6167550683021545,0.071691133,-0.784193635,-0.004079189,-0.029547863,0.003958968,-0.159956694,0.092612907,0.2556533217430115,-0.073028274,0.6587844491004944,-1.335394502
1.154979348,0.6177109479904175,0.066711709,-0.782910883,-0.004774851,-0.030131934,-0.000731085,-0.159909755,0.092601374,0.2557658851146698,-0.073059067,0.658653736,-1.335379004
1.159977436,0.6180139780044556,0.066208892,-0.784486771,-0.007555753,-0.029898575,0.001957695,-0.159675732,0.09262982,0.2547906041145325,-0.073107481,0.6585108041763306,-1.335382104
1.164976597,0.6110394597053528,0.07576146,-0.782799423,-0.010274081,-0.029615078,0.00384461,-0.159549177,0.092648491,0.2542044520378113,-0.073178381,0.6583733558654785,-1.335399747
1.16997683,0.6173160076141357,0.080383033,-0.788671911,-0.009146405,-0.027860397,0.003110928,-0.159451798,0.092662856,0.2537534534931183,-0.073267832,0.658242941,-1.335453153
1.174978018,0.6161211729049683,0.077304989,-0.786141932,-0.007992007,-0.028586728,0.005531554,-0.159419492,0.092667617,0.2536039352416992,-0.073311225,0.6581043601036072,-1.335454226
1.17998004,0.613889217,0.080063388,-0.784091711,-0.007287508,-0.027232356,0.002558535,-0.159646749,0.09268298,0.2542443573474884,-0.073367096,0.6579785943031311,-1.335476756
1.184977412,0.6122549176216125,0.077747993,-0.788483262,-0.006652544,-0.025728088,0.004034462,-0.159976333,0.09269987,0.2552185952663422,-0.073421955,0.6578480005264282,-1.335514784
1.1899755,0.6163280010223389,0.075543694,-0.785709202,-0.005863794,-0.024668045,0.008257875,-0.160229921,0.092712864,0.2559681832790375,-0.073437519,0.6577401161193848,-1.335472703
1.194974661,0.6121581792831421,0.081305847,-0.789862216,-0.003201767,-0.024136186,0.007102583,-0.160313994,0.092717171,0.2562167346477509,-0.073478915,0.6576179265975952,-1.335504055
1.199974895,0.6121899485588074,0.071231097,-0.78833282,-0.005073627,-0.021656221,0.009237136,-0.160378695,0.092720486,0.2564079761505127,-0.073473305,0.6575193405151367,-1.3354702
1.204976082,0.6157863736152649,0.075381987,-0.785552204,-0.005707681,-0.017339705,0.008199994,-0.159907132,0.092699558,0.2550871670246124,-0.07349629,0.6574470400810242,-1.335452795
1.20997858,0.6216541528701782,0.07661093,-0.785805881,-0.004715369,-0.019712554,0.008117164,-0.159544304,0.092683449,0.254070908,-0.073538803,0.6573745608329773,-1.335446358
1.214975953,0.613686204,0.081468247,-0.783510387,-0.004379441,-0.01898548,0.011291966,-0.159423992,0.092678107,0.2537339329719543,-0.073553629,0.657287061,-1.335426569
1.219974399,0.6131935119628906,0.092952207,-0.787486374,-0.000937144,-0.017220175,0.009506175,-0.159331426,0.092674002,0.2534746527671814,-0.073598206,0.6572065949440002,-1.335482836
1.224979401,0.6059703230857849,0.086494096,-0.788987339,0.001611694,-0.015711702,0.012625441,-0.159411788,0.09261959,0.2536616921424866,-0.073585667,0.6571182608604431,-1.33550179
1.229979634,0.6101076006889343,0.074928679,-0.791197956,0.003507942,-0.012718887,0.016039614,-0.159585938,0.092524081,0.2540816962718964,-0.073531568,0.6570574641227722,-1.335468531
1.234980583,0.6175347566604614,0.067493029,-0.785991192,0.002672012,-0.013332433,0.015364159,-0.15964368,0.092492409,0.2542209625244141,-0.073467687,0.6570100784301758,-1.335374713
1.239982843,0.6077778339385986,0.071641274,-0.787207067,-0.000879044,-0.014259555,0.013802673,-0.159688115,0.092468038,0.2543281018733978,-0.073445521,0.656942606,-1.335360408
1.244980216,0.6100353598594666,0.063050993,-0.794260085,-0.001686584,-0.011980667,0.012827602,-0.159702837,0.092459954,0.254363626,-0.073416404,0.6568781137466431,-1.335335255
1.249978423,0.6227135062217712,0.065543637,-0.781396091,-0.006615119,-0.006908493,0.00862281,-0.159654096,0.092790499,0.2544562518596649,-0.073429711,0.6568829417228699,-1.335252166
1.254977822,0.6191381812095642,0.096672513,-0.780167162,-0.003593226,-0.011620895,0.008949725,-0.159637928,0.092900105,0.2544869482517242,-0.073505476,0.6568472385406494,-1.335273743
1.259978771,0.6054914593696594,0.092839532,-0.786800563,0.001446054,-0.014888969,0.013323553,-0.159625486,0.092984438,0.2545105814933777,-0.073516935,0.6567623019218445,-1.335331678
1.264980197,0.596942663,0.075813226,-0.786430776,0.001326183,-0.011640854,0.016247021,-0.159621358,0.0930124,0.2545184195041656,-0.073458292,0.6566964387893677,-1.335305095
1.269982457,0.6146379113197327,0.066265218,-0.793576181,0.002497282,-0.009656016,0.013918711,-0.159276709,0.092885107,0.2556299865245819,-0.073403329,0.656647801,-1.335240006
1.274979591,0.6272796988487244,0.06119474,-0.781939268,0.000173959,-0.01039845,0.013369639,-0.159077927,0.092806078,0.2562721371650696,-0.073360041,0.656641424,-1.335069776
1.279977679,0.6247610449790955,0.071535386,-0.778878331,-0.000453598,-0.016812958,0.015028962,-0.158924982,0.092745267,0.2567662000656128,-0.073332027,0.6565933227539063,-1.334929585
1.284977198,0.6129763722419739,0.075852379,-0.783353627,-0.000959211,-0.016736683,0.013320923,-0.158874258,0.092725106,0.2569300532341003,-0.073324673,0.6565147042274475,-1.334874749
1.289977312,0.5978578329086304,0.072915532,-0.796569586,-0.004838734,-0.013006418,0.012370907,-0.158916384,0.092566475,0.2569992542266846,-0.073336668,0.6564196348190308,-1.334912419
1.294978619,0.6222426891326904,0.062928267,-0.79318881,-0.004728704,-0.007547635,0.013070692,-0.159012184,0.092369556,0.2569648623466492,-0.07330443,0.6564074754714966,-1.334790945
1.29998076,0.6299375295639038,0.08533363,-0.779460251,-0.003020006,-0.012026633,0.011316382,-0.1590859,0.092218041,0.2569383978843689,-0.073349737,0.6563984155654907,-1.334686875
1.304978132,0.6175301074981689,0.1033638715744019,-0.783594131,0.000202612,-0.014585174,0.013885616,-0.159110352,0.092167802,0.2569296360015869,-0.073406674,0.6563349962234497,-1.334701896
1.309976101,0.6002667546272278,0.087484829,-0.785439849,0.00337932,-0.014124697,0.021025231,-0.159129143,0.092129149,0.2569228708744049,-0.07334853,0.656252921,-1.334665895
1.314975262,0.5974550843238831,0.078968748,-0.797873974,0.005205819,-0.008434261,0.021565799,-0.159235269,0.092464,0.2558610439300537,-0.073267385,0.6561879515647888,-1.334675789
1.319975376,0.6226265430450439,0.05681885,-0.795450628,0.007577917,-0.008486704,0.024227098,-0.159316927,0.092721649,0.255044013,-0.073111311,0.6561859250068665,-1.334481955
1.324976683,0.6208560466766357,0.066337593,-0.780638397,0.003149138,-0.007393263,0.020670149,-0.159344003,0.092807084,0.2547731101512909,-0.073026448,0.6561821699142456,-1.334325552
1.329978585,0.6139518022537231,0.089275904,-0.785516202,0.002189899,-0.009266355,0.016863666,-0.159364834,0.092872813,0.254564643,-0.073043279,0.6561476588249207,-1.334332585
1.334975958,0.6101855635643005,0.077194855,-0.791195691,0.003743313,-0.007447741,0.020001732,-0.159288928,0.092839718,0.2549750208854675,-0.072979048,0.6561106443405151,-1.334280729
1.339974642,0.616901696,0.073400542,-0.787277639,0.006089805,-0.008786495,0.022510774,-0.159146786,0.092758752,0.2557756006717682,-0.072882786,0.6560911536216736,-1.334137082
1.344973803,0.6121131181716919,0.07699731,-0.784034729,0.006143045,-0.008510472,0.021803088,-0.159099653,0.092731908,0.2560410499572754,-0.072803922,0.6560587286949158,-1.334036827
1.349973798,0.6050540804862976,0.070311211,-0.795213163,0.004947025,-0.006400254,0.019138239,-0.159063384,0.092711248,0.2562453150749207,-0.072729923,0.6560121774673462,-1.334003448
1.354974747,0.6257856488227844,0.057149995,-0.79047823,0.001317984,-0.005154814,0.021624196,-0.159051359,0.0927044,0.2563130259513855,-0.072636709,0.6560317277908325,-1.333806872
1.359982848,0.6166980266571045,0.064839333,-0.783695459,-0.00143459,-0.00890139,0.02065059,-0.15897727,0.092762783,0.2560821175575256,-0.072574988,0.6560095548629761,-1.333665609
1.364985824,0.6158543229103088,0.077347532,-0.787469745,-0.004945923,-0.00323887,0.014738308,-0.158952698,0.09278214,0.2560055553913116,-0.072594441,0.6560029983520508,-1.333628058
1.369984269,0.6201146245002747,0.07417354,-0.786916554,-0.002465132,-0.005279581,0.016057782,-0.158933789,0.092797033,0.2559466361999512,-0.0725841,0.6559975147247314,-1.333542228
1.374983191,0.6139782667160034,0.084024161,-0.783238828,-0.001557831,-0.011297571,0.020326857,-0.158927515,0.092801973,0.2559270858764648,-0.072561137,0.6559624671936035,-1.333449125
1.379983306,0.6154118776321411,0.0903541,-0.786073744,0.003187155,-0.0103783,0.016999049,-0.15897043,0.092851207,0.2552250027656555,-0.072552443,0.6559162139892578,-1.333436847
1.384984612,0.6139695644378662,0.077497423,-0.784285605,0.00692541,-0.01400675,0.022929944,-0.158996463,0.092878774,0.2548222243785858,-0.072455406,0.655867875,-1.333326817
1.389986873,0.5995404720306396,0.077235684,-0.787580132,0.004212138,-0.012836251,0.0226925,-0.15901649,0.092899993,0.2545123100280762,-0.072379388,0.655798614,-1.333281398
1.394984245,0.6178589463233948,0.070034452,-0.798533857,0.007891209,-0.008789377,0.021003179,-0.159023136,0.092907026,0.2544095516204834,-0.072284237,0.6557608842849731,-1.333209991
1.399982333,0.6205549836158752,0.059393074,-0.783605874,0.006728793,-0.014404583,0.024263272,-0.158947945,0.09300337,0.2549885213375092,-0.07213407,0.6557214856147766,-1.332982421
1.404981256,0.617073119,0.081926733,-0.780501962,0.005634011,-0.012587892,0.017926363,-0.158842042,0.093127012,0.2558440864086151,-0.072103076,0.655686617,-1.332903147
1.409981489,0.602246106,0.085541636,-0.783531666,0.005622186,-0.014524718,0.017450755,-0.158760563,0.093222149,0.2565023899078369,-0.072078772,0.6556108593940735,-1.332890391
1.414982438,0.6048737764358521,0.06867294,-0.794334412,0.004958587,-0.010103187,0.022745008,-0.158733547,0.093253694,0.2567206621170044,-0.071975812,0.6555503606796265,-1.33281076
1.419984698,0.6167742609977722,0.056826118,-0.788971841,0.002914899,-0.011685982,0.022318034,-0.15871276,0.093277968,0.2568886280059814,-0.071855836,0.6555178761482239,-1.332619905
1.424982071,0.6173093318939209,0.064005397,-0.786001563,0.002860845,-0.011038795,0.01934584,-0.158753633,0.09323474,0.2567871809005737,-0.071785182,0.6554871797561646,-1.332487583
1.42997992,0.6068961620330811,0.068969108,-0.788086236,-0.002782731,-0.011383224,0.015939618,-0.158785075,0.093201473,0.256709099,-0.071760334,0.6554329395294189,-1.332429171
1.43497932,0.6206183433532715,0.06168687,-0.793989778,-0.003883616,-0.010462414,0.017550522,-0.158795506,0.093190439,0.2566832304000854,-0.071720205,0.6554012298583984,-1.332315922
1.439979315,0.6206744313240051,0.064604193,-0.787726521,-0.004895844,-0.012710695,0.014449408,-0.158803523,0.093181953,0.2566633224487305,-0.071697041,0.6553677320480347,-1.332193851
1.444980264,0.6220337748527527,0.071766004,-0.784804761,-0.006052871,-0.012207586,0.008971641,-0.158749744,0.09312012,0.2566262483596802,-0.071726397,0.6553326845169067,-1.33213222
1.449982166,0.612573504,0.067297064,-0.790086329,-0.007722436,-0.01478714,0.008575589,-0.158651277,0.093012862,0.2565669417381287,-0.071754284,0.6552590131759644,-1.332101583
1.4549793,0.6223071813583374,0.053001642,-0.79146111,-0.009886732,-0.015431085,0.00799698,-0.158618629,0.092977293,0.2565472722053528,-0.071750917,0.6552027463912964,-1.331993461
1.459977269,0.6185064911842346,0.072570547,-0.784446299,-0.013065259,-0.01523917,0.001774237,-0.158593506,0.092949927,0.2565321326255798,-0.071853898,0.6551547050476074,-1.331985354
1.46497643,0.6162919998168945,0.091173306,-0.784408987,-0.010222377,-0.016610961,0.002838211,-0.158585176,0.092940852,0.2565270960330963,-0.071972474,0.6550838351249695,-1.332046628
1.469976544,0.6075848340988159,0.089277841,-0.789707065,-0.004930507,-0.016555801,0.01045887,-0.158512533,0.09305729,0.255396307,-0.072018385,0.6549980044364929,-1.332084537
1.474977851,0.6110005974769592,0.082791977,-0.788367093,-0.001425273,-0.015526166,0.014360482,-0.158488438,0.093095899,0.255021334,-0.072006978,0.6549268960952759,-1.332059622
1.47998023,0.6120830178260803,0.072917789,-0.788558245,0.00078094,-0.014078026,0.016190672,-0.158469915,0.093125612,0.2547328174114227,-0.071965717,0.6548692584037781,-1.331999183
1.484978199,0.6151446104049683,0.06350068,-0.788546443,0.000187542,-0.016148016,0.01654074,-0.158463776,0.093135461,0.2546371519565582,-0.071896374,0.6548032164573669,-1.331900835
1.489976525,0.6152404546737671,0.074109003,-0.786727369,-0.001572883,-0.014233287,0.010768407,-0.158658087,0.093157947,0.2557834982872009,-0.071900129,0.6547552347183228,-1.331853032
1.494981647,0.6105059385299683,0.071799487,-0.790837407,-0.002114158,-0.01656018,0.005322367,-0.158771783,0.093169086,0.2564654648303986,-0.071922719,0.6546710729598999,-1.331874967
1.499981523,0.6079844832420349,0.060616519,-0.791603625,-0.005123823,-0.013897113,0.009649226,-0.158859268,0.093177661,0.2569902241230011,-0.07191287,0.6546014547348022,-1.331829786
1.504982829,0.6101423501968384,0.063637324,-0.791181743,-0.008047686,-0.008704012,0.010793537,-0.158888265,0.093180507,0.2571642100811005,-0.071919598,0.6545668244361877,-1.331773281
1.50998497,0.6102120280265808,0.081463657,-0.785180867,-0.009806436,-0.005603713,0.005768318,-0.158797026,0.093034983,0.2571474313735962,-0.072007529,0.6545535326004028,-1.331792593
1.514982104,0.6076496243476868,0.087521091,-0.790107191,-0.007675636,-0.005727867,0.008090748,-0.158652261,0.092837788,0.2569898962974548,-0.07208582,0.6545227766036987,-1.331845522
1.519980311,0.606468141,0.077023216,-0.791730642,-0.007269625,-0.003071769,0.012051905,-0.158540875,0.092686065,0.2568687200546265,-0.072109587,0.6545099020004272,-1.331829429
1.524979234,0.6132044196128845,0.072483592,-0.79084897,-0.007042908,-0.002091823,0.010070652,-0.15850395,0.092635758,0.2568285167217255,-0.072128788,0.654508114,-1.331786871
1.529979348,0.6128976941108704,0.072413683,-0.791041136,-0.006814993,0.000627097,0.009123704,-0.158475533,0.092597045,0.256797582,-0.072160371,0.654526949,-1.331762552
1.534980655,0.6124817132949829,0.0694177,-0.792183995,-0.0088182,-0.000824177,0.006063675,-0.158466741,0.092780083,0.2559919059276581,-0.072205111,0.6545202732086182,-1.33177495
1.539982796,0.6096155047416687,0.073471986,-0.792639911,-0.008660947,0.002133621,0.009347666,-0.158459991,0.092920914,0.255372018,-0.072251417,0.6545298099517822,-1.331790566
1.544980168,0.6076638102531433,0.076585986,-0.790564477,-0.009158006,0.004458774,0.011313035,-0.158457756,0.092967607,0.2551664412021637,-0.072298683,0.6545623540878296,-1.331795454
1.549978375,0.6073389053344727,0.07851851,-0.792594314,-0.007700887,0.007104762,0.012789016,-0.158456028,0.093003534,0.2550082802772522,-0.072332174,0.6545950770378113,-1.331809521
1.554977298,0.6110739707946777,0.07321474,-0.792230308,-0.00911322,0.008686601,0.011665051,-0.158538148,0.092987396,0.2548676729202271,-0.072365545,0.6546467542648315,-1.331797361
1.55997777,0.6154865026473999,0.06432835,-0.789479494,-0.009524493,0.008574475,0.008966861,-0.158684954,0.092946619,0.2546703815460205,-0.072390459,0.6547030806541443,-1.331761837
1.564978719,0.6178909540176392,0.056256171,-0.789624572,-0.011287477,0.008155653,0.000398824,-0.158733621,0.092933096,0.2546049356460571,-0.072448976,0.6547635793685913,-1.331769586
1.569980979,0.6217626929283142,0.056800649,-0.789827883,-0.015612926,0.008447137,0.000189188,-0.158771068,0.092922695,0.2545545995235443,-0.072527088,0.6548277139663696,-1.331753969
1.574977994,0.6120287179946899,0.080351807,-0.787345409,-0.015936516,0.008154813,0.002161077,-0.158783481,0.092919245,0.2545379102230072,-0.072655946,0.6548676490783691,-1.331809282
1.579976201,0.6121779084205627,0.0888322,-0.789308131,-0.014129214,0.010647144,0.003517727,-0.158664674,0.092726424,0.2561408877372742,-0.072792321,0.6549264192581177,-1.331883669
1.5849756,0.6106710433959961,0.074617773,-0.789826453,-0.011016983,0.011922708,0.003759913,-0.15862529,0.092662491,0.2566724121570587,-0.072865367,0.6549999713897705,-1.331898928
1.589975834,0.617476761,0.06145044,-0.78757298,-0.011896925,0.013518764,0.004866783,-0.158594981,0.092613295,0.2570813596248627,-0.072898291,0.6550769805908203,-1.33183825
1.594976783,0.6201233267784119,0.079049826,-0.786130309,-0.011914484,0.013039413,-0.001991095,-0.158584923,0.092596985,0.2572169601917267,-0.073028512,0.6551724672317505,-1.331874371
1.599978805,0.6083138585090637,0.089138001,-0.788760781,-0.010060748,0.012444353,0.002702776,-0.158427194,0.092570961,0.2561551630496979,-0.073153876,0.6552304029464722,-1.331993222
1.604976177,0.6033389568328857,0.085181177,-0.792347372,-0.007416572,0.016864803,0.00663502,-0.158337772,0.092558995,0.255514532,-0.07322374,0.6552993059158325,-1.332075238
1.609974265,0.6106095314025879,0.073168986,-0.792704642,-0.005346134,0.017981896,0.005992603,-0.158268988,0.092549786,0.2550216019153595,-0.073259391,0.6553921699523926,-1.332098842
1.614973426,0.6167387366294861,0.063063078,-0.791129112,-0.00758551,0.019020529,0.004978776,-0.158246174,0.092546739,0.2548581659793854,-0.073285252,0.6555036306381226,-1.332082629
1.619973421,0.6179007887840271,0.067873426,-0.789573669,-0.008761506,0.018811509,0.00182529,-0.158480436,0.092665121,0.2547959983348846,-0.073355772,0.6556093096733093,-1.332105398
1.624974608,0.6128131151199341,0.075084828,-0.789861023,-0.010093543,0.019091975,-4.92E-05,-0.158812031,0.092826121,0.2548395097255707,-0.073460095,0.6557055711746216,-1.332196116
1.629982948,0.6113142371177673,0.075539589,-0.789741755,-0.012023486,0.021236734,-7.82E-05,-0.159067169,0.092949994,0.2548729777336121,-0.073560581,0.6558225154876709,-1.332273126
1.634986758,0.6104059815406799,0.079649106,-0.788293779,-0.010077292,0.024173124,0.000932615,-0.159151763,0.092991069,0.2548840939998627,-0.073656209,0.6559463739395142,-1.332351089
1.639985442,0.6126285791397095,0.080532461,-0.786778092,-0.009839847,0.026638387,0.002983183,-0.159216851,0.093022682,0.2548926174640656,-0.073753498,0.6560864448547363,-1.332416654
1.644984603,0.6135035157203674,0.080300808,-0.784459949,-0.009763932,0.026352968,0.004443622,-0.159190878,0.092939839,0.2559002935886383,-0.073842451,0.6562327146530151,-1.332441449
1.649984479,0.6127505898475647,0.079433255,-0.787524223,-0.007249708,0.029581567,0.004697065,-0.159170896,0.092876099,0.2566756308078766,-0.073905684,0.6563854217529297,-1.332463503
1.654986024,0.6170674562454224,0.072263174,-0.787370205,-0.005452341,0.026647562,0.003167077,-0.159164265,0.092854962,0.2569327354431152,-0.073947214,0.6565367579460144,-1.33245492
1.659988165,0.6144386529922485,0.073812999,-0.786516488,-0.005758765,0.028242491,0.00561073,-0.159159169,0.092838697,0.2571305632591248,-0.07399895,0.6566855907440186,-1.332472563
1.664985657,0.6080166697502136,0.085735679,-0.785988629,-0.006165753,0.027823644,0.006688279,-0.159209728,0.092741013,0.2564474642276764,-0.074069805,0.6568230390548706,-1.332541466
1.669983745,0.6099284887313843,0.089879587,-0.787739992,-0.002737636,0.033763468,0.013156819,-0.159301504,0.092572525,0.2551648318767548,-0.074117325,0.6569893360137939,-1.332597494
1.674982667,0.6132175326347351,0.082182936,-0.78509289,0.000116131,0.032784715,0.015471627,-0.159331918,0.092516661,0.2547395527362823,-0.074106365,0.6571685671806335,-1.332570791
1.679982901,0.6165051460266113,0.073329799,-0.791479409,0.000408374,0.033865102,0.012707821,-0.159355342,0.092473671,0.2544123232364655,-0.074091308,0.6573415994644165,-1.332561135
1.68498385,0.6235228776931763,0.061853793,-0.786809921,0.001097143,0.031665482,0.012568701,-0.159363106,0.09245941,0.2543038129806519,-0.074036211,0.6575309038162231,-1.332455754
1.689985991,0.6184728741645813,0.070825018,-0.78402251,-0.001496917,0.029485121,0.009255874,-0.159176633,0.092388757,0.2554821074008942,-0.074050419,0.6576942205429077,-1.332418203
1.694983125,0.6054753661155701,0.084348127,-0.78808707,-0.002296256,0.030604931,0.009728334,-0.159114808,0.092365324,0.2558728158473969,-0.074097201,0.6578309535980225,-1.332483888
1.699981332,0.6065969467163086,0.087053679,-0.789331675,-0.00182967,0.037487388,0.015126309,-0.159067228,0.092347302,0.2561734318733215,-0.074125834,0.6580208539962769,-1.332514763
1.704980254,0.6133201122283936,0.086997271,-0.7871418,0.002431721,0.03865248,0.018268231,-0.159051448,0.092341326,0.256273091,-0.074111022,0.6582294702529907,-1.332466364
1.709980369,0.629490852,0.068103917,-0.787910879,0.006237039,0.038176831,0.016026024,-0.159181714,0.092228346,0.2552961707115173,-0.074033864,0.6584525108337402,-1.33235836
1.714981318,0.6227453351020813,0.057278097,-0.783187747,0.000711789,0.034096491,0.013549364,-0.159260139,0.092164069,0.2547115385532379,-0.073981546,0.658641517,-1.332265019
1.719983578,0.6060665845870972,0.080387615,-0.789015651,-0.001562668,0.036225092,0.013030838,-0.159320489,0.092114605,0.2542616724967957,-0.074013092,0.6588045954704285,-1.332345366
1.724980712,0.6077108979225159,0.094600983,-0.788844287,0.001037002,0.042572312,0.015576296,-0.159340486,0.092098206,0.2541125118732452,-0.074049115,0.659023643,-1.332401872
1.729978919,0.6165435910224915,0.091537245,-0.789597392,0.007366487,0.045195688,0.022683347,-0.159385651,0.092120171,0.254568487,-0.074005321,0.6592643857002258,-1.332359672
1.73497808,0.6333208084106445,0.066570573,-0.780467808,0.010629568,0.042109899,0.02018374,-0.159430653,0.092162333,0.2552952170372009,-0.073874697,0.6595290303230286,-1.332155585
1.739978194,0.6111577749252319,0.064049266,-0.782962859,0.00514166,0.040314618,0.01908138,-0.159465268,0.092194773,0.2558543980121613,-0.073804326,0.6597152948379517,-1.332089543
1.744979143,0.6215997934341431,0.076620378,-0.788251877,0.001560141,0.042211168,0.01985883,-0.159476742,0.092205532,0.2560397982597351,-0.073785491,0.6599538922309875,-1.332006216
1.749981403,0.6136842966079712,0.092346899,-0.781951308,0.006302456,0.042278118,0.020608691,-0.159485579,0.092213809,0.2561824917793274,-0.073764712,0.6601688861846924,-1.331980824
1.754978538,0.6112259030342102,0.091905996,-0.783154368,0.012578,0.043649446,0.026941845,-0.159585819,0.092410445,0.2550132274627686,-0.073680215,0.6603991389274597,-1.33195281
1.759976745,0.6122950315475464,0.082413703,-0.784220994,0.015551015,0.047554966,0.032275237,-0.159662947,0.092561744,0.2541135549545288,-0.073529638,0.6606453061103821,-1.331842542
1.764981747,0.6168268918991089,0.075987004,-0.78662324,0.017249336,0.047272447,0.032331336,-0.159688532,0.092611916,0.2538152635097504,-0.073362522,0.6609008312225342,-1.331710339
1.76998198,0.6188566088676453,0.066784509,-0.783170104,0.01723025,0.047361206,0.03230102,-0.159708202,0.092650518,0.2535857260227203,-0.073173203,0.6611623764038086,-1.331541419
1.774983168,0.6225127577781677,0.070781715,-0.781695068,0.016821807,0.046637971,0.031459998,-0.159771636,0.092641316,0.2541415989398956,-0.073015004,0.6614261865615845,-1.331369877
1.779985428,0.6232619881629944,0.073497057,-0.782629848,0.016076874,0.046055194,0.02939954,-0.159877986,0.092611991,0.2552083432674408,-0.072865456,0.6616769433021545,-1.331211805
1.7849828,0.621574342,0.071940713,-0.784996092,0.016475594,0.0445683,0.031602725,-0.159913242,0.092602268,0.255562037,-0.072711572,0.6619197726249695,-1.331054807
1.789981127,0.6241675615310669,0.067381062,-0.785238028,0.017497795,0.04465675,0.03083813,-0.159940377,0.092594787,0.2558342218399048,-0.072533272,0.6621648073196411,-1.330874205
1.794980407,0.6282669305801392,0.068694495,-0.782493174,0.015537581,0.041427054,0.028776689,-0.159949377,0.092592306,0.2559244334697723,-0.072371416,0.6624042391777039,-1.330682993
1.799980283,0.6261698007583618,0.067290813,-0.779598832,0.016256357,0.038036801,0.027314425,-0.159628898,0.092640668,0.2547923624515533,-0.07222116,0.662622869,-1.330519915
1.80498147,0.6240112781524658,0.067768954,-0.779181063,0.013410905,0.037027538,0.02912253,-0.159522623,0.092656702,0.2544169723987579,-0.072083242,0.6628372669219971,-1.330356002
1.809983969,0.6248502135276794,0.072405919,-0.781412065,0.011478463,0.034796637,0.025069116,-0.15944086,0.092669047,0.2541281878948212,-0.071982339,0.6630350351333618,-1.330232501
1.814981937,0.6227930188179016,0.075158969,-0.782500267,0.011481412,0.035171028,0.027505962,-0.159413755,0.092673138,0.2540324032306671,-0.071869321,0.6632347702980042,-1.330103874
1.819980025,0.6248369812965393,0.074806787,-0.781124592,0.013228592,0.034206927,0.026889026,-0.15998134,0.092837557,0.2537039220333099,-0.071744241,0.6634316444396973,-1.329983592
1.824979186,0.6268976926803589,0.075019747,-0.778839707,0.013267457,0.034749687,0.028115503,-0.160315141,0.092931986,0.2535319328308105,-0.071617678,0.663635254,-1.329843998
1.829979658,0.6208248138427734,0.069811866,-0.779774129,0.010296419,0.034960639,0.028816367,-0.160571977,0.093004636,0.2533996105194092,-0.071489811,0.663825512,-1.329710484
1.834980607,0.6123981475830078,0.07048025,-0.785301745,0.006770034,0.039758835,0.02734432,-0.160657138,0.093028724,0.2533557415008545,-0.071388505,0.6640239953994751,-1.32963872
1.839982867,0.6092343330383301,0.074708939,-0.790203929,0.006303533,0.045870129,0.028192785,-0.16075027,0.093047246,0.25326246,-0.071298294,0.6642420291900635,-1.329596877
1.844980001,0.6095648407936096,0.082091883,-0.78896296,0.0072014,0.052444149,0.034187932,-0.160808995,0.093053386,0.2531715035438538,-0.071205705,0.6645075082778931,-1.329538107
1.849978089,0.6110289692878723,0.088533044,-0.784260988,0.01000104,0.060486838,0.036683824,-0.160854191,0.093058109,0.2531014978885651,-0.071089491,0.6648197770118713,-1.32945478
1.854977012,0.6092156767845154,0.087919883,-0.782555103,0.011976393,0.067053139,0.042563621,-0.160869181,0.093059674,0.2530783116817474,-0.070948392,0.6651637554168701,-1.329351068
1.859977245,0.6020816564559937,0.082505263,-0.78756392,0.01038643,0.077987313,0.049806751,-0.1608807,0.093060873,0.2530604600906372,-0.0707746,0.6655498743057251,-1.329212666
1.864978194,0.5987162590026855,0.082194738,-0.793119192,0.011583471,0.088765979,0.050937057,-0.160837173,0.093162358,0.2531053721904755,-0.070591107,0.6659826040267944,-1.329096079
1.86998117,0.5975931286811829,0.084439486,-0.79521066,0.012950423,0.099803001,0.057973754,-0.160803691,0.093240447,0.2531399130821228,-0.070379384,0.6664626598358154,-1.328957558
1.874979019,0.6064273118972778,0.088085026,-0.792755008,0.016080836,0.1134722828865051,0.065043285,-0.160792589,0.093266346,0.2531513571739197,-0.070142679,0.6670359373092651,-1.32873714
1.879977226,0.6148748993873596,0.088416703,-0.78933984,0.020064849,0.1211727559566498,0.068658128,-0.160784051,0.093286268,0.253160149,-0.069865704,0.6676545739173889,-1.328468561
1.884976149,0.6174246668815613,0.081165493,-0.790214777,0.019790484,0.1263825595378876,0.071860388,-0.160811216,0.093355745,0.2536734640598297,-0.069569707,0.6683065891265869,-1.328150034
1.889976263,0.6170243620872498,0.076195717,-0.789347887,0.0205175,0.1331899017095566,0.077106185,-0.160862446,0.093472786,0.2545844912528992,-0.06923379,0.6689882278442383,-1.327785969
1.894977808,0.6203258633613586,0.072870798,-0.789922416,0.019567862,0.1398838311433792,0.078154236,-0.160879448,0.093511596,0.2548865675926208,-0.068898238,0.669716477,-1.327396154
1.899985909,0.6239988207817078,0.070595719,-0.787198186,0.017307144,0.1427622884511948,0.078632273,-0.160892516,0.093541458,0.2551189959049225,-0.06857574,0.6704537868499756,-1.326995611
1.904989243,0.6219964623451233,0.067220233,-0.787016928,0.016763423,0.1490830928087234,0.081769675,-0.160896853,0.09355136,0.2551960945129395,-0.068240784,0.6712298989295959,-1.326590061
1.90998733,0.6257055401802063,0.062555514,-0.785014331,0.012441036,0.1554795354604721,0.084251419,-0.160637736,0.093739033,0.2533510029315948,-0.067903355,0.672037661,-1.326134324
1.914986491,0.6276918053627014,0.057892535,-0.78380233,0.009006111,0.1571061462163925,0.080922507,-0.160551816,0.09380126,0.2527391910552979,-0.067594111,0.6728599071502686,-1.325699091
1.919986486,0.6329805254936218,0.054383095,-0.786185324,-0.001322377,0.1609771400690079,0.08388865,-0.1604857,0.093849137,0.2522684335708618,-0.067304812,0.6736964583396912,-1.325210929
1.924987674,0.6311127543449402,0.048584916,-0.789412737,-0.011870882,0.1629437804222107,0.083239987,-0.16046378,0.093865015,0.2521123588085175,-0.067068323,0.674540102,-1.324745178
1.929989576,0.6333561539649963,0.047978401,-0.793005288,-0.020952882,0.1663974523544312,0.078807466,-0.161821261,0.094112642,0.2526508569717407,-0.066901617,0.6753943562507629,-1.324336529
1.934986711,0.6356361508369446,0.049484115,-0.792789221,-0.035794508,0.1678149849176407,0.078344382,-0.162611485,0.094253011,0.2529923915863037,-0.066808946,0.676258922,-1.323916554
1.939984679,0.6370189189910889,0.052005313,-0.791556835,-0.04416934,0.166483462,0.076012179,-0.163219497,0.094361015,0.253255159,-0.066788934,0.6771089434623718,-1.323526263
1.94498384,0.6385679841041565,0.057452381,-0.789454162,-0.055586554,0.1706449687480927,0.072592124,-0.163421094,0.094396822,0.2533422708511353,-0.066835403,0.677989125,-1.323148012
1.949983716,0.6316452622413635,0.060590785,-0.795898676,-0.066965461,0.1760433912277222,0.072406009,-0.163298637,0.094474755,0.2531931400299072,-0.066956364,0.6788678169250488,-1.322829723
1.954984903,0.6250112056732178,0.056822959,-0.80049485,-0.087766163,0.188086525,0.07280691,-0.162978113,0.094551392,0.252925694,-0.067161039,0.6798068881034851,-1.322538018
1.959986925,0.6288233399391174,0.055729706,-0.805131912,-0.116639264,0.20189169,0.079450399,-0.162731484,0.094610363,0.252719909,-0.067491867,0.6808208227157593,-1.32218802
1.964984059,0.6030102372169495,0.062331475,-0.815277159,-0.140860334,0.2320292145013809,0.090487786,-0.162649721,0.094629914,0.2526516914367676,-0.067938015,0.6819319128990173,-1.321911335
1.969982266,0.5725318789482117,0.072876632,-0.83664155,-0.160807714,0.2850804924964905,0.1123944148421288,-0.162586793,0.094644964,0.2525991797447205,-0.068398856,0.6832500696182251,-1.32173121
1.974981427,0.5595486760139465,0.039322771,-0.875595868,-0.261320233,0.3639430403709412,0.1502816826105118,-0.162954077,0.094598524,0.2516909241676331,-0.06912633,0.6849455237388611,-1.321356058
1.979981542,0.5712923407554626,0.046156563,-0.888210893,-0.358089685,0.4373466372489929,0.1812280565500259,-0.163236678,0.094562784,0.25099209,-0.070344083,0.6870532035827637,-1.32079196
1.984982729,0.5332103967666626,0.050444137,-0.917809248,-0.460969537,0.5341902375221252,0.2308182716369629,-0.163330391,0.094550937,0.2507603764533997,-0.071852952,0.689531684,-1.320227861
1.989984989,0.4515017867088318,0.065757014,-0.958301365,-0.665513933,0.7093037366867065,0.3522235751152039,-0.163402483,0.094541818,0.2505820989608765,-0.073969416,0.6927834749221802,-1.319355011
1.994982123,0.414475292,0.1520412862300873,-0.959558368,-0.84446454,0.9511885643005371,0.4951028525829315,-0.163505271,0.094278142,0.250227153,-0.076767251,0.6973473429679871,-1.317928314
1.999980569,0.4145943522453308,0.2136302143335342,-0.964983642,-0.909512997,1.196109414100647,0.6162720918655396,-0.163664117,0.093811698,0.2496549636125565,-0.079505384,0.7031916379928589,-1.316027164
2.004979372,0.4408391118049622,0.2090614885091782,-0.974155486,-0.892837048,1.420413732528687,0.6855552792549133,-0.163716778,0.093657039,0.2494652271270752,-0.08176586,0.7102237343788147,-1.313690066
2.009979486,0.5158783793449402,0.1453287899494171,-1.015660167,-0.934971988,1.591359257698059,0.701412022,-0.163757309,0.093538038,0.2493192404508591,-0.084033325,0.7181825041770935,-1.311006546
2.014980316,0.5801648497581482,0.095901653,-1.014666319,-1.001419067,1.689069151878357,0.6980190873146057,-0.16377075,0.09349858,0.2492708265781403,-0.086650603,0.7265830039978027,-1.308182955
2.019982576,0.6279373168945313,0.090450607,-1.035780787,-1.072640777,1.779167652130127,0.7034422755241394,-0.166752338,0.092369355,0.2482497245073318,-0.089620598,0.7354742884635925,-1.305345297
2.02497983,0.6697531342506409,0.1141549497842789,-1.072957158,-1.143960595,1.834301829338074,0.7035000920295715,-0.167740986,0.091994926,0.2479111552238464,-0.093000673,0.7446173429489136,-1.302635431
2.029977798,0.7169395089149475,0.1488964110612869,-1.084588289,-1.177777648,1.852952957,0.7139487862586975,-0.168501675,0.09170682,0.2476506531238556,-0.096556395,0.7538502216339111,-1.299863338
2.03498292,0.7032364010810852,0.1568491607904434,-1.075167775,-1.212364435,1.869973898,0.7403967380523682,-0.168753892,0.091611296,0.2475642710924149,-0.100132532,0.7631341218948364,-1.296998739
2.039983034,0.7057076096534729,0.1950711905956268,-1.060213208,-1.244104147,1.917583584785461,0.7808077335357666,-0.17186664,0.091007493,0.2444405555725098,-0.103776745,0.7726949453353882,-1.29409039
2.044984579,0.7208572626113892,0.2862440347671509,-1.053536177,-1.213451385,1.951643705368042,0.8156731724739075,-0.173620999,0.090676062,0.2426482737064362,-0.107312173,0.7824892997741699,-1.291218162
2.049986839,0.6793331503868103,0.3021072745323181,-1.039841294,-1.157128811,1.964133381843567,0.8121908903121948,-0.174970865,0.090421043,0.2412692308425903,-0.11052683,0.7922348976135254,-1.288550377
2.054983854,0.6881504058837891,0.2462098598480225,-1.057243943,-1.113983512,1.968829274177551,0.7902252078056335,-0.175418466,0.090336487,0.2408119589090347,-0.113430053,0.802004874,-1.285896778
2.059982061,0.6913233399391174,0.2330344766378403,-1.090727687,-1.125503778,1.957030415534973,0.7953345775604248,-0.177447677,0.089804389,0.2394471168518066,-0.116337352,0.8116452097892761,-1.283318043
2.064980984,0.7194643616676331,0.2559278011322021,-1.121660113,-1.118333817,1.910251498222351,0.8286603689193726,-0.179819494,0.089157,0.2379730343818665,-0.119082943,0.8210502862930298,-1.280568838
2.069981098,0.7305790781974792,0.2541371285915375,-1.121425748,-1.033951759,1.818583488464355,0.8493165969848633,-0.18164444,0.088658884,0.2368388324975967,-0.121076219,0.8299880027770996,-1.277494431
2.074982166,0.7145706415176392,0.2259041517972946,-1.122877955,-0.94902283,1.72081995,0.8360792994499207,-0.182249561,0.088493712,0.2364627569913864,-0.122511327,0.8383656740188599,-1.274426103
2.079984188,0.6319723129272461,0.260823518,-1.151865125,-0.895565093,1.614033699035645,0.8541558980941772,-0.182715163,0.088366628,0.2361733764410019,-0.123599976,0.8460761904716492,-1.271593451
2.084981203,0.5437948107719421,0.3632064461708069,-1.184907317,-0.762806296,1.472627163,0.8730450868606567,-0.185940042,0.087959036,0.2340788692235947,-0.12406069,0.8529003262519836,-1.269246101
2.089979172,0.4857423007488251,0.4225267767906189,-1.248250723,-0.506718159,1.307015180587769,0.8274351954460144,-0.188421384,0.087645419,0.2324672937393188,-0.123342954,0.8586897850036621,-1.267563581
2.094978809,0.4754623770713806,0.4273700714111328,-1.288728118,-0.254872471,1.154645442962646,0.7337110042572021,-0.189244136,0.087541431,0.2319329231977463,-0.121697217,0.8635656833648682,-1.266617537
2.099978685,0.5078978538513184,0.4276991188526154,-1.293762445,-0.077748299,1.030664920806885,0.6898540854454041,-0.189877197,0.087461419,0.2315217554569244,-0.119389497,0.8678655624389648,-1.265736341
2.104979753,0.4583448469638824,0.4595714211463928,-1.357601047,0.08661104,0.8737161159515381,0.6351124048233032,-0.191198915,0.087788418,0.2298714965581894,-0.116462536,0.871240497,-1.265532613
2.109981775,0.3132264614105225,0.4869410395622253,-1.405782223,0.277141273,0.6613034009933472,0.5317755937576294,-0.193340093,0.088397495,0.2270709127187729,-0.113163069,0.873164952,-1.266683102
2.114979029,0.1729104369878769,0.4274546802043915,-1.425623536,0.4576797485351563,0.4481460452079773,0.4249886274337769,-0.194050074,0.088599451,0.2261422872543335,-0.109217308,0.8737630248069763,-1.268601894
2.119977236,0.026680086,0.3313954174518585,-1.426555037,0.5554693341255188,0.2754965722560883,0.3278926610946655,-0.19459635,0.088754848,0.2254277765750885,-0.105001181,0.8733193278312683,-1.271088839
2.124976397,-0.106350459,0.2587106227874756,-1.418197393,0.5609736442565918,0.1390083879232407,0.2461197227239609,-0.194777489,0.088806368,0.2251908481121063,-0.101063289,0.8720750212669373,-1.274173498
2.129976273,-0.204292029,0.2125084400177002,-1.4106915,0.5164794325828552,0.016552452,0.1742987632751465,-0.196639195,0.091366313,0.2240296751260757,-0.097678006,0.8701270222663879,-1.277847171
2.134977818,-0.258199275,0.1851061284542084,-1.412340045,0.4304606318473816,-0.10025572,0.1135216280817986,-0.197256505,0.092215143,0.2236446589231491,-0.095000297,0.867531955,-1.281951189
2.139980078,-0.277474642,0.1755148619413376,-1.41638267,0.3236951231956482,-0.220817968,0.068605393,-0.19773148,0.092868261,0.2233484089374542,-0.093050234,0.8642994165420532,-1.286332488
2.144977331,-0.273956329,0.1828061193227768,-1.421563387,0.2189135998487473,-0.346967012,0.036556322,-0.19788897,0.09308482,0.2232501804828644,-0.09177839,0.8604307174682617,-1.290893912
2.1499753,-0.251613557,0.1938592195510864,-1.427513361,0.1218082904815674,-0.482478321,0.00829155,-0.198238105,0.095250584,0.2247956693172455,-0.091140136,0.8558961153030396,-1.295582056
2.154974222,-0.230039254,0.2093860656023026,-1.431815743,0.043178018,-0.624576032,-0.013635605,-0.198410273,0.096463397,0.2257092595100403,-0.090952419,0.8506608605384827,-1.300330162
2.159974337,-0.217673033,0.2292691022157669,-1.430040956,-0.00961181,-0.767813861,-0.036479179,-0.198542744,0.097396575,0.2264122068881989,-0.091129616,0.844706655,-1.305196881
2.164975405,-0.203750968,0.2414934635162354,-1.426922798,-0.032709736,-0.904259324,-0.06098384,-0.198586673,0.097705998,0.226645291,-0.091482073,0.8380931615829468,-1.31013751
2.169983387,-0.193611562,0.233907163,-1.414301515,-0.040724836,-1.031622529,-0.08870063,-0.198214158,0.098382823,0.2283733189105988,-0.091930486,0.8308812975883484,-1.315066218
2.174986601,-0.182754979,0.2219661921262741,-1.397800088,-0.043550078,-1.147054791,-0.120813482,-0.197680905,0.099049687,0.2305079847574234,-0.092452355,0.8231248259544373,-1.320013404
2.179984808,-0.177425921,0.2160557508468628,-1.375758171,-0.041117046,-1.244604468,-0.151049271,-0.197270617,0.099562787,0.2321504503488541,-0.093069322,0.8149235844612122,-1.32503438
2.184983969,-0.172616243,0.2078385055065155,-1.358099341,-0.038516153,-1.323142648,-0.17169331,-0.197134569,0.099732928,0.232695073,-0.09371385,0.8063632249832153,-1.330061197
2.189984083,-0.154380679,0.1997471153736115,-1.351366162,-0.038026903,-1.385221481,-0.185730994,-0.197029904,0.099863835,0.2331141233444214,-0.094367974,0.7975570559501648,-1.335017443
2.194984913,-0.115635984,0.1881965547800064,-1.347814798,-0.041853525,-1.442659736,-0.199665055,-0.195005342,0.1002596542239189,0.237123579,-0.095025443,0.7885221242904663,-1.339745402
2.199986935,-0.058652148,0.1713846474885941,-1.343291521,-0.051677279,-1.500270605,-0.214666039,-0.19344756,0.1005642116069794,0.2402085959911346,-0.095733434,0.7792931795120239,-1.344302654
2.20498395,0.005377352,0.1521196216344833,-1.334054351,-0.066514157,-1.562373996,-0.230711401,-0.192931041,0.1006651967763901,0.2412315309047699,-0.09651719,0.7698518037796021,-1.34865129
2.209982157,0.067483068,0.1433253884315491,-1.32228756,-0.087249368,-1.628294587,-0.244255856,-0.192533612,0.1007428914308548,0.2420186102390289,-0.097413197,0.7601743340492249,-1.352800846
2.214981079,0.1265042871236801,0.1447487771511078,-1.312685728,-0.107103251,-1.695383072,-0.259218007,-0.191051379,0.1010803803801537,0.2445320934057236,-0.098450266,0.7502551078796387,-1.356705546
2.219981194,0.1818064749240875,0.1451708823442459,-1.307870269,-0.119552858,-1.765515804,-0.27448079,-0.188545391,0.1016552522778511,0.2487436681985855,-0.099549107,0.7400555610656738,-1.360445023
2.224982738,0.2385309636592865,0.1448668837547302,-1.311751246,-0.137996048,-1.843923688,-0.28310588,-0.187714443,0.1018458604812622,0.2501401305198669,-0.100713402,0.7295498847961426,-1.363991737
2.229984999,0.3156137466430664,0.143669918,-1.315149426,-0.163871422,-1.936045766,-0.301265657,-0.187075093,0.1019925251603127,0.2512146532535553,-0.102043003,0.7186827659606934,-1.367330551
2.234982729,0.4000641405582428,0.1387277841567993,-1.311240554,-0.192200646,-2.040755272,-0.334066123,-0.186863095,0.1020411625504494,0.2515709400177002,-0.103562817,0.7074111104011536,-1.370392799
2.239980459,0.4715778827667236,0.1390498876571655,-1.299952269,-0.222912133,-2.153782606,-0.369321465,-0.181590647,0.1021938174962997,0.260457844,-0.105313279,0.6956586837768555,-1.373192191
2.244979382,0.5165092349052429,0.1522479653358459,-1.285357833,-0.249230295,-2.263642073,-0.407073528,-0.179842398,0.1022444367408752,0.2634045779705048,-0.1073054,0.6834266781806946,-1.37598443
2.249979496,0.5518627762794495,0.1699232459068298,-1.274451375,-0.276541322,-2.355936289,-0.448481619,-0.17849724,0.102283388,0.2656719088554382,-0.109566256,0.6708018779754639,-1.378844857
2.254980564,0.5836173295974731,0.1914285123348236,-1.258234501,-0.289675921,-2.443535328,-0.493303716,-0.178051218,0.1022963002324104,0.2664237022399902,-0.112029612,0.6577999591827393,-1.381765127
2.259982586,0.6190158724784851,0.2066448479890823,-1.239588141,-0.286634952,-2.524188519,-0.539392769,-0.173025474,0.1021636128425598,0.2723595201969147,-0.114586517,0.6444820165634155,-1.384501457
2.264979601,0.6442895531654358,0.2143616676330566,-1.21590519,-0.276100129,-2.603363991,-0.583310068,-0.170200318,0.1020843163132668,0.2756533920764923,-0.117167652,0.6308215260505676,-1.387240887
2.26997757,0.6546726226806641,0.2128461301326752,-1.190525174,-0.263218284,-2.672029257,-0.621614635,-0.168026552,0.1020233109593391,0.2781878411769867,-0.119717427,0.6168615221977234,-1.389990091
2.274976969,0.6547860503196716,0.2091919779777527,-1.167175531,-0.250895768,-2.729137421,-0.658495009,-0.167305768,0.1020030826330185,0.2790282070636749,-0.122241631,0.6026394963264465,-1.39278841
2.279976845,0.6498955488204956,0.2024711817502975,-1.144260287,-0.237287998,-2.768804073,-0.688968718,-0.163095638,0.1018992513418198,0.2840192019939423,-0.124715798,0.5882598757743835,-1.395432234
2.284977913,0.6501673460006714,0.1951501667499542,-1.117821813,-0.223646224,-2.799844265,-0.719567716,-0.158013403,0.1017758175730705,0.2900549471378326,-0.127129123,0.5737639665603638,-1.397947073
2.289979935,0.6467781662940979,0.1846488267183304,-1.090420604,-0.208722025,-2.821421146,-0.744614422,-0.154102966,0.1016808450222015,0.2946990430355072,-0.129457816,0.5592056512832642,-1.400455356
2.294977188,0.6358769536018372,0.1661767214536667,-1.064405799,-0.191870302,-2.829479933,-0.769154608,-0.152806342,0.1016493514180183,0.2962389290332794,-0.131667316,0.5446288585662842,-1.402968168
2.299975395,0.6304312348365784,0.1457296907901764,-1.041003346,-0.183625326,-2.826089859,-0.785067618,-0.151808679,0.1016251146793365,0.29742378,-0.133790925,0.5301066637039185,-1.405377388
2.304980755,0.6276589632034302,0.1276045590639114,-1.017901897,-0.179457128,-2.817673683,-0.8019467,-0.144347101,0.1012259498238564,0.3033407926559448,-0.135862112,0.5156693458557129,-1.407529593
2.309980869,0.6239886879920959,0.1128776147961617,-0.997039974,-0.177520156,-2.801649332,-0.812810302,-0.138605908,0.1009188294410706,0.3078935444355011,-0.137883559,0.50133878,-1.409643412
2.314981937,0.6141650676727295,0.099318534,-0.972141325,-0.17325528,-2.771756649,-0.82019043,-0.13670224,0.1008169949054718,0.3094031512737274,-0.139833063,0.4871845841407776,-1.411727667
2.319984198,0.6070457100868225,0.085034467,-0.950176954,-0.168386951,-2.733780384,-0.82156235,-0.135237485,0.100738637,0.3105646669864655,-0.141693428,0.4732585251331329,-1.413756371
2.324981451,0.6065922975540161,0.078454778,-0.929735363,-0.163945094,-2.680761576,-0.817075372,-0.130116895,0.1003348007798195,0.3140472173690796,-0.143490627,0.4596488773822784,-1.415464282
2.329979658,0.6087528467178345,0.06608168,-0.915338457,-0.160870239,-2.618080854,-0.807659328,-0.121490344,0.099642009,0.3198587894439697,-0.145198897,0.4463924765586853,-1.417009115
2.33497858,0.6124128699302673,0.055544496,-0.900938153,-0.162210703,-2.556443214,-0.782761395,-0.11862994,0.099412292,0.3217857778072357,-0.146812215,0.4335064291954041,-1.418358088
2.339978456,0.6210158467292786,0.036482308,-0.889425516,-0.163890854,-2.490311384,-0.758114517,-0.116429053,0.099235542,0.3232684731483459,-0.148315683,0.4210042357444763,-1.419502735
2.344979525,0.6264727115631104,0.031731088,-0.881325603,-0.168090016,-2.428105831,-0.731076717,-0.115699276,0.099176936,0.3237600922584534,-0.14976877,0.4088650643825531,-1.420378566
2.349981785,0.6345901489257813,0.021914318,-0.874886692,-0.177487925,-2.366401672,-0.698380053,-0.1043026,0.098989904,0.3313779830932617,-0.151173741,0.3970983028411865,-1.420852065
2.3549788,0.6496294736862183,0.02164804,-0.868779242,-0.192226574,-2.314003706,-0.667186499,-0.100523673,0.098927885,0.3339039087295532,-0.152578235,0.3856538832187653,-1.421107769
2.359977007,0.6705984473228455,0.006157841,-0.867019117,-0.206977978,-2.275524616,-0.637566626,-0.097616047,0.098880164,0.3358474671840668,-0.15394628,0.3744722306728363,-1.42111969
2.364976168,0.6884886622428894,0.004421447,-0.868991673,-0.237546936,-2.248323441,-0.604386866,-0.096651934,0.098864339,0.3364919126033783,-0.155389369,0.3634718060493469,-1.420886993
2.369976521,0.7242210507392883,0.004104989,-0.870648921,-0.279515505,-2.236404419,-0.577109933,-0.088583946,0.098748878,0.3410770893096924,-0.156991482,0.3526195287704468,-1.420094967
2.374977589,0.7598925828933716,0.011049756,-0.857757926,-0.318030208,-2.246654272,-0.547876477,-0.08409588,0.098685034,0.3436093628406525,-0.158735916,0.3418163061141968,-1.418965459
2.379979849,0.788115382,0.016903868,-0.848762035,-0.344348907,-2.265170097,-0.526152074,-0.080642618,0.098635912,0.3455577492713928,-0.160552368,0.3309938311576843,-1.417608976
2.384976864,0.7991281151771545,0.022903223,-0.837197363,-0.357248902,-2.304675341,-0.506329358,-0.079497576,0.098619625,0.3462038040161133,-0.162375763,0.3200056552886963,-1.416047335
2.389975071,0.7798365950584412,0.029109709,-0.821688831,-0.369341403,-2.339886904,-0.486035794,-0.074368946,0.098478995,0.3479111194610596,-0.164214477,0.3088344633579254,-1.414290667
2.394974232,0.7581368088722229,0.041219458,-0.804892302,-0.369990826,-2.380137682,-0.461265653,-0.068385132,0.098303199,0.34969762,-0.166016281,0.2974770069122314,-1.412346363
2.399974108,0.7224058508872986,0.044314753,-0.778727949,-0.365059674,-2.405707836,-0.434712678,-0.063780993,0.098167926,0.3510721921920776,-0.167736247,0.2859820127487183,-1.410341024
2.404975176,0.6834760904312134,0.048123814,-0.749624312,-0.352133632,-2.412151575,-0.40670374,-0.062254347,0.098123074,0.351527989,-0.169347465,0.2744617760181427,-1.40834415
2.409977674,0.6487817168235779,0.050998207,-0.734282851,-0.341827035,-2.4033885,-0.376505971,-0.061079696,0.09808857,0.3518787026405334,-0.170874804,0.2629867494106293,-1.406246781
2.414975405,0.6379728317260742,0.050144952,-0.711901069,-0.328962475,-2.386277199,-0.350869149,-0.052965552,0.097506836,0.355817437,-0.172302514,0.2516576051712036,-1.403820872
2.419973612,0.6209365725517273,0.064129524,-0.688895822,-0.312433332,-2.353787661,-0.321589917,-0.046722267,0.097059235,0.3588480055332184,-0.173650429,0.2405010759830475,-1.401368022
2.424972773,0.6242644190788269,0.080953352,-0.670569241,-0.293497443,-2.316669464,-0.2929039,-0.044652112,0.096910819,0.3598529100418091,-0.174911186,0.2296045422554016,-1.398776531
2.429972887,0.6165223717689514,0.1004023924469948,-0.646942914,-0.271068215,-2.265707731,-0.263319671,-0.043059271,0.096796624,0.3606261014938354,-0.176077828,0.2189880758523941,-1.396134973
2.434974194,0.6108859777450562,0.1149855926632881,-0.628139198,-0.250309765,-2.204557419,-0.236757889,-0.037979547,0.096740097,0.3620855510234833,-0.177156538,0.2087223529815674,-1.393254519
2.439982414,0.6054635643959045,0.1147356927394867,-0.611759901,-0.239358872,-2.135311365,-0.211091653,-0.0294687,0.096677728,0.364425004,-0.178164616,0.1988309919834137,-1.390272975
2.444985628,0.6038251519203186,0.1124198064208031,-0.597199619,-0.238193706,-2.065271139,-0.197334513,-0.026646664,0.096657045,0.3652006983757019,-0.179180667,0.1893182247877121,-1.387305379
2.449983835,0.6090116500854492,0.1147498711943626,-0.586198509,-0.246096,-1.98875773,-0.189095318,-0.024475299,0.096641131,0.3657975792884827,-0.18026939,0.1802180707454681,-1.38435626
2.454982996,0.6088095307350159,0.1256714016199112,-0.576438069,-0.259231538,-1.916501284,-0.184748679,-0.023755316,0.096635856,0.365995467,-0.181469291,0.1714968234300613,-1.381383896
2.459982872,0.6028560996055603,0.1336141228675842,-0.574797988,-0.261400074,-1.843083858,-0.188900694,-0.013003143,0.096459411,0.3686920404434204,-0.182712227,0.1631265431642532,-1.378412247
2.464984179,0.5898638367652893,0.1402891427278519,-0.573370934,-0.255840689,-1.768754721,-0.203315124,-0.009437926,0.096400902,0.3695861995220184,-0.183956504,0.1550924181938171,-1.375660181
2.4699862,0.5661548376083374,0.1556948572397232,-0.572684884,-0.237192437,-1.689049125,-0.226884976,-0.006694734,0.096355885,0.3702741861343384,-0.185157806,0.1473866999149323,-1.373242497
2.474983454,0.543166459,0.1821838021278381,-0.573276937,-0.197553873,-1.609525084,-0.246596307,-0.005785143,0.096340954,0.3705023229122162,-0.186233133,0.1400344967842102,-1.371145964
2.479981661,0.523392916,0.2128213346004486,-0.57242161,-0.146058291,-1.537977457,-0.263526767,0.001665094,0.096055232,0.3715016841888428,-0.187105805,0.132991761,-1.369086981
2.484980822,0.5055514574050903,0.2150752246379852,-0.586852133,-0.083431721,-1.470586777,-0.28576979,0.00580585,0.095892631,0.3720369338989258,-0.187655687,0.1262362599372864,-1.36730361
2.489981174,0.496784121,0.1905716359615326,-0.607341349,-0.041663688,-1.404175758,-0.314952463,0.00899188,0.09576752,0.372448742,-0.187963262,0.1197652816772461,-1.365740895
2.494982243,0.5114803910255432,0.1536385267972946,-0.627429664,-0.029369423,-1.360503435,-0.359713554,0.010048307,0.095726036,0.3725852966308594,-0.188180745,0.1135033890604973,-1.364329815
2.499984503,0.5212223529815674,0.1292753964662552,-0.639317691,-0.038967829,-1.325374961,-0.414226145,0.01408048,0.095779799,0.373047262,-0.188460112,0.1073726490139961,-1.363081813
2.504981518,0.5142606496810913,0.1258886307477951,-0.646640956,-0.056266736,-1.296095014,-0.477570653,0.018663822,0.095884025,0.3735603094100952,-0.188876197,0.1012894511222839,-1.362179756
2.509979725,0.5091355443000793,0.1340420693159103,-0.64682287,-0.068343982,-1.26893568,-0.53563416,0.022190392,0.095964231,0.373955101,-0.189389229,0.095288172,-1.36162138
2.514978647,0.511751115,0.1582687944173813,-0.644988596,-0.072885737,-1.246463418,-0.585051477,0.023359736,0.095990822,0.3740859925746918,-0.189994827,0.089363724,-1.361351967
2.519979,0.5014758706092834,0.1817847490310669,-0.629074574,-0.060053583,-1.228870511,-0.625482023,0.024259467,0.096011281,0.3741866946220398,-0.190571845,0.083466619,-1.361338139
2.524980068,0.4977381229400635,0.2022518068552017,-0.61800307,-0.013527846,-1.204849958,-0.651765645,0.029243235,0.096641004,0.3744392991065979,-0.190945908,0.077663183,-1.361400723
2.52998209,0.4858598709106445,0.2062041461467743,-0.60631299,0.046827823,-1.167272449,-0.666792572,0.033077903,0.097125538,0.3746336698532104,-0.190992147,0.072033755,-1.361614227
2.534979582,0.4725314676761627,0.1879842579364777,-0.594534039,0.1031129956245422,-1.12214458,-0.674429476,0.034349408,0.097286202,0.3746981024742126,-0.190702915,0.066605747,-1.361953735
2.539978266,0.464501292,0.1670203655958176,-0.58159107,0.1432599127292633,-1.070708394,-0.672423363,0.035327744,0.097409829,0.3747476935386658,-0.190174341,0.061442256,-1.362342715
2.544977427,0.4568818211555481,0.1451659053564072,-0.562655091,0.1662721335887909,-1.010190606,-0.659120977,0.038032264,0.098011799,0.3748917281627655,-0.189498067,0.056591392,-1.362629056
2.549977541,0.4599967002868652,0.1273380815982819,-0.544989884,0.1801836639642715,-0.94209671,-0.637276888,0.042519882,0.099042207,0.3751315474510193,-0.18873632,0.052109785,-1.362826943
2.554978609,0.4794172346591949,0.1145759746432304,-0.52968663,0.1888868361711502,-0.868016481,-0.608511984,0.044007894,0.099383868,0.3752110600471497,-0.187911302,0.04808148,-1.362855673
2.559980869,0.4989786446094513,0.096499413,-0.51412797,0.1883270889520645,-0.786214828,-0.571588218,0.045152817,0.099646755,0.375272274,-0.1870469,0.044539224,-1.362681746
2.564978361,0.5285436511039734,0.079999268,-0.500361085,0.1854942739009857,-0.705472648,-0.532778025,0.04553245,0.099733926,0.375292569,-0.186175004,0.041485865,-1.362239242
2.56997633,0.5627061724662781,0.070301719,-0.485093206,0.189166784,-0.627333701,-0.495214999,0.050352402,0.101267472,0.3754846453666687,-0.185267419,0.038922891,-1.36148417
2.574981689,0.5965110659599304,0.07448674,-0.472311437,0.2003514915704727,-0.558302939,-0.452367634,0.051950607,0.1017759665846825,0.3755483031272888,-0.184316203,0.036790743,-1.360462308
2.579981804,0.6223400235176086,0.075588502,-0.455272943,0.2212643027305603,-0.49494338,-0.407053053,0.053180318,0.1021672189235687,0.3755973279476166,-0.183250308,0.035053447,-1.359193802
2.584983826,0.6429346203804016,0.065672509,-0.436863184,0.2511519193649292,-0.434138268,-0.358689576,0.053588066,0.1022969484329224,0.3756135702133179,-0.181997657,0.033687714,-1.357655525
2.589985847,0.6621535420417786,0.04257955,-0.412949532,0.2872721552848816,-0.364846319,-0.313964427,0.056040011,0.1036129966378212,0.3743016123771667,-0.180518046,0.03275051,-1.355827928
2.594983101,0.6918470859527588,0.016596679,-0.379654408,0.3094784021377563,-0.292647034,-0.262611389,0.057382133,0.1043503284454346,0.3735388517379761,-0.178885445,0.032262959,-1.353681326
2.59998107,0.7316150665283203,-0.00061043,-0.33531177,0.3234193325042725,-0.221618608,-0.19857195,0.058414806,0.1049176529049873,0.3729519546031952,-0.177177981,0.032267809,-1.351100206
2.60498023,0.7730522155761719,-0.005978548,-0.275890023,0.3427853584289551,-0.147250861,-0.123689219,0.058757219,0.1051057726144791,0.3727573454380035,-0.17537497,0.032776792,-1.348048806
2.609980345,0.8179014921188354,-0.019876398,-0.216548115,0.3621509969234467,-0.057808161,-0.03898019,0.059979383,0.1061017215251923,0.3731198906898499,-0.173456877,0.033884373,-1.344444871
2.614981651,0.8711366653442383,-0.050538581,-0.147419244,0.3757807612419128,0.051590078,0.045276232,0.061351378,0.1072903126478195,0.3737566769123077,-0.171426579,0.035713129,-1.340260744
2.619983912,0.939499557,-0.078698277,-0.074954256,0.3778048455715179,0.1825758218765259,0.1183924674987793,0.062407035,0.1082048565149307,0.3742466270923615,-0.169349954,0.038393307,-1.335523367
2.624981165,1.019362807273865,-0.092036389,-0.003266185,0.3655597269535065,0.327889472,0.1870125532150269,0.062757067,0.1085081025958061,0.3744090795516968,-0.167341471,0.041998979,-1.330246329
2.629979134,1.120780467987061,-0.09263546,0.067450285,0.3502262532711029,0.4847005009651184,0.2459532022476196,0.063026391,0.1087414249777794,0.3745340704917908,-0.16543822,0.046625409,-1.324395061
2.634978294,1.234715223312378,-0.086142741,0.1406949162483215,0.3444851934909821,0.6501400470733643,0.2954646050930023,0.063545868,0.1098123118281364,0.3730752468109131,-0.163578942,0.052318279,-1.31796813
2.639978409,1.337079763412476,-0.059652623,0.2072180211544037,0.3510683178901672,0.8298189640045166,0.3362881541252136,0.063945569,0.1106362864375114,0.3719527721405029,-0.161742195,0.059108682,-1.311126947
2.644979477,1.403235793113708,-0.052343167,0.1944895386695862,0.3535080552101135,1.042340397834778,0.3748606145381927,0.064078107,0.1109094992280006,0.371580571,-0.159846187,0.06706275,-1.304002047
2.649981737,-0.546383977,-0.757362485,-1.017169356,-0.704752684,1.856468796730042,0.5540050864219666,0.064180084,0.1111197173595428,0.3712941706180573,-0.161233202,0.074911498,-1.304917574
2.654978752,0.5167897939682007,-0.040890872,-0.457627892,-0.381907672,1.931820034980774,0.5096179842948914,0.063704081,0.1117263808846474,0.3721039295196533,-0.163988531,0.087032586,-1.300885797
2.659977198,-0.87298739,0.3202333748340607,-1.27666378,-0.518687725,1.763972043991089,0.6373114585876465,0.062822334,0.1127361133694649,0.3736418187618256,-0.166258276,0.093831129,-1.303337336
2.664976597,-0.826376617,0.6524286866188049,-1.372702599,-0.36807394,1.760837435722351,0.7576332092285156,0.062529966,0.1130709201097488,0.374151736,-0.169267014,0.1012328267097473,-1.305395842
2.66997695,-1.083467007,0.5868585705757141,-1.584895492,0.041411325,1.837977647781372,1.103321671485901,0.062305003,0.1133285313844681,0.374544084,-0.168709651,0.1089740321040154,-1.305787563
2.674977779,-1.386346698,0.5768129825592041,-1.751930237,0.2346720993518829,2.270203590393066,1.344346761703491,0.062230408,0.1134139448404312,0.3746741712093353,-0.167092159,0.1186533123254776,-1.307053685
2.67998004,-1.327093124,0.8463822603225708,-1.652364969,0.5202162265777588,2.807853937149048,1.335925340652466,0.056027692,0.1113113984465599,0.3756209313869476,-0.165030599,0.1313227862119675,-1.308686495
2.684977055,-0.816358209,1.050575137138367,-1.476112843,0.9308394193649292,3.427801847457886,1.087370991706848,0.053970993,0.1106142327189445,0.3759348690509796,-0.16126579,0.1478852331638336,-1.310243964
2.689975739,0.051861048,0.9703726768493652,-1.18229723,1.386657596,3.980213642120361,0.656011701,0.0523885,0.1100778132677078,0.3761763870716095,-0.155298099,0.1685562580823898,-1.310522318
2.694974899,0.9324051141738892,0.4421545267105103,-0.987524211,1.350865244865417,4.353250026702881,0.2202598303556442,0.051863775,0.1098999455571175,0.3762564659118652,-0.148922905,0.1922137588262558,-1.308866858
2.699975252,1.580252289772034,-0.09952791,-0.955005765,0.9020895957946777,4.566410064697266,-0.247234598,0.044543494,0.1112665832042694,0.3763296604156494,-0.144966722,0.2173915952444077,-1.306652784
2.704976082,1.826393961906433,-0.162250444,-1.056813598,0.7063810229301453,4.678505897521973,-0.632452428,0.040404711,0.1120917797088623,0.3763567805290222,-0.142883956,0.2429164201021194,-1.306210637
2.709984541,1.837536096572876,-0.377713412,-1.218814373,0.474674791,4.617213726043701,-0.704138041,0.037220199,0.1127267107367516,0.376377672,-0.141272619,0.2678188383579254,-1.305949926
2.714987755,1.780479907989502,-0.598861575,-1.353623986,0.1471569240093231,4.399518489837646,-0.594297588,0.036164276,0.1129372417926788,0.3763845860958099,-0.141053542,0.2913525402545929,-1.304791808
2.719985962,1.612470388412476,-0.721093655,-1.545759201,-0.132860035,4.170047283172607,-0.287313163,0.028003406,0.1143338531255722,0.376188338,-0.141608074,0.3133888840675354,-1.30265522
2.724984884,1.678911209106445,-0.738729417,-1.615541816,-0.379363537,3.904328584671021,0.1035470440983772,0.017887315,0.116041936,0.3759199976921082,-0.142489672,0.3345470130443573,-1.298159122
2.729984999,1.619481086730957,-0.650417447,-1.515692353,-0.69617027,3.565266847610474,0.4368569254875183,0.010103671,0.117356189,0.3757135570049286,-0.144706562,0.3540996909141541,-1.291862607
2.734986305,1.557027220726013,-0.364307761,-1.307929873,-0.91437614,3.268496275,0.6534408926963806,0.007522761,0.117791973,0.3756450712680817,-0.14825809,0.3722195029258728,-1.284963846
2.739988327,1.409693241119385,0.017870598,-1.131473541,-1.035532832,3.021067619,0.7703415155410767,0.005536927,0.1181272715330124,0.3755924105644226,-0.152734682,0.3890381455421448,-1.278676748
2.74498558,1.220194578170776,0.417414665,-0.976180434,-1.07899034,2.827013016,0.747122586,-0.00777116,0.1173988580703735,0.3738207221031189,-0.15823333,0.4045768976211548,-1.274271369
2.749983549,0.9909194707870483,0.7421286106109619,-0.893294215,-0.982278109,2.692037105560303,0.6501101851463318,-0.018010829,0.1168383955955505,0.3724575340747833,-0.163976684,0.4190086126327515,-1.27190578
2.754983425,0.8022146821022034,0.9970482587814331,-0.822157443,-0.787632465,2.602018356323242,0.5133451819419861,-0.021406109,0.1166525557637215,0.3720055222511292,-0.169336259,0.4326527714729309,-1.271397471
2.759983301,0.6410210132598877,1.085717558860779,-0.737725019,-0.574295521,2.559837341308594,0.3346195816993713,-0.024018547,0.1165095642209053,0.3716577291488647,-0.174179062,0.4457171559333801,-1.272561669
2.764984608,0.5796830058097839,1.127993345,-0.694325924,-0.27937758,2.553997755050659,0.1699110120534897,-0.029500209,0.1147953793406487,0.3719212412834167,-0.178037703,0.458597332,-1.275020361
2.769986868,0.5848745107650757,1.044362306594849,-0.671670198,-0.000157602,2.540622472763062,0.041064501,-0.038384892,0.1117910668253899,0.3725070357322693,-0.180553883,0.4713691174983978,-1.277880073
2.774984121,0.6421411037445068,0.8351013660430908,-0.714752138,0.240749717,2.503084421157837,-0.054237276,-0.041330885,0.1107948869466782,0.3727012872695923,-0.181741476,0.4839026927947998,-1.28063035
2.779982328,0.8033455014228821,0.5459420680999756,-0.778478265,0.3695361912250519,2.436647415161133,-0.062128667,-0.043597627,0.1100283935666084,0.3728507459163666,-0.181687385,0.4963651895523071,-1.282092571
2.784981489,0.9306566119194031,0.2011432349681854,-0.850838184,0.3527836203575134,2.316555023193359,-0.014687265,-0.044349235,0.1097742393612862,0.3729003071784973,-0.180953786,0.5083704590797424,-1.282142162
2.789981604,1.047043681144714,0.024841268,-0.927307606,0.2953716218471527,2.155922889709473,0.092662975,-0.054984689,0.1091329380869865,0.3694848716259003,-0.179933891,0.5197718143463135,-1.280906677
2.794982672,1.109880924224854,-0.050899796,-0.941581309,0.2189642488956451,1.970536828041077,0.2257956117391586,-0.058511205,0.1089202910661697,0.3683523833751678,-0.17873019,0.5304296612739563,-1.278372526
2.799985647,1.124062538146973,-0.084162757,-0.938963413,0.123923585,1.794842600822449,0.3065249025821686,-0.061224617,0.1087566763162613,0.3674810230731964,-0.177622318,0.5402547717094421,-1.275121331
2.804983854,1.099719643592834,0.038241044,-0.914987504,0.044626713,1.644047260284424,0.3209201395511627,-0.062124334,0.1087024286389351,0.3671921193599701,-0.177151024,0.5493040680885315,-1.272108436
2.809982061,1.029094815254211,0.1679660379886627,-0.876725316,0.010815655,1.513309240341187,0.2815687656402588,-0.069231078,0.1093857884407043,0.3661872148513794,-0.177209049,0.5575401186943054,-1.270014286
2.814980745,0.9450629949569702,0.2834505438804626,-0.859395385,0.019319415,1.404240012168884,0.1981203705072403,-0.073174819,0.1097918003797531,0.3656603395938873,-0.177613124,0.5650462508201599,-1.268848896
2.819981337,0.8524224758148193,0.3146253824234009,-0.843214691,0.052954357,1.312446952,0.1386060118675232,-0.076209269,0.1101042032241821,0.3652549386024475,-0.178020418,0.5719067454338074,-1.268321157
2.824982166,0.8074545860290527,0.2425082176923752,-0.843803227,0.084205627,1.222654819488525,0.095033184,-0.077215433,0.1102077886462212,0.36512053,-0.178138256,0.5782546997070313,-1.267806888
2.829984426,0.7665441036224365,0.1451308280229568,-0.851804852,0.1000483632087708,1.133549213409424,0.082106926,-0.080599345,0.1103877276182175,0.3641957938671112,-0.177947581,0.5841006636619568,-1.26718998
2.83498168,0.7489014267921448,0.056462139,-0.850044489,0.078894109,1.043077469,0.086033307,-0.08435303,0.1105484589934349,0.3630610108375549,-0.17763409,0.589493454,-1.266288161
2.839979887,0.7536896467208862,0.045653455,-0.847445905,0.052827489,0.9595097899436951,0.090002127,-0.087241232,0.1106721311807632,0.3621878325939178,-0.177426919,0.5944969058036804,-1.265251994
2.84498477,0.789000928,0.079465024,-0.841280222,0.030792113,0.8728818893432617,0.086997375,-0.088198908,0.1107131391763687,0.3618983030319214,-0.177390411,0.5991149544715881,-1.264119625
2.849985361,0.7854400873184204,0.1249387860298157,-0.83037734,0.020035826,0.7883217930793762,0.072121695,-0.08893577,0.1107446923851967,0.3616755306720734,-0.177512258,0.6032894849777222,-1.263153911
2.854986191,0.7460123300552368,0.160678357,-0.82010448,0.021705627,0.7152179479598999,0.055988301,-0.092556715,0.1111149787902832,0.3605526983737946,-0.177706763,0.607003927,-1.262528658
2.859988451,0.6834465861320496,0.1819998323917389,-0.820882618,0.028347787,0.6663839221000671,0.047245976,-0.095342793,0.1113998889923096,0.3596887588500977,-0.177886009,0.6103985905647278,-1.262153506
2.864985943,0.6311512589454651,0.1918306350708008,-0.830838442,0.038275816,0.6272905468940735,0.040170118,-0.096266598,0.111494355,0.3594022691249847,-0.178029299,0.6135044693946838,-1.261970639
2.86998415,0.6250813603401184,0.1785541176795959,-0.833082318,0.055494793,0.5923188328742981,0.034750834,-0.096977405,0.1115670427680016,0.3591818511486053,-0.178047553,0.6164512634277344,-1.261730433
2.874983072,0.631689727,0.1484561562538147,-0.832966566,0.065458857,0.5639450550079346,0.030682173,-0.098322153,0.1115780398249626,0.3584998250007629,-0.1779349,0.61928153,-1.261410475
2.879983187,0.6431722044944763,0.087601162,-0.833444476,0.05217376,0.5346517562866211,0.00449499,-0.100478277,0.1115732565522194,0.3573593199253082,-0.177833095,0.6219529509544373,-1.260977745
2.884984255,0.6460869312286377,0.051140193,-0.829887569,0.016183622,0.5139491558074951,-0.023599336,-0.101193205,0.1115716695785522,0.3569811582565308,-0.177966714,0.624511719,-1.260643959
2.889986753,0.6290615200996399,0.049644638,-0.836184621,-0.030952871,0.4989388287067413,-0.039273646,-0.101743296,0.1115704476833344,0.3566901981830597,-0.178425461,0.626943052,-1.260497212
2.894984484,0.605561376,0.063956857,-0.839851975,-0.069105938,0.490707129,-0.046267048,-0.101925693,0.1115700453519821,0.3565937280654907,-0.179112986,0.6292914152145386,-1.260503054
2.899982452,0.5884420871734619,0.092476949,-0.837110162,-0.091309175,0.4824853241443634,-0.051312901,-0.103692636,0.1117991060018539,0.3560566008090973,-0.179990619,0.6315748691558838,-1.260684729
2.904981613,0.5869168639183044,0.1070167869329453,-0.826237917,-0.099336557,0.4759613275527954,-0.062585361,-0.10427852,0.111875057,0.3558785021305084,-0.18095763,0.6338237524032593,-1.260935545
2.909981728,0.5966456532478333,0.1113113239407539,-0.805554211,-0.1176681,0.4678977131843567,-0.079645179,-0.104729317,0.1119334995746613,0.3557414710521698,-0.182092026,0.6360532641410828,-1.261217833
2.914982796,0.6158106923103333,0.1078650802373886,-0.793921173,-0.138612762,0.4594831466674805,-0.096769162,-0.104878791,0.1119528785347939,0.3556960225105286,-0.183390811,0.638256848,-1.261516333
2.919984818,0.6295822858810425,0.1019619628787041,-0.796288371,-0.158196956,0.4473440945148468,-0.111348569,-0.107043102,0.1117478460073471,0.3550688028335571,-0.184827939,0.6403940916061401,-1.261901259
2.924982309,0.6266492009162903,0.089085266,-0.793783307,-0.174453482,0.4364643096923828,-0.120607778,-0.108267851,0.1116254329681396,0.3547142744064331,-0.186329857,0.6424576044082642,-1.262300014
2.929980516,0.6118280291557312,0.082551837,-0.794770718,-0.192730337,0.4297749996185303,-0.116601117,-0.109210216,0.1115312427282333,0.3544414639472961,-0.18790032,0.6444661617279053,-1.262708902
2.934979916,0.5966223478317261,0.076934718,-0.79686445,-0.20658128,0.4259628355503082,-0.107419565,-0.109522685,0.11150001,0.3543510437011719,-0.189481303,0.6464439630508423,-1.263083935
2.939979792,0.581788957,0.085585102,-0.797577024,-0.220108211,0.4343294203281403,-0.105901532,-0.110618532,0.1111435890197754,0.3539715111255646,-0.191152602,0.6484407186508179,-1.263559818
2.944981098,0.579186738,0.1007197052240372,-0.798104405,-0.23296608,0.4417452812194824,-0.107046507,-0.111844502,0.1106902211904526,0.3535330891609192,-0.192938671,0.6504708528518677,-1.264120221
2.94998312,0.5943222045898438,0.125782698,-0.791499972,-0.237388149,0.445374072,-0.105718978,-0.112787805,0.1103413850069046,0.3531957566738129,-0.194815412,0.6525415182113647,-1.264698625
2.954980373,0.6011804342269897,0.1448138952255249,-0.782558203,-0.233616278,0.4469206631183624,-0.102192901,-0.113100588,0.110225722,0.3530839085578918,-0.196693659,0.6546255350112915,-1.265268683
2.95997858,0.6082091927528381,0.1593321561813354,-0.777291238,-0.227706537,0.4459852874279022,-0.096751727,-0.11334125,0.1101367250084877,0.3529978692531586,-0.198541552,0.6567184925079346,-1.265832067
2.964977503,0.6177029013633728,0.1692039966583252,-0.775361001,-0.222624764,0.4415206611156464,-0.090858206,-0.114679426,0.1092153936624527,0.3527394831180573,-0.20036535,0.6588014364242554,-1.266361952
2.969977617,0.6215007901191711,0.180736706,-0.767268181,-0.212385833,0.4353030622005463,-0.089280039,-0.115709059,0.1085064932703972,0.3525406718254089,-0.202163205,0.660860538,-1.266900182
2.974978924,0.6197109818458557,0.1932123005390167,-0.761992216,-0.198923752,0.4311171770095825,-0.081554823,-0.116050467,0.1082714349031448,0.3524747490882874,-0.203873873,0.6628977656364441,-1.267419338
2.979986906,0.6075891852378845,0.1952813267707825,-0.753622711,-0.182937771,0.4282338321208954,-0.069900401,-0.116313159,0.1080905720591545,0.3524240553379059,-0.205459446,0.6649163365364075,-1.267889738
2.98499012,0.5827376842498779,0.200238511,-0.746076703,-0.162715837,0.4359269440174103,-0.053880695,-0.117061161,0.1076667085289955,0.352213979,-0.206909791,0.6669597625732422,-1.268366933
2.989988565,0.5533924102783203,0.2028902024030685,-0.745595634,-0.146490693,0.4576559960842133,-0.033150196,-0.118304968,0.1069726273417473,0.3518569767475128,-0.208216622,0.6690870523452759,-1.268847823
2.994987726,0.5283305644989014,0.2098368555307388,-0.751575828,-0.126239002,0.4893065094947815,-0.017996777,-0.118717387,0.1067424789071083,0.3517386019229889,-0.209397659,0.6713602542877197,-1.269373417
2.999988317,0.5161550641059875,0.2301200330257416,-0.760330081,-0.106890716,0.5289215445518494,-0.007463529,-0.119034708,0.1065654009580612,0.3516475260257721,-0.210540935,0.6738080382347107,-1.270012021
3.004989386,0.4956076145172119,0.2326369136571884,-0.763794363,-0.079306155,0.5764780044555664,0.002083767,-0.119139932,0.1065066829323769,0.351617306,-0.211537793,0.6764636039733887,-1.270727515
3.009991646,0.478863537,0.2151465266942978,-0.766621828,-0.051494569,0.6301708221435547,0.021078713,-0.120569326,0.1054031625390053,0.3510700762271881,-0.212321565,0.6793906688690186,-1.271403074
3.014989138,0.4716179668903351,0.1925751119852066,-0.767712176,-0.028102046,0.68854928,0.047751576,-0.121043287,0.1050372570753098,0.3508886396884918,-0.212876394,0.6826249957084656,-1.271916389
3.019987106,0.4618763625621796,0.1862865090370178,-0.785868704,-0.016274553,0.7436037659645081,0.072374865,-0.121407971,0.1047557219862938,0.3507490456104279,-0.213332757,0.686133862,-1.272407174
3.024986267,0.4869257509708405,0.1782899349927902,-0.798204958,0.010917188,0.7881109118461609,0.091085956,-0.121528886,0.1046623736619949,0.3507027626037598,-0.213579848,0.6898865699768066,-1.272766352
3.02998662,0.5280194282531738,0.1717175841331482,-0.803641498,0.030953668,0.8134039044380188,0.1137408539652824,-0.123720244,0.1044687554240227,0.3495987951755524,-0.213653862,0.6938315629959106,-1.272947073
3.034987688,0.6028547286987305,0.1730432212352753,-0.81193459,0.057678685,0.8107826113700867,0.1229469776153564,-0.124966085,0.1043744161725044,0.3489683568477631,-0.213542134,0.6978459358215332,-1.272849321
3.03998971,0.6334096789360046,0.169926643,-0.796339452,0.070431843,0.7974651455879211,0.1269312649965286,-0.125924692,0.1043018326163292,0.3484832942485809,-0.213338837,0.7018250226974487,-1.272603154
3.044986963,0.6679975390434265,0.1815468370914459,-0.792325199,0.066546045,0.7746285796165466,0.1328409612178802,-0.126242533,0.1042777597904205,0.3483224511146545,-0.213163629,0.7057216763496399,-1.272260547
3.049984932,0.7802654504776001,0.1945382505655289,-0.802026331,0.048695479,0.7261285781860352,0.1314832121133804,-0.127791047,0.1043888702988625,0.3470213711261749,-0.21308206,0.7095213532447815,-1.271631837
3.054984093,0.8483430743217468,0.1686593741178513,-0.749375939,0.022968389,0.6542473435401917,0.1212577968835831,-0.129619405,0.1045564264059067,0.345402718,-0.213073045,0.7130759358406067,-1.270589709
3.059984207,0.7699647545814514,0.1367270797491074,-0.714182317,-0.000755779,0.6122762560844421,0.1038777679204941,-0.131026208,0.1046853512525558,0.3441572785377502,-0.21316874,0.7163002490997314,-1.269779801
3.064985037,0.7570989727973938,0.1449450999498367,-0.732078135,-0.0329649,0.5707202553749084,0.092660956,-0.131492674,0.1047280952334404,0.343744308,-0.213460431,0.719279408,-1.269102931
3.069987297,0.7351970672607422,0.1470606327056885,-0.737665534,-0.052830778,0.5364521145820618,0.083375655,-0.131851599,0.1047609820961952,0.3434265851974487,-0.213869408,0.7220367789268494,-1.268526077
3.074984789,0.6954917907714844,0.168755054,-0.735059083,-0.074523933,0.513933539,0.092198543,-0.133879244,0.105005145,0.3426153361797333,-0.214361325,0.724651575,-1.268070221
3.079982519,0.7093486189842224,0.2073524445295334,-0.737026632,-0.09342166,0.4928265511989594,0.1028995662927628,-0.135439381,0.1051930114626884,0.341991127,-0.214981571,0.7271882891654968,-1.267576456
3.08498168,0.7104001641273499,0.236027405,-0.724048913,-0.101699658,0.4785947501659393,0.1071749851107597,-0.135956705,0.1052553057670593,0.3417841494083405,-0.215665087,0.7296675443649292,-1.267090082
3.089981794,0.7007834315299988,0.2447409331798553,-0.712366879,-0.09587083,0.4689313471317291,0.1121681407094002,-0.136354744,0.1053032353520393,0.341624916,-0.216315344,0.7321144938468933,-1.266615391
3.094982862,0.7061120271682739,0.2387479394674301,-0.71250838,-0.076641805,0.452070415,0.1219284236431122,-0.137040198,0.1052403450012207,0.3412534296512604,-0.216777086,0.734486461,-1.26602459
3.099985123,0.6832839250564575,0.241139218,-0.709942579,-0.052114196,0.4342691004276276,0.1437862813472748,-0.138127252,0.105112299,0.3406453728675842,-0.216973975,0.7367571592330933,-1.265316129
3.104982615,0.6827094554901123,0.2504290342330933,-0.70695287,-0.016789032,0.4146609902381897,0.1618542522192001,-0.138487712,0.1050698459148407,0.3404437601566315,-0.216923103,0.7389435768127441,-1.264499187
3.109980583,0.698989213,0.2453121691942215,-0.694247901,0.014177212,0.3913778364658356,0.1773218959569931,-0.138765052,0.1050371751189232,0.3402886092662811,-0.216621652,0.74108541,-1.263436079
3.114985943,0.7059329748153687,0.2204925268888474,-0.69120276,0.046166483,0.3705001175403595,0.1828971654176712,-0.138857022,0.1050263494253159,0.34023717,-0.216028616,0.7431334853172302,-1.262221336
3.119986773,0.7074429392814636,0.195394441,-0.69283843,0.081717052,0.3541651666164398,0.1880244612693787,-0.140879065,0.1051238626241684,0.3403045535087585,-0.2151912,0.7451105117797852,-1.26090765
3.124987602,0.7072536945343018,0.1846177577972412,-0.69294107,0.1151773780584335,0.3369151651859283,0.1828259080648422,-0.141549528,0.1051561906933784,0.3403269052505493,-0.214161381,0.7469967603683472,-1.259570956
3.129989862,0.6955500245094299,0.1938166916370392,-0.685305655,0.1502989232540131,0.3243804275989532,0.1790581345558167,-0.142065406,0.1051810681819916,0.340344101,-0.212992445,0.7487960457801819,-1.258307457
3.134987116,0.6855002641677856,0.2190597057342529,-0.684782863,0.1839137971401215,0.3154566586017609,0.1874495148658752,-0.142236471,0.105189323,0.3403497934341431,-0.211673364,0.7505391836166382,-1.257097602
3.139985085,0.6836887001991272,0.258357972,-0.679484606,0.2202807664871216,0.3103760182857513,0.204069972,-0.143254295,0.1057156547904015,0.3398366868495941,-0.210195392,0.752290666,-1.255901933
3.144984245,0.6870001554489136,0.2736173868179321,-0.675980747,0.2681604623794556,0.2979077398777008,0.2228695154190063,-0.143811062,0.1060188487172127,0.3395384848117828,-0.208383054,0.753991425,-1.254580975
3.149984598,0.6854444146156311,0.2687104344367981,-0.679684758,0.3067303001880646,0.2806487083435059,0.2432320863008499,-0.144239455,0.106252134,0.3393090665340424,-0.20623669,0.7556173801422119,-1.253071308
3.154985428,0.6926868557929993,0.2459876090288162,-0.690553129,0.3396653532981873,0.2595690190792084,0.2623741924762726,-0.144381508,0.1063294857740402,0.3392329812049866,-0.203749776,0.7571492791175842,-1.251303196
3.159988403,0.7006518244743347,0.2306549549102783,-0.690701187,0.3719415962696075,0.2399004548788071,0.2708234488964081,-0.144747421,0.1069381609559059,0.3387828171253204,-0.2010075,0.7586134672164917,-1.249403954
3.164986372,0.7054094672203064,0.212636262,-0.691746354,0.4004636704921722,0.2189805656671524,0.2749916613101959,-0.145127505,0.1076937466859818,0.3382386267185211,-0.198057443,0.7599781155586243,-1.247415304
3.169984579,0.724424422,0.1890219300985336,-0.687142432,0.417939305,0.1912952661514282,0.2754112184047699,-0.14541997,0.1082751229405403,0.337819904,-0.194956109,0.7612360715866089,-1.245250344
3.174983501,0.7423983812332153,0.1657103896141052,-0.681444108,0.4283841550350189,0.1653452813625336,0.2805500626564026,-0.145516947,0.1084678918123245,0.3376810848712921,-0.191707537,0.7623997926712036,-1.242875099
3.179983616,0.7490664124488831,0.1415114551782608,-0.677555919,0.4358602166175842,0.1266842931509018,0.286470503,-0.145591557,0.1086162179708481,0.3375742435455322,-0.188272625,0.7633800506591797,-1.240288496
3.184985161,0.746275783,0.1109804660081863,-0.677050769,0.4328691959381104,0.084804282,0.2893098294734955,-0.146169364,0.1099844425916672,0.336265504,-0.184760794,0.7641443610191345,-1.237611532
3.189987183,0.7392494082450867,0.093629003,-0.685250819,0.4264453649520874,0.046707477,0.2825440168380737,-0.146613941,0.1110372021794319,0.3352585136890411,-0.181245863,0.7646951079368591,-1.234909534
3.194984198,0.7172048687934875,0.085320577,-0.690398097,0.4142060577869415,0.018058607,0.2780275642871857,-0.146761358,0.111386277,0.3349246084690094,-0.177780285,0.7650556564331055,-1.232261181
3.199982166,0.6868848204612732,0.098771013,-0.703548014,0.3943049311637878,0.005993267,0.274133563,-0.146874785,0.1116548702120781,0.3346677124500275,-0.174479902,0.7652924656867981,-1.229805589
3.204981089,0.6488249897956848,0.1187259033322334,-0.715961218,0.3803904354572296,0.008664138,0.2740854024887085,-0.146760508,0.1127521619200706,0.3348083794116974,-0.171297729,0.7654862999916077,-1.227551222
3.209981203,0.6207661032676697,0.1583063453435898,-0.730371058,0.3700974881649017,0.025319267,0.2786204814910889,-0.146519005,0.1146159321069717,0.3351449966430664,-0.168250829,0.7657157182693481,-1.225516796
3.214982033,0.6091743111610413,0.1826857924461365,-0.744939566,0.360904187,0.050972857,0.2887468934059143,-0.146438926,0.1152339205145836,0.3352566063404083,-0.165273219,0.7660685181617737,-1.223547578
3.219984055,0.629416287,0.173894852,-0.752571821,0.3606090545654297,0.07423424,0.3025582432746887,-0.14637731,0.1157094240188599,0.3353424668312073,-0.162200794,0.7665680646896362,-1.221406102
3.224981308,0.6463581323623657,0.1503049284219742,-0.760755002,0.3553288280963898,0.090035781,0.310410738,-0.146356881,0.1158670857548714,0.3353709578514099,-0.159049436,0.7671607732772827,-1.219105482
3.229979038,0.6620604395866394,0.1116780415177345,-0.766751289,0.3439852297306061,0.102584533,0.301084965,-0.146619856,0.1174065619707108,0.33496055,-0.155934766,0.7678176164627075,-1.216771364
