Time,inertial-6253.76535:scaledAccelX,inertial-6253.76535:scaledAccelY,inertial-6253.76535:scaledAccelZ,inertial-6253.76535:scaledGyroX,inertial-6253.76535:scaledGyroY,inertial-6253.76535:scaledGyroZ,inertial-6253.76535:scaledMagX,inertial-6253.76535:scaledMagY,inertial-6253.76535:scaledMagZ,inertial-6253.76535:roll,inertial-6253.76535:pitch,inertial-6253.76535:yaw
0,0.437221438,0.03275108,-0.900826156,0.002674887,-0.002748574,0.003863184,0.029081766,0.221324205,0.290499985,-0.021347756,0.444958031,-0.978660345
0.00500736,0.436188102,0.034304887,-0.900719166,0.00156202,-0.005828687,0.002711712,0.028837759,0.221380278,0.290578187,-0.021366997,0.444930315,-0.978685081
0.0100096,0.436272115,0.033954144,-0.901203036,0.001033243,-0.004394138,0.003181647,0.028650014,0.221423432,0.290638357,-0.021383857,0.444917828,-0.978706121
0.01500672,0.437545598,0.032327142,-0.900852859,0.003542413,-0.004727155,0.003815473,0.028587762,0.221437737,0.290658295,-0.021381946,0.444901139,-0.978715301
0.02000512,0.435493559,0.032944344,-0.900621831,-0.000723126,-0.00616234,0.003625774,0.028539864,0.221448749,0.290673643,-0.021404207,0.444881916,-0.978736401
0.025004031,0.436830521,0.034085028,-0.9013111,-0.000113559,-0.007821938,0.003442304,0.028719932,0.221452206,0.291071683,-0.021420369,0.444852173,-0.978748143
0.030004224,0.435435236,0.032674912,-0.901151717,0.000493165,-0.004961917,0.003746791,0.029056618,0.22145468,0.291775256,-0.021435421,0.444837213,-0.978765011
0.035005186,0.436332703,0.032631636,-0.901208103,0.001001771,-0.005604889,0.003388602,0.029168256,0.221455514,0.292008579,-0.02144107,0.444820106,-0.978768289
0.040007424,0.435190082,0.032353889,-0.90314585,0.000683586,-0.005917074,0.003534998,0.029254153,0.221456155,0.292188078,-0.021454606,0.444793463,-0.978777587
0.045004543,0.435961038,0.033610173,-0.902543902,-0.000318622,-0.004800319,0.002899163,0.029282637,0.221456364,0.292247593,-0.021476427,0.444774926,-0.978800178
0.050002687,0.435666412,0.032711282,-0.900755286,0.000520483,-0.00487135,0.003111007,0.029178407,0.22124733,0.291303515,-0.02148913,0.44476226,-0.978813887
0.055001855,0.433373302,0.03310065,-0.899932504,0.000351635,-0.006226329,0.00247804,0.029143846,0.221178025,0.290990472,-0.021508094,0.444739938,-0.978831887
0.060002048,0.435368568,0.032856788,-0.90062207,0.001921229,-0.005990631,0.003916555,0.029117255,0.221124694,0.290749609,-0.021508193,0.444724649,-0.978840649
0.065003008,0.434731126,0.031895474,-0.900869548,0.00282135,-0.005036822,0.002492703,0.029108437,0.221107006,0.290669739,-0.021509491,0.444705069,-0.978854895
0.070005246,0.434421271,0.031483281,-0.901073217,0.001513578,-0.005488398,0.006051017,0.029143907,0.221407473,0.291701794,-0.021510066,0.444683224,-0.978854537
0.075002626,0.433920056,0.033945467,-0.901162446,0.001079814,-0.005700212,0.0028841,0.029166123,0.221584812,0.292314589,-0.021525189,0.444668442,-0.978874385
0.080000766,0.433369249,0.034738652,-0.901324034,0.000275131,-0.005522731,0.003784131,0.029183218,0.221721262,0.292786092,-0.021543629,0.444642544,-0.978885174
0.084999934,0.435039967,0.034390122,-0.902449429,0.001760501,-0.004192299,0.003745163,0.029188886,0.221766502,0.292942435,-0.021548994,0.444627881,-0.97889626
0.09000013,0.434551388,0.034300234,-0.901873171,0.001093985,-0.005583929,0.004392372,0.029222924,0.221713156,0.292949796,-0.021563005,0.444607437,-0.978906691
0.095001087,0.43439737,0.0321775,-0.902741492,0.002230441,-0.004650592,0.003782381,0.029264137,0.221606538,0.292838365,-0.02156345,0.444590449,-0.978919506
0.100003071,0.43681556,0.032869406,-0.902949274,0.001297201,-0.004456663,0.004252953,0.029295847,0.221524507,0.292752624,-0.021570437,0.444581598,-0.978922844
0.10500019,0.437093407,0.033252209,-0.90317589,0.002925309,-0.003065077,0.004343777,0.029306361,0.221497297,0.292724192,-0.021575546,0.444577485,-0.978928566
0.109998077,0.4345209,0.032736637,-0.902230442,0.001422645,-0.002515468,0.004642402,0.029314451,0.221476376,0.292702317,-0.02158034,0.444566518,-0.978934288
0.114997245,0.435345858,0.030582629,-0.902147412,0.002777531,-0.002001711,0.002663698,0.029415563,0.221518353,0.292692602,-0.021580694,0.444569498,-0.978947997
0.119997181,0.43533662,0.031088555,-0.902414024,0.000875664,-0.00060585,0.00181686,0.029493362,0.221550643,0.292685121,-0.021594515,0.444569111,-0.978959024
0.124998398,0.434780419,0.031919822,-0.902550697,0.003109163,-0.0009655,0.004169852,0.029519159,0.221561357,0.292682648,-0.021587642,0.444575071,-0.978958607
0.130000636,0.436237395,0.030522328,-0.900822639,0.001647972,-0.002205156,0.002186612,0.029539008,0.221569598,0.29268074,-0.021592211,0.444571972,-0.978968024
0.134998009,0.437172651,0.032225322,-0.901081622,0.00137193,-0.001452221,0.003350127,0.029573917,0.221516132,0.29290691,-0.02160503,0.444582194,-0.978968263
0.140002042,0.4371638,0.032205064,-0.901239097,0.002300253,-0.002117477,0.003780938,0.029629422,0.221418157,0.293310255,-0.021604072,0.444583178,-0.978967547
0.145001218,0.436588913,0.032871176,-0.901004255,0.001251132,-0.001046346,0.004841942,0.029647827,0.221385673,0.293443978,-0.021613024,0.444588482,-0.978972256
0.150001153,0.437630355,0.03306853,-0.900835395,0.000354119,-0.002655902,0.003068488,0.029661987,0.221360669,0.293546885,-0.02162718,0.444583714,-0.978976011
0.15500237,0.437201589,0.033093724,-0.902154684,0.000773583,-0.003173981,0.004654828,0.029666683,0.221352383,0.293581009,-0.021635231,0.444580019,-0.978976905
0.160004601,0.43473804,0.033489767,-0.900760353,0.000797535,-0.002341661,0.004325962,0.029540321,0.22153604,0.291949809,-0.021649107,0.444579035,-0.978993177
0.165001735,0.435771495,0.034913376,-0.901037455,0.002004052,-0.004107493,0.004635326,0.029498421,0.221596941,0.291408926,-0.021656273,0.444568902,-0.979004502
0.169999868,0.436452538,0.034898002,-0.900890112,0.003761815,-0.00388739,0.005260223,0.029466182,0.221643791,0.290992767,-0.021653721,0.44456625,-0.979008138
0.17499879,0.434467345,0.033795435,-0.900694728,0.001633415,-0.004266079,0.004160593,0.029455492,0.221659318,0.290854782,-0.02166805,0.444549382,-0.979026735
0.179998979,0.434304327,0.033167727,-0.901199937,0.003837802,-0.003737912,0.00425568,0.029394371,0.221683189,0.291947186,-0.021664921,0.444545925,-0.97903043
0.184999943,0.433267474,0.033836074,-0.902006924,0.003811605,-0.005146473,0.004705831,0.029361017,0.221694052,0.292605996,-0.021662492,0.444522291,-0.979037046
0.190002173,0.434206694,0.034322754,-0.901052833,0.003550074,-0.004824964,0.005146335,0.029335352,0.221702397,0.293112904,-0.021659603,0.444503605,-0.979040027
0.194999292,0.436014205,0.031982061,-0.901091278,0.005043792,-0.006174184,0.003821441,0.029326843,0.221705154,0.293280989,-0.021645937,0.444488525,-0.979037642
0.199997693,0.435179174,0.03207887,-0.902236521,0.003380266,-0.005122528,0.006303116,0.029353971,0.221440732,0.292732567,-0.021637412,0.444474518,-0.97903192
0.204996601,0.434751958,0.03139922,-0.901358187,0.003534941,-0.004552524,0.005360009,0.029396923,0.221084267,0.291867256,-0.021629009,0.444461972,-0.979028106
0.209996805,0.434571564,0.031835683,-0.900953293,0.003143096,-0.00497539,0.005574286,0.029429972,0.220809981,0.291201472,-0.021620465,0.444441676,-0.979024887
0.214998022,0.435816228,0.031155914,-0.901310027,0.003939112,-0.004637897,0.003417839,0.02944093,0.220719039,0.290980697,-0.021618983,0.44442907,-0.979036868
0.220000774,0.434790343,0.03071592,-0.900593638,0.003284085,-0.003997341,0.003263931,0.02944936,0.220649064,0.290810823,-0.021615854,0.444417983,-0.979044974
0.224998653,0.432771355,0.031956282,-0.902183294,0.003666521,-0.004333105,0.003543742,0.029545385,0.220885843,0.291598082,-0.021613954,0.444396883,-0.979048193
0.2299968,0.434026569,0.032770567,-0.901188672,0.003411307,-0.005198617,0.004772825,0.029619269,0.22106804,0.292203844,-0.021611957,0.444369167,-0.979052603
0.234995708,0.435480803,0.03184633,-0.902464271,0.002693244,-0.005117846,0.004122177,0.029643768,0.221128449,0.292404681,-0.021608768,0.444357246,-0.979052782
0.239995897,0.435011685,0.033631429,-0.902580082,0.002111937,-0.005967575,0.003587101,0.029662618,0.221174926,0.292559236,-0.021615103,0.444338858,-0.979064226
0.244996861,0.433144599,0.034230955,-0.901612818,0.002395817,-0.003727096,0.003553422,0.029585352,0.22121644,0.292130053,-0.021621028,0.444330126,-0.979077101
0.249998853,0.434726417,0.032640014,-0.901508152,0.003303729,-0.004065693,0.002268119,0.029441454,0.221274778,0.291314006,-0.021626933,0.444312215,-0.979090333
0.25499621,0.434873879,0.033351228,-0.901351333,0.004257584,-0.004187891,0.004939758,0.029393738,0.22129412,0.291043431,-0.021620255,0.444299996,-0.979095638
0.259994626,0.434567034,0.034066349,-0.902949274,0.004975164,-0.004882134,0.003119917,0.029357025,0.221309006,0.290835202,-0.021619659,0.444284976,-0.979117274
0.264993787,0.433762878,0.034526169,-0.903652549,0.003213819,-0.003538912,0.004257656,0.029344853,0.221313938,0.29076618,-0.021619616,0.444274336,-0.979129255
0.269999862,0.43494314,0.035900068,-0.902589738,0.00128388,-0.002998022,0.004329848,0.029527733,0.221396014,0.292299956,-0.021630429,0.444262892,-0.979134679
0.275001079,0.434643954,0.035270799,-0.902935088,0.004038187,-0.003654732,0.006551095,0.02958845,0.221423239,0.292805701,-0.021620244,0.444253623,-0.979125917
0.280003071,0.434523642,0.035490222,-0.900083601,0.003678138,-0.003015532,0.005197308,0.029635247,0.22144419,0.293191969,-0.021620793,0.444250405,-0.979129672
0.285000205,0.435544163,0.033408105,-0.902012229,0.004487964,-0.003049712,0.006848751,0.029650763,0.221451133,0.29332006,-0.021601729,0.444246113,-0.979112625
0.289998591,0.434435248,0.033028249,-0.901007056,0.005647502,-0.003373425,0.006039683,0.029860415,0.221503004,0.293364346,-0.02158995,0.444238961,-0.979110777
0.29499802,0.433922559,0.031978913,-0.903332055,0.005436734,-0.004748445,0.006495262,0.029978856,0.221531719,0.293365598,-0.021566834,0.444213897,-0.979093015
0.299997956,0.435342789,0.032028284,-0.901650786,0.005804192,-0.003756435,0.008115271,0.030069988,0.221553817,0.293366581,-0.021538172,0.44420886,-0.979067206
0.304999173,0.435832888,0.033187788,-0.900425732,0.004702852,-0.004562367,0.005503774,0.030100206,0.221561149,0.293366909,-0.021532815,0.444197953,-0.97906667
0.310001165,0.435432076,0.033710018,-0.900277376,0.005641043,-0.00604761,0.004549369,0.029927988,0.221537843,0.29294619,-0.021521663,0.444180489,-0.979072273
0.314998537,0.435996413,0.03254443,-0.89992255,0.00356903,-0.007680267,0.005252736,0.029673774,0.221500933,0.29238221,-0.021516019,0.444154263,-0.979068398
0.319996685,0.435616851,0.031755976,-0.901147008,0.00363838,-0.005874664,0.003650241,0.029478174,0.221472532,0.291948259,-0.021514107,0.44413498,-0.979080856
0.324995846,0.435723513,0.031626392,-0.901696861,0.004081115,-0.005922803,0.005175426,0.029413315,0.221463114,0.291804373,-0.021498412,0.444118559,-0.979081452
0.32999602,0.436150044,0.030483818,-0.901785016,0.003394711,-0.004953898,0.004342453,0.029363412,0.221455872,0.291693658,-0.021494186,0.444102556,-0.979079366
0.334996998,0.435961276,0.032068428,-0.90000993,0.003565472,-0.006914766,0.006044122,0.029889202,0.2215496,0.292194247,-0.021484362,0.444077671,-0.979073286
0.33999899,0.434354514,0.030802,-0.90079391,0.00324957,-0.005579996,0.00334251,0.030293759,0.221621737,0.292579412,-0.021486348,0.444058448,-0.979078054
0.344996095,0.435670763,0.033023261,-0.900666416,0.003546667,-0.005124169,0.003263388,0.030427903,0.221645653,0.292707145,-0.021484111,0.444044411,-0.97908181
0.349993974,0.434756041,0.031933572,-0.901384234,0.001349099,-0.007597305,0.004518994,0.030531118,0.221664056,0.292805403,-0.02148737,0.444014251,-0.979079723
0.354993165,0.435577065,0.034215834,-0.901967227,0.000712369,-0.006178984,0.003922766,0.030229269,0.221670985,0.292221069,-0.021499613,0.443994045,-0.97909075
0.3599931,0.435537964,0.033885982,-0.902133226,0.001640177,-0.006041367,0.003960414,0.029657196,0.221677169,0.291147649,-0.021503991,0.443973482,-0.979103386
0.364994049,0.434847504,0.034116395,-0.903035104,0.00292309,-0.006939224,0.005152347,0.029467506,0.221679211,0.29079172,-0.021507939,0.443943739,-0.979115129
0.369996279,0.435398877,0.032544419,-0.902058303,0.003699948,-0.004828098,0.005899576,0.029321555,0.221680775,0.290517867,-0.021498816,0.443942368,-0.979114413
0.374993414,0.433332235,0.03434439,-0.903354824,0.003364368,-0.004880534,0.006268548,0.02927316,0.221681297,0.290427059,-0.021495279,0.44392252,-0.979122162
0.379991561,0.435694277,0.033105016,-0.902404666,0.003910767,-0.004150146,0.007350184,0.028972093,0.221623495,0.290827155,-0.021486651,0.443922043,-0.979113936
0.384990722,0.43326357,0.03230048,-0.902456403,0.002859753,-0.00488054,0.004582329,0.028872266,0.221604332,0.290959805,-0.021482769,0.443904966,-0.979126096
0.389991432,0.434936464,0.033297088,-0.902304351,0.002736546,-0.004397999,0.006047587,0.028795457,0.22158958,0.291061878,-0.021479031,0.443892807,-0.979125142
0.39499265,0.435767919,0.030845573,-0.901816726,0.00464434,-0.002963135,0.006008773,0.028769987,0.221584693,0.291095734,-0.021458069,0.44388783,-0.979121566
0.39999488,0.435146898,0.032279,-0.901629388,0.003450442,-0.003497966,0.006926625,0.029096596,0.221479863,0.291914612,-0.021450201,0.443881333,-0.979114294
0.404997885,0.434218645,0.032529093,-0.901339054,0.003018341,-0.005880354,0.007390581,0.029290562,0.221420094,0.29238236,-0.021437846,0.443863511,-0.97909987
0.409996033,0.434937716,0.032654081,-0.900601387,0.003011656,-0.003146763,0.005783305,0.029439807,0.221374094,0.292742252,-0.021430505,0.443863958,-0.979093492
0.414995193,0.434845805,0.031978745,-0.902013123,0.004475201,-0.003157383,0.006830277,0.029489292,0.221358851,0.292861581,-0.021416472,0.44385311,-0.979079843
0.419995129,0.434149623,0.032334402,-0.901272535,0.002437216,-0.003262667,0.004645323,0.029697608,0.221339449,0.292468399,-0.021414418,0.443846524,-0.979082406
0.424996346,0.435435265,0.031943515,-0.901663125,0.001343472,-0.003811967,0.005145223,0.02993835,0.221325278,0.291849017,-0.021415105,0.443838775,-0.979079306
0.429999113,0.433340758,0.033072028,-0.903229058,0.00336922,-0.002356126,0.005362768,0.030123584,0.221314371,0.291372448,-0.021414187,0.443835914,-0.979085386
0.434996992,0.433923006,0.031701099,-0.901718497,0.002928996,-0.002169486,0.005035019,0.030185005,0.22131075,0.291214406,-0.021405354,0.443833679,-0.97907877
0.43999514,0.434192985,0.031824816,-0.902432323,0.0028418,-0.002859982,0.005649281,0.030232264,0.221307978,0.291092783,-0.021399373,0.443827093,-0.979078114
0.444994301,0.434511065,0.03108526,-0.902378798,0.00194408,-0.002235514,0.005629805,0.029947661,0.221516132,0.291055948,-0.021396199,0.443826944,-0.979076266
0.449994236,0.434050739,0.033683751,-0.901895046,0.003937549,-0.000899594,0.006377003,0.029728679,0.22167629,0.291027606,-0.021391401,0.443826705,-0.97907573
0.454995185,0.433936357,0.031151611,-0.902779996,0.003713215,-0.002254256,0.006839341,0.029656069,0.221729398,0.291018188,-0.02138193,0.443821311,-0.979071259
0.459997445,0.435877562,0.032246433,-0.901757181,0.003329836,-0.002344801,0.005600276,0.029600201,0.221770272,0.291010946,-0.021383444,0.44381842,-0.979080498
0.464994818,0.433768749,0.032057896,-0.901125371,0.002354186,-0.003854756,0.00428876,0.029584572,0.221609071,0.290840447,-0.021384727,0.44381091,-0.979081511
0.469992697,0.435304016,0.033312619,-0.902748823,0.002517506,-0.001673954,0.004914711,0.029575476,0.221308336,0.290539265,-0.0213871,0.44381392,-0.97908771
0.474992126,0.434443057,0.031235691,-0.903071582,0.002064906,-0.002630351,0.00532659,0.029572459,0.221208617,0.290439397,-0.021382833,0.443803817,-0.979087234
0.47999233,0.434499502,0.033419706,-0.900573134,0.002128365,-0.002200928,0.005507011,0.02957014,0.221131891,0.290362567,-0.021391099,0.443799824,-0.979091525
0.484993547,0.433584154,0.03343964,-0.901875436,0.003720266,-0.001859526,0.004140257,0.029569369,0.22110644,0.290337086,-0.021385523,0.443800449,-0.979104996
0.489995778,0.435153216,0.032682169,-0.902372956,0.001516745,-0.003085765,0.005832129,0.029632388,0.221221894,0.290447354,-0.021391971,0.443799317,-0.9791044
0.494992882,0.435354292,0.032637067,-0.90196836,0.000522437,-0.00270986,0.004635298,0.029653285,0.221260175,0.290483922,-0.021395519,0.443798274,-0.979107141
0.49999103,0.434630007,0.033995584,-0.90169251,0.003433015,-0.00310883,0.005692977,0.029669363,0.221289635,0.290512085,-0.021393217,0.443789899,-0.979107082
0.504989982,0.434275091,0.032806389,-0.899576962,0.001554076,-0.003048215,0.005204806,0.029674694,0.22129941,0.290521413,-0.021399446,0.443787426,-0.979107499
0.509989917,0.435886711,0.032011766,-0.901087642,0.004450587,-0.002790005,0.004009281,0.029722769,0.221469879,0.291773409,-0.021391414,0.443789512,-0.979108453
0.514990866,0.433055848,0.033446837,-0.901484311,0.003586347,-0.001522723,0.004459632,0.029749591,0.221566707,0.292496592,-0.021383382,0.443787426,-0.979109049
0.519993365,0.434730202,0.032533534,-0.902843416,0.004694392,-0.001799173,0.006038225,0.029770229,0.221641213,0.293053031,-0.021373097,0.443783224,-0.979101658
0.524990976,0.435747594,0.033195376,-0.901841044,0.004569896,-0.001530019,0.00683684,0.029777072,0.221665919,0.293237537,-0.021360191,0.443787873,-0.979090035
0.529989123,0.435667038,0.033661671,-0.902293146,0.005338467,-0.001507489,0.006501207,0.03000753,0.221708134,0.293233186,-0.021344461,0.443794221,-0.97908318
0.534988046,0.437573344,0.032347072,-0.900555432,0.007114765,-0.00124181,0.006148898,0.030311028,0.221745551,0.293084145,-0.021310739,0.443801165,-0.979062915
0.539994121,0.435608715,0.031319387,-0.900378406,0.005686798,-0.003300933,0.007107093,0.030544549,0.221774325,0.292969495,-0.021287246,0.443789065,-0.979039907
0.544995308,0.435919583,0.032318179,-0.901178658,0.0038354,-0.00241082,0.007290319,0.030621979,0.221783876,0.292931497,-0.021267686,0.443789184,-0.979021668
0.549997568,0.434884548,0.032539591,-0.903296292,0.006044472,-0.002058727,0.006907187,0.030681558,0.221791223,0.292902231,-0.021242784,0.443785638,-0.979008853
0.554994702,0.435359389,0.032868553,-0.90231055,0.005070578,-0.00281124,0.006443698,0.030158855,0.221649423,0.2926552,-0.021231793,0.443780363,-0.979000807
0.55999285,0.432590067,0.032690156,-0.901595831,0.004720067,-0.00175728,0.007466159,0.029756671,0.221540317,0.292465121,-0.021208744,0.443778098,-0.978990257
0.564992249,0.432598054,0.031371955,-0.900661111,0.005126259,-0.002440226,0.006596785,0.029623315,0.221504152,0.292402089,-0.021192856,0.443781376,-0.978981733
0.569992959,0.435245275,0.031028934,-0.90031004,0.003384474,-0.002027134,0.007306526,0.029520705,0.221476331,0.2923536,-0.021181548,0.443781793,-0.978969455
0.574993908,0.435501993,0.031748436,-0.900983155,0.002580778,-0.004334646,0.006181405,0.029457971,0.221497029,0.292394429,-0.021177264,0.443769574,-0.978965402
0.57999593,0.436085612,0.032009706,-0.90245986,0.004230869,-0.002851045,0.0058525,0.029380672,0.221543208,0.292483389,-0.021166451,0.443770349,-0.978960931
0.584993005,0.435293525,0.033173714,-0.903158545,0.002316847,-0.003657151,0.006123059,0.02935504,0.221558526,0.292512894,-0.021170637,0.443757534,-0.978956699
0.589990914,0.435139835,0.031553231,-0.901394308,0.002189062,-0.0018524,0.006218356,0.029335318,0.221570313,0.292535573,-0.021169735,0.44375658,-0.978945374
0.594990075,0.435252219,0.030964091,-0.900588989,0.002571424,-0.003593551,0.004805915,0.029328778,0.221574217,0.292543083,-0.021169489,0.44375062,-0.978948414
0.599990249,0.436350942,0.031728901,-0.902074575,-0.00087352,-0.004754616,0.003970302,0.029589541,0.221306801,0.29307723,-0.021191115,0.44373548,-0.978947699
0.604991496,0.436165333,0.031113585,-0.902267396,0.000233652,-0.003532139,0.005232199,0.029676005,0.221218124,0.293254346,-0.021195076,0.443728387,-0.978943229
0.609993756,0.43389371,0.032694664,-0.901452661,0.000526434,-0.004197731,0.004147159,0.029742533,0.221149892,0.293390632,-0.021207429,0.443718374,-0.978940725
0.614991367,0.43471536,0.03237192,-0.901907384,-0.001332516,-0.004939751,0.00451912,0.029764595,0.221127272,0.293435812,-0.021221912,0.443699181,-0.978940845
0.619989753,0.433850974,0.031965856,-0.902941823,-0.001737279,-0.003822221,0.006682729,0.03027443,0.221303597,0.293458819,-0.021245161,0.443686366,-0.978927076
0.624988914,0.435492843,0.03379577,-0.901866674,-0.001378554,-0.003450953,0.004068541,0.030565443,0.221410006,0.293463528,-0.021270934,0.443675816,-0.978935599
0.629988849,0.434809953,0.033354178,-0.900300205,-0.001230349,-0.005431347,0.005726471,0.030789357,0.221491888,0.293467164,-0.02128897,0.443656802,-0.978920162
0.634990096,0.432493985,0.033737417,-0.902825892,-0.001097429,-0.004126084,0.006071011,0.030863604,0.221519023,0.293468356,-0.021309489,0.443647951,-0.97891593
0.639992297,0.433129609,0.034461416,-0.903816283,-0.002157897,-0.00314545,0.005820762,0.030613784,0.221454382,0.292937785,-0.021332406,0.443636417,-0.978915632
0.644989669,0.434578806,0.034401257,-0.902604342,-7.28E-06,-0.002434931,0.004680879,0.030221425,0.221346691,0.292225897,-0.021348765,0.443627924,-0.978926599
0.649987817,0.433984876,0.035290498,-0.901834786,-0.000260783,-0.000902163,0.004852777,0.029919529,0.221263841,0.29167816,-0.021374501,0.443626672,-0.978933394
0.654986739,0.432860315,0.034927968,-0.901042283,-0.000354717,-0.002679831,0.003090882,0.029819427,0.221236363,0.291496545,-0.021402532,0.443621248,-0.978951812
0.659986675,0.432831526,0.03332128,-0.901076913,-0.000706943,-0.000265378,0.0042502,0.029742407,0.221215233,0.291356802,-0.021428034,0.443629682,-0.978960395
0.664987624,0.434755385,0.031746399,-0.902566612,-0.001426839,-0.001134489,0.003559618,0.029266221,0.221425653,0.291915596,-0.021444391,0.443635315,-0.978968561
0.669989645,0.433452249,0.032259434,-0.901411057,-0.002019634,0.00030163,0.004277253,0.028899828,0.221587583,0.292345524,-0.021465091,0.443645358,-0.978980839
0.674992621,0.433056414,0.032914333,-0.901317298,-0.002118645,0.000549582,0.003304497,0.028778339,0.221641272,0.292488098,-0.021488737,0.4436526,-0.978990912
0.679990768,0.433574915,0.030714847,-0.902033746,-0.001766986,-0.001433356,0.005045935,0.02868486,0.221682578,0.2925978,-0.021508556,0.443655074,-0.978994429
0.684989929,0.435270846,0.031313341,-0.901989102,-0.003335758,0.00199234,0.00488475,0.028880112,0.221633404,0.292545468,-0.021530617,0.443678081,-0.978990793
0.689990163,0.435790479,0.030670818,-0.901323557,-0.003151692,0.001230526,0.00365997,0.029259115,0.221532002,0.292415529,-0.021561988,0.443694711,-0.979003012
0.694991112,0.433405817,0.032001328,-0.901520848,-0.003403707,0.001120082,0.003310024,0.029384786,0.22149837,0.292372435,-0.02159947,0.443702757,-0.979017138
0.699993372,0.433782071,0.030783698,-0.901868701,-0.00373131,0.001054834,0.004789375,0.029481482,0.221472487,0.292339295,-0.021625409,0.443711996,-0.979019523
0.704990447,0.433549494,0.031909265,-0.90105176,-0.005075543,0.002567862,0.001299284,0.029513543,0.221463904,0.292328298,-0.02167096,0.443734914,-0.979036808
0.709988892,0.436107218,0.033175461,-0.901136935,-0.005849059,0.001307263,0.002266707,0.029602794,0.221460283,0.292782724,-0.021716049,0.443752915,-0.979048848
0.714987755,0.436778456,0.033154111,-0.900120616,-0.003320939,-0.000141283,0.002454618,0.029632386,0.221459076,0.292933404,-0.021749152,0.443770885,-0.979062736
0.719987988,0.436381519,0.03542174,-0.901276767,-0.002331241,-0.000159486,0.00462795,0.029655157,0.221458152,0.293049335,-0.021777736,0.443777978,-0.979063272
0.724988937,0.435467422,0.037377648,-0.901795328,-0.001166119,-0.000769968,0.004142825,0.029662708,0.221457839,0.293087751,-0.021807108,0.443783969,-0.979072034
0.729991198,0.433938503,0.036234271,-0.902489364,-0.00138783,-0.000452375,0.007126523,0.02986623,0.221504152,0.293063074,-0.021825662,0.44378686,-0.97906667
0.734988272,0.434577674,0.037377413,-0.899984777,0.000901039,-0.002256631,0.007332078,0.029982638,0.221531019,0.293041468,-0.021832298,0.443788797,-0.979055643
0.739986181,0.435337663,0.036390524,-0.901162684,0.001811196,-0.002635409,0.006805041,0.030072207,0.221551687,0.293024838,-0.02183523,0.443782806,-0.97904712
0.74498558,0.434576541,0.033600792,-0.899778068,0.001899891,-0.002310892,0.009327753,0.030101907,0.221558541,0.293019325,-0.02182845,0.443784416,-0.979020238
0.749985516,0.435730755,0.035365935,-0.900930583,0.001305038,-0.003009159,0.009326152,0.030013347,0.221534535,0.292734206,-0.021828381,0.443786591,-0.978995621
0.754986763,0.436363012,0.035108354,-0.90126121,0.001785424,-0.002688138,0.010373477,0.029871635,0.221497059,0.292356402,-0.0218172,0.443783045,-0.978968918
0.759988725,0.435047269,0.032968566,-0.902618885,0.000700011,-0.002572775,0.008900044,0.029762598,0.221468225,0.29206571,-0.021819687,0.443777978,-0.978952169
0.764985859,0.435579002,0.033290379,-0.901384056,0.002522884,-0.002844845,0.0100161,0.029726442,0.221458673,0.291969329,-0.021806845,0.443781614,-0.978925049
0.769984007,0.435953051,0.032509215,-0.902402461,0.000315113,-0.001573568,0.008777852,0.029698623,0.221451312,0.291895181,-0.02181023,0.443781555,-0.978907049
0.774983168,0.435076267,0.029434605,-0.902738154,-0.000279012,0.001064203,0.009396678,0.029885035,0.221502244,0.29256478,-0.021803362,0.443799585,-0.978871703
0.779983342,0.432429761,0.029572496,-0.902654707,-0.000959538,0.00236287,0.011131793,0.030028466,0.221541435,0.293080002,-0.021806128,0.443823516,-0.978841126
0.784984589,0.433066308,0.033053711,-0.903571308,-0.002887455,0.003570817,0.010942763,0.030076025,0.221554428,0.293250829,-0.021820636,0.443844914,-0.978815615
0.789986789,0.434332371,0.035488311,-0.902653039,-0.00154078,0.00347986,0.010596853,0.030112619,0.221564427,0.293382317,-0.021834711,0.443870753,-0.978796124
0.794984221,0.436173052,0.038275514,-0.901938021,-0.002073151,0.00699541,0.011137031,0.029985202,0.221511438,0.293287545,-0.021852823,0.443919361,-0.97876966
0.799982309,0.433959931,0.038601089,-0.900071204,0.000236852,0.005224247,0.013063107,0.029746057,0.221413746,0.293074757,-0.021850793,0.443953782,-0.978733659
0.804982007,0.433582753,0.037299786,-0.902475715,0.00297022,0.005260802,0.012965662,0.029666761,0.221381366,0.293004215,-0.021836333,0.443993509,-0.978693128
0.809988081,0.434109002,0.038768802,-0.900735199,0.004574157,0.005694453,0.017354624,0.029605748,0.221356437,0.292949915,-0.021802219,0.444029093,-0.978635132
0.81498903,0.435355395,0.035928465,-0.89980638,0.006737919,0.003236147,0.015045586,0.029585518,0.221348166,0.292931914,-0.021770423,0.444059283,-0.978587866
0.819991052,0.434748769,0.036132444,-0.901997447,0.005463881,0.003676877,0.017786313,0.030032841,0.221455842,0.291581571,-0.021724066,0.444084942,-0.97852385
0.824988186,0.434514403,0.034829672,-0.902840614,0.00857451,0.002622142,0.017751524,0.030181166,0.22149156,0.291133821,-0.021668442,0.444105297,-0.978461802
0.829986572,0.433928221,0.032411393,-0.905908406,0.008265291,0.003187997,0.017129363,0.03029529,0.221519038,0.290789306,-0.021606166,0.444130123,-0.978396595
0.834985495,0.43312633,0.03204662,-0.900913954,0.008097175,0.004036624,0.017439967,0.030333132,0.221528143,0.290675074,-0.021554232,0.444156438,-0.978333473
0.839985669,0.435737729,0.031689469,-0.902907252,0.007356969,0.005482222,0.016248988,0.030111345,0.221549973,0.291689754,-0.021501733,0.444194019,-0.978271186
0.844986618,0.434569865,0.029616596,-0.902016103,0.007227613,0.006934629,0.01573199,0.029975716,0.221560881,0.292299002,-0.021447001,0.444236368,-0.978213727
0.849989116,0.436065644,0.030713126,-0.903086245,0.005028616,0.004789362,0.013638954,0.029871359,0.22156927,0.292767793,-0.021414556,0.44427219,-0.978163481
0.854986727,0.434636891,0.027967915,-0.902630091,0.005254332,0.008791739,0.01217191,0.029836757,0.221572056,0.292923242,-0.021376634,0.444322377,-0.978118777
0.859984875,0.436821163,0.026549732,-0.900949717,0.003258829,0.004836902,0.007825716,0.029868085,0.221567675,0.292446673,-0.021357078,0.444361866,-0.978096128
0.864983797,0.434213251,0.029270807,-0.899818599,-0.001286579,0.008498978,0.008001412,0.02993691,0.221559644,0.291687489,-0.021367487,0.44441238,-0.978076577
0.869983971,0.433061332,0.034800295,-0.901996791,-0.001537636,0.008303172,0.008867979,0.029989867,0.22155346,0.291103363,-0.021381106,0.44445467,-0.978067398
0.87498498,0.43410027,0.038875427,-0.902730465,-0.000344286,0.009245181,0.009347985,0.030007428,0.221551403,0.290909678,-0.02139857,0.444510937,-0.97806567
0.87998718,0.435182601,0.037540633,-0.898439825,-4.98E-05,0.008124395,0.009081617,0.030020939,0.221549839,0.290760666,-0.021403791,0.444562197,-0.978049934
0.884984314,0.435890079,0.036349013,-0.902757585,0.003093141,0.007131183,0.009161753,0.029974777,0.221456811,0.291611522,-0.021402292,0.444606304,-0.978038788
0.8899827,0.434152961,0.031171246,-0.902344108,0.002798491,0.007140675,0.01129794,0.029939258,0.221385241,0.29226622,-0.021384658,0.444641888,-0.978002787
0.894981861,0.435721785,0.034488145,-0.900310457,0.002123484,0.005107458,0.009253767,0.029927483,0.221361518,0.29248327,-0.021382162,0.444679499,-0.977976501
0.899981797,0.436493337,0.031952217,-0.901094913,0.004214647,0.00702166,0.010846517,0.029918421,0.221343249,0.292650312,-0.02135797,0.444730103,-0.97794801
0.904983044,0.438513964,0.027012318,-0.898092031,0.002932779,0.005942648,0.010070152,0.029775698,0.221308976,0.292482018,-0.021331834,0.444774657,-0.9778983
0.909985304,0.439403117,0.029174102,-0.900222301,0.001985928,0.00591377,0.010307343,0.029524606,0.221254081,0.292126358,-0.021312675,0.444822192,-0.977861285
0.914982677,0.43969807,0.033197261,-0.898196578,0.000410415,0.002745688,0.008031491,0.029441349,0.221235871,0.29200843,-0.02132993,0.444854289,-0.977848172
0.919980526,0.434561402,0.035846505,-0.900171161,0.00350031,0.001777687,0.00916544,0.029377287,0.221221864,0.291917682,-0.021320796,0.444870263,-0.977840543
0.924979448,0.432439476,0.033104103,-0.90308547,0.004173354,0.00341381,0.011508095,0.029356046,0.221217215,0.291887611,-0.02129204,0.4448888,-0.977810919
0.929979384,0.43930909,0.03841557,-0.898190141,0.007334395,0.002334561,0.011511345,0.029667668,0.221469581,0.290993124,-0.021268103,0.444920033,-0.977780581
0.934980631,0.439221621,0.038445465,-0.90182972,0.00604738,0.000501698,0.0117764,0.029770996,0.221553266,0.290696532,-0.02124678,0.444944382,-0.977758944
0.939982593,0.432223976,0.03083016,-0.901263714,0.008073026,0.000521796,0.013194359,0.0298505,0.221617639,0.290468335,-0.021194033,0.444941819,-0.977722406
0.944985867,0.433923632,0.032917403,-0.900393665,0.006805077,0.000269022,0.01208208,0.029876862,0.221638992,0.290392667,-0.021151789,0.444950372,-0.977688789
0.949984014,0.437266797,0.034720186,-0.902035773,0.00740996,-0.001231468,0.009238631,0.029845636,0.221662775,0.291034013,-0.021117406,0.444962323,-0.977667391
0.954983175,0.435225219,0.036761958,-0.900121033,0.010141916,0.001297253,0.010768599,0.029822536,0.221672475,0.291419774,-0.021082485,0.444975466,-0.977656245
0.959983349,0.432249278,0.032372233,-0.903753042,0.009573991,0.001403867,0.010989284,0.029804762,0.221679941,0.291716576,-0.02102039,0.444979548,-0.977621853
0.964984596,0.43250072,0.03301416,-0.901211917,0.008659663,0.000974689,0.012535537,0.029798869,0.221682414,0.291814983,-0.02097233,0.444990575,-0.977579296
0.969986796,0.437126696,0.035452276,-0.901434362,0.010126547,0.001260642,0.010559501,0.029794561,0.221711114,0.291663677,-0.020930301,0.445005983,-0.977559209
0.974984169,0.436100036,0.034660008,-0.90101999,0.008246542,0.002153982,0.009775256,0.029793359,0.221747652,0.291384578,-0.020893762,0.445031077,-0.977542579
0.979982316,0.433716863,0.032882746,-0.901838064,0.00815819,0.00085406,0.010799666,0.029792435,0.221775755,0.291169852,-0.020852,0.445035875,-0.977519214
0.984981239,0.434241921,0.035322342,-0.901850045,0.009503347,0.001100331,0.00996415,0.02979213,0.221785069,0.291098654,-0.020809224,0.445047528,-0.977502406
0.989981413,0.436935306,0.03163122,-0.90166837,0.009392579,0.001179281,0.010287077,0.029791893,0.221792251,0.291043848,-0.020762768,0.44507277,-0.977476597
0.994982421,0.436639577,0.030770559,-0.900040209,0.009728286,0.000658297,0.009186241,0.029591884,0.221755385,0.291878372,-0.020717712,0.445081502,-0.977450967
0.999984622,0.437835872,0.03358056,-0.900319695,0.008772807,-0.001214514,0.009668075,0.029437991,0.221727014,0.292520463,-0.020679241,0.445098698,-0.977427125
1.004981756,0.437230766,0.030688239,-0.900565863,0.007976701,-0.000184474,0.008060955,0.029386964,0.221717611,0.292733371,-0.020645227,0.445106804,-0.977408767
1.009979963,0.436931461,0.03200195,-0.900988281,0.00727602,-0.003648179,0.007520263,0.029347701,0.221710369,0.292897195,-0.020603389,0.445100427,-0.977385759
1.014979124,0.436565369,0.03119473,-0.89927423,0.008995262,-0.00385859,0.00591631,0.029448004,0.221675888,0.292836338,-0.020569799,0.445087045,-0.977375627
1.019979239,0.435059518,0.030879164,-0.900778532,0.008180954,-0.00471792,0.005513824,0.029639766,0.221616924,0.292673022,-0.020538133,0.445068449,-0.977365911
1.024980187,0.43607533,0.028173929,-0.900421977,0.006292804,-0.004929384,0.006022628,0.029703349,0.221597373,0.292618871,-0.020509999,0.445057422,-0.977346957
1.029982448,0.435681194,0.029274646,-0.901026487,0.007087048,-0.005718688,0.006223229,0.029752273,0.221582338,0.292577207,-0.020474998,0.445041656,-0.977338433
1.03497982,0.436745822,0.027881028,-0.89981389,0.006281234,-0.003826393,0.00472796,0.029768495,0.221577346,0.292563409,-0.020449415,0.445030332,-0.977340698
1.039978027,0.435025483,0.032101523,-0.899605572,0.004806498,-0.005214155,0.004178936,0.029516384,0.221582234,0.292955667,-0.02044105,0.445017099,-0.977343559
1.04497695,0.433637351,0.033073254,-0.900474429,0.004389012,-0.00446276,0.004078567,0.02943279,0.221583858,0.293085754,-0.020431284,0.44499588,-0.977349818
1.049977064,0.432247967,0.027929246,-0.901209474,0.005742486,-0.004566351,0.006036924,0.029368471,0.22158511,0.29318583,-0.020397222,0.44497633,-0.97733748
1.054978251,0.433394164,0.027196605,-0.900102019,0.003617115,-0.003679702,0.00377826,0.029347144,0.221585527,0.293219,-0.020385515,0.444958687,-0.977345407
1.059980512,0.433681905,0.031672347,-0.901038408,0.004697471,-0.004105617,0.003259815,0.029379314,0.221636638,0.293342799,-0.020379454,0.444948733,-0.977355182
1.064977646,0.434190273,0.030936465,-0.899493694,0.001661021,-0.002670457,0.001144648,0.029402003,0.221666157,0.293408185,-0.020385625,0.444935381,-0.977367818
1.069976091,0.432980478,0.032750562,-0.900414169,0.002980594,-0.002274991,0.005890385,0.029419459,0.221688867,0.293458492,-0.020378832,0.444932193,-0.977363586
1.074975491,0.434795678,0.028869588,-0.900916755,0.001783411,-0.000856974,0.002312189,0.029425249,0.221696392,0.293475181,-0.020385057,0.44492957,-0.977378607
1.079981327,0.434260577,0.025466705,-0.901937664,-0.000258755,-0.001773363,0.001340994,0.029429851,0.221729234,0.293289334,-0.020391177,0.444927514,-0.977389812
1.084982514,0.434773117,0.023742015,-0.900668502,-0.001641891,9.28E-05,2.64E-05,0.029431524,0.221767411,0.293027371,-0.020411413,0.444934785,-0.97740525
1.089984775,0.434617072,0.024321213,-0.902329743,-0.003687626,0.001130844,9.49E-05,0.029432811,0.221796781,0.292825788,-0.020444712,0.444945693,-0.977425933
1.094982147,0.433946252,0.027328474,-0.900294304,-0.00607058,-0.000672114,-0.000326985,0.029433237,0.221806511,0.292758971,-0.02049551,0.444946915,-0.977457643
1.099979997,0.434701174,0.024516124,-0.901181638,-0.006816374,-0.00039339,-0.002396045,0.029433567,0.221814007,0.292707562,-0.020547371,0.444954127,-0.977494299
1.104979157,0.435945898,0.019247146,-0.900130153,-0.012397485,-0.000336318,-0.002761977,0.029431541,0.221968979,0.292688817,-0.020611165,0.444966972,-0.977514327
1.10997963,0.437938184,0.013657616,-0.902795494,-0.016584029,-0.002109996,-0.00836811,0.029429981,0.222088218,0.292674363,-0.020714482,0.444970101,-0.977561235
1.114980817,0.438613772,0.011737249,-0.899584174,-0.026715573,-0.001168539,-0.013082669,0.029429464,0.222127765,0.292669594,-0.020866606,0.444969773,-0.977626741
1.119983077,0.438703656,0.019662743,-0.899697542,-0.031890456,-0.00105141,-0.015981359,0.029429067,0.222158194,0.292665899,-0.021081209,0.444971442,-0.977734387
1.12498045,0.43406269,0.029582815,-0.899684131,-0.035652239,-0.002434659,-0.018764528,0.029430116,0.222164392,0.292239636,-0.021326905,0.444962323,-0.977873683
1.129978657,0.433526427,0.033740401,-0.90041393,-0.034477551,-0.000172389,-0.018326554,0.029432116,0.222165227,0.291481823,-0.021573581,0.444966793,-0.97801125
1.134977818,0.436693519,0.038998533,-0.901560545,-0.035919685,-0.0003977,-0.016686866,0.029432779,0.22216551,0.291230559,-0.021830829,0.44497335,-0.978149831
1.139977932,0.438614547,0.043310259,-0.901401818,-0.032218982,0.000161186,-0.01605914,0.02943329,0.222165734,0.291037232,-0.022076884,0.444983125,-0.978291154
1.144979,0.4385809,0.044454776,-0.902081907,-0.026518827,-0.004309932,-0.01196589,0.029433459,0.222165808,0.290973127,-0.022275455,0.444976211,-0.978405654
1.149981141,0.437880337,0.04546348,-0.901450932,-0.021973738,-0.003554942,-0.009541477,0.029244462,0.221626267,0.290602058,-0.022450544,0.444969058,-0.978510857
1.154978514,0.437397033,0.04326731,-0.900923014,-0.017118922,-0.005995246,-0.006223579,0.029181793,0.221447363,0.290479004,-0.022584388,0.444948524,-0.978590608
1.159976721,0.441486329,0.041733928,-0.898754239,-0.01421684,-0.008130408,-0.003639122,0.029133575,0.221309707,0.290384322,-0.022703052,0.44492799,-0.97864145
1.164975643,0.441057801,0.040746141,-0.899765134,-0.01155748,-0.010032972,-0.001078528,0.029117586,0.221264079,0.290352941,-0.022797409,0.444892704,-0.978683114
1.169975758,0.440343559,0.038154062,-0.899849415,-0.010501806,-0.013279515,0.000748561,0.029302102,0.221084505,0.291624069,-0.022877904,0.444843411,-0.978707254
1.174977064,0.440415651,0.035684738,-0.901116669,-0.008782534,-0.015362974,0.002637622,0.029411988,0.220989212,0.292366087,-0.022935806,0.444777191,-0.97871381
1.179979563,0.440679401,0.036606912,-0.900885284,-0.008985009,-0.016655589,0.004699758,0.029496538,0.220915884,0.292936981,-0.022993715,0.444707811,-0.978706241
1.184976935,0.439322352,0.037880991,-0.900990248,-0.007074554,-0.016984077,0.005152818,0.029524572,0.22089158,0.293126285,-0.02305175,0.444636583,-0.978708982
1.189975023,0.437440932,0.033196863,-0.901805043,-0.008051511,-0.017076276,0.007055353,0.029574843,0.220870525,0.293073058,-0.023086844,0.444561541,-0.978682935
1.194973946,0.43815428,0.032634061,-0.902784586,-0.007617805,-0.018039364,0.009687024,0.029620454,0.220861152,0.292854846,-0.023118949,0.444485009,-0.978645742
1.199974179,0.437682062,0.035087429,-0.903213978,-0.008044631,-0.01699991,0.011104072,0.029655548,0.22085394,0.292686939,-0.023161786,0.444408536,-0.978614509
1.204975367,0.438351274,0.039089229,-0.903919697,-0.006649555,-0.01553633,0.011012955,0.029667186,0.220851555,0.292631269,-0.023207115,0.44434756,-0.978581011
1.209977627,0.43690753,0.038595587,-0.902484417,-0.005539963,-0.016451532,0.013102206,0.029676139,0.220849723,0.292588413,-0.023234248,0.444272935,-0.9785375
1.214980602,0.43605268,0.038531855,-0.903253794,-0.004935967,-0.012343063,0.015157089,0.029433053,0.220847979,0.291930258,-0.023248509,0.444226623,-0.978491127
1.219978809,0.435860842,0.036125805,-0.903320313,-0.002782766,-0.013598369,0.01467896,0.029246015,0.220846653,0.291423827,-0.02325069,0.44416362,-0.978445292
1.22497797,0.433919668,0.034671448,-0.90294975,-0.003691924,-0.011075065,0.016816132,0.029183997,0.220846206,0.291255921,-0.023251837,0.444113642,-0.978384078
1.229977846,0.435708344,0.033279967,-0.903285801,-0.004492565,-0.013447223,0.012713984,0.029136278,0.220845848,0.291126728,-0.023267312,0.444056898,-0.978347421
1.234979033,0.432831049,0.029415274,-0.901383162,-0.004307023,-0.010029519,0.012076469,0.029288381,0.220928296,0.290994674,-0.02326379,0.444014162,-0.978304327
1.239981055,0.434087873,0.030206559,-0.903254569,-0.005756751,-0.009443686,0.010979921,0.029575216,0.221075192,0.290802866,-0.02328768,0.443975061,-0.978274047
1.244978428,0.434013337,0.030532388,-0.901832223,-0.007795842,-0.009857628,0.011415157,0.029670324,0.221123904,0.290739268,-0.023314292,0.443942189,-0.978239536
1.249976873,0.434989244,0.027776133,-0.901650071,-0.009375325,-0.011030187,0.009493346,0.029743504,0.22116138,0.290690333,-0.023351748,0.443896979,-0.97820586
1.254976034,0.437299132,0.024685485,-0.8988083,-0.013720145,-0.012375458,0.007740733,0.029767768,0.221173808,0.29067412,-0.023405155,0.443854868,-0.978170276
1.259976745,0.436334819,0.025338201,-0.899514556,-0.015329012,-0.012637159,0.006626418,0.029853329,0.22092101,0.291657984,-0.023481283,0.443800688,-0.978143454
1.264977932,0.43921876,0.026087578,-0.899821997,-0.018059999,-0.014569037,0.006174893,0.029881699,0.220837176,0.2919842,-0.023558922,0.443743557,-0.978111148
1.269980192,0.440225869,0.028956806,-0.900455892,-0.020945657,-0.017447669,0.006335522,0.029903527,0.220772684,0.292235196,-0.023666471,0.44367516,-0.978097856
1.274977803,0.438329309,0.033415247,-0.900366127,-0.023160713,-0.015882427,0.006455448,0.029910807,0.2207513,0.292316973,-0.023791436,0.443610132,-0.978083611
1.279975891,0.435616881,0.038121503,-0.903926194,-0.020341627,-0.017120253,0.008609283,0.03006107,0.220939398,0.292822391,-0.023907587,0.443535566,-0.978075504
1.284975052,0.435077399,0.040940277,-0.904556572,-0.019915598,-0.014771747,0.010629075,0.030146681,0.221052393,0.29309985,-0.02401555,0.443476677,-0.978054106
1.289975047,0.432990819,0.045393128,-0.904374778,-0.018323759,-0.013896969,0.013493378,0.030212551,0.221139327,0.293313324,-0.024117874,0.443412155,-0.978028953
1.294976234,0.430427641,0.043957721,-0.904494047,-0.014505459,-0.010463871,0.015734246,0.030234393,0.221168146,0.293384105,-0.024191173,0.443363547,-0.977990806
1.299978495,0.43072179,0.04552811,-0.906182349,-0.009741743,-0.010429946,0.017157784,0.030282214,0.221097752,0.292843908,-0.024241013,0.443315238,-0.977953672
1.304975629,0.432493448,0.044643413,-0.90541786,-0.006868796,-0.008204111,0.019813729,0.030329349,0.220981061,0.292065144,-0.024269776,0.443279237,-0.977888942
1.309973717,0.433707714,0.040773764,-0.905346572,-0.004256883,-0.006818608,0.021129617,0.030365614,0.220891267,0.291465968,-0.024268648,0.443259746,-0.977813721
1.314973235,0.435516357,0.038125332,-0.904813051,-0.005258663,-0.005656274,0.021339649,0.030377639,0.220861495,0.291267276,-0.024269957,0.443238348,-0.977731943
1.31997335,0.433441937,0.051229209,-0.906142116,-0.000129666,-0.002767822,0.023323558,0.030386891,0.220838577,0.29111442,-0.024270913,0.44323042,-0.977663815
1.324974298,0.428678483,0.051198766,-0.904773951,0.006533604,0.000922976,0.024314366,0.030391421,0.220632225,0.291564971,-0.024235304,0.44323501,-0.977592826
1.329976797,0.432305664,0.032103561,-0.905285656,0.008270122,0.003688047,0.026577,0.030394904,0.220473439,0.291911632,-0.024131939,0.443268031,-0.977460563
1.33497417,0.438318908,0.041393943,-0.905653238,0.009365117,0.003901694,0.027996255,0.030396059,0.220420793,0.292026579,-0.024057362,0.443310082,-0.977338672
1.339972377,0.4353697,0.052249383,-0.902099967,0.017104803,0.003192689,0.028748224,0.030396948,0.220380276,0.292115003,-0.023969496,0.443336785,-0.977243602
1.344971538,0.427553117,0.037626583,-0.906897902,0.01932347,0.005292534,0.030646855,0.030453218,0.220394358,0.292114586,-0.023823284,0.44335413,-0.977114856
1.349977612,0.432533383,0.025640234,-0.904684246,0.015590607,0.006766587,0.031740636,0.030553117,0.220433027,0.292084217,-0.023665184,0.443399698,-0.976947129
1.3549788,0.433962762,0.040902253,-0.900865257,0.01503305,0.006259871,0.030697377,0.030586241,0.220445856,0.292074144,-0.023559963,0.443441182,-0.976816952
1.35998106,0.431597412,0.048572768,-0.901708484,0.020301018,0.007678056,0.027653664,0.030611729,0.220455721,0.292066395,-0.023444878,0.44349128,-0.976731777
1.364978433,0.424459457,0.032520432,-0.90470916,0.023306841,0.009745325,0.029044176,0.03062018,0.220458999,0.292063832,-0.023270728,0.443530321,-0.976604044
1.369976521,0.429502606,0.031462781,-0.904142857,0.022881361,0.01080156,0.027404873,0.030560698,0.220269844,0.293126255,-0.023101579,0.44358477,-0.976464391
1.374975801,0.433965296,0.038472742,-0.897351563,0.02195246,0.011381998,0.023916285,0.030540975,0.220207125,0.293478519,-0.02297437,0.443658054,-0.976370931
1.379976153,0.435400248,0.032514844,-0.901758909,0.020504272,0.00896487,0.022498785,0.0305258,0.22015886,0.293749571,-0.0228393,0.443719,-0.976271629
1.384977698,0.431827426,0.027245935,-0.899263203,0.020607198,0.010255414,0.021628397,0.030520767,0.220142856,0.293839455,-0.022698956,0.443775117,-0.976166427
1.389979601,0.433528602,0.026910696,-0.900617838,0.016397236,0.008196248,0.019374434,0.030562438,0.220530763,0.293304384,-0.022585984,0.443827331,-0.976074874
1.394976974,0.435237408,0.029845107,-0.898159385,0.014478194,0.008229471,0.018052567,0.030587526,0.220758423,0.292977452,-0.022500014,0.443886906,-0.976011753
1.399974942,0.434407264,0.032257318,-0.89574486,0.012455663,0.005888293,0.015539317,0.030606829,0.220933601,0.292725891,-0.022422791,0.44392392,-0.975945532
1.404974103,0.434483796,0.0326382,-0.899085581,0.012353001,0.004488784,0.015111948,0.030613229,0.220991671,0.292642504,-0.02234504,0.443956137,-0.975888014
1.409974217,0.435171962,0.032919195,-0.899002135,0.012769027,0.000713242,0.015622982,0.03033914,0.220895916,0.292415321,-0.022267222,0.443970621,-0.975829899
1.414975524,0.43575421,0.034952529,-0.899534583,0.012836234,0.000119638,0.015885651,0.029966902,0.220722556,0.292175591,-0.022196984,0.443983257,-0.975777805
1.419977784,0.435548186,0.032706052,-0.899942756,0.010707549,-0.003526524,0.016470388,0.029680489,0.220589161,0.291991144,-0.022124765,0.443974853,-0.975719035
1.424975157,0.434361845,0.030273538,-0.900722682,0.011442299,-0.005292702,0.018062439,0.02958552,0.220544919,0.29192999,-0.022042494,0.443953782,-0.97564584
1.429973245,0.433424532,0.031888634,-0.901560307,0.011690693,-0.006581494,0.018822169,0.029512448,0.220510885,0.291882932,-0.02196114,0.443927526,-0.975576043
1.434972644,0.435140282,0.034111459,-0.900245667,0.015625853,-0.008179098,0.019014303,0.030029293,0.220648393,0.292603642,-0.021867275,0.443905085,-0.975497067
1.439972639,0.435768038,0.038712692,-0.900936842,0.014986639,-0.006784719,0.024357731,0.03042697,0.220754191,0.293158174,-0.021768128,0.443881035,-0.975393772
1.444973826,0.434347272,0.04127859,-0.899024963,0.01939798,-0.007683102,0.024660341,0.030558832,0.220789269,0.293342054,-0.02165777,0.44385463,-0.97529453
1.449976087,0.435597837,0.037200108,-0.901767492,0.020915687,-0.008198741,0.028046489,0.03066029,0.220816255,0.293483526,-0.021513794,0.443832427,-0.975173771
1.454973698,0.433283955,0.032675028,-0.900365233,0.022133924,-0.009908573,0.027911641,0.030695381,0.22073783,0.293446392,-0.021359526,0.443793952,-0.975045383
1.459971786,0.432310849,0.029460905,-0.903045893,0.021478418,-0.010360587,0.029020473,0.030723844,0.220589146,0.293332845,-0.021200445,0.443751335,-0.974906564
1.464970708,0.434134603,0.02862734,-0.901704788,0.019419774,-0.009211927,0.026962822,0.030733284,0.220539838,0.293295175,-0.021059614,0.443717778,-0.974775374
1.469970703,0.433850557,0.02977521,-0.902360201,0.018277237,-0.007446154,0.025074553,0.030740546,0.2205019,0.293266207,-0.020930374,0.443694711,-0.974658847
1.474971652,0.433363378,0.02557708,-0.902351379,0.017022869,-0.007838082,0.024487793,0.030742953,0.220489323,0.293256611,-0.020795686,0.443660527,-0.974532306
1.479973912,0.432344407,0.025935436,-0.904349923,0.013389657,-0.006117644,0.023003669,0.030548405,0.220672786,0.291792005,-0.020687293,0.443635553,-0.974434078
1.484976888,0.432086796,0.024967188,-0.90329349,0.010819357,-0.006121582,0.021783307,0.030483898,0.220733613,0.291306406,-0.020595415,0.443610221,-0.974338055
1.489975095,0.432842046,0.027813587,-0.902883649,0.007444202,-0.005055937,0.020019466,0.030434262,0.220780402,0.290932745,-0.020527463,0.443593174,-0.974258602
1.494974971,0.432718635,0.033358864,-0.903294563,0.007813761,-0.004429875,0.019580934,0.030417804,0.220795929,0.290808827,-0.020471085,0.443579137,-0.974191606
1.499975204,0.431343347,0.03486564,-0.902691901,0.007040478,-0.00256574,0.020901613,0.03035713,0.220706731,0.290665686,-0.020415461,0.443572462,-0.974114835
1.504976153,0.430168808,0.034092974,-0.904799223,0.009488453,-0.002167099,0.019254662,0.030325131,0.220652118,0.29060638,-0.02034878,0.443562031,-0.97405237
1.509978652,0.433538347,0.033172384,-0.903217256,0.007682951,-0.000107842,0.020743124,0.030300511,0.220610097,0.290560752,-0.020286024,0.443568408,-0.973969877
1.514976263,0.433809996,0.031581108,-0.902329206,0.009662167,-0.000456106,0.020020947,0.030292347,0.220596164,0.290545642,-0.020208219,0.443576276,-0.973888397
1.519974351,0.435867667,0.031537354,-0.904124975,0.010725051,-1.19E-05,0.018635511,0.030508898,0.220616415,0.291237742,-0.02013845,0.443588316,-0.973806441
1.524973273,0.43573451,0.032021392,-0.902774096,0.008214765,-0.001607571,0.021046067,0.030805405,0.220654383,0.292176902,-0.020076068,0.443593204,-0.973713934
1.529973507,0.433765501,0.032471012,-0.900683343,0.010158109,-0.00095164,0.020460948,0.031033549,0.22068359,0.292899519,-0.020007253,0.443596125,-0.973626494
1.534974694,0.43251884,0.027433416,-0.90119046,0.009279691,-0.001199202,0.018040823,0.031109197,0.220693275,0.29313913,-0.019938717,0.443600684,-0.9735502
1.539977193,0.432791948,0.02440216,-0.900273502,0.005089227,-0.002235493,0.016717801,0.031167403,0.220700741,0.293323517,-0.019881567,0.443594187,-0.973463237
1.544974566,0.433509111,0.026955362,-0.902221918,0.004578517,-0.002551063,0.01686313,0.030986993,0.2208087,0.293387324,-0.019837078,0.443594426,-0.973392665
1.549972534,0.432757795,0.027979787,-0.899536729,0.003530015,-0.001907828,0.015589435,0.030848181,0.220891774,0.293436438,-0.019804489,0.443584144,-0.973328948
1.554971695,0.432100296,0.028686333,-0.902459323,0.004048102,-0.001927715,0.015929269,0.030802153,0.220919326,0.29345271,-0.019771896,0.443577915,-0.973272979
1.559971809,0.433138609,0.030898247,-0.901920855,0.003405309,-0.000709223,0.015977919,0.030766739,0.220940515,0.293465257,-0.019745691,0.443590164,-0.973212957
1.564972997,0.43422389,0.035683472,-0.902449489,0.003151726,-0.001597425,0.015305514,0.030785047,0.220913216,0.292930782,-0.019724555,0.443592012,-0.973167658
1.569975019,0.43403703,0.03716052,-0.902228892,0.003748463,-0.001633164,0.015618676,0.030829517,0.220857486,0.291974932,-0.019702841,0.443591297,-0.973114729
1.574972391,0.434176266,0.034912124,-0.905724168,0.005167009,-0.001422561,0.017602244,0.030844264,0.220839009,0.291657984,-0.019666966,0.443588614,-0.973066151
1.579970598,0.434155852,0.035677858,-0.906251609,0.005820123,-0.000249107,0.017719563,0.030855609,0.220824793,0.291414112,-0.019622352,0.443592727,-0.973005354
1.584969759,0.437470406,0.038229,-0.907490313,0.007344165,0.002497004,0.017659569,0.030859372,0.220820069,0.291333258,-0.019578058,0.443620861,-0.97294879
1.589969635,0.437701941,0.037377767,-0.905121803,0.01075987,0.001114801,0.019122468,0.030860927,0.220949709,0.29107061,-0.019517081,0.443634093,-0.972881913
1.594970822,0.434703469,0.036512464,-0.905661047,0.009118472,0.001898604,0.018384449,0.030861443,0.220992699,0.290983528,-0.019453648,0.443655938,-0.97282511
1.599973083,0.431889653,0.030602198,-0.903432012,0.011125268,0.003207854,0.01932621,0.03086184,0.22102578,0.290916532,-0.01936931,0.443663985,-0.972745717
1.604970455,0.434415281,0.028288703,-0.903537035,0.011784461,0.002847062,0.019638278,0.03086197,0.221036747,0.29089433,-0.019282021,0.443695396,-0.972663999
1.609968662,0.435519516,0.029627338,-0.902115285,0.011924337,0.003133718,0.016799975,0.031108994,0.220946491,0.29172188,-0.019198645,0.443719268,-0.97259295
1.614967823,0.433771789,0.029789381,-0.900615335,0.012682569,0.002057808,0.014582223,0.031252004,0.220892131,0.292205274,-0.019132663,0.443740249,-0.972539783
1.619973898,0.432324827,0.027047349,-0.900510252,0.012218061,0.003225364,0.013950987,0.031362042,0.220850304,0.292577177,-0.01905424,0.443760663,-0.972482026
1.624974847,0.428327441,0.017740337,-0.90317291,0.008632439,0.004052337,0.012980674,0.031398527,0.220836431,0.292700499,-0.018984159,0.443780839,-0.972421765
1.629976869,0.43023631,0.019336967,-0.902778983,0.00320898,0.003745911,0.011233728,0.031480797,0.220996827,0.292679071,-0.018948093,0.443805814,-0.972370386
1.634974003,0.431522012,0.030128703,-0.902313054,0.001333989,0.007840013,0.006819955,0.031562719,0.22122252,0.292554647,-0.018953077,0.443855852,-0.972372413
1.639972091,0.428892344,0.034839977,-0.906038046,0.00082497,0.00890694,0.00828266,0.031625751,0.221396193,0.292458922,-0.018954759,0.443898946,-0.972370327
1.644971251,0.424508482,0.035309583,-0.905743241,0.002843814,0.014528483,0.010799993,0.031646654,0.221453771,0.292427182,-0.018955892,0.443962514,-0.972368598
1.649971485,0.428839236,0.038847826,-0.906100512,0.006205285,0.016547294,0.011971306,0.031662736,0.221498087,0.292402744,-0.018936891,0.444046259,-0.972346008
1.654972672,0.431048453,0.039331567,-0.904920936,0.00812107,0.022389466,0.01334338,0.03132423,0.221218154,0.292803854,-0.018905096,0.444159687,-0.972322047
1.65997541,0.432463229,0.039746378,-0.906050563,0.010057617,0.024515949,0.015963487,0.031063773,0.221002758,0.293112516,-0.018856611,0.444279134,-0.972277164
1.664973021,0.431105435,0.03721999,-0.906317115,0.012710221,0.025361342,0.01588933,0.030977411,0.220931336,0.293214858,-0.018790731,0.444404304,-0.972236693
1.669971228,0.431314141,0.039406173,-0.908727288,0.014135552,0.02892616,0.018908044,0.030910961,0.220876381,0.293293595,-0.018715395,0.44454354,-0.972185433
1.67497015,0.432371467,0.040181726,-0.910234571,0.014800126,0.033681083,0.017251203,0.03097366,0.220938206,0.29277873,-0.01863708,0.444722474,-0.972139895
1.679970264,0.430402547,0.040546451,-0.913648903,0.018082343,0.037235141,0.019753596,0.031107584,0.221066698,0.291835606,-0.018543314,0.444909751,-0.972093225
1.684971571,0.433304548,0.041166171,-0.914904654,0.021236965,0.044273701,0.021163521,0.031151989,0.221109301,0.29152289,-0.018426752,0.445129484,-0.972034574
1.689973712,0.437769592,0.040010076,-0.916974187,0.024268599,0.047663979,0.02182143,0.031186156,0.221142083,0.291282237,-0.018295344,0.445376396,-0.971961796
1.694971085,0.440720648,0.037068874,-0.913373411,0.027724652,0.050905064,0.02007056,0.031197485,0.221152946,0.291202456,-0.018144146,0.445644468,-0.971896589
1.699969292,0.443564206,0.032893043,-0.917146981,0.029875344,0.054543264,0.021118985,0.031002991,0.221376881,0.292137206,-0.017972654,0.445933133,-0.971816659
1.704968691,0.448285967,0.028121453,-0.915000975,0.030011032,0.057885367,0.018027451,0.030938501,0.221451119,0.29244715,-0.017803291,0.44624421,-0.971731484
1.709968686,0.452162564,0.025823426,-0.913808227,0.027958622,0.056072101,0.014791241,0.03088888,0.22150825,0.292685628,-0.017651586,0.446554422,-0.971667826
1.714969635,0.450583339,0.025311481,-0.913490236,0.029243741,0.055454198,0.013708302,0.030872427,0.221527189,0.292764723,-0.017490562,0.446855366,-0.971610248
1.719971895,0.451279968,0.021763563,-0.911609113,0.028868275,0.056330156,0.011433209,0.030812291,0.221487343,0.292328089,-0.017333474,0.447157145,-0.971562207
1.724969268,0.447425961,0.017100312,-0.912434042,0.026116461,0.05854566,0.014861111,0.030780604,0.221460655,0.292060226,-0.017167462,0.447462946,-0.971489847
1.729967117,0.436931401,0.020189319,-0.915753663,0.020333249,0.063321643,0.021440163,0.030756224,0.221440122,0.291854113,-0.017032754,0.447773695,-0.971396923
1.734966278,0.426563859,0.021213003,-0.91669035,0.008864634,0.076055616,0.042327698,0.03074814,0.221433327,0.291785777,-0.01690202,0.448136538,-0.971196055
1.739966154,0.413468033,0.023031469,-0.918820262,-0.002042647,0.096579149,0.073730037,0.030570792,0.221493736,0.292245835,-0.016760705,0.44859314,-0.970846534
1.744967461,0.39798969,0.025107743,-0.923251927,-0.013072869,0.121406853,0.120765403,0.030339424,0.221579984,0.292915344,-0.016554248,0.449146271,-0.970248222
1.749969363,0.365398467,0.019194638,-0.923086345,-0.031313773,0.162508368,0.202009439,0.030161399,0.221646339,0.293430477,-0.016238399,0.44985491,-0.969219446
1.754972458,0.343132794,0.025715834,-0.910992563,-0.032666951,0.21588476,0.300575167,0.03010237,0.221668348,0.293601304,-0.015683169,0.450829089,-0.967631638
1.759970546,0.344224811,0.036681913,-0.91625762,-0.014796935,0.264927357,0.376230568,0.03005695,0.221685275,0.293732703,-0.014849243,0.452069402,-0.965631366
1.764969707,0.357715875,0.045462303,-0.92006135,-0.01012357,0.346382856,0.415995806,0.029600572,0.221392706,0.293588638,-0.013913552,0.453738511,-0.963456273
1.769969702,0.351281613,0.03934354,-0.959388733,-0.02449231,0.420278013,0.436232775,0.02924942,0.221167594,0.293477774,-0.013046579,0.455745816,-0.961236
1.774970889,0.351831138,0.02535446,-0.96644485,-0.059409373,0.495240778,0.438596129,0.029132986,0.221092954,0.293441027,-0.012287184,0.458093524,-0.958985686
1.779973149,0.364680946,-0.004450755,-0.987343907,-0.127362296,0.597397566,0.427009255,0.029043397,0.221035525,0.293412715,-0.011868037,0.46099022,-0.956722856
1.784970284,0.338588327,0.04820409,-1.043144584,-0.154613376,0.667859614,0.365275383,0.028927062,0.22116296,0.293460041,-0.011873908,0.464149177,-0.955017507
1.789968371,0.311407447,0.017625447,-1.018005967,-0.210808769,0.757026017,0.299966931,0.028749956,0.221409127,0.293553799,-0.012241314,0.467643559,-0.953737378
1.794967294,0.313672751,0.017942334,-1.016385555,-0.274083287,0.897284031,0.30718413,0.02869123,0.221490756,0.293584883,-0.012951394,0.471958518,-0.952316523
1.799967527,0.31845215,0.053323213,-1.038921237,-0.293044657,1.03088057,0.321277916,0.028646044,0.221553564,0.293608814,-0.013725944,0.476880282,-0.950918317
1.804968476,0.283904672,0.0281781,-1.075567365,-0.347737372,1.187833786,0.354340345,0.028631061,0.221574396,0.293616742,-0.014609379,0.482534319,-0.949351966
1.809970737,0.279122531,0.033857025,-1.121494055,-0.399111181,1.320373535,0.440530121,0.027187699,0.22053045,0.292866945,-0.01558295,0.488810539,-0.947313547
1.814967752,0.300225437,0.091762036,-1.149235606,-0.38437292,1.441340208,0.577580631,0.026709108,0.220184296,0.292618334,-0.016196035,0.495675087,-0.944606364
1.819965959,0.322332323,0.236262277,-1.174207807,-0.281004071,1.545384884,0.697563887,0.026340865,0.219917968,0.292427063,-0.016087383,0.503100216,-0.941377699
1.824965358,0.302117437,0.245037705,-1.146133423,-0.273026824,1.66505909,0.75050652,0.026218763,0.219829649,0.292363614,-0.015782785,0.511046231,-0.937973797
1.829965591,0.329606742,0.221287876,-1.137552261,-0.313403636,1.790908456,0.816132724,0.023854511,0.219045624,0.292616546,-0.015490636,0.519715488,-0.934085369
1.83496654,0.380358517,0.233691633,-1.196830988,-0.329788834,1.880912662,0.907974005,0.022508778,0.218608469,0.292775095,-0.015037813,0.528851449,-0.92968142
1.839968801,0.417512208,0.284038007,-1.256472468,-0.297461867,1.911507368,0.998132706,0.021473326,0.21827209,0.292897075,-0.014132136,0.538080871,-0.924790561
1.844966173,0.355083019,0.320498884,-1.240284681,-0.255750895,1.913850427,1.044585347,0.02112999,0.21816057,0.292937487,-0.012901524,0.547140062,-0.919782817
1.849964261,0.312045157,0.306437552,-1.174278736,-0.19430919,1.941255689,1.066533327,0.018757461,0.217858136,0.293267071,-0.011187521,0.556318164,-0.914609492
1.854963422,0.306289911,0.294675648,-1.153041482,-0.089894764,2.007128716,1.107143521,0.015844718,0.217539415,0.2936773,-0.008703722,0.565870821,-0.909124017
1.859963655,0.298569053,0.339519382,-1.255636573,0.009837076,2.006778955,1.12835598,0.01360356,0.217294186,0.293992966,-0.005631245,0.575290978,-0.903634667
1.864964843,0.219094172,0.396837443,-1.395610809,0.1118038,1.895228148,1.093923092,0.012860434,0.217212871,0.294097632,-0.002238526,0.583802044,-0.898609877
1.869966865,0.153264314,0.4932307,-1.484121799,0.253586859,1.712268233,0.99886632,0.01228865,0.217150316,0.294178188,0.001414457,0.591054082,-0.894501686
1.874964237,0.238962114,0.519373715,-1.581479669,0.369018167,1.539117098,0.879316866,0.008377963,0.217357635,0.294673771,0.005222497,0.597503841,-0.891171217
1.879962087,0.244606122,0.528858304,-1.738191962,0.465715259,1.276555777,0.77994889,0.005368955,0.217517152,0.295055091,0.009201484,0.602467358,-0.888468146
1.884961247,0.108842656,0.563340187,-1.753994346,0.567507207,0.959317625,0.643073738,0.004371224,0.217570037,0.295181543,0.01314164,0.605483711,-0.886845469
1.889967322,-0.07964164,0.516262412,-1.683728099,0.653657436,0.667263508,0.491816282,0.003603538,0.217610732,0.295278847,0.017083425,0.606843114,-0.886210442
1.894968629,-0.256625563,0.426783442,-1.582547665,0.691610515,0.438398421,0.363126695,0.001285218,0.21843636,0.294576883,0.020944806,0.606943607,-0.886276722
1.89997077,-0.398626,0.336250693,-1.499152184,0.670728505,0.264144182,0.266300201,-0.002585366,0.219892845,0.29329434,0.024514414,0.606135666,-0.886830807
1.904968143,-0.504319608,0.264722466,-1.434151649,0.61030966,0.119201533,0.199718028,-0.003868778,0.220375791,0.292869091,0.027646668,0.604561269,-0.887696087
1.909966111,-0.576816082,0.217942849,-1.379829407,0.515651822,-0.005733976,0.159916386,-0.004856277,0.220747381,0.292541862,0.030213952,0.602353156,-0.888746858
1.914965272,-0.614286125,0.197410688,-1.343510985,0.407442391,-0.125522241,0.14089863,-0.005183713,0.220870584,0.292433381,0.032178611,0.599553823,-0.889903486
1.919965148,-0.627908349,0.190091774,-1.328099012,0.297185719,-0.248167098,0.136039063,-0.007577854,0.224147454,0.288708419,0.033553615,0.596147954,-0.89114058
1.924966455,-0.623595417,0.187873319,-1.329709411,0.189908788,-0.382377058,0.13773407,-0.008371705,0.225234002,0.287473291,0.034381423,0.59207505,-0.892386675
1.929968596,-0.612524807,0.182345137,-1.331987858,0.084564388,-0.523834109,0.141590267,-0.008982521,0.226070032,0.286522925,0.03469554,0.587310553,-0.893615842
1.934965968,-0.592410326,0.172791958,-1.33324337,-0.022649156,-0.672392726,0.145285532,-0.009185055,0.226347238,0.286207825,0.034491651,0.581822455,-0.894817293
1.939964175,-0.567555785,0.166203827,-1.329553008,-0.12888065,-0.820568979,0.146092564,-0.01095793,0.228825971,0.285771489,0.033744514,0.575629711,-0.89603734
1.944963336,-0.53217411,0.160617098,-1.330289006,-0.232640192,-0.969643474,0.145033464,-0.011945924,0.230208457,0.285578847,0.032477077,0.568774045,-0.897250295
1.949963212,-0.484841257,0.159892589,-1.330012202,-0.330729067,-1.117365122,0.146164387,-0.012706118,0.231272191,0.28543061,0.030716458,0.561242044,-0.898427606
1.95496428,-0.43433398,0.166256845,-1.32246232,-0.416303903,-1.268314004,0.149354592,-0.012958183,0.231624901,0.285381436,0.028512552,0.553049862,-0.89956075
1.959966421,-0.386012495,0.178645179,-1.315531135,-0.477661878,-1.411672115,0.156838983,-0.012795915,0.232692271,0.284760922,0.026014287,0.544229329,-0.900630116
1.964963794,-0.337945193,0.187147483,-1.308400989,-0.524303734,-1.546474934,0.156251773,-0.012382905,0.233848855,0.283967584,0.023281187,0.534816086,-0.901681423
1.969962001,-0.285137504,0.1887784,-1.301490426,-0.560211539,-1.669594765,0.153776944,-0.012065122,0.234738767,0.283357173,0.020378524,0.52490437,-0.902674258
1.974960923,-0.231629848,0.191874832,-1.294633508,-0.587806344,-1.782508731,0.148407862,-0.011959751,0.23503384,0.283154756,0.017336106,0.51453948,-0.903628886
1.979961038,-0.176955774,0.197327793,-1.282361984,-0.606432498,-1.880277038,0.134878993,-0.011878676,0.235260874,0.282999039,0.014176263,0.503800631,-0.904577196
1.984962106,-0.11947199,0.202580735,-1.274870515,-0.620465279,-1.964837551,0.115203023,-0.009238408,0.236155391,0.283536017,0.010891947,0.492764026,-0.905532539
1.989964247,-0.063074015,0.210739136,-1.268885016,-0.633118212,-2.044560909,0.08881478,-0.007206902,0.23684366,0.283949226,0.007480088,0.481437534,-0.906564653
1.994961619,-0.013214086,0.216077194,-1.26384902,-0.646542192,-2.112174749,0.050419681,-0.006533293,0.237071872,0.284086227,0.003919003,0.469872624,-0.907727242
1.999959826,0.039666407,0.219545707,-1.265870929,-0.666655958,-2.166531324,0.003444203,-0.006014996,0.237247467,0.284191638,0.000153859,0.458148479,-0.909067035
2.00495863,0.106336676,0.218514219,-1.270291686,-0.693396568,-2.220458746,-0.05561851,-0.00421598,0.237650394,0.28430444,-0.003859731,0.446275264,-0.910587728
2.009959459,0.172995612,0.221388683,-1.272980332,-0.724260271,-2.283600807,-0.122386239,-0.001186447,0.238308981,0.284469932,-0.008161533,0.43420282,-0.91234684
2.014960289,0.237637773,0.246987715,-1.276626825,-0.743947208,-2.347433567,-0.202913657,-0.000181912,0.238527358,0.284524798,-0.01275839,0.421921432,-0.914442182
2.019962788,0.259945035,0.201730743,-1.284033418,-0.768354833,-2.447916746,-0.284796,0.00059101,0.238695383,0.284566998,-0.01751853,0.409161955,-0.916880965
2.024966002,0.282685041,0.244665861,-1.144606709,-0.803742707,-2.463301897,-0.359076917,0.000847296,0.238751099,0.284581006,-0.022628341,0.396401465,-0.919526219
2.02996397,0.339194119,0.265284151,-1.182443261,-0.811086059,-2.447871447,-0.437065542,0.005849498,0.23851952,0.286822349,-0.027945979,0.38398543,-0.922491312
2.034963131,0.37420404,0.270391166,-1.177096963,-0.794260263,-2.496875763,-0.515962183,0.007508134,0.238442734,0.287565559,-0.033217799,0.371253252,-0.925732255
2.039963245,0.385313749,0.253138751,-1.120266557,-0.780975997,-2.505825043,-0.588922858,0.008784341,0.238383666,0.288137406,-0.038448717,0.358533829,-0.929199457
2.044964314,0.403942198,0.236638576,-1.086097479,-0.772031963,-2.491379023,-0.650054991,0.009207507,0.238364071,0.288327008,-0.043650571,0.345967233,-0.932824969
2.049966335,0.421601146,0.216638371,-1.062040329,-0.76673609,-2.469975948,-0.706049681,0.013554323,0.237233505,0.291650981,-0.048816144,0.333560288,-0.936545134
2.05496335,0.435493231,0.186797485,-1.040007234,-0.777262866,-2.440141439,-0.756011963,0.015990706,0.236582592,0.293539584,-0.05399761,0.321317255,-0.940363348
2.059961319,0.449629039,0.157172889,-1.026345849,-0.794773698,-2.401763201,-0.799332261,0.017865337,0.236081749,0.294992745,-0.059223197,0.3093023,-0.944258571
2.06496048,0.475044608,0.129227325,-1.018109083,-0.823710084,-2.359425783,-0.829973519,0.01848693,0.235915676,0.295474559,-0.06453687,0.29755193,-0.948161364
2.069960594,0.507318616,0.106984176,-1.010180116,-0.860545695,-2.316772461,-0.855297029,0.021028558,0.235032216,0.296437234,-0.069965772,0.286071539,-0.952013552
2.074961901,0.540712237,0.096695498,-1.012760758,-0.897187591,-2.277766943,-0.874221325,0.023951992,0.233977228,0.297353327,-0.075534038,0.27482906,-0.955809355
2.079964399,0.565019846,0.096003704,-1.004237771,-0.92380023,-2.254204512,-0.890122354,0.026201377,0.233165488,0.298058182,-0.081192873,0.263721883,-0.959576845
2.08496213,0.575802624,0.086962372,-0.990774035,-0.941306591,-2.226318598,-0.899251521,0.026947228,0.232896328,0.298291892,-0.086862721,0.252769738,-0.963296056
2.089960337,0.58374548,0.075130798,-0.978261769,-0.950612962,-2.194363594,-0.903242886,0.027521113,0.232689217,0.298471719,-0.092480116,0.242002264,-0.966926992
2.094959497,0.600155056,0.06466721,-0.974591553,-0.9520787,-2.166176081,-0.902040899,0.031501703,0.230290368,0.301777601,-0.098028079,0.231396645,-0.970379829
2.09995985,0.62760675,0.048227709,-0.965653002,-0.956947625,-2.14611578,-0.90494597,0.034564495,0.228444621,0.304321229,-0.103512377,0.220940962,-0.973709404
2.104960918,0.65585196,0.019902486,-0.955481708,-0.971028149,-2.123686552,-0.907105505,0.035580058,0.2278326,0.305164635,-0.108957805,0.210638881,-0.976915956
2.109963417,0.692278862,-0.004918227,-0.948588312,-0.991601944,-2.104450226,-0.913106203,0.036361467,0.227361694,0.305813611,-0.114436924,0.200499445,-0.980023205
2.114960909,0.721250772,-0.029574649,-0.934096575,-1.01976347,-2.084837198,-0.915525079,0.039004017,0.225666046,0.306793392,-0.119970202,0.190490365,-0.98297894
2.119959116,0.759751022,-0.035391632,-0.918862164,-1.049124718,-2.056319237,-0.931872904,0.043447316,0.222804666,0.308320403,-0.125622794,0.180697516,-0.985877573
2.124958038,0.793826818,-0.037365396,-0.896317005,-1.069201589,-2.023524046,-0.948906124,0.044920631,0.221855879,0.308826745,-0.131351039,0.171097621,-0.98878473
2.129958153,0.846432805,-0.034391291,-0.870406568,-1.070124507,-1.982741952,-0.969995022,0.046054244,0.221125871,0.30921635,-0.137055635,0.161799997,-0.991686821
2.134959221,0.909618139,-0.034703128,-0.842222393,-1.052401423,-1.94880569,-0.997081637,0.04643013,0.220883802,0.309345514,-0.142645672,0.152760044,-0.994599462
2.139961243,0.94669503,-0.034939181,-0.79280746,-1.013671875,-1.91537559,-1.020674944,0.052293878,0.21691066,0.313225508,-0.148004517,0.143926471,-0.997480273
2.144958496,0.964928567,-0.031972028,-0.723256946,-0.950169861,-1.862844586,-1.045732141,0.054238185,0.215593249,0.314512044,-0.153046146,0.135353372,-1.000463247
2.149956703,0.984759271,-0.043212276,-0.658240676,-0.860999048,-1.791690826,-1.057267189,0.055734199,0.214579597,0.315501928,-0.157580703,0.127178982,-1.003470778
2.154955864,1.00551033,-0.052630089,-0.605190516,-0.751976371,-1.715182185,-1.061077237,0.056230247,0.214243487,0.315830141,-0.161507636,0.119452864,-1.006467581
2.159962177,1.012476563,-0.073845305,-0.543150008,-0.639245868,-1.629249692,-1.057342291,0.060222238,0.210870981,0.316596776,-0.164819896,0.112159595,-1.009388566
2.164963245,0.997511923,-0.104624629,-0.479519725,-0.528856516,-1.528641343,-1.042197227,0.062439289,0.20898217,0.316978186,-0.16749914,0.105343074,-1.012268066
2.169965982,0.986423731,-0.155287266,-0.422924101,-0.432594031,-1.4040277,-1.01499331,0.064145155,0.207528859,0.31727165,-0.169599369,0.099191546,-1.015073776
2.174963713,0.992702425,-0.194849044,-0.385628372,-0.34390977,-1.271288872,-0.976998091,0.064710788,0.207046971,0.317368954,-0.171168193,0.093763925,-1.017708659
2.17996192,1.012738585,-0.230043665,-0.360269606,-0.272404671,-1.14623785,-0.927909076,0.066929162,0.205811501,0.318155766,-0.172308877,0.089035667,-1.020113945
2.184960842,1.034802914,-0.260501385,-0.336313844,-0.212304145,-1.027944446,-0.882461071,0.069462851,0.204529896,0.319134563,-0.1730901,0.084968776,-1.022317767
2.189960957,1.055084229,-0.293740094,-0.311548501,-0.161118045,-0.910016835,-0.837938488,0.071412355,0.203543797,0.319887698,-0.173554331,0.08154761,-1.024333596
2.194962263,1.06856811,-0.327264279,-0.286841601,-0.112836361,-0.806254506,-0.782782257,0.072058767,0.203216821,0.320137411,-0.173716709,0.078705922,-1.026136875
2.199964523,1.09309268,-0.326837391,-0.256654888,-0.070599735,-0.693404198,-0.731402814,0.072556145,0.202965245,0.320329547,-0.17367886,0.076529443,-1.027736902
2.204961777,1.083321333,-0.312661499,-0.211504593,-0.007684099,-0.584794998,-0.681813121,0.074661307,0.202385128,0.320161611,-0.173339516,0.074893214,-1.029194593
2.209959745,1.061173201,-0.309905529,-0.155674189,0.070591204,-0.442782611,-0.638942659,0.076281086,0.201938748,0.320032388,-0.172597349,0.073978916,-1.030601978
2.214958906,1.041551113,-0.306182206,-0.120628946,0.159608051,-0.289652407,-0.595502079,0.076818168,0.201790735,0.319989562,-0.17140837,0.07383579,-1.03196466
2.219958782,1.028480649,-0.304580867,-0.098704241,0.254060507,-0.120545365,-0.547405005,0.077231422,0.20167686,0.319956571,-0.169742838,0.074572511,-1.033246517
2.224960089,1.027240396,-0.308750153,-0.088691115,0.345748365,0.058643375,-0.497816056,0.077958472,0.201713994,0.319905013,-0.167605847,0.07625369,-1.034422755
2.229962349,1.036812663,-0.320533127,-0.108184338,0.424095243,0.231241062,-0.440095305,0.079114504,0.201818302,0.319824219,-0.16504097,0.078868471,-1.035401583
2.234959602,1.048062682,-0.323765159,-0.134164363,0.490774959,0.382946193,-0.377806544,0.079497822,0.201852888,0.319797456,-0.162128627,0.082302466,-1.036164761
2.239957809,1.053968787,-0.320359319,-0.172986731,0.544612646,0.521119058,-0.308145821,0.07979276,0.201879501,0.319776833,-0.158940017,0.086476974,-1.036669374
2.24495697,0.94619453,-0.329103649,-0.246029362,0.556605339,0.663311183,-0.249132484,0.079890557,0.201888323,0.319770008,-0.155592367,0.091175005,-1.037045956
2.249956846,0.271199316,-0.585210085,-0.210918128,0.089202218,1.111149073,-0.249211892,0.078557238,0.204002455,0.318309426,-0.154433459,0.096453972,-1.038945675
2.254958153,1.279570818,-0.787513554,0.206482887,0.085245922,1.760666728,0.162581041,0.078115135,0.204703465,0.317825139,-0.152791038,0.108577855,-1.036781073
2.259960413,0.692211449,-0.220742136,0.132554322,0.098509438,1.883066177,0.330376059,0.077774964,0.205242842,0.31745249,-0.152121291,0.119579248,-1.035595417
2.264957666,0.014364533,0.105884418,0.411154181,-0.029836126,2.172311544,0.293985486,0.07766217,0.205421686,0.31732893,-0.152831584,0.130234942,-1.036304474
2.269955873,-0.07415022,0.201240227,0.136960149,0.10207054,2.771541119,0.218105897,0.074884199,0.206531063,0.317824036,-0.153045371,0.14416647,-1.038149953
2.274954796,0.365650713,0.202776894,-0.737998843,0.325205594,3.098297834,0.211899817,0.073297188,0.207139388,0.318133205,-0.151526481,0.160715356,-1.039424777
2.279954672,0.406543583,0.206172228,-1.463748932,0.244146869,2.966048717,0.150949404,0.072076149,0.207607433,0.318370014,-0.150478065,0.176005945,-1.040896893
2.28495574,0.399648577,0.203031868,-1.586585522,0.379115462,2.668371439,0.285501987,0.071671277,0.207762629,0.318448544,-0.148632184,0.189252794,-1.041565537
2.289957523,0.486146539,0.529722393,-1.553620815,0.508866787,2.415514231,0.483588547,0.067550361,0.208425969,0.31951195,-0.146360219,0.201775551,-1.040979624
2.294960976,0.270753264,0.815395236,-1.372364283,0.771629393,2.220484495,0.589709222,0.06234258,0.209194407,0.320875913,-0.143415749,0.212788656,-1.040461183
2.299959183,0.054055564,0.866525173,-1.075434923,1.024030805,2.403200626,0.542328119,0.058335546,0.209785655,0.321925402,-0.138931468,0.224484339,-1.040690541
2.304958582,0.104634918,0.673025131,-0.85386914,1.048206687,2.820278645,0.382635057,0.057006892,0.209981695,0.322273403,-0.134602338,0.238711208,-1.041652918
2.309958696,0.300408125,0.613457501,-0.947634578,1.172125459,3.230189085,0.122051686,0.055984579,0.210132539,0.322541147,-0.129907593,0.255283952,-1.044037819
2.314959526,0.662501931,0.405780971,-1.171306372,1.172356844,3.469204426,-0.044860378,0.04931768,0.212689772,0.32232523,-0.125046223,0.273378581,-1.046685815
2.319961786,1.126435995,0.283757836,-1.44363749,1.202315211,3.43333745,-0.181018218,0.044187956,0.214657396,0.322159111,-0.120055489,0.291725665,-1.049206972
2.324959278,1.4468683,-0.022191525,-1.64624095,1.223543048,3.205895185,-0.164283544,0.042487036,0.215309829,0.322104007,-0.114306249,0.309129566,-1.050616026
2.329957485,1.57624507,-0.402768403,-1.815738201,1.151322961,2.84832716,-0.036172569,0.041178297,0.215811819,0.322061628,-0.107852578,0.324720144,-1.050361037
2.334956169,1.685140133,-0.700633109,-1.799999833,1.023400784,2.443380356,0.170316145,0.03579469,0.218022719,0.320618659,-0.101158619,0.338439792,-1.048167825
2.339956522,1.526329637,-0.788426042,-1.767508745,0.809055507,1.990306497,0.405714661,0.026647495,0.221791118,0.318063587,-0.095056087,0.349712968,-1.044623494
2.344957352,1.347831845,-0.793256462,-1.622300267,0.567187905,1.594933271,0.621084034,0.023614459,0.22304064,0.317216367,-0.089716241,0.358765721,-1.039852738
2.349959612,1.168082714,-0.571092486,-1.459307432,0.36896199,1.26774025,0.77715832,0.021280741,0.224002078,0.316564471,-0.085598461,0.366089642,-1.034613252
2.354957104,0.941516519,-0.142656177,-1.312909484,0.26863566,1.015724063,0.817735374,0.020506926,0.224320874,0.316348314,-0.082624704,0.371920437,-1.03001225
2.359954834,0.670891762,0.218947738,-1.06940341,0.258799553,0.877856851,0.767091513,0.011964072,0.228081807,0.314705133,-0.080447815,0.376690537,-1.026564121
2.364953995,0.519717753,0.440885484,-0.881643116,0.319690377,0.884649515,0.669896424,0.009131424,0.229328856,0.314160287,-0.078450143,0.381483674,-1.024076462
2.369954109,0.42557916,0.615055382,-0.807470202,0.411255777,0.939625025,0.546219766,0.006951894,0.230288371,0.313741058,-0.07648994,0.386508375,-1.022580385
2.374955177,0.367385209,0.652690649,-0.783838689,0.520868063,1.003761411,0.402612388,0.006229202,0.230606526,0.31360206,-0.074294716,0.391699135,-1.022009373
2.379957438,0.369751483,0.546742797,-0.80835712,0.623459339,1.053020954,0.283105105,0.004119226,0.232052907,0.313811064,-0.071555287,0.397131443,-1.021885395
2.384955168,0.416767359,0.284817994,-0.83479929,0.705482304,1.085168958,0.221217036,0.003035078,0.232829839,0.313958555,-0.06799534,0.402735174,-1.021585822
2.389953375,0.533139527,0.035633624,-0.941143572,0.751676261,1.048261642,0.235062316,0.002200899,0.233427629,0.314072013,-0.063651115,0.408330679,-1.020602345
2.394952536,0.589890003,-0.199152082,-0.992050171,0.718719602,0.928559005,0.286070973,0.001924301,0.233625844,0.314109653,-0.058948103,0.413247675,-1.018838048
2.399952412,0.633989573,-0.28415969,-1.059574008,0.629857421,0.793646574,0.33072862,0.000464067,0.23457472,0.313388705,-0.054516409,0.417519599,-1.016646743
2.404953718,0.672456622,-0.24928543,-1.09015882,0.537533224,0.629322588,0.369066119,-0.001278002,0.235692382,0.312393486,-0.050550781,0.420946479,-1.014257789
2.40995574,0.677924931,-0.137619406,-1.070500851,0.457827687,0.494260162,0.369729102,-0.002618406,0.236552343,0.311627716,-0.047245029,0.423686206,-1.012047291
2.414953232,0.708700478,-0.007528145,-1.07892108,0.381327689,0.374162465,0.334298044,-0.003062858,0.236837491,0.3113738,-0.044616591,0.425912708,-1.010186911
2.419951439,0.555718303,0.070254482,-1.0364604,0.340187639,0.261654258,0.272765279,-0.003404834,0.237056881,0.311178416,-0.042508617,0.427265882,-1.008981347
2.4249506,0.459813893,0.049183216,-0.907719016,0.331131279,0.250858307,0.23979947,-0.005078501,0.239030987,0.310124397,-0.040374737,0.428500354,-1.007980347
2.429956675,0.478222847,0.067670584,-0.943846703,0.315418452,0.266080588,0.216991842,-0.006366274,0.240549922,0.309313387,-0.038388815,0.429992616,-1.007071853
2.434957743,0.512089968,0.060791887,-0.99594754,0.296611756,0.22220026,0.180593267,-0.006793275,0.241053566,0.30904448,-0.036579348,0.431223065,-1.006326556
2.439960003,0.509864628,0.006565079,-0.987757266,0.271463573,0.164359599,0.150087655,-0.007121824,0.241441086,0.308837563,-0.03485122,0.432116985,-1.005642414
2.444957256,0.495124996,-0.040950865,-0.941978455,0.234663039,0.131816104,0.127288252,-0.007124445,0.24216634,0.307966679,-0.033256035,0.432848781,-1.004997849
2.449955225,0.475850761,-0.054922007,-0.93225199,0.185382798,0.109574698,0.103834003,-0.007018956,0.243327796,0.306485355,-0.031968944,0.433456242,-1.004482985
2.454954386,0.467294395,-0.05708155,-0.940646648,0.143344462,0.093203835,0.081199214,-0.006983978,0.243712902,0.305994183,-0.030958695,0.433978617,-1.004125237
2.459954739,0.470123827,-0.040323354,-0.948681355,0.102848403,0.057527542,0.064729661,-0.006957065,0.244009227,0.30561626,-0.030211866,0.43430084,-1.003867626
2.464956522,0.476347893,-0.030339818,-0.946133494,0.06882485,0.024066301,0.046680033,-0.006948141,0.24410747,0.305490941,-0.029694367,0.434463829,-1.003712177
2.469958544,0.454241723,-0.00532931,-0.92312789,0.039956991,-0.002786778,0.038975377,-0.006887462,0.244930252,0.305981755,-0.029393904,0.434461653,-1.003648758
2.474955797,0.415792704,0.024248831,-0.901962876,0.025918674,-0.002765904,0.029297696,-0.006867341,0.245203078,0.306144506,-0.02922418,0.434417546,-1.003725767
2.479954004,0.404065698,0.050641499,-0.909245074,0.011244452,0.006512563,0.018054754,-0.00685186,0.24541299,0.306269735,-0.029211611,0.434429079,-1.003920317
2.484953165,0.390925199,0.050369453,-0.920193434,-0.004219162,0.015498113,0.005872724,-0.006846727,0.245482594,0.30631125,-0.029279822,0.43444854,-1.004202485
2.489953279,0.389265269,0.035552345,-0.921438813,-0.018672034,0.030460555,-0.012556635,-0.006936857,0.245327443,0.305548996,-0.029431054,0.434543937,-1.004547715
2.494954586,0.401634276,0.006481304,-0.938650846,-0.041884325,0.045880329,-0.025800398,-0.006990023,0.245224357,0.305099726,-0.029663607,0.434740543,-1.004921794
2.499956846,0.416734844,-0.015845653,-0.936737537,-0.065351732,0.050005414,-0.036668152,-0.007030931,0.245145038,0.304754049,-0.030012254,0.434961557,-1.005291581
2.5049541,0.419117481,-0.020821776,-0.933068454,-0.094112016,0.058961473,-0.040973134,-0.007044495,0.245118737,0.304639429,-0.030520516,0.435247391,-1.005696416
2.509952307,0.418345362,-0.014487597,-0.934156477,-0.115054168,0.065315634,-0.048334442,-0.007196649,0.245159477,0.304609984,-0.031153291,0.435548335,-1.006141186
2.514951468,0.415791899,0.000194538,-0.932914495,-0.134402648,0.069325455,-0.05132312,-0.007390009,0.245234475,0.304659426,-0.031923342,0.435860157,-1.00664115
2.519951344,0.417792082,0.00768498,-0.930618644,-0.147152469,0.076041102,-0.055475526,-0.007538786,0.245292172,0.304697484,-0.032766387,0.436211467,-1.007161856
2.52495265,0.411348194,0.011912332,-0.928529799,-0.162045106,0.079333879,-0.064215548,-0.007588118,0.245311305,0.30471009,-0.03371409,0.436564475,-1.007754087
2.529954672,0.415129662,0.014858807,-0.928236723,-0.174468368,0.089109346,-0.071754999,-0.007626075,0.245326027,0.304719806,-0.034741722,0.436977148,-1.008381128
2.534951687,0.419812113,0.015591185,-0.932169557,-0.187864721,0.098887213,-0.08434277,-0.007738717,0.245190367,0.305824369,-0.035869382,0.437444806,-1.009075642
2.539949656,0.417441279,0.019492665,-0.921362758,-0.201054499,0.106297791,-0.095027782,-0.007825388,0.24508597,0.306674272,-0.037094761,0.437935919,-1.009844184
2.544948816,0.420926511,0.02215373,-0.915929556,-0.209404662,0.116686873,-0.102811642,-0.007854125,0.245051354,0.306956083,-0.038378015,0.438500881,-1.01063478
2.549948692,0.42676881,0.038620189,-0.909822404,-0.216257825,0.129194781,-0.111782461,-0.007876238,0.245024726,0.307172894,-0.039758395,0.439130574,-1.011497021
2.554949999,0.426577508,0.04691086,-0.918456018,-0.225095838,0.143950865,-0.119775593,-0.008186299,0.244586051,0.306943834,-0.04121045,0.439837366,-1.012438297
2.559952497,0.431252927,0.049185861,-0.927272439,-0.226872459,0.15398787,-0.120355785,-0.008730978,0.243813887,0.306463301,-0.042663276,0.440575659,-1.013378859
2.564955711,0.440500706,0.061524551,-0.926997542,-0.223067805,0.161834911,-0.121653102,-0.008911582,0.243557841,0.306303978,-0.044127025,0.441371262,-1.014335513
2.56995368,0.433073163,0.067576498,-0.929942787,-0.229336873,0.172198534,-0.115053564,-0.009050545,0.243360847,0.306181371,-0.045603469,0.442197293,-1.015278578
2.574952841,0.446220011,0.071841128,-0.942276359,-0.241545916,0.187780634,-0.094321877,-0.009096622,0.243295521,0.306140691,-0.04711929,0.443142533,-1.016098142
2.579953194,0.453439921,0.063964009,-0.919301629,-0.252967447,0.188076362,-0.069551341,-0.010108963,0.242389917,0.306535959,-0.048605885,0.444094211,-1.016728997
2.584955215,0.458151102,0.064031191,-0.910609245,-0.257114023,0.193451226,-0.05598389,-0.010444636,0.242089644,0.306667,-0.050077137,0.445095599,-1.017284632
2.589957476,0.457155734,0.066717483,-0.909371078,-0.257698238,0.189781874,-0.047449302,-0.010702913,0.241858602,0.306767821,-0.051539078,0.44605574,-1.017807126
2.594954491,0.444997609,0.068103649,-0.903089046,-0.255600482,0.192900732,-0.042219114,-0.010788552,0.24178198,0.30680126,-0.052979648,0.447023243,-1.018326283
2.599952698,0.438983709,0.065474272,-0.903888464,-0.252260327,0.195538685,-0.036809433,-0.011246555,0.241279617,0.307538241,-0.054379024,0.447990477,-1.01881206
2.604952097,0.420571923,0.058609534,-0.894346476,-0.253356665,0.208681688,-0.031173842,-0.011495447,0.24100332,0.307958603,-0.055757016,0.448999703,-1.019285798
2.609952211,0.403040171,0.047815658,-0.901043713,-0.257695019,0.229528248,-0.029644813,-0.011686953,0.240790725,0.308282048,-0.057138715,0.450100571,-1.019767404
2.614953279,0.394115537,0.043883782,-0.9036237,-0.265212983,0.252769351,-0.02732789,-0.011750452,0.240720227,0.308389306,-0.058546904,0.45128262,-1.020239711
2.61995554,0.402118653,0.048411164,-0.910044134,-0.271729231,0.278688103,-0.032097626,-0.01210448,0.240244165,0.309049278,-0.060017027,0.452629656,-1.020754695
2.624952555,0.408467263,0.054308783,-0.906158328,-0.278609008,0.306281447,-0.037178844,-0.012529599,0.239660949,0.309850395,-0.061559644,0.45410651,-1.021312952
2.629950762,0.419791818,0.054716904,-0.918796122,-0.286575377,0.328075588,-0.041877512,-0.012856699,0.239212215,0.310466796,-0.063149139,0.455712765,-1.021901608
2.634949684,0.422010839,0.043959755,-0.911612034,-0.297000259,0.341972321,-0.042528775,-0.012965159,0.239063427,0.31067121,-0.064768367,0.457374901,-1.022462726
2.639949799,0.427208334,0.039308835,-0.914426148,-0.305604249,0.355566263,-0.042362873,-0.013048612,0.238948941,0.310828477,-0.066424526,0.459123373,-1.023030996
2.644950867,0.433572352,0.042602398,-0.908671618,-0.312971711,0.359846205,-0.042649772,-0.014355004,0.23812671,0.311363459,-0.068127587,0.46087873,-1.023599386
2.649953127,0.443285227,0.057954792,-0.900992334,-0.315235794,0.364438832,-0.040652916,-0.015360184,0.237494066,0.311775118,-0.069862232,0.462687939,-1.024167418
2.65495038,0.455427855,0.071891084,-0.894863904,-0.310712636,0.361825138,-0.034450114,-0.015693482,0.237284303,0.311911613,-0.071588427,0.46450603,-1.024708152
2.659948587,0.458628803,0.07381241,-0.896102309,-0.310293615,0.354730636,-0.029768486,-0.015949933,0.237122893,0.312016636,-0.073288716,0.466269135,-1.025218725
2.664947748,0.460401267,0.063464545,-0.893399,-0.317847252,0.349404007,-0.022041546,-0.016619517,0.236646011,0.311869234,-0.074990317,0.468021482,-1.025664687
2.669947863,0.465150326,0.069638647,-0.891230285,-0.318904281,0.33728224,-0.019645208,-0.017725786,0.235851005,0.311571598,-0.076703124,0.469700456,-1.02610898
2.674949169,0.467947692,0.089821622,-0.886054277,-0.321150571,0.328888178,-0.018859351,-0.018092604,0.235587388,0.311472923,-0.078483351,0.471355796,-1.026587129
2.679951191,0.464871556,0.114048444,-0.884349406,-0.311871886,0.322378337,-0.019905347,-0.018374845,0.235384569,0.311396986,-0.080236293,0.47296235,-1.027105093
2.684948444,0.460192472,0.127559498,-0.879743934,-0.295205235,0.315067619,-0.012297024,-0.01846843,0.23531732,0.311371803,-0.081921019,0.474532485,-1.027618647
2.689946413,0.461848795,0.128650784,-0.873821676,-0.275695562,0.307816058,-0.004458926,-0.019707376,0.233873695,0.311788708,-0.083466522,0.476069212,-1.028061628
2.694945574,0.461196184,0.128111333,-0.876873314,-0.256653905,0.305309147,0.001475318,-0.020118188,0.23339501,0.311926931,-0.084890626,0.477591604,-1.028479695
2.699951887,0.466674477,0.117783442,-0.884209812,-0.237805888,0.29997468,-0.001012965,-0.020434279,0.233026698,0.312033296,-0.08621192,0.479096234,-1.028894305
2.704953671,0.468132287,0.10806933,-0.882957757,-0.22537221,0.291945636,-0.000135825,-0.020539088,0.232904568,0.312068582,-0.087442562,0.480552852,-1.029279232
2.709955692,0.470673084,0.106317326,-0.879875004,-0.214075804,0.282707065,-0.00066856,-0.021159943,0.232222572,0.313360393,-0.088618599,0.481969535,-1.029650927
2.714952946,0.464872509,0.096954592,-0.875734329,-0.210022196,0.273342043,-0.001629565,-0.021499485,0.231850937,0.314101666,-0.089755669,0.483324617,-1.030021787
2.719950914,0.457314879,0.091096081,-0.875357151,-0.20637551,0.270326138,-0.001033759,-0.021760738,0.231564969,0.314672053,-0.090870008,0.484659672,-1.03038311
2.724950075,0.455676466,0.084160514,-0.883193791,-0.210585192,0.270299017,-0.006738507,-0.021847365,0.231470153,0.314861178,-0.092018411,0.48597303,-1.030780792
2.72995019,0.461856842,0.069843657,-0.888638914,-0.219334885,0.265930593,-0.007211197,-0.022276327,0.231116921,0.315158606,-0.093164571,0.487283111,-1.031136751
2.734951496,0.469621152,0.068599708,-0.884010077,-0.229001805,0.262352467,-0.008710579,-0.022783915,0.230717152,0.315410405,-0.094378486,0.488584161,-1.031495094
2.739953518,0.475761712,0.076246247,-0.880536556,-0.237206966,0.259252787,-0.013829317,-0.023174467,0.230409577,0.31560415,-0.095660299,0.489875346,-1.031888962
2.744950771,0.478075683,0.072200708,-0.880541682,-0.244138911,0.257245034,-0.018678831,-0.023303967,0.230307579,0.315668374,-0.096982256,0.491146624,-1.032310367
2.749948978,0.481069446,0.061950818,-0.884663999,-0.254892349,0.250276595,-0.017190179,-0.023403609,0.23022911,0.315717787,-0.098332122,0.492399007,-1.03269434
2.754948139,0.48083666,0.06931714,-0.877378523,-0.268050373,0.2490118,-0.019627091,-0.024568217,0.229518071,0.316262931,-0.099778377,0.493627936,-1.033101201
2.759948015,0.489498079,0.088011585,-0.877264678,-0.271941334,0.241488248,-0.025894037,-0.025464302,0.22897099,0.316682398,-0.101281054,0.494834304,-1.033569455
2.76494956,0.488869429,0.099477097,-0.873351753,-0.277332097,0.238891855,-0.028395053,-0.025761427,0.228789568,0.316821486,-0.102841727,0.496029973,-1.034075856
2.76995182,0.49526763,0.109986857,-0.862931967,-0.27869615,0.234548971,-0.029679308,-0.025990045,0.228649989,0.316928506,-0.104433529,0.497218102,-1.034590125
2.774948835,0.504669011,0.111190796,-0.863681138,-0.275450408,0.223888293,-0.026193673,-0.026648074,0.22806254,0.316528022,-0.105981752,0.498369008,-1.035075188
2.779947042,0.500649214,0.124953471,-0.857060432,-0.269675583,0.213687718,-0.02328423,-0.027743105,0.227063343,0.31577906,-0.107520722,0.49945569,-1.035561562
2.784945965,0.499186248,0.129406855,-0.857549071,-0.259731323,0.200378284,-0.023125136,-0.028106196,0.226732031,0.315530717,-0.108996555,0.500468791,-1.036051154
2.789946079,0.4949027,0.127208531,-0.857922912,-0.244933888,0.187094763,-0.015625298,-0.02838557,0.226477116,0.315339655,-0.110370018,0.501407266,-1.03649497
2.794947147,0.495978862,0.134304106,-0.853771746,-0.230650514,0.174202099,-0.008391473,-0.028478205,0.226392582,0.315276295,-0.111662634,0.502293646,-1.036886334
2.799949646,0.498111606,0.145047545,-0.854497969,-0.212854475,0.161973044,0.000633845,-0.029067712,0.225600183,0.315842628,-0.112860158,0.503122032,-1.037235022
2.804947138,0.494011611,0.142984122,-0.850928605,-0.196301192,0.151871979,0.005313203,-0.02926318,0.225337446,0.316030413,-0.113947801,0.503901362,-1.037564158
2.809945345,0.492522895,0.130241349,-0.854239106,-0.18585445,0.145596847,0.017290153,-0.029413581,0.225135282,0.316174924,-0.114923388,0.504654825,-1.037785649
2.814944267,0.491517454,0.139477327,-0.85814929,-0.172648609,0.131136283,0.032993641,-0.029463449,0.225068241,0.316222817,-0.115800448,0.505334258,-1.037926912
2.81994462,0.483015358,0.151801184,-0.854308248,-0.155132368,0.1237837,0.046171099,-0.029547324,0.224519357,0.317364007,-0.116581291,0.50597024,-1.03802371
2.824945927,0.479639739,0.16026108,-0.856212437,-0.135915577,0.113266572,0.063406155,-0.029586397,0.224214286,0.318015665,-0.117220096,0.506550193,-1.038033366
2.829954386,0.481306255,0.176696658,-0.857074916,-0.107988544,0.101212867,0.084564313,-0.029616462,0.223979548,0.318517059,-0.117681697,0.507100105,-1.037929654
2.8349576,0.486499161,0.195986703,-0.856495738,-0.07169728,0.085712358,0.10399352,-0.029626429,0.223901719,0.318683326,-0.117935717,0.507581592,-1.037733912
2.839955807,0.490262359,0.201801881,-0.855539799,-0.027745076,0.07213179,0.125722378,-0.029969797,0.22367622,0.31893301,-0.117903456,0.508019805,-1.03740716
2.844954967,0.495203525,0.192150563,-0.855504334,0.01269179,0.052038938,0.149490103,-0.030422166,0.223434433,0.319138587,-0.117573768,0.508372068,-1.036911368
2.849954844,0.50379616,0.193140313,-0.85191977,0.054774534,0.034848575,0.169422433,-0.030770233,0.223248392,0.319296747,-0.116968259,0.508656144,-1.036264539
2.85495615,0.499340415,0.190114215,-0.85162878,0.088811502,0.018834708,0.182918504,-0.030885644,0.223186702,0.31934917,-0.116163932,0.508862674,-1.035548091
2.859958172,0.497879028,0.176357508,-0.85776329,0.120466456,0.009366951,0.196096867,-0.030974446,0.223139241,0.319389522,-0.115116753,0.509030938,-1.034727335
2.864955664,0.491735786,0.158010542,-0.861237168,0.146325573,-0.002226684,0.206661314,-0.03094898,0.222911015,0.318506062,-0.113896057,0.509135783,-1.033834696
2.869953632,0.477586001,0.154150262,-0.864850938,0.16750358,-0.006008399,0.217796847,-0.030929385,0.22273542,0.317826301,-0.112534739,0.509197354,-1.032886028
2.874952793,0.461338103,0.177959353,-0.873986483,0.190967053,-0.005372752,0.228980646,-0.030922888,0.222677186,0.317600906,-0.111091636,0.509243548,-1.031958938
2.879952908,0.464090526,0.19607088,-0.875931382,0.222920999,0.000572843,0.240743399,-0.030917889,0.222632378,0.317427456,-0.109473325,0.509330869,-1.030983925
2.884954214,0.470918894,0.191366687,-0.883284211,0.258095711,-0.006174774,0.249604553,-0.030749682,0.222814769,0.317194432,-0.107641682,0.509392321,-1.029941559
2.889956236,0.46639806,0.163641036,-0.882431805,0.27435708,-0.004686209,0.263224542,-0.030451857,0.22315453,0.316837698,-0.105620734,0.50944984,-1.028775215
2.894953728,0.455994457,0.155305505,-0.887301922,0.291493803,-0.00028682,0.265899539,-0.030353103,0.223267198,0.316719413,-0.103516579,0.509524822,-1.027588248
2.899951935,0.442457467,0.116487212,-0.893472016,0.29440397,0.017906519,0.261361897,-0.030277118,0.223353893,0.316628397,-0.101341292,0.509653747,-1.026411414
2.904951096,0.436840475,0.085710019,-0.909049928,0.267385304,0.04103484,0.254955351,-0.030251924,0.223382637,0.316598237,-0.099282473,0.509881437,-1.025239587
2.90995121,0.428887367,0.088111408,-0.90465939,0.24182874,0.078750543,0.250743419,-0.029662704,0.224886551,0.317342848,-0.097415268,0.510301948,-1.024125814
2.914952517,0.420017481,0.098238222,-0.908684134,0.223324537,0.123822823,0.240518823,-0.029467331,0.225385219,0.31758976,-0.095703356,0.510914683,-1.023145437
2.919954777,0.424092203,0.112043783,-0.915369749,0.211754397,0.172892988,0.229853004,-0.029317005,0.225768909,0.31777972,-0.094126001,0.511786282,-1.022278905
2.924951792,0.4240897,0.123929553,-0.905987144,0.216758713,0.224146947,0.221439779,-0.029267158,0.225896135,0.317842692,-0.092573524,0.512886643,-1.021497965
2.929949999,0.409212053,0.087904677,-0.919484675,0.197584882,0.290222347,0.215584353,-0.028688475,0.226630136,0.316326529,-0.091036364,0.514313579,-1.020738244
2.934948921,0.427920192,0.037027601,-0.942623496,0.157997534,0.353795558,0.224314466,-0.028362889,0.227030933,0.315436631,-0.089612819,0.516078115,-1.019860148
2.939949036,0.412207216,0.071005218,-0.926050603,0.112046123,0.407027662,0.239068568,-0.028112372,0.227339312,0.314751953,-0.088497408,0.518055201,-1.018971801
2.944950104,0.422568947,0.122640193,-0.922132611,0.10810902,0.482807904,0.235663369,-0.028029306,0.227441564,0.314524919,-0.087543637,0.520475626,-1.018257499
2.949952602,0.415947974,0.096145049,-0.919432044,0.092117071,0.557263553,0.241389856,-0.02819439,0.227784902,0.314408362,-0.086549692,0.523227811,-1.017495751
2.954949856,0.42209056,0.109139085,-0.929943085,0.084137082,0.630491436,0.265265226,-0.028480049,0.228165641,0.3144283,-0.085606426,0.526372075,-1.016631603
2.959948063,0.41217339,0.123004436,-0.921813965,0.092271432,0.698822618,0.274083436,-0.028699845,0.228458598,0.314443678,-0.084598355,0.529813468,-1.015786529
2.964953423,0.433121473,0.092373818,-0.937765718,0.07569658,0.785651207,0.287754744,-0.028772727,0.228555739,0.314448774,-0.083584398,0.533745527,-1.014835238
2.969953775,0.445040494,0.099934004,-0.92966032,0.056313697,0.858227849,0.320422083,-0.028828803,0.228630468,0.314452708,-0.082613222,0.538055539,-1.013669729
2.974955082,0.447851598,0.14559643,-0.935147822,0.071996912,0.933763385,0.332478881,-0.030235475,0.228876308,0.313480467,-0.081657156,0.542731285,-1.012610674
2.979957342,0.432760745,0.097425252,-0.924904883,0.085521758,1.035268784,0.327827692,-0.031317811,0.229065463,0.312732399,-0.080498368,0.547847807,-1.011586308
2.984954357,0.42596826,0.054736692,-0.958802044,0.050810378,1.137515068,0.35986641,-0.031676695,0.229128182,0.312484324,-0.079347998,0.553527117,-1.010263205
2.989952564,0.442650735,0.166131929,-0.955036342,0.086936012,1.229233265,0.388475269,-0.031952828,0.229176447,0.31229347,-0.078258365,0.559655964,-1.009032369
2.994951725,0.419712484,0.184654027,-0.926416636,0.157782525,1.361122012,0.368513525,-0.033059932,0.229411781,0.311992377,-0.076841906,0.566361368,-1.00809598
2.999951601,0.424687475,0.090527907,-0.960140526,0.163241312,1.528678656,0.377788037,-0.034938645,0.229814649,0.311520278,-0.075149171,0.573983908,-1.006942391
3.004952908,0.440013736,0.098855525,-1.001253366,0.180963352,1.656148314,0.401407093,-0.035561591,0.229948223,0.311363727,-0.073381402,0.582217336,-1.005686879
3.009955168,0.422702044,0.123648122,-0.9734357,0.213111341,1.804617286,0.40248239,-0.036040902,0.230051011,0.311243296,-0.071510844,0.591089964,-1.004541636
3.01495266,0.41715014,0.132978722,-1.001114607,0.275455743,2.014009953,0.406439662,-0.036199834,0.23008509,0.311203361,-0.069344014,0.601056099,-1.003490567
3.019950628,0.399439782,0.12247476,-1.028878212,0.32760337,2.180405378,0.403167307,-0.040411748,0.230853036,0.30985117,-0.066877767,0.611755311,-1.002541542
3.024949789,0.401715606,0.101374529,-0.992698669,0.357694566,2.402668715,0.393919021,-0.041808337,0.231107667,0.309402823,-0.064289264,0.623552501,-1.001624942
3.029949903,0.419611573,0.107492991,-1.020946741,0.380079508,2.668280125,0.409947485,-0.042882919,0.231303602,0.309057832,-0.061634399,0.636722207,-1.000689626
3.03495121,0.390697092,0.176644832,-1.083822608,0.444798112,2.893459797,0.411725283,-0.043239232,0.231368572,0.308943421,-0.058703296,0.650904834,-0.999957204
3.03995347,0.313258499,0.178173572,-1.045615792,0.505125225,3.158313274,0.383209556,-0.048427489,0.232262284,0.307444334,-0.0556277,0.666196406,-0.999613464
3.044950724,0.298302025,0.147818521,-1.080833554,0.561031997,3.482804775,0.375701904,-0.051363822,0.232767403,0.306598067,-0.052224275,0.683184385,-0.999286175
3.049948931,0.258345097,0.157379687,-1.116307378,0.615555227,3.771535158,0.405593574,-0.053623132,0.233156055,0.305946916,-0.048455302,0.701431453,-0.998867333
3.05494833,0.255750924,0.218303919,-1.112600327,0.706326544,4.101368427,0.464518964,-0.054372273,0.23328492,0.305731028,-0.044051286,0.721319318,-0.998145998
3.059948206,0.245095789,0.238689288,-1.109537959,0.782523334,4.480195999,0.544278264,-0.059541699,0.234258562,0.303178877,-0.038899057,0.743101835,-0.996921599
3.064949512,0.253076255,0.246208087,-1.14580965,0.819309115,4.892035484,0.62899673,-0.065887347,0.235463217,0.299926579,-0.033055652,0.766939521,-0.995111346
3.069951773,0.233765006,0.228323817,-1.187976241,0.826986551,5.29274559,0.781389892,-0.070769899,0.236390129,0.297424138,-0.026177013,0.792663097,-0.992026865
3.074949026,0.154817581,0.24749589,-1.120104432,0.812090755,5.731304646,1.013955832,-0.072388858,0.23669748,0.296594381,-0.017959978,0.820470989,-0.98692441
3.079947233,0.225490928,0.337485909,-1.094682097,0.874338329,6.255935192,1.228665113,-0.073634543,0.236933962,0.295955926,-0.007788709,0.851112664,-0.979712725
3.084946394,0.336010456,0.330517381,-1.138730168,0.905462444,6.755044937,1.339347005,-0.084625743,0.239850491,0.289330721,0.003835713,0.884197891,-0.971092105
3.089946508,0.616905808,0.266364604,-1.253624439,0.968340039,7.176300049,1.377634764,-0.093082719,0.242094547,0.284233063,0.017308593,0.919399321,-0.960757136
3.094947577,0.884425581,0.15206629,-1.424241185,0.943239212,7.398233414,1.328107715,-0.095886894,0.242838636,0.282542795,0.031974211,0.955534339,-0.949215353
3.099956036,1.037151456,0.030770836,-1.447558284,0.84797585,7.42944622,1.323099971,-0.098044515,0.243411168,0.281242222,0.047762733,0.991460741,-0.93585515
3.104959249,1.319266796,0.071364261,-1.472483635,0.765458405,7.469517231,1.400657773,-0.106256992,0.245482713,0.275154501,0.065653905,1.027528644,-0.919732809
3.109957695,1.673911929,0.165316015,-1.725362778,0.616493881,7.408164501,1.361191392,-0.120156631,0.24897933,0.264750808,0.084105298,1.06301403,-0.902659833
3.114956617,2.041605473,0.196801767,-2.046543121,0.576488376,7.022353172,1.471608758,-0.124765493,0.25013873,0.26130113,0.105244167,1.095887184,-0.882792056
3.119956732,2.145994186,0.418225139,-2.081473351,0.64830333,6.459843636,1.565138102,-0.128311694,0.251030803,0.258646846,0.129408076,1.125212789,-0.860485852
3.124958277,2.134200811,0.457044303,-1.938917518,0.815057814,6.043802261,1.637727737,-0.129487544,0.251326591,0.257766753,0.157317534,1.152319312,-0.835207582
3.129960537,2.057859421,0.493796408,-1.91573143,1.111739516,5.66247797,1.77165544,-0.147069037,0.255715132,0.241319701,0.191526681,1.177084923,-0.805410147
3.134957552,2.020896912,0.50102216,-1.877735257,1.401338458,5.274979115,1.828129411,-0.152898714,0.25717029,0.235866174,0.230960116,1.199273944,-0.771956682
3.139955759,1.820045114,0.370582014,-1.801221371,1.580716491,4.939612865,1.850978374,-0.157384261,0.258289933,0.231670052,0.275267065,1.219128847,-0.734548151
3.14495492,1.565706491,0.323052049,-1.709254384,1.683433771,4.734226227,1.92030108,-0.158871576,0.258661181,0.230278701,0.325536579,1.237213016,-0.691451848
3.149955034,1.117907524,0.289623648,-1.640794039,1.672453284,4.430090904,1.882603765,-0.167326301,0.262849718,0.218228057,0.378452808,1.252981782,-0.645978808
3.154956341,0.491136074,0.126445502,-1.336672544,1.577829123,4.148671627,1.758066177,-0.171938702,0.26520434,0.211515248,0.433517247,1.266759634,-0.597669899
3.159958363,-0.107060969,0.118001491,-1.489439368,1.356212974,3.790375471,1.498015404,-0.175487623,0.267016053,0.206350192,0.485204726,1.278398395,-0.552215517
3.164955378,0.089088634,0.361771584,-1.405189753,1.139570236,3.007563114,1.262722969,-0.176664382,0.267616779,0.204637557,0.526366413,1.286499739,-0.516595542
3.169953585,1.31983757,0.155957878,-1.313637018,0.925949633,2.686712265,1.071735978,-0.179306671,0.27060011,0.197600842,0.565351129,1.294180751,-0.48170045
3.174952745,1.613691688,-0.077153489,-2.668892384,0.559361756,1.709982395,0.975031674,-0.181934237,0.274131566,0.18950063,0.58996129,1.295695782,-0.46154806
3.179952621,0.813221574,0.329333842,-2.227936983,0.225301713,0.594300628,0.886722326,-0.183955967,0.276848823,0.183268055,0.597214997,1.292225003,-0.457229912
3.184953928,0.134863287,0.471889764,-1.523633361,0.103658974,0.406515628,0.795600116,-0.184626341,0.277749807,0.181201443,0.604804695,1.290103674,-0.45117873
3.189956188,-0.033083886,0.478751808,-1.324396133,0.120221578,0.296731859,0.783235848,-0.185142145,0.278443038,0.179611325,0.612746477,1.287854671,-0.44499132
3.194953442,0.015721485,0.522683382,-1.266023397,0.181121051,0.100985058,0.76855576,-0.185865894,0.280017138,0.174838051,0.618756831,1.284925699,-0.441251278
3.19995141,0.080033593,0.486073941,-1.279521942,0.223026067,-0.227520823,0.72513324,-0.186422765,0.281228274,0.171165332,0.620822012,1.280648112,-0.4418706
3.204950571,0.073968321,0.37750873,-1.232179284,0.204266712,-0.575826883,0.690259457,-0.18660742,0.28162986,0.169947535,0.619436264,1.274915457,-0.445851445
3.209950686,0.016474396,0.295994878,-1.197869778,0.139549315,-0.876482308,0.663849533,-0.186749488,0.281938881,0.16901052,0.615183234,1.267987728,-0.452391088
3.214951992,-0.059996657,0.265189797,-1.146203756,0.048949584,-1.145691514,0.626905978,-0.185786948,0.282199323,0.169160143,0.608063877,1.26008296,-0.46140179
3.219954252,-0.15260753,0.26005286,-1.05984664,-0.049987853,-1.372965813,0.573810518,-0.184025422,0.282559484,0.169740736,0.598463237,1.251481175,-0.472422421
3.224951506,-0.240745693,0.260249406,-0.962090671,-0.146192789,-1.556756973,0.507437468,-0.183441326,0.282678902,0.169933259,0.586843848,1.242382765,-0.485009253
3.22995019,-0.291765124,0.262079924,-0.885350525,-0.223362401,-1.693800211,0.437372178,-0.182991907,0.282770813,0.170081392,0.573766232,1.23297298,-0.49871853
3.234955549,-0.292437851,0.261765301,-0.856334805,-0.285133243,-1.810878634,0.366556376,-0.182842895,0.28280127,0.170130506,0.559474051,1.223256826,-0.513418376
3.239955664,-0.266714245,0.256541967,-0.852590859,-0.335211515,-1.929079056,0.293531686,-0.178781852,0.282381147,0.174274102,0.54403466,1.213174343,-0.52911222
3.244956732,-0.233511969,0.246918678,-0.853731871,-0.377765298,-2.050691366,0.221260726,-0.177435294,0.282241851,0.175648034,0.527645171,1.202684402,-0.545670807
3.249958992,-0.200571477,0.226948515,-0.858238041,-0.416216373,-2.167844296,0.145528108,-0.176399201,0.282134652,0.176705167,0.510431111,1.191777945,-0.562963307
3.254956007,-0.168376982,0.198433325,-0.868897259,-0.451581955,-2.292075634,0.075243443,-0.176055655,0.282099128,0.177055702,0.492568433,1.180384636,-0.580851674
3.259954214,-0.132823899,0.172692493,-0.887017727,-0.485889375,-2.420892,0.013540206,-0.171827897,0.281129807,0.18269822,0.474239469,1.168430805,-0.599094391
3.264953375,-0.100891955,0.148001418,-0.897830486,-0.526012301,-2.556806564,-0.046230707,-0.169445291,0.280575305,0.185898691,0.455480665,1.155860543,-0.617678285
3.269953489,-0.063830428,0.119831808,-0.907307208,-0.571045458,-2.690029144,-0.092878185,-0.167612046,0.280148625,0.188361242,0.436556548,1.142665267,-0.636291504
3.274954796,-0.022647081,0.090664126,-0.922683656,-0.621564627,-2.819044828,-0.129402503,-0.167004168,0.280007154,0.189177781,0.417657793,1.128813863,-0.654724717
3.279957056,0.024967166,0.06982749,-0.945442677,-0.677135408,-2.953340769,-0.161377579,-0.164000183,0.278931677,0.193593264,0.398753673,1.11428237,-0.672938347
3.284954071,0.08367876,0.053603001,-0.960452497,-0.735469937,-3.095670223,-0.186285481,-0.160446554,0.277600348,0.198876366,0.379962444,1.099018693,-0.690756798
3.289952278,0.143744722,0.050982445,-0.971518993,-0.785802722,-3.241088867,-0.205660284,-0.157712281,0.276575983,0.202941358,0.361342669,1.083019972,-0.708239377
3.294951439,0.200992554,0.061788205,-0.982405186,-0.819071233,-3.392014027,-0.221016094,-0.156805649,0.276236326,0.204289228,0.343019903,1.066253662,-0.725333333
3.299951553,0.240618467,0.075982332,-0.986283422,-0.843930364,-3.541457176,-0.237270296,-0.156108066,0.275974959,0.205326319,0.325072527,1.048709393,-0.742021441
3.30495286,0.282402426,0.079131089,-0.989837706,-0.858307123,-3.68697238,-0.253880858,-0.15031226,0.273557812,0.212624446,0.307626784,1.030428767,-0.758084238
3.309955597,0.326755673,0.072836891,-0.992664218,-0.869536161,-3.827031851,-0.269661874,-0.145852804,0.271697998,0.218239859,0.290763795,1.011434317,-0.773568571
3.314953327,0.366424501,0.061840504,-0.989524424,-0.884663045,-3.96192646,-0.285206884,-0.144374117,0.271081299,0.220101833,0.274484992,0.991756797,-0.788433731
3.319951057,0.400458366,0.053547397,-0.986610711,-0.908198655,-4.090405941,-0.301078677,-0.143236369,0.270606786,0.221534491,0.258726209,0.971423984,-0.80269146
3.324950218,0.428344131,0.049864661,-0.97122103,-0.941774607,-4.209467411,-0.319625765,-0.13854152,0.268871993,0.225854084,0.243407145,0.950502515,-0.816288114
3.329950094,0.452905625,0.051964715,-0.951674342,-0.981553078,-4.308260441,-0.341048688,-0.130563393,0.265942127,0.233065158,0.228514999,0.929114342,-0.829221368
3.334951401,0.470839649,0.0544012,-0.940909564,-1.022898674,-4.390220642,-0.371579617,-0.12791799,0.26497063,0.235456213,0.213957086,0.907343268,-0.841654003
3.339953423,0.489798069,0.055270188,-0.923609078,-1.066279531,-4.455402374,-0.409440815,-0.125882551,0.264223129,0.237295985,0.199682742,0.885272563,-0.853615522
3.344950676,0.507084489,0.062802523,-0.915736616,-1.110233426,-4.496964455,-0.456849307,-0.125207633,0.263975263,0.237906009,0.185622215,0.863024354,-0.865176082
3.349948883,0.531879604,0.068504706,-0.919463336,-1.155332565,-4.52965498,-0.52110213,-0.112596981,0.259113103,0.247741878,0.171657622,0.840654194,-0.876374185
3.354948044,0.555829287,0.073360041,-0.923311651,-1.197962999,-4.552869797,-0.595876038,-0.108415529,0.257500917,0.251003265,0.157744378,0.818200827,-0.887418568
3.35994792,0.587740064,0.083233647,-0.933721602,-1.236171722,-4.569082737,-0.67858392,-0.10519819,0.256260425,0.253512681,0.143862322,0.795711756,-0.898370266
3.364949226,0.612968206,0.090040997,-0.948329151,-1.272138357,-4.574593067,-0.771514714,-0.104131371,0.255849093,0.254344761,0.129967049,0.773212492,-0.909311295
3.369957447,0.645184338,0.091913067,-0.976623237,-1.302844167,-4.574485779,-0.875413537,-0.093122311,0.252001464,0.262611538,0.116062611,0.750736535,-0.92015183
3.374960661,0.680663705,0.085357249,-1.007668018,-1.337570786,-4.578348637,-0.989663124,-0.086950809,0.249851882,0.267239869,0.102095231,0.72826153,-0.931056142
3.379959106,0.713562071,0.077012882,-1.032649755,-1.376275659,-4.576795578,-1.110266566,-0.082202256,0.248197928,0.270801038,0.088035457,0.705801368,-0.942076266
3.384958267,0.74366796,0.067888252,-1.059877872,-1.420553923,-4.566934586,-1.237232208,-0.080627732,0.247649506,0.271981865,0.073840253,0.68338877,-0.953252435
3.389958382,0.7782076,0.057937503,-1.088087082,-1.469193339,-4.553070545,-1.365782857,-0.07381472,0.24457784,0.275787055,0.059499081,0.661046863,-0.964507997
3.39495945,0.821106672,0.050349269,-1.114939809,-1.517174363,-4.529884815,-1.500962496,-0.065907121,0.240887403,0.279969722,0.044997882,0.63881731,-0.975839138
3.39996171,0.874237657,0.04401416,-1.145532012,-1.55664587,-4.509171486,-1.641614199,-0.059822757,0.238047853,0.283188015,0.030374859,0.616686046,-0.98736757
3.404958725,0.929635763,0.040208623,-1.171696305,-1.592175841,-4.490523815,-1.786260486,-0.057805296,0.237106308,0.284255147,0.015645431,0.594633579,-0.999112487
3.409956932,0.99687022,0.032856751,-1.200521946,-1.615974069,-4.478969097,-1.933950782,-0.056252997,0.236381859,0.285076231,0.000888182,0.572638094,-1.011061668
3.414956093,1.0676893,0.020126052,-1.239696145,-1.625702977,-4.475505829,-2.082835436,-0.046859119,0.230745614,0.291923791,-0.013805053,0.550633907,-1.023032784
3.419956207,1.137769341,0.016679266,-1.274657726,-1.615188003,-4.484867573,-2.227577686,-0.039631166,0.226408929,0.297192544,-0.028310303,0.528524995,-1.035192847
3.424957275,1.205253959,0.0078562,-1.309978843,-1.588070035,-4.504055023,-2.368661404,-0.037234515,0.224970952,0.298939556,-0.042501099,0.506260097,-1.047493219
3.429959536,1.277134061,-0.007528695,-1.359120727,-1.535614371,-4.532570362,-2.501247644,-0.035390455,0.22386454,0.30028376,-0.0561896,0.483811796,-1.059874535
3.434956789,1.356456041,-0.028082287,-1.406216025,-1.475118041,-4.576263905,-2.613661766,-0.02922089,0.220008075,0.303211421,-0.069256775,0.461093515,-1.072086096
3.439955473,1.453724742,-0.045279719,-1.458832741,-1.405681014,-4.639497757,-2.707016468,-0.018853711,0.213512272,0.307973683,-0.081649303,0.43806529,-1.084049344
3.444954395,1.544988871,-0.050037593,-1.482468128,-1.317094922,-4.723069191,-2.789631367,-0.015416151,0.211358383,0.309552759,-0.093257926,0.414607406,-1.095777392
3.44995451,1.612976193,-0.052977357,-1.495185494,-1.20584166,-4.808272362,-2.854815245,-0.012771181,0.209701106,0.31076774,-0.103925869,0.390707374,-1.107245445
3.454955816,1.676013112,-0.057449043,-1.486489654,-1.078616977,-4.887737751,-2.901834488,-0.011894159,0.209151581,0.311170608,-0.113538831,0.366459846,-1.118329763
3.459958076,1.745104313,-0.066760741,-1.452129483,-0.949877858,-4.948707581,-2.920615196,0.00150967,0.201771975,0.315953761,-0.122076921,0.341998219,-1.128795862
3.46495533,1.818356514,-0.075303502,-1.39287746,-0.817799568,-4.993559361,-2.911217451,0.005954126,0.19932504,0.317539781,-0.129526079,0.317480206,-1.13868165
3.469953537,1.877957582,-0.088097095,-1.299791098,-0.676196992,-5.011465549,-2.86418581,0.009373833,0.197442278,0.318760097,-0.135797739,0.293026805,-1.147836089
3.474952698,1.922725558,-0.124409512,-1.212925315,-0.540930331,-4.989043236,-2.783297777,0.010507744,0.196817994,0.319164723,-0.140869766,0.268903196,-1.156180859
3.479952812,1.944402575,-0.187027767,-1.107223272,-0.444806486,-4.933801174,-2.653784513,0.022280525,0.192879006,0.319802552,-0.144914657,0.245243996,-1.163419127
3.484954119,1.909363985,-0.228296146,-0.998181999,-0.391156495,-4.828868389,-2.497831345,0.028881472,0.190717056,0.320094824,-0.148249418,0.222242117,-1.169717908
3.489956141,1.816901684,-0.297003686,-0.877745152,-0.382000029,-4.662947655,-2.319159508,0.03396045,0.189053595,0.320319712,-0.151100263,0.200123623,-1.175168633
3.494953156,1.722562551,-0.333099306,-0.773469329,-0.410582036,-4.456987381,-2.117062569,0.035644546,0.188502029,0.320394278,-0.153746247,0.179128319,-1.179742575
3.499951363,1.6643188,-0.35658887,-0.670601368,-0.449933022,-4.235551834,-1.892593145,0.043203123,0.187141746,0.319603831,-0.156281188,0.159375504,-1.183258295
3.504956484,1.649313569,-0.367087275,-0.590917468,-0.503380775,-4.007322311,-1.64567256,0.052024767,0.185746968,0.31848678,-0.158815026,0.140984654,-1.185560226
3.509956598,1.676648021,-0.359497786,-0.528567314,-0.569570899,-3.803837538,-1.388733387,0.058812425,0.184673786,0.317627311,-0.161477417,0.12388844,-1.186628938
3.514957905,1.71628201,-0.370371133,-0.450404435,-0.643625915,-3.610515118,-1.119559884,0.061063081,0.184317946,0.317342341,-0.164301202,0.108035475,-1.186392784
3.519960165,1.769123793,-0.408440888,-0.38304925,-0.735380054,-3.412919044,-0.844523311,0.062794812,0.184044138,0.317123026,-0.167378351,0.093503378,-1.184812427
3.524957418,1.805711031,-0.479630649,-0.320784152,-0.877581775,-3.227954388,-0.563019276,0.072663277,0.182626992,0.313741088,-0.170927376,0.080196552,-1.181703329
3.529955626,1.841185451,-0.56760639,-0.229899615,-1.070065498,-3.016086102,-0.293931693,0.08025638,0.1815366,0.311138928,-0.175279364,0.068233795,-1.17732954
3.534954786,1.859777451,-0.646537423,-0.14767161,-1.310729623,-2.806349754,-0.028490063,0.082774118,0.181175038,0.310276091,-0.180702418,0.057604507,-1.171708941
3.539954901,1.87939465,-0.689113915,-0.041902535,-1.575352788,-2.591396809,0.209679261,0.084711336,0.180896848,0.309612215,-0.187445149,0.048305161,-1.16502738
3.544956207,1.872151375,-0.689661682,0.064452209,-1.809488893,-2.372763395,0.416549772,0.090249255,0.178919166,0.309148312,-0.195405111,0.040313791,-1.157441974
3.549958467,1.87355864,-0.666501939,0.193936974,-1.975540876,-2.121309519,0.567316651,0.099460497,0.175490975,0.308544904,-0.204282358,0.033726301,-1.149336576
3.554955482,1.878231645,-0.604746461,0.285232008,-2.050102711,-1.857006907,0.680466115,0.102514766,0.174354255,0.308344841,-0.213647276,0.028647246,-1.140977502
3.55995369,1.885164738,-0.508960843,0.363459051,-2.010683775,-1.591977119,0.763707042,0.104864821,0.173479632,0.308190882,-0.222959384,0.025023477,-1.132556677
3.564953089,1.894118547,-0.378336102,0.43924734,-1.838604689,-1.318593025,0.828250408,0.105644055,0.173189625,0.308139831,-0.231608972,0.022866277,-1.124196768
3.569953203,1.883161306,-0.227219865,0.497661084,-1.535162687,-1.039383411,0.879426837,0.115582623,0.164671108,0.306753337,-0.238933504,0.022164321,-1.115926981
3.57495451,1.840355635,-0.104941897,0.558707595,-1.122917175,-0.731160104,0.906412542,0.118878067,0.161846519,0.306293607,-0.24433364,0.022933312,-1.108089328
3.57995677,1.797626615,-0.006058255,0.571541727,-0.638444841,-0.399745822,0.925946355,0.121413678,0.159673199,0.305939853,-0.247383729,0.025342807,-1.100712657
3.584953785,1.762372375,0.045237619,0.54466784,-0.133569658,-0.073957667,0.935691416,0.122254439,0.158952564,0.305822551,-0.247891441,0.029299872,-1.093805432
3.58995223,1.756685495,0.058711972,0.488142878,0.33120954,0.225653008,0.958138943,0.127224237,0.153803512,0.306997836,-0.246038467,0.034730103,-1.087092161
3.594951391,1.743358135,0.064886101,0.395501971,0.733599067,0.491289616,0.992033958,0.129941836,0.150959238,0.307700694,-0.242151693,0.04145401,-1.080497503
3.599951982,1.298935056,0.131694168,0.249685332,1.017321587,0.847499847,1.045126081,0.132032841,0.148770764,0.308241487,-0.236848176,0.049046192,-1.074607968
3.604953527,0.647905052,0.168478847,0.228360713,1.153590322,1.525277257,1.019597888,0.132726178,0.148045123,0.308420807,-0.231263712,0.058302015,-1.071236849
3.609955788,2.178078175,-0.33167541,0.694193363,1.113292813,2.658011913,1.422877073,0.133712247,0.147498384,0.307614714,-0.224752218,0.078247428,-1.06341815
3.614953279,1.319909334,0.056583844,0.094754249,1.285865664,2.472154617,1.437069178,0.134495616,0.147328794,0.306395441,-0.218031645,0.094874464,-1.057011724
3.619951248,0.064281777,0.474994838,0.221432656,1.131122828,2.076756239,1.063849211,0.135098353,0.147198305,0.305457324,-0.213203728,0.105071329,-1.054820418
3.624950409,-0.099022217,0.528680205,0.402294189,1.505533099,2.691527605,0.950603902,0.135298222,0.147155032,0.305146247,-0.206638247,0.11838723,-1.053794503
3.629950762,0.481963038,0.554310203,-0.373977244,1.780353546,3.729716778,0.834086776,0.135452002,0.147121742,0.304906905,-0.198083267,0.139357969,-1.053040385
3.634951591,0.393402576,0.648821831,-1.674509168,1.635919452,3.936893702,0.493101954,0.132047951,0.149327293,0.306566149,-0.190364704,0.160237044,-1.05460763
3.639960289,0.025938127,0.649420679,-2.19623971,1.701325655,3.249260664,0.316539347,0.129428774,0.151024312,0.307842821,-0.182903484,0.17535691,-1.057084322
3.644964457,-0.045000352,1.003199458,-1.72643292,1.932795525,2.803955793,0.484689951,0.128560305,0.151587009,0.308266133,-0.174340427,0.188180223,-1.057944894
3.649963379,-0.319441944,1.223121166,-1.253748298,2.242825508,3.174801111,0.223607361,0.127892077,0.152019978,0.308591843,-0.164876565,0.202755332,-1.060924172
3.65496254,-0.017916165,0.518011391,-0.985854805,2.416060925,3.819749832,-0.060258023,0.123186693,0.154763758,0.309069186,-0.154027134,0.221594483,-1.065102458
3.659962416,0.228278488,-0.110296488,-1.005290747,2.623641968,4.373346806,-0.139940217,0.115032397,0.159504145,0.309809923,-0.140974104,0.243734896,-1.068337083
3.664963484,0.370281339,-0.816533983,-1.106255531,2.460947752,4.79762125,-0.134270057,0.112328582,0.161075979,0.310055524,-0.127541825,0.267940134,-1.070734501
3.669965744,0.891238928,-1.195249319,-1.33342278,2.072424412,4.990700722,0.094353132,0.110248186,0.162285388,0.310244501,-0.115536653,0.294210851,-1.07031405
3.674963236,1.303502798,-1.372634172,-1.789818406,1.648112774,4.878824234,0.263792008,0.109558359,0.162686393,0.310307175,-0.105164327,0.320130885,-1.068143725
3.679961443,1.953041673,-1.508792043,-2.132041931,1.302289963,4.434047699,0.513055444,0.095539935,0.171946377,0.308261424,-0.095580772,0.344582736,-1.063306928
3.684960604,2.541171789,-1.434233427,-2.354025841,0.88477248,3.711540937,0.847508192,0.090891689,0.175016806,0.307583064,-0.08744856,0.366000414,-1.055531502
3.689961433,2.965073347,-0.934491217,-2.344164848,0.416040391,2.873189211,1.075491905,0.087315187,0.177379295,0.307061136,-0.081967145,0.383725524,-1.046096206
3.69496274,2.550631762,-0.046491474,-2.074151516,0.18680051,1.979621649,1.060001016,0.086129278,0.178162664,0.306888074,-0.079736188,0.395905852,-1.038724303
3.699965,1.633281112,0.475371301,-1.427663207,0.171109781,1.319372892,0.959840298,0.074810043,0.182076111,0.307967484,-0.078006387,0.403482556,-1.03357482
3.704962254,0.886314034,0.586711287,-0.67368418,0.329721481,1.31148243,0.771405756,0.068481617,0.184192985,0.30862543,-0.07605233,0.410467625,-1.030127406
3.709960461,0.822085559,0.625397623,-0.845618427,0.478663951,1.508732915,0.635705471,0.06361232,0.185821772,0.309131682,-0.073396988,0.419109255,-1.027620912
3.714959383,0.845005691,0.761311054,-1.178786278,0.592197716,1.346535206,0.501623273,0.061997756,0.186361849,0.309299558,-0.070816539,0.426487923,-1.025995255
3.719959497,0.685988665,0.568654954,-1.222165227,0.751966834,1.111607194,0.377344072,0.05878254,0.187071174,0.309010297,-0.067225374,0.432061046,-1.024894953
3.724960566,0.606494844,0.123870753,-1.05941391,0.857845366,0.919209361,0.383922338,0.055726953,0.187602594,0.308492482,-0.061946522,0.436734855,-1.022783995
3.729962587,0.459952474,-0.154869556,-0.913942873,0.849159896,0.837639689,0.441621214,0.053375885,0.188011497,0.308094084,-0.056190129,0.440975785,-1.019828558
3.734959602,0.512521684,-0.136566386,-0.943915188,0.843355834,0.79192543,0.459635466,0.052596316,0.188147083,0.307961941,-0.050579451,0.445115507,-1.016843438
3.739957809,0.881609797,-0.063229837,-1.162237167,0.752349377,0.610225022,0.407518864,0.051996492,0.188251406,0.307860285,-0.045715101,0.448859006,-1.013915896
3.744956732,1.109060764,-0.121006995,-1.246152401,0.588421166,0.260369658,0.338062406,0.049541093,0.190256625,0.307398975,-0.041737374,0.450899065,-1.010981917
3.749956608,0.799669564,-0.1599935,-1.0015136,0.439849943,0.014068039,0.297383308,0.047651827,0.191799507,0.307044029,-0.038631145,0.451117337,-1.00849843
