Time,inertial-6253.76535:scaledAccelX,inertial-6253.76535:scaledAccelY,inertial-6253.76535:scaledAccelZ,inertial-6253.76535:scaledGyroX,inertial-6253.76535:scaledGyroY,inertial-6253.76535:scaledGyroZ,inertial-6253.76535:scaledMagX,inertial-6253.76535:scaledMagY,inertial-6253.76535:scaledMagZ,inertial-6253.76535:roll,inertial-6253.76535:pitch,inertial-6253.76535:yaw
0,0.419674784,0.245616674,-0.873283207,-0.001270894,0.00305703,0.005149666,-0.352146238,-0.062838599,0.311677635,-0.256193072,0.429907978,-3.009501219
0.004998656,0.414431691,0.246898785,-0.876316667,0.0028399,0.003940917,0.006187248,-0.352139711,-0.062889419,0.311691672,-0.256200105,0.429925859,-3.009484053
0.009998336,0.41573447,0.238642514,-0.88061446,0.00468289,0.004118122,0.006747372,-0.352137536,-0.062906265,0.311696321,-0.25616762,0.429948598,-3.009487391
0.01499904,0.418879241,0.232992008,-0.878790855,0.001745617,0.00464384,0.006896318,-0.352390051,-0.062661663,0.311514258,-0.256147623,0.429987818,-3.009511948
0.020000769,0.42075637,0.241181344,-0.874690056,0.003286096,0.004814664,0.005223294,-0.352536678,-0.062516823,0.311407954,-0.256157428,0.430017889,-3.009502888
0.024997631,0.417046189,0.245486185,-0.875428438,0.003979538,0.002934588,0.004119655,-0.35264951,-0.062405378,0.311326146,-0.256158173,0.430037707,-3.009489536
0.029995264,0.415220886,0.241677031,-0.878455997,0.001345129,0.004127497,0.005282925,-0.352686912,-0.062368426,0.311299026,-0.256166607,0.430053771,-3.009489536
0.034993663,0.418663383,0.236440763,-0.880434752,-0.000595438,0.003939961,0.00664053,-0.352858603,-0.062336259,0.311387479,-0.256162107,0.430089742,-3.009503365
0.039993346,0.420328945,0.241166189,-0.877712309,0.000432047,0.005525741,0.007044725,-0.35305962,-0.062321827,0.311527014,-0.256170034,0.430128604,-3.009497166
0.044993792,0.418149084,0.244051814,-0.878518522,0.001224717,0.00442384,0.005657864,-0.353214294,-0.062310729,0.311634392,-0.256180018,0.43015489,-3.009486675
0.049995519,0.419175833,0.2377415,-0.877678871,-0.000251067,0.004700578,0.006648418,-0.353265554,-0.062307049,0.311669976,-0.256178528,0.430188239,-3.009496212
0.054992128,0.41874972,0.244543895,-0.875615716,0.000333199,0.003786333,0.005779088,-0.353305042,-0.062304217,0.311697394,-0.256199777,0.430213392,-3.009479046
0.059989762,0.415106982,0.246499524,-0.87459445,0.002848665,0.005637363,0.005310507,-0.353215963,-0.062407847,0.311611831,-0.25620386,0.430248588,-3.009450912
0.064988159,0.419170976,0.242179513,-0.876049042,0.003965644,0.005081538,0.006754223,-0.353147417,-0.062487584,0.311545998,-0.256190628,0.430284262,-3.009441614
0.069987841,0.418851256,0.237586245,-0.878200412,0.002866127,0.00385056,0.004239404,-0.353124708,-0.062514022,0.311524153,-0.256176233,0.430307209,-3.009460211
0.07499443,0.420361459,0.241048798,-0.875474989,0.001870222,0.004137288,0.007802449,-0.353107214,-0.06253437,0.311507374,-0.256174803,0.430347174,-3.009446859
0.079996414,0.419333994,0.245425552,-0.873981416,0.00129098,0.003340623,0.007127375,-0.353244692,-0.062481049,0.31145063,-0.25618872,0.43037653,-3.009423971
0.08499328,0.417369038,0.243212312,-0.87411654,0.00192787,0.004769582,0.007134069,-0.35349533,-0.062379289,0.311355233,-0.256192297,0.430410385,-3.009411812
0.089990914,0.418656915,0.238746211,-0.876599848,0.003110252,0.002919659,0.005510712,-0.353578448,-0.062345546,0.311323583,-0.256178707,0.430429101,-3.00941658
0.094989568,0.419404566,0.238705933,-0.876273453,-0.000107697,0.001901674,0.006669377,-0.353642404,-0.062319584,0.311299235,-0.256180793,0.430454105,-3.009409666
0.09998925,0.419322997,0.242614865,-0.875751972,-6.67E-05,0.001963934,0.004879923,-0.353663594,-0.062310975,0.311291158,-0.256202698,0.430475682,-3.009400129
0.104989693,0.417418361,0.241295502,-0.876879692,0.0021887,0.002924527,0.006021273,-0.35294494,-0.062579334,0.312333643,-0.256195754,0.430490255,-3.009393215
0.109991424,0.41974321,0.240130916,-0.875866711,0.001061016,0.000940664,0.006391155,-0.352706641,-0.062668316,0.312679321,-0.256195635,0.430509359,-3.009378433
0.114988029,0.419657916,0.240626752,-0.875876963,0.001466258,0.000939098,0.004957557,-0.352523297,-0.062736779,0.312945276,-0.256200045,0.43052119,-3.009375334
0.119985409,0.419838607,0.239076912,-0.875228465,0.000599438,0.001850865,0.004910346,-0.3524625,-0.062759474,0.313033491,-0.256201416,0.430545986,-3.009368181
0.124984063,0.422897756,0.238107905,-0.875985503,0.000837939,-0.000152024,0.004617251,-0.352565795,-0.062630385,0.312117338,-0.256205708,0.430556417,-3.00937438
0.129983485,0.419552803,0.23985298,-0.876848578,-0.00121215,-0.000235293,0.003864749,-0.352637172,-0.062551312,0.311570048,-0.256222218,0.430561393,-3.009377003
0.134983942,0.418857753,0.243838474,-0.87463659,0.000962326,-0.001977142,0.005143516,-0.352692127,-0.062490474,0.311148971,-0.256234884,0.430556595,-3.00936389
0.139985666,0.41996336,0.245351106,-0.874297202,0.003437074,-0.001884166,0.005705087,-0.352710336,-0.062470302,0.311009318,-0.256238073,0.430563152,-3.009336948
0.144982532,0.420072943,0.239799514,-0.87609899,0.001801258,-0.001087643,0.005618235,-0.352782458,-0.062422588,0.311142474,-0.256230533,0.4305709,-3.009343863
0.149979904,0.417385966,0.241910234,-0.877284944,0.002371144,-0.003557471,0.005504699,-0.352864981,-0.062374305,0.311429173,-0.25622499,0.43055132,-3.009324551
0.154978558,0.415345788,0.245128751,-0.875510812,0.003226792,-0.001059255,0.004694667,-0.352928489,-0.062337153,0.31164977,-0.256228656,0.430547684,-3.009310246
0.159978241,0.416435927,0.241590247,-0.878014147,0.004759792,-0.002643672,0.007012692,-0.35294953,-0.062324833,0.311722934,-0.256206065,0.430545539,-3.009293318
0.164978951,0.419467419,0.240267351,-0.878051043,0.003180359,-0.002412426,0.005079283,-0.352965742,-0.06231536,0.311779201,-0.256195277,0.430545807,-3.009289026
0.169980675,0.419232965,0.238614306,-0.878654182,0.003367649,-0.000575249,0.005755247,-0.353018105,-0.062613115,0.312177539,-0.256184101,0.430553854,-3.009291887
0.174977541,0.419903398,0.237739667,-0.876881599,0.002643067,-0.002731475,0.005637838,-0.353058368,-0.06284222,0.312484026,-0.256168187,0.430549324,-3.009302139
0.179974914,0.41882357,0.242928535,-0.875985146,0.003500256,-0.002923621,0.004821705,-0.353071749,-0.062918186,0.312585652,-0.256161749,0.430544496,-3.009288073
0.184973568,0.41874212,0.246847436,-0.876163483,0.002868633,-0.001783638,0.004463465,-0.353082001,-0.062976636,0.312663823,-0.256174892,0.430543512,-3.009267807
0.189972997,0.418794036,0.242319316,-0.876788914,0.003216404,0.000291704,0.006015795,-0.352888048,-0.062771879,0.312337011,-0.256160647,0.430552363,-3.009248972
0.194973692,0.420149446,0.23967509,-0.877646387,0.004326458,-0.000828647,0.006739996,-0.352539241,-0.062387697,0.311728895,-0.256142139,0.430559754,-3.009242773
0.199975431,0.421389669,0.238776699,-0.878167927,0.001016695,-0.002448512,0.004415929,-0.352423579,-0.062260307,0.311527252,-0.256145835,0.430550009,-3.00924468
0.204978943,0.419721872,0.239799812,-0.87695235,0.000995456,-0.003927136,0.002016083,-0.352334589,-0.062162291,0.311372101,-0.256153435,0.430536687,-3.009250164
0.209977597,0.419246376,0.241861373,-0.876179695,0.000855424,-0.001703226,0.003717732,-0.352305084,-0.062129792,0.311320662,-0.256156296,0.430539548,-3.009238482
0.214976251,0.420291036,0.242498592,-0.87597537,0.001624793,-0.002104611,0.003297381,-0.352613389,-0.062300604,0.311352074,-0.256162345,0.430534005,-3.009234428
0.219975933,0.420571804,0.239859268,-0.876834869,0.003071594,-0.002839379,0.002886832,-0.352715611,-0.062357243,0.311362475,-0.25615561,0.430528253,-3.009237289
0.224976391,0.420574933,0.239682406,-0.876648605,0.002818456,-0.00140341,0.005132281,-0.35279426,-0.062400822,0.311370462,-0.256145597,0.430534422,-3.00923419
0.229978114,0.418112904,0.240383759,-0.875843465,0.003995558,-0.003956725,0.004071736,-0.352820337,-0.062415272,0.311373115,-0.256137192,0.430522412,-3.009233713
0.234974727,0.417546809,0.24145034,-0.875762165,0.003724382,-0.003563506,0.004973031,-0.352990717,-0.062424764,0.311237305,-0.256128222,0.430508673,-3.009222507
0.239972353,0.420155823,0.242434174,-0.874299943,0.002920283,-0.004271981,0.002065892,-0.353084385,-0.062427506,0.31115818,-0.25612995,0.430495858,-3.009224176
0.24497126,0.420388013,0.24204208,-0.875589311,0.004899645,-0.002693789,0.003142728,-0.353156477,-0.062429618,0.311097264,-0.256117105,0.430487335,-3.009223461
0.249970943,0.420259655,0.24020879,-0.875263035,0.003688129,-0.004079409,0.001599389,-0.353180379,-0.062430318,0.311077058,-0.256111592,0.430475324,-3.009236813
0.254971653,0.417456388,0.241533041,-0.874479532,0.002706663,-0.00406369,0.004172883,-0.353198975,-0.062457804,0.311275005,-0.256109029,0.430462241,-3.0092206
0.259973884,0.4186818,0.243346244,-0.877198815,0.003966051,-0.003627689,0.005290167,-0.353205323,-0.062494092,0.311555892,-0.256092817,0.43046093,-3.00921011
0.264971018,0.419233829,0.242859468,-0.877794385,0.004828231,-0.004899721,0.003778668,-0.353210181,-0.062522009,0.311772019,-0.256080508,0.43044287,-3.009202957
0.269968629,0.418973565,0.240841836,-0.876845837,0.00554952,-0.003087564,0.004243935,-0.35321179,-0.06253127,0.311843663,-0.256065488,0.430436641,-3.009201527
0.274967551,0.418718904,0.241899922,-0.876664698,0.003922142,-0.004614763,0.003241471,-0.353213042,-0.062538393,0.311898828,-0.25605303,0.430422664,-3.009205818
0.279967219,0.420581579,0.241300523,-0.876280725,0.004727348,-0.004176239,0.002508492,-0.353318065,-0.062330991,0.312385947,-0.256039888,0.430414915,-3.009195805
0.284967929,0.419384837,0.23998557,-0.875823081,0.003626118,-0.004125212,0.002444548,-0.35339886,-0.062171407,0.312760741,-0.256033927,0.430397838,-3.009202719
0.289969653,0.419507772,0.242029458,-0.87580961,0.004249413,-0.004712912,0.003083397,-0.353425622,-0.062118493,0.312885016,-0.256021351,0.430385113,-3.009181976
0.294966519,0.419081837,0.240818918,-0.876979768,0.004827027,-0.005433581,0.003351195,-0.353446245,-0.062077779,0.312980622,-0.256008863,0.430369407,-3.009170771
0.29996416,0.41918388,0.239594027,-0.875778794,0.004968223,-0.005225852,0.002753144,-0.353137106,-0.062160444,0.312634259,-0.255993545,0.430356741,-3.009176731
0.304962814,0.417441279,0.241316095,-0.875629127,0.004714372,-0.00374009,0.002479619,-0.352579713,-0.06232129,0.311985493,-0.255985767,0.430339634,-3.00917244
0.309962243,0.41881454,0.240661293,-0.876455128,0.004586149,-0.003478181,0.003991148,-0.352394879,-0.062374622,0.31177038,-0.255973816,0.430325836,-3.009172201
0.314962953,0.419494361,0.241495073,-0.876015663,0.004334526,-0.004022089,0.002922461,-0.352252692,-0.062415659,0.311604857,-0.255967528,0.430316389,-3.009166956
0.319964916,0.418176174,0.241958648,-0.876586199,0.004526114,-0.002711938,0.002786031,-0.352205545,-0.062429264,0.311549962,-0.255952805,0.430307746,-3.009168863
0.32496205,0.418393672,0.240974039,-0.875636518,0.003779032,-0.003235068,0.003624007,-0.352833599,-0.062695004,0.311772913,-0.255948633,0.430297941,-3.009168148
0.329959691,0.418351322,0.240708336,-0.875099063,0.003849467,-0.004121501,0.002858463,-0.353041828,-0.062783115,0.311846852,-0.255944461,0.430289239,-3.009169817
0.334958851,0.419127136,0.240637079,-0.876024723,0.00366791,-0.002577768,0.004524108,-0.353202045,-0.062850915,0.311903745,-0.255936861,0.430282652,-3.009168625
0.33996442,0.419585973,0.241758674,-0.876532316,0.00450167,-0.003457047,0.004016275,-0.353255153,-0.062873393,0.31192258,-0.255924374,0.430278152,-3.009165764
0.344965369,0.419669628,0.241241843,-0.876612127,0.003765419,-0.00253271,0.004156548,-0.353146523,-0.062792696,0.311839253,-0.255915672,0.430275023,-3.009167194
0.349967092,0.418357968,0.241860896,-0.87574774,0.003863761,-0.002711895,0.003872787,-0.353073508,-0.062741689,0.311787397,-0.255911112,0.430259049,-3.00916338
0.354963958,0.419577092,0.241214156,-0.87673527,0.003048461,-0.002386351,0.00469964,-0.35301733,-0.06270244,0.311747521,-0.255902141,0.430266351,-3.009156704
0.359961599,0.419825703,0.240761787,-0.876654983,0.004179938,-0.004369374,0.004504361,-0.352998704,-0.062689424,0.311734289,-0.25589186,0.430255383,-3.009151459
0.364960521,0.418102294,0.239607513,-0.877816141,0.004074611,-0.00450813,0.004204995,-0.352929652,-0.062590174,0.312121689,-0.25587818,0.430240035,-3.009157181
0.369960189,0.419760495,0.240528926,-0.878833234,0.004320563,-0.006043942,0.003664818,-0.352851599,-0.062467281,0.312651068,-0.255864918,0.430224627,-3.009145498
0.374960631,0.420655429,0.240842864,-0.876272857,0.002808098,-0.005108544,0.004639844,-0.352791548,-0.062372725,0.313058376,-0.255857408,0.430214643,-3.009129524
0.379962355,0.420819461,0.242168531,-0.875623107,0.005397809,-0.004852085,0.004619412,-0.35277161,-0.06234137,0.313193411,-0.255841672,0.430204391,-3.009105682
0.384958982,0.41909954,0.244541615,-0.876686633,0.002544326,-0.004996853,0.004458367,-0.352756292,-0.062317245,0.313297331,-0.255852938,0.43018645,-3.009085417
0.38995713,0.419825017,0.239492282,-0.87622577,0.001799016,-0.004192058,0.004365248,-0.352599233,-0.062413499,0.313376933,-0.255840272,0.430176318,-3.009082079
0.394955784,0.420783043,0.239311218,-0.876039028,0.002094763,-0.005345705,0.00365391,-0.352478385,-0.062487561,0.313438207,-0.255834013,0.430164546,-3.009075642
0.399955451,0.421222448,0.238282874,-0.87596184,0.00338558,-0.005466752,0.004264078,-0.352438301,-0.062512115,0.313458532,-0.255817235,0.430150062,-3.009071112
0.40495643,0.418925971,0.239789546,-0.877650499,0.002999019,-0.005206306,0.003978963,-0.352407485,-0.062531017,0.313474149,-0.255811393,0.430128604,-3.009066343
0.409958154,0.418157369,0.239710942,-0.876443565,0.003843012,-0.00495164,0.003193264,-0.352510303,-0.062538482,0.313108534,-0.255807012,0.430104285,-3.009072781
0.414954752,0.415953159,0.240021884,-0.876703978,0.00198553,-0.006648582,0.002882224,-0.35270372,-0.062545441,0.312452286,-0.255802661,0.430074364,-3.009073973
0.419952631,0.416879803,0.23994951,-0.877191246,0.003149159,-0.005211961,0.000942406,-0.352767855,-0.062547751,0.3122347,-0.255805194,0.430048734,-3.009089947
0.424951285,0.418326765,0.241266161,-0.876763701,0.002210244,-0.004991527,0.004997312,-0.352817208,-0.062549524,0.31206727,-0.255799234,0.430034012,-3.009073257
0.429950982,0.416885525,0.242546141,-0.879024923,0.002085123,-0.004444473,0.003788206,-0.352833569,-0.062550113,0.312011749,-0.255802631,0.430013865,-3.009067774
0.434952199,0.415687442,0.24171795,-0.877603054,0.001801424,-0.004912953,0.003788198,-0.352978438,-0.062551975,0.31153518,-0.255805939,0.429991126,-3.009073257
0.43995443,0.416363746,0.241757601,-0.877043784,0.002053757,-0.003717915,0.004017799,-0.35302645,-0.062552594,0.311377168,-0.255807519,0.429973274,-3.009067535
0.444951564,0.418783039,0.242345497,-0.878322124,0.002629049,-0.004818652,0.003261203,-0.353063405,-0.06255307,0.311255574,-0.255806327,0.429955214,-3.009071112
0.449949443,0.41829288,0.241028264,-0.877824545,0.002166628,-0.003194378,0.005238463,-0.353075683,-0.062553227,0.311215281,-0.255803019,0.429947466,-3.00906086
0.454948097,0.417962611,0.23967132,-0.878449678,0.002575691,-0.002378611,0.004771476,-0.352782726,-0.062659658,0.311320305,-0.255796462,0.429941416,-3.009065866
0.459948033,0.418860763,0.24012439,-0.8760795,0.002788321,-0.004216473,0.005036095,-0.352610767,-0.062721252,0.31138882,-0.255788535,0.429926574,-3.009065628
0.464948982,0.418567628,0.240542963,-0.876156092,0.002875933,-0.00238238,0.005968487,-0.352478445,-0.062768653,0.311441541,-0.255781263,0.429927617,-3.009054661
0.469950706,0.416910708,0.2415656,-0.877216339,0.001141834,-0.002803821,0.004570211,-0.352434576,-0.062784366,0.311459005,-0.255782574,0.42991966,-3.009050369
0.474953473,0.417013407,0.241288319,-0.877177536,0.001250684,-0.001539436,0.004290684,-0.35254705,-0.062616438,0.311899573,-0.255797118,0.429915309,-3.00905633
0.479951113,0.418021858,0.23978354,-0.876780331,0.00131098,-0.000205458,0.003811294,-0.352731794,-0.062379211,0.312476337,-0.255798787,0.429923087,-3.009050369
0.484949768,0.416782737,0.240170643,-0.877764165,0.000890773,-0.000757867,0.004534608,-0.352873921,-0.062196679,0.312920094,-0.255802482,0.429919899,-3.009044647
0.489949435,0.419862002,0.240446761,-0.876073539,0.000167014,-0.000472509,0.003591718,-0.352921039,-0.062136158,0.313067257,-0.255816758,0.429932028,-3.009045601
0.494950145,0.419031978,0.240940854,-0.877206326,4.96E-05,-0.001192302,0.003486207,-0.352957308,-0.062089592,0.313180447,-0.255824804,0.429933012,-3.009037971
0.499952137,0.418535143,0.241850227,-0.877030671,-0.000543645,-0.001708771,0.002261895,-0.352916688,-0.062325675,0.313642114,-0.255840659,0.429926634,-3.009037733
0.504949272,0.418493718,0.239679709,-0.876375794,-0.001456263,-0.002454424,0.002598291,-0.352885455,-0.062507324,0.313997298,-0.255859107,0.42993018,-3.009041786
0.509947121,0.418947548,0.240179658,-0.875619888,0.002156443,-0.002448814,0.002918533,-0.352875113,-0.062567554,0.314115077,-0.2558617,0.429928631,-3.009042025
0.514945805,0.418489158,0.239726931,-0.875698745,-0.000286229,-0.001885028,0.002004292,-0.352867156,-0.062613897,0.314205706,-0.255890518,0.429926008,-3.009046316
0.519945443,0.415976584,0.241595954,-0.874967754,-0.000881462,-0.001106354,0.003608518,-0.352834314,-0.062635414,0.313622445,-0.255899638,0.429916501,-3.009041548
0.524946451,0.416707784,0.24006401,-0.875114679,0.002015634,-0.003522536,0.002233153,-0.352778465,-0.062658198,0.312553495,-0.255904555,0.429904222,-3.009050369
0.529948413,0.418280274,0.241950825,-0.875982165,0.001509841,-0.003341621,0.002562405,-0.352759957,-0.062665753,0.312199056,-0.255910605,0.429900229,-3.009050846
0.534945548,0.419118524,0.243554488,-0.87479645,0.001946158,-0.003297989,0.003705897,-0.352745712,-0.062671565,0.311926335,-0.255917221,0.429890782,-3.009037018
0.539943397,0.419044614,0.243379727,-0.875108361,0.001390764,-0.003869074,0.003251973,-0.352740973,-0.062673494,0.311835915,-0.255921394,0.429878145,-3.009032011
0.544942319,0.419032156,0.2414563,-0.876761138,0.003672427,-0.004049889,0.002771094,-0.352937907,-0.06266997,0.311894864,-0.255912215,0.429867744,-3.00903368
0.549942255,0.420240611,0.240436211,-0.87580061,0.003398278,-0.003709672,0.003825751,-0.353003204,-0.0626688,0.311914414,-0.255906135,0.429856688,-3.009032726
0.554942727,0.417695552,0.241302699,-0.876321793,0.003163675,-0.004259844,0.003933036,-0.353053421,-0.062667899,0.311929464,-0.255895108,0.429841161,-3.009032011
0.559944451,0.419266969,0.241299033,-0.875742078,0.002968895,-0.003984104,0.004180252,-0.35307008,-0.062667601,0.311934441,-0.255887866,0.429834843,-3.009029388
0.564941049,0.417522162,0.23990126,-0.876810372,0.004900855,-0.00208931,0.002423883,-0.352933615,-0.062714301,0.312686592,-0.255873293,0.429826647,-3.009038925
0.569938958,0.417863488,0.242243811,-0.875839293,0.002727871,-0.003123168,0.003779438,-0.352851421,-0.062741406,0.31312114,-0.255876452,0.42981869,-3.00903368
0.57493788,0.418214381,0.242663965,-0.875646532,0.00233666,-0.003833947,0.003073282,-0.35278818,-0.06276226,0.313455492,-0.255879432,0.429803759,-3.009025335
0.579937518,0.418692797,0.242584601,-0.877781868,0.003859648,-0.003127612,0.003844395,-0.352767199,-0.062769175,0.313566387,-0.255874097,0.429799139,-3.00901866
0.584938228,0.417626947,0.241359919,-0.877710819,0.004032779,-0.001495221,0.003000159,-0.352636248,-0.062724024,0.313089371,-0.25586763,0.42980206,-3.009021282
0.589939952,0.417556584,0.242053509,-0.879010499,0.001986541,-0.001801469,0.003158061,-0.352477014,-0.062658161,0.312364191,-0.255865574,0.42979309,-3.009021997
0.594936848,0.419090629,0.242850572,-0.879000485,0.003411285,-0.001462104,0.003374818,-0.352354497,-0.062607482,0.311806202,-0.25586307,0.429793447,-3.009021282
0.599934697,0.420796305,0.241017491,-0.877093196,0.002475985,-0.00284115,0.003338212,-0.352313876,-0.062590674,0.311621159,-0.255861521,0.429784417,-3.009020567
0.604933381,0.418251395,0.241535991,-0.877285838,0.001773748,-0.000495751,0.002801401,-0.352282643,-0.062577747,0.311478823,-0.255861431,0.429786623,-3.009021759
0.609939456,0.418428957,0.242039323,-0.87820971,0.000562511,-0.001670353,0.00399412,-0.352627695,-0.062505484,0.312563777,-0.255866587,0.429782778,-3.009013176
0.614940405,0.418289542,0.24219209,-0.87676239,0.002189385,-0.000414797,0.003406371,-0.352893174,-0.062449884,0.31339857,-0.25587523,0.429788619,-3.009007215
0.619942427,0.41897437,0.241336852,-0.876070082,0.00344984,0.000803117,0.00372451,-0.35298118,-0.062431447,0.313675404,-0.255864292,0.429801852,-3.008999109
0.624939263,0.419199675,0.242001906,-0.876153767,0.00300268,0.001693175,0.003600137,-0.353048921,-0.062417265,0.313888371,-0.255860746,0.429816425,-3.008989811
0.629937172,0.418180615,0.24101539,-0.87733829,0.003027059,0.000681166,0.00519265,-0.352984369,-0.062501632,0.313878387,-0.255854487,0.429830998,-3.008982182
0.634935796,0.418106586,0.240792364,-0.876590312,0.002540528,-0.000160759,0.003827442,-0.352846742,-0.062656604,0.313789159,-0.255857587,0.429834545,-3.008982897
0.639935732,0.417192042,0.240403533,-0.876205325,0.004280171,0.001333081,0.00520764,-0.352801114,-0.062707998,0.313759565,-0.255844951,0.429846585,-3.008978844
0.644936442,0.418615937,0.243148878,-0.876839221,0.003403414,0.001064823,0.00664843,-0.352766007,-0.062747538,0.313736826,-0.255841792,0.429858148,-3.008966446
0.649938405,0.419458777,0.242493555,-0.877895892,0.004994457,0.00051438,0.006790815,-0.352754354,-0.062760644,0.313729286,-0.255835086,0.429873586,-3.008953094
0.654935539,0.418576598,0.241222009,-0.877622902,0.005692142,0.000530101,0.005479546,-0.352750987,-0.062171884,0.312656939,-0.255814612,0.429879546,-3.008939266
0.659933209,0.418123573,0.240462095,-0.876314342,0.005425594,0.000426259,0.005517044,-0.352749884,-0.061976664,0.312301368,-0.255797148,0.429899395,-3.008927822
0.664932072,0.417054117,0.239817381,-0.875885308,0.003699497,0.001085018,0.00639699,-0.35274902,-0.061826453,0.312027782,-0.255782187,0.429908991,-3.008914471
0.669931769,0.419865727,0.241672248,-0.876141608,0.005022721,-0.000298075,0.007122866,-0.352748752,-0.061776645,0.311937064,-0.255761594,0.429921895,-3.008891582
0.674932718,0.419322938,0.241732374,-0.875371635,0.004608276,-0.000838011,0.00683053,-0.352844745,-0.061992947,0.311637431,-0.255741686,0.42992866,-3.00886631
0.67993474,0.4213368,0.241731271,-0.874797642,0.004576809,-0.002626753,0.007604496,-0.352900386,-0.062127672,0.311481208,-0.255729944,0.429934472,-3.008843899
0.684932113,0.419593751,0.240902871,-0.875697076,0.004938369,-0.002075618,0.00689729,-0.352943212,-0.062231336,0.311360985,-0.255707443,0.429935247,-3.008825064
0.689929724,0.418942094,0.237706348,-0.877307355,0.003037599,-0.00189002,0.005756551,-0.352957428,-0.062265709,0.311321139,-0.255691379,0.429932892,-3.0088377
0.694928646,0.419112146,0.238576129,-0.876574337,0.006015979,-0.001840563,0.005918327,-0.353141487,-0.062254593,0.311879545,-0.255659223,0.429934263,-3.008826017
0.699928582,0.417675972,0.240015298,-0.877352595,0.00342964,-0.00163693,0.003993833,-0.353377134,-0.062213026,0.312658757,-0.255655855,0.429931492,-3.00881958
0.704929531,0.417125881,0.239535585,-0.87863183,0.002639756,-0.002206863,0.006067059,-0.353558421,-0.062181044,0.31325829,-0.255644321,0.429928333,-3.008807659
0.709931791,0.417172581,0.241177961,-0.875247777,0.004446436,-0.001709659,0.005009215,-0.353618562,-0.062170438,0.313457102,-0.255627483,0.429929465,-3.008790493
0.714929163,0.417518407,0.241671875,-0.875196457,0.002791151,-0.002292953,0.005614906,-0.353664815,-0.06216228,0.313610047,-0.255629063,0.429924339,-3.008768082
0.719926775,0.419257045,0.239124835,-0.878587425,0.000827424,-0.002455926,0.004925093,-0.353324115,-0.06232674,0.312811226,-0.255619377,0.429917991,-3.008771896
0.724925697,0.416921049,0.239793345,-0.878194332,0.004341419,-0.002928437,0.005555753,-0.353061944,-0.062453285,0.312196583,-0.255604059,0.429907173,-3.008767605
0.729925632,0.417338818,0.239339307,-0.875542641,0.002443882,-0.001590767,0.005051263,-0.352975011,-0.062495243,0.311992794,-0.255600363,0.429911137,-3.00876689
0.734926343,0.418830991,0.240566656,-0.874728084,0.002233793,-0.001770786,0.004807324,-0.352908134,-0.062527522,0.311835974,-0.255597204,0.429909617,-3.008766174
0.739928305,0.4197056,0.240814418,-0.874759257,0.002187905,-0.002255186,0.00349991,-0.352915227,-0.062480133,0.311757237,-0.255604208,0.429906011,-3.008765459
0.744931817,0.418669701,0.241802722,-0.875468075,0.0033144,-0.003662908,0.006324589,-0.352950245,-0.062384926,0.311669648,-0.25559321,0.429901719,-3.008746386
0.749930501,0.417655617,0.241945952,-0.875668705,0.001840904,-0.002936766,0.00446653,-0.352961898,-0.062353354,0.31164059,-0.255589128,0.429895639,-3.008731842
0.754929125,0.416675955,0.240610018,-0.875856221,0.002120868,-0.003702971,0.004441551,-0.352970839,-0.062329061,0.311618209,-0.255586863,0.4298805,-3.008727312
0.759929061,0.416918397,0.240827128,-0.875490963,0.003522249,-0.003165906,0.005059428,-0.352973789,-0.062321007,0.311610818,-0.25557366,0.429877251,-3.008717299
0.764930069,0.419074178,0.242264777,-0.876377642,0.003423824,-0.004777521,0.00375555,-0.352846652,-0.06223952,0.312723964,-0.255574912,0.42985791,-3.00870657
0.76993227,0.419439942,0.241942093,-0.876808524,0.003465899,-0.003317787,0.005138043,-0.352804512,-0.062212501,0.313093066,-0.255565703,0.429856122,-3.008685112
0.774929643,0.418213308,0.241973534,-0.874956727,0.00329336,-0.002579404,0.004086562,-0.352772087,-0.06219171,0.313377082,-0.255565584,0.429848015,-3.0086689
0.779927552,0.419762313,0.242859244,-0.876419604,0.003438249,-0.002494322,0.006017133,-0.352761328,-0.062184814,0.313471228,-0.255556822,0.429847836,-3.008645296
0.784926236,0.418258339,0.240864068,-0.876067042,0.002540402,-0.002322808,0.00500488,-0.352600873,-0.062235881,0.31325987,-0.255557001,0.429842412,-3.008635283
0.789926171,0.417035699,0.241798103,-0.877299368,0.00270626,-0.002933286,0.004426326,-0.352510035,-0.062266763,0.31311956,-0.255551487,0.429830343,-3.008622169
0.794926822,0.417126805,0.241569087,-0.877135277,0.002154704,-0.003823342,0.004889661,-0.352440119,-0.062290523,0.313011616,-0.255547702,0.429820925,-3.00860405
0.799928844,0.417679667,0.2412958,-0.877818584,0.004395648,-0.001558532,0.006038849,-0.352416933,-0.062298402,0.312975824,-0.255535483,0.429817915,-3.008591175
0.804925978,0.416691869,0.240939826,-0.878087878,0.003031299,-0.002595623,0.005552997,-0.35242641,-0.06236292,0.312816232,-0.255529851,0.429809839,-3.008582592
0.809923828,0.416749567,0.240198523,-0.877951324,0.003906636,-0.001454364,0.00573751,-0.352457136,-0.062443268,0.312630177,-0.255509824,0.429805785,-3.008577824
0.814922512,0.419470996,0.240266368,-0.877815068,0.00382262,-0.002633358,0.004681272,-0.352480769,-0.062505089,0.312487006,-0.255501628,0.429798573,-3.008574009
0.819922149,0.419963419,0.239616692,-0.877306104,0.003198442,-0.00196284,0.004711254,-0.352488607,-0.062525585,0.312439561,-0.25549072,0.429802388,-3.008572578
0.824923158,0.417972803,0.241946623,-0.878792465,0.002038307,-0.004104785,0.004371726,-0.352494657,-0.062541358,0.312403023,-0.255492121,0.429784536,-3.008568287
0.829924881,0.416180968,0.241635412,-0.877563,0.002083442,-0.002039945,0.004645734,-0.35260275,-0.062283363,0.31314069,-0.255489677,0.429783911,-3.008555889
0.834921956,0.417052895,0.241369769,-0.877410233,0.00307154,-0.002244792,0.004201352,-0.352685958,-0.06208485,0.313708276,-0.255485326,0.429778695,-3.008538961
0.839919627,0.418207943,0.241613805,-0.877831757,0.003070209,-0.000355356,0.004630318,-0.352713525,-0.062019028,0.313896477,-0.255485266,0.429785639,-3.008525372
0.844918549,0.419983208,0.240790069,-0.87759918,0.002152959,-0.001826153,0.005155102,-0.352734745,-0.061968382,0.314041257,-0.255480587,0.429782987,-3.008509874
0.849918187,0.419704199,0.240988225,-0.876361549,0.001487146,-0.002152653,0.005509493,-0.352684766,-0.061925016,0.313954651,-0.255486608,0.429782003,-3.008498907
0.854918897,0.41916272,0.23985672,-0.875702143,0.001796814,-0.001329057,0.003363566,-0.352588654,-0.061864782,0.313751906,-0.255487025,0.429786623,-3.008494139
0.859920621,0.41987431,0.240585387,-0.87620306,0.001149328,-0.000545324,0.002738359,-0.352556795,-0.061844807,0.313684672,-0.255499661,0.429794848,-3.00849247
0.864917517,0.417282104,0.242530972,-0.876429677,0.000928034,-0.002212682,0.003349921,-0.352532297,-0.061829437,0.313632935,-0.255509764,0.429785311,-3.008476973
0.869915128,0.415929854,0.24136132,-0.877249956,0.002503736,-0.001919767,0.00423152,-0.352524161,-0.06182434,0.313615769,-0.255510807,0.429778337,-3.008472919
0.87491405,0.420075744,0.241993278,-0.876582682,0.00114082,-0.000437897,0.003515392,-0.352772713,-0.062435754,0.312305242,-0.255519271,0.429786742,-3.008476973
0.879919589,0.420969367,0.240535468,-0.876473665,0.001522107,-0.002287969,0.004238123,-0.352855116,-0.062638484,0.311870694,-0.255518615,0.429787576,-3.008476734
0.884920299,0.419285208,0.242201149,-0.875903487,0.00146916,-0.000670464,0.003839459,-0.352918535,-0.062794477,0.311536342,-0.255532324,0.429792374,-3.008481503
0.889922023,0.41910854,0.241429687,-0.874183595,0.002016232,-0.001287688,0.005358173,-0.352939576,-0.062846199,0.311425477,-0.25552994,0.429795593,-3.008478165
0.89491868,0.42003563,0.240949482,-0.8749699,0.003497752,-0.002980557,0.003887034,-0.352759182,-0.062632896,0.31161502,-0.255525142,0.429786295,-3.00847888
0.89991653,0.419030756,0.240621597,-0.875241101,0.002372565,-0.003384959,0.003743031,-0.352650732,-0.062499542,0.311745852,-0.255526245,0.42978251,-3.008478642
0.904915214,0.418574423,0.239549726,-0.876091242,0.001568537,-0.002700629,0.003888497,-0.352567285,-0.062396932,0.311846524,-0.255525649,0.42977649,-3.008479357
0.909914851,0.417670429,0.239173517,-0.876502752,0.001375794,-0.003555814,0.00372707,-0.352539629,-0.062362906,0.311879903,-0.255529374,0.429764628,-3.008482456
0.91491586,0.419093102,0.238280877,-0.875246108,0.001644987,-0.002214763,0.002270009,-0.352631927,-0.062336225,0.311721265,-0.255533338,0.429769546,-3.008496523
0.919917583,0.419266909,0.239103869,-0.875112891,0.000593643,-0.003807181,0.003661324,-0.352777034,-0.062326871,0.311482817,-0.255535781,0.429760516,-3.008493662
0.92491442,0.417997837,0.241606623,-0.876336694,0.002215623,-0.003650461,0.003940684,-0.352888674,-0.062319674,0.311299354,-0.255538464,0.429750502,-3.008493185
0.92991209,0.41699338,0.241391405,-0.876351476,0.002463595,-0.001692738,0.003391494,-0.352925688,-0.062317286,0.311238527,-0.255537957,0.429750115,-3.008492708
0.934910953,0.41760838,0.241144553,-0.876129627,0.000463838,-0.00244014,0.003568656,-0.352954179,-0.062315449,0.311191708,-0.255547315,0.429744989,-3.008497477
0.939911187,0.416763127,0.24145022,-0.878395081,0.002808704,-0.002477152,0.002646757,-0.352713108,-0.062463343,0.312158287,-0.255549073,0.429732561,-3.008497
0.944911897,0.416701049,0.240960971,-0.878311992,0.001150423,-0.002414347,0.003413016,-0.352527618,-0.062577136,0.312902004,-0.255554318,0.429728746,-3.008493662
0.949913859,0.417516023,0.240358815,-0.877142906,0.000534265,-0.001501477,0.005167871,-0.352466106,-0.062614866,0.313148618,-0.255556613,0.429726064,-3.008487463
0.954910994,0.417786121,0.241402835,-0.878935516,0.003164205,-0.002099548,0.00468448,-0.35241878,-0.062643893,0.313338339,-0.255547523,0.429717511,-3.008482933
0.959908843,0.418165177,0.240683302,-0.877486825,0.003106143,-0.002937618,0.004409104,-0.352575064,-0.062619857,0.313564092,-0.255546331,0.429718256,-3.008479834
0.964907527,0.418265313,0.239921153,-0.878493249,0.003050508,-0.001138658,0.004523276,-0.352869213,-0.062567323,0.313902408,-0.255542368,0.429717004,-3.008480549
0.969907224,0.41814667,0.240262941,-0.877523661,0.002568659,-0.000843706,0.005235461,-0.352966726,-0.062549904,0.314014614,-0.255537838,0.429723799,-3.008469582
0.974907875,0.417391598,0.239820138,-0.877260685,0.002218701,-0.001196227,0.004798892,-0.353041768,-0.0625365,0.314100921,-0.255534172,0.429730535,-3.008467197
0.979909658,0.418797702,0.240525156,-0.874288797,0.001822226,-0.000769434,0.003431766,-0.353066653,-0.062532052,0.314129531,-0.255535781,0.429735959,-3.008467674
0.984906495,0.417532951,0.239852399,-0.874816775,0.002791069,-0.001541655,0.00363879,-0.353014052,-0.062804371,0.313716859,-0.255537361,0.4297328,-3.008477688
0.989904404,0.415369898,0.240801096,-0.875006497,0.003227109,-0.002965558,0.003639287,-0.352996618,-0.062894665,0.313580036,-0.255528361,0.429715812,-3.008473873
0.994903028,0.41592893,0.240330145,-0.874695182,0.002563253,-0.001510839,0.004901464,-0.352983236,-0.062964149,0.313474745,-0.255527616,0.429715455,-3.008474588
0.999902725,0.417708218,0.239000127,-0.874800563,0.002757009,-0.001560088,0.004459174,-0.352978766,-0.062987186,0.313439846,-0.255527318,0.429715514,-3.008477449
1.004903913,0.418836981,0.239455566,-0.876917362,0.000761467,-0.001808721,0.002658048,-0.352828145,-0.062608048,0.312608004,-0.255535513,0.429715157,-3.008485079
1.009905696,0.419212371,0.240768015,-0.875066519,0.00113564,-1.45E-05,0.004622194,-0.352741778,-0.062384129,0.312133014,-0.255542845,0.429724276,-3.008477449
1.014908433,0.419480026,0.240874276,-0.87618196,0.001953262,-0.001460531,0.003340496,-0.352675319,-0.062211838,0.311767519,-0.255549699,0.429724514,-3.008478165
1.019906044,0.419180095,0.240105987,-0.876430392,0.00381443,6.32E-05,0.005716591,-0.352653295,-0.062154707,0.311646342,-0.255540103,0.429738879,-3.008472681
1.024904728,0.420468152,0.240050033,-0.876884758,0.001170967,-0.001785781,0.003732622,-0.3525787,-0.062196594,0.311766088,-0.255542189,0.429735541,-3.008475065
1.029904366,0.418422997,0.240660444,-0.876453519,0.000928311,-0.000696322,0.003929961,-0.352495819,-0.062297042,0.3120206,-0.255548418,0.429741979,-3.008469343
1.034905314,0.418483049,0.241063997,-0.878611147,0.002114229,-0.000967924,0.00462694,-0.352432013,-0.062374331,0.312216431,-0.255549103,0.429742992,-3.008471012
1.039907336,0.418016791,0.240684405,-0.8763358,0.000932389,0.000348361,0.003406812,-0.352410883,-0.062399961,0.31228134,-0.255554467,0.429750502,-3.008478642
1.04490447,0.418573946,0.241046667,-0.877572536,0.000898133,-0.002028407,0.0043861,-0.352394611,-0.062419679,0.312331289,-0.255553663,0.429748625,-3.00846839
1.049902081,0.420116544,0.240824148,-0.875703812,0.001806023,-0.000485995,0.004127529,-0.352292269,-0.062319532,0.31309545,-0.255553544,0.429752439,-3.008461475
1.054900765,0.419294208,0.240750507,-0.87401098,0.002055419,-0.000383696,0.005131798,-0.352213532,-0.062242478,0.31368342,-0.255551338,0.429760158,-3.008447409
1.059900641,0.420679569,0.238284081,-0.874283135,0.00172565,-0.00250726,0.002826813,-0.352187425,-0.062216926,0.313878387,-0.255551875,0.429758877,-3.008451939
1.064901352,0.416885912,0.240516394,-0.876009107,0.001635817,-0.001114229,0.00391175,-0.352167338,-0.062197268,0.314028382,-0.255555391,0.429762721,-3.008444309
1.069903135,0.416829616,0.238183543,-0.875663877,0.001179902,-0.002218532,0.004159908,-0.352215618,-0.062224139,0.313466758,-0.255554408,0.429757595,-3.008449793
1.074899673,0.418049902,0.239878088,-0.876051605,0.000331931,-0.003345186,0.003891211,-0.352308333,-0.062278576,0.312416464,-0.255560845,0.429752827,-3.008448362
1.079897642,0.419291675,0.240000322,-0.876358032,1.29E-05,-0.001445857,0.003455501,-0.352339089,-0.062296629,0.312068194,-0.255567163,0.429759979,-3.008447409
1.084896207,0.420392334,0.241308033,-0.878621697,0.00121858,-0.001429903,0.003951819,-0.352362722,-0.062310521,0.311800241,-0.255570948,0.429761171,-3.008447409
1.089896441,0.419809014,0.240334436,-0.87667048,0.001139237,-0.001293463,0.001819843,-0.35237056,-0.062315125,0.311711401,-0.255580127,0.429754913,-3.008459091
1.094897389,0.419327945,0.241957039,-0.875598609,-0.001327376,-0.00255877,0.003005697,-0.352176279,-0.062387314,0.311951667,-0.255601972,0.429743648,-3.008456469
1.09989965,0.416979253,0.242146105,-0.876917541,0.000929604,-0.00249535,0.003652269,-0.352111876,-0.062411252,0.312031329,-0.255607516,0.429737777,-3.008445024
1.104897022,0.41894415,0.241501406,-0.877201438,0.000822873,-0.002109181,0.003787733,-0.352062315,-0.06242967,0.312092632,-0.255616158,0.429735929,-3.008446932
1.109894872,0.417805284,0.239260972,-0.876084805,0.001542054,-0.004282386,0.002076066,-0.352045894,-0.062435776,0.312112957,-0.255614579,0.429721773,-3.008453131
1.114894629,0.41866231,0.240240574,-0.876986921,0.000380646,-0.003958503,0.002886509,-0.352389008,-0.062080059,0.311849892,-0.255621731,0.429712862,-3.008454561
1.119894505,0.419661164,0.238564029,-0.877962112,0.002605726,-0.003045751,0.003903629,-0.352590799,-0.061872926,0.311693698,-0.255612493,0.429708391,-3.00845623
1.124895215,0.419179142,0.239564508,-0.876416206,0.001747465,-0.002125105,0.003108077,-0.35274604,-0.061713547,0.311573535,-0.255614668,0.429704517,-3.008457661
1.129897237,0.418380469,0.240015641,-0.876938343,0.001164143,-0.002214964,0.004099234,-0.352797538,-0.0616607,0.311533689,-0.255616784,0.429699838,-3.008453131
1.134894133,0.417155415,0.240354151,-0.877173901,0.002729673,-0.001878664,0.003777696,-0.35277915,-0.061789647,0.312036663,-0.255612254,0.429699391,-3.008461952
1.139891744,0.417260945,0.240693584,-0.875616133,0.003200492,-0.001683453,0.002032552,-0.352714598,-0.062003434,0.312741578,-0.255614817,0.429694653,-3.008460522
1.144890428,0.416476905,0.240635633,-0.876403272,0.003470007,-0.001754499,0.003027411,-0.352664948,-0.062167928,0.31328401,-0.255610913,0.429695576,-3.008460522
1.149895906,0.415782541,0.239989921,-0.875684202,0.002159059,-0.002461182,0.002846488,-0.352648467,-0.062222473,0.313463867,-0.255613744,0.429682225,-3.008460045
1.154896855,0.417768627,0.240249276,-0.877702773,0.001243027,-0.003140913,0.003656827,-0.352635801,-0.062264442,0.313602239,-0.255616158,0.429673791,-3.008455276
1.159898877,0.419650644,0.240327612,-0.878349245,0.002758902,-0.003694899,0.003247055,-0.352579325,-0.062237453,0.31266138,-0.255615413,0.429667562,-3.008464336
1.164896011,0.418578029,0.240474686,-0.877589583,0.003195562,-0.003433508,0.004007578,-0.352535903,-0.062216684,0.311937451,-0.255604655,0.429658741,-3.008466244
1.169894099,0.418159544,0.239707664,-0.876726866,0.004020617,-0.00362148,0.004053803,-0.352521509,-0.062209796,0.311697423,-0.255593359,0.429644763,-3.008471251
1.174892783,0.418408006,0.240436867,-0.877701402,0.002582722,-0.002766142,0.003216696,-0.352510422,-0.062204499,0.311512709,-0.25558883,0.429641843,-3.008472919
1.179892421,0.417934269,0.24036029,-0.87730068,0.003329572,-0.002257514,0.003908374,-0.352480501,-0.062168308,0.312116653,-0.25558573,0.429632306,-3.008474112
1.184893489,0.416864842,0.241222635,-0.877964735,0.003460961,-0.002743855,0.003376626,-0.35243091,-0.062105648,0.313253969,-0.255578369,0.429623753,-3.008471727
1.189895153,0.415193141,0.243540749,-0.877228737,0.003835658,-0.001965278,0.00284182,-0.352414459,-0.062084872,0.313631088,-0.255576462,0.429609835,-3.0084548
1.194892049,0.415007532,0.241703048,-0.877900541,0.00520656,-0.001767686,0.002954917,-0.352401823,-0.062068883,0.313921243,-0.25556618,0.429601252,-3.008455992
1.19988966,0.41713205,0.240831152,-0.877431333,0.002844207,-0.003290707,0.003979065,-0.352397621,-0.062063582,0.314017445,-0.25556004,0.429586679,-3.008440018
1.204888821,0.417256743,0.24184984,-0.876883447,0.002736132,-0.00275747,0.003301537,-0.351855129,-0.062216461,0.312835872,-0.255554199,0.42958039,-3.008435249
1.209888458,0.418742537,0.240755707,-0.876360714,0.002548574,-0.001261334,0.004612842,-0.351675242,-0.062267151,0.312444091,-0.255546391,0.42958346,-3.008430958
1.214889526,0.417615056,0.241425276,-0.877432466,0.003096181,-0.004394189,0.003437774,-0.35153684,-0.062306155,0.31214264,-0.25554207,0.429561257,-3.00842905
1.219891429,0.417906344,0.242224842,-0.877872705,0.00249843,-0.003641112,0.003891628,-0.351490945,-0.062319089,0.312042683,-0.255543381,0.429555863,-3.008418083
1.224888325,0.417268664,0.242034048,-0.875720739,0.003510068,-0.001028606,0.002538498,-0.351608574,-0.062173042,0.312013894,-0.255545139,0.429548562,-3.00841713
1.229885936,0.418628633,0.240907967,-0.875572026,0.003452387,-0.001806179,0.002498,-0.351685405,-0.062086016,0.312016249,-0.255538642,0.429545462,-3.00841713
1.23488462,0.418004692,0.240263432,-0.876262903,0.002593836,-0.004117385,0.00319801,-0.351744533,-0.062019054,0.312018067,-0.255536586,0.429526478,-3.008415461
1.239884496,0.417712092,0.238070071,-0.877447009,0.003361704,-0.00426014,0.003516644,-0.351764113,-0.061996851,0.312018663,-0.255519748,0.429518968,-3.008423805
1.244885206,0.418043733,0.238742054,-0.877294481,0.002981621,-0.003130732,0.002590872,-0.351922035,-0.062031392,0.312395513,-0.255519271,0.429500759,-3.00843215
1.24988699,0.418494403,0.239311442,-0.875101388,0.000318961,-0.004644521,0.001671077,-0.352118433,-0.062094901,0.312900007,-0.255535275,0.429489046,-3.008435249
1.254883885,0.419489413,0.238799572,-0.876737893,0.000872639,-0.002572771,0.000267741,-0.35226956,-0.062143765,0.313288182,-0.255547732,0.429489672,-3.008455515
1.259881735,0.418923706,0.238647535,-0.876892447,-2.07E-05,-0.004518549,0.002834101,-0.352319658,-0.062159967,0.313416868,-0.255562156,0.429471701,-3.008457422
1.264880657,0.415929139,0.241578251,-0.875686705,0.000818582,-0.003055545,0.000798486,-0.352358222,-0.062172431,0.313515902,-0.255573571,0.429456085,-3.008454084
1.269880533,0.41678673,0.239605784,-0.876206636,-0.001318062,-0.004680646,0.000923951,-0.352471679,-0.062173769,0.313644499,-0.25559026,0.429439008,-3.008467436
1.274881244,0.418171316,0.240673497,-0.875879109,-0.001848217,-0.003493176,0.000271512,-0.352559,-0.062174797,0.313743442,-0.255607992,0.429429173,-3.008474112
1.279883027,0.417168945,0.240906626,-0.877788484,-0.002087405,-0.004066239,0.001660394,-0.352587968,-0.06217514,0.313776255,-0.255633473,0.4294101,-3.008477211
1.284885764,0.418311626,0.241180658,-0.875861704,-0.001354372,-0.003299319,0.000577707,-0.35261023,-0.062175401,0.313801497,-0.255657196,0.429396898,-3.008478403
1.289883614,0.417431086,0.241426483,-0.876710176,-0.002131977,-0.002739728,0.002033295,-0.352443486,-0.062299006,0.313301653,-0.255678236,0.429387122,-3.008480072
1.294882536,0.416297704,0.240874186,-0.87673074,0.000847011,-0.001737514,0.002660119,-0.352139086,-0.062519006,0.312403172,-0.255685985,0.429386109,-3.008497953
1.29988277,0.41772148,0.241567135,-0.877318084,0.000718736,-0.002347714,0.002810744,-0.352038145,-0.062591955,0.312105238,-0.25569734,0.429383993,-3.008495569
1.304883957,0.415421695,0.24343197,-0.878138185,0.001349723,-0.000899059,0.00260712,-0.35196048,-0.062648088,0.311876029,-0.255708992,0.429377615,-3.008510828
1.30988574,0.414664656,0.243944257,-0.877060354,0.001323887,0.000186979,0.003290535,-0.351934731,-0.062666699,0.311800033,-0.255724728,0.429381609,-3.008506298
1.314882517,0.416808009,0.242926762,-0.876716495,0.001171727,-0.00067414,0.005336614,-0.352385998,-0.062594682,0.312809616,-0.255723834,0.429389,-3.0084939
1.319880247,0.418399215,0.24179621,-0.878721476,0.001531567,-0.001046294,0.004810032,-0.352535635,-0.062570803,0.313144386,-0.255721301,0.429390013,-3.008490324
1.32487905,0.417834193,0.240808353,-0.876409352,0.003669191,0.001152216,0.004309243,-0.352650762,-0.06255243,0.313401937,-0.255713969,0.429403007,-3.008486986
1.329878807,0.417263001,0.242013067,-0.877574265,0.002031132,-0.000501898,0.004353502,-0.352688938,-0.062546335,0.313487321,-0.255708367,0.429408997,-3.008477688
1.334879756,0.417658508,0.242543474,-0.877058148,0.003014763,-0.000354379,0.007301274,-0.352617055,-0.062449113,0.312752396,-0.255700797,0.429412931,-3.008462906
1.339882255,0.417769611,0.246341243,-0.876636505,0.006253945,0.002010822,0.006440519,-0.352568179,-0.062393978,0.312310606,-0.255685419,0.429429471,-3.008427143
1.344880104,0.422750413,0.230942279,-0.878992856,0.003162229,0.000715502,0.005047421,-0.352530599,-0.062351558,0.311970681,-0.25565967,0.429456353,-3.008468866
1.349877715,0.422951102,0.231130242,-0.876903117,-0.000426802,-0.000277378,0.004977286,-0.352518111,-0.062337492,0.311857969,-0.255653977,0.42947036,-3.008491993
1.354876399,0.419204056,0.239184484,-0.874850571,-0.00173395,-0.000779559,0.00121735,-0.352509558,-0.062350694,0.312304407,-0.255675286,0.429474056,-3.008498669
1.359876037,0.418982148,0.241707802,-0.874846756,-0.001029484,-0.001573607,-0.000214868,-0.35250783,-0.062379301,0.312990069,-0.255708754,0.429469138,-3.008509636
1.364877105,0.420872778,0.24085325,-0.874670088,0.000326252,-0.001852983,0.002085268,-0.352506489,-0.06240131,0.31351763,-0.255718559,0.429473281,-3.008504391
1.369878769,0.419418365,0.24133864,-0.873845041,-0.000770565,-0.002005854,0.00129279,-0.352506071,-0.062408611,0.31369257,-0.255739361,0.429469615,-3.008509159
1.374875903,0.41960597,0.239903584,-0.875524879,-0.000190484,-0.003310045,0.001716443,-0.352505714,-0.062414225,0.313827187,-0.255750626,0.429460108,-3.008512974
1.379873991,0.419239849,0.241472006,-0.876911461,0.000663426,-0.004181927,0.000897647,-0.352703035,-0.062472086,0.312891006,-0.255762875,0.42944932,-3.008533001
1.384872913,0.417104661,0.24163723,-0.876791656,-0.000202623,-0.003761689,0.001433227,-0.352854878,-0.062516607,0.312170684,-0.255778998,0.429431915,-3.008545399
1.389872909,0.417469233,0.241877377,-0.876779616,0.001197256,-0.004677285,0.002073976,-0.352905214,-0.062531367,0.311931849,-0.255782366,0.429416835,-3.008543491
1.394873619,0.41620785,0.241686642,-0.878631413,-0.000123643,-0.002937967,0.003090109,-0.352943987,-0.062542722,0.311748087,-0.255801111,0.429401249,-3.008555412
1.399875283,0.417083144,0.241134241,-0.877990425,-0.000882093,-0.003296932,0.001300801,-0.352758229,-0.062602058,0.312350005,-0.255815148,0.42938441,-3.008564234
1.404872179,0.417192847,0.241510257,-0.87795198,-0.000363947,-0.001586854,0.003619117,-0.352414429,-0.062703893,0.313483387,-0.255824357,0.429388583,-3.008560181
1.409870028,0.417237669,0.240240291,-0.879732907,-0.000882169,7.33E-05,0.003564418,-0.352300435,-0.062737666,0.313859195,-0.255841255,0.429388821,-3.008570671
1.414868712,0.416840792,0.24090822,-0.879237533,0.000132088,-0.001157261,0.004586681,-0.352212727,-0.062763646,0.314148337,-0.255853474,0.429388851,-3.008561134
1.419874549,0.417980105,0.240593508,-0.87811017,-0.001697836,-0.000244476,0.002434507,-0.35218364,-0.062772267,0.314244211,-0.255872875,0.42939344,-3.008572817
1.424875498,0.417051911,0.242012769,-0.878612101,-0.002197557,0.000223678,0.003899893,-0.352160662,-0.062587447,0.313068926,-0.255898446,0.429398715,-3.008572817
1.42987752,0.416980535,0.242486596,-0.878190994,-0.00062676,0.001668468,0.003825045,-0.352153063,-0.062526166,0.312679201,-0.255916387,0.429417014,-3.008578539
1.434874415,0.41620183,0.242966682,-0.877592146,-0.000575096,0.001532297,0.004143177,-0.352147192,-0.062479012,0.31237933,-0.255936086,0.429424405,-3.00857234
1.439872265,0.416828901,0.242354795,-0.878021657,-0.002112874,0.002729232,0.003735448,-0.352145255,-0.062463373,0.31227991,-0.255962759,0.429441154,-3.008582592
1.444871426,0.41636914,0.240784258,-0.879122317,-0.0008401,0.003381265,0.003619164,-0.352796406,-0.062439568,0.312122107,-0.255975932,0.429466039,-3.008594513
1.449871302,0.417536139,0.241836593,-0.877091348,-0.001188057,0.00112861,0.004204484,-0.353173792,-0.062428765,0.312049687,-0.255996525,0.42947489,-3.008593559
1.45487237,0.415931731,0.243030414,-0.877814531,-0.001357789,0.003909629,0.004940214,-0.353464186,-0.06242045,0.311993957,-0.256017357,0.429501981,-3.008587837
1.459874272,0.418147832,0.241218433,-0.877198875,0.000235951,0.003968365,0.005293246,-0.353560477,-0.062417693,0.311975479,-0.256029189,0.429521918,-3.008591175
1.464871168,0.415848255,0.241011381,-0.876643598,0.000634837,0.002260015,0.0037527,-0.353405356,-0.062478509,0.311877578,-0.256038874,0.42954129,-3.008597612
1.469869018,0.414580762,0.248033062,-0.875334501,0.001673553,0.002688481,0.00823844,-0.353122801,-0.06256213,0.311760753,-0.256046861,0.429565132,-3.00855732
1.474867702,0.418100059,0.241711631,-0.874601126,0.004167261,0.003985278,0.006020689,-0.352905422,-0.062626474,0.31167087,-0.256036699,0.429590285,-3.008553505
1.479867697,0.423698217,0.230826676,-0.877751887,0.00186425,0.002960945,0.008003181,-0.352833331,-0.062647812,0.311641067,-0.256011546,0.429628164,-3.008584499
1.484868646,0.42203173,0.235079244,-0.877680719,-0.000698192,0.001158174,0.003655644,-0.352777869,-0.062664226,0.311618119,-0.256017357,0.429644942,-3.008607388
1.48987031,0.418452054,0.240285948,-0.876152754,-0.001510627,0.002377531,0.001079792,-0.352209091,-0.062673502,0.312350541,-0.256051511,0.429659814,-3.008619785
1.494867206,0.417659461,0.242553294,-0.876849234,-0.000812497,0.001693584,0.003174523,-0.351771474,-0.062680632,0.312914103,-0.256067038,0.429676563,-3.008615017
1.499864817,0.417046815,0.242959574,-0.875102878,-0.001239849,0.001981565,0.002645718,-0.351626366,-0.062682994,0.313100964,-0.256095052,0.429691076,-3.008616686
1.504863739,0.41914469,0.243713364,-0.876791358,-4.84E-05,0.002855256,0.002722579,-0.351514727,-0.062684819,0.31324476,-0.25610885,0.429716855,-3.008611679
1.509863377,0.420979679,0.239955246,-0.876642942,0.000244716,0.001205907,0.004173242,-0.351675898,-0.062713869,0.31292358,-0.256113559,0.429737687,-3.008611917
1.514864326,0.417963207,0.24003455,-0.875186443,0.000191703,0.000932117,0.004633841,-0.352000326,-0.06276498,0.312303543,-0.256121814,0.429746479,-3.008616447
1.519866586,0.416591763,0.247389272,-0.875844598,0.001582485,0.001969625,0.005662828,-0.352107912,-0.06278193,0.312097937,-0.25614059,0.429760873,-3.008586645
1.524864197,0.417925626,0.23992908,-0.877383351,0.001724059,0.001849127,0.005555424,-0.352190673,-0.062794968,0.311939746,-0.256136209,0.429784566,-3.008590698
1.529862165,0.421257764,0.235476762,-0.877764344,0.001856844,0.001652148,0.006267678,-0.352218121,-0.06279929,0.311887294,-0.256123543,0.42980659,-3.008606911
1.534861088,0.419340193,0.240956098,-0.877974153,0.000783751,0.002068435,0.003926074,-0.352510184,-0.062655382,0.312598675,-0.25613299,0.429822862,-3.008608818
1.539860725,0.417466611,0.242143586,-0.877232969,-0.000695392,0.001557124,0.003242682,-0.352607012,-0.062607661,0.312834561,-0.25615871,0.429831952,-3.008615732
1.544861674,0.415783376,0.242000923,-0.875490785,0.00058284,0.002140181,0.004658492,-0.352681518,-0.062570952,0.313016027,-0.256162941,0.429846704,-3.008611202
1.549863696,0.415525436,0.244062692,-0.875475883,0.000938003,0.002105016,0.004252264,-0.352706224,-0.062558778,0.313076228,-0.256179661,0.429860741,-3.00859642
1.554866672,0.416894287,0.24182114,-0.876487911,0.000284663,0.001796956,0.003968711,-0.352776021,-0.062497985,0.313076019,-0.256187022,0.429875553,-3.008598566
1.559864521,0.419057786,0.240368858,-0.877968311,0.001415164,0.002969177,0.00376541,-0.352811754,-0.062465101,0.313064426,-0.256193072,0.429900229,-3.008601665
1.564863205,0.416889191,0.2439529,-0.87792033,0.002545929,0.001973962,0.005979304,-0.352839231,-0.062439796,0.313055515,-0.256194651,0.429911852,-3.008585453
1.569862962,0.419657618,0.240491882,-0.878360927,0.003229747,0.003610382,0.003739491,-0.352848351,-0.062431406,0.313052565,-0.256189674,0.42993927,-3.008589268
1.574863672,0.421962559,0.237273693,-0.876424789,-0.000330839,0.002539457,0.004937351,-0.352797955,-0.062454712,0.313076138,-0.256189406,0.429962635,-3.008590698
1.579865575,0.418628961,0.241064444,-0.876403391,0.000641893,0.000425489,0.002565288,-0.35272342,-0.062492441,0.313110054,-0.256195784,0.42996788,-3.008595705
1.584862471,0.418683738,0.243630856,-0.876350641,0.000290288,0.002843853,0.004717632,-0.35266605,-0.062521473,0.31313616,-0.256215274,0.429986358,-3.008586407
1.58986032,0.418075562,0.246572867,-0.876803279,0.00322451,0.002095563,0.005795585,-0.352647036,-0.062531099,0.313144803,-0.256221026,0.430001676,-3.008558512
1.594859004,0.418597132,0.240543231,-0.876874566,0.00145115,0.003682937,0.003246232,-0.352632403,-0.062538505,0.313151449,-0.256223977,0.430025995,-3.00857091
1.599858999,0.421691388,0.234166563,-0.879793704,0.001219729,-0.000321687,0.003769898,-0.352726281,-0.062544592,0.312545687,-0.256209016,0.430036664,-3.008599997
1.604860187,0.418035626,0.24530451,-0.877399266,0.001383419,0.001626616,0.003791887,-0.352798522,-0.062549271,0.312079579,-0.256228685,0.43005079,-3.008586884
1.609862089,0.419265479,0.245536178,-0.872195482,0.00279712,0.001863386,0.001409722,-0.352822483,-0.06255082,0.311925024,-0.256244302,0.430067301,-3.008588791
1.614859223,0.421606958,0.234715685,-0.879063189,0.001111349,0.002256957,0.00388233,-0.3528409,-0.06255202,0.311806142,-0.25623697,0.430088162,-3.008626938
1.619857192,0.416603059,0.245991305,-0.875999808,0.002450466,0.000415945,0.004110141,-0.352875829,-0.062578566,0.312007368,-0.256242335,0.430091858,-3.008598089
1.624856353,0.418604881,0.243717894,-0.875509799,0.003063874,0.001570367,0.000406404,-0.352931798,-0.062625445,0.312405527,-0.25624907,0.4301081,-3.008610487
1.62985599,0.420103937,0.234906599,-0.879321814,0.000863636,-0.000232406,0.003800354,-0.352950364,-0.062640987,0.312537551,-0.256239772,0.430116385,-3.008646011
1.634856701,0.418172926,0.246970162,-0.875381291,0.001381926,-0.000726229,0.003059688,-0.35296464,-0.062652946,0.312639117,-0.256262422,0.430111557,-3.008613825
1.639858484,0.419578403,0.241634563,-0.877915382,0.002188627,-3.78E-05,-4.45E-05,-0.352969378,-0.062656909,0.312672794,-0.256270766,0.430121899,-3.008644819
1.644855261,0.418949723,0.237526596,-0.876983106,0.002082722,-0.001206108,0.00486304,-0.352844119,-0.062453996,0.313317329,-0.256257147,0.430122197,-3.008650303
1.64985323,0.419223279,0.245436639,-0.874996901,0.002609277,-0.000510237,0.003271874,-0.352802575,-0.062386714,0.313531041,-0.256272227,0.43012616,-3.008625746
1.654852152,0.419086426,0.238085419,-0.87889421,0.00089753,0.000975146,0.002121923,-0.352770627,-0.062334944,0.313695461,-0.256276727,0.430136502,-3.008654594
1.659851789,0.417419046,0.239532813,-0.8756302,-0.000352978,-0.001284639,0.004070166,-0.352760017,-0.062317781,0.313749999,-0.256287217,0.43013981,-3.008657217
1.6648525,0.414320469,0.249326602,-0.87512219,0.00230769,0.000675383,0.00322687,-0.352896929,-0.062514201,0.312811852,-0.256312132,0.4301337,-3.008633137
1.669854164,0.415062338,0.243090168,-0.877493978,0.00116467,0.000654912,0.002952737,-0.35297823,-0.062631205,0.312258244,-0.256319225,0.430142164,-3.008648157
1.67485106,0.418199897,0.237520397,-0.879129827,0.003608546,0.000382234,0.005098047,-0.353040785,-0.06272123,0.311832279,-0.256292999,0.430149645,-3.008659363
1.679848671,0.417375803,0.243993491,-0.876882851,0.002337826,0.001991037,0.002026288,-0.353061527,-0.062751077,0.311691046,-0.256305963,0.430156112,-3.008667231
1.684847832,0.41737929,0.244830281,-0.87893188,0.003815361,0.001203893,0.004354773,-0.352991015,-0.062861413,0.311688274,-0.256313473,0.43017143,-3.008666039
1.689853668,0.416467518,0.243339822,-0.876813054,0.002398942,0.002577159,0.006971797,-0.352880448,-0.062986098,0.311794132,-0.256315589,0.430195242,-3.008660316
1.694854617,0.416868746,0.245154619,-0.877208948,0.004640055,0.004745381,0.005077985,-0.352795362,-0.063082032,0.311875582,-0.256307244,0.430222452,-3.008656025
1.6998564,0.418172479,0.241289437,-0.878370881,0.005144517,0.002960728,0.004546669,-0.35276714,-0.063113846,0.311902612,-0.256290853,0.430241466,-3.008669853
1.704853535,0.418893695,0.240987301,-0.876567006,0.005744033,0.003419996,0.006752009,-0.352745444,-0.063138321,0.311923385,-0.256262988,0.430274338,-3.008663654
1.709851146,0.421171397,0.241257146,-0.875474274,0.00661759,0.002157309,0.006919468,-0.352892071,-0.062890388,0.311789602,-0.256235212,0.430300355,-3.008651972
1.714850307,0.419985384,0.23913677,-0.876057744,0.006157503,0.002302263,0.006636192,-0.353004903,-0.062699623,0.311686665,-0.256208271,0.430326849,-3.008644581
1.719849944,0.419971347,0.238740742,-0.877561271,0.005240039,0.001610216,0.007587095,-0.353042305,-0.062636368,0.311652541,-0.256181896,0.430344909,-3.008640766
1.724850893,0.422682762,0.240775183,-0.876777053,0.005302331,0.000570425,0.007727303,-0.353071094,-0.062587701,0.311626285,-0.256160825,0.430370003,-3.008623838
1.729852676,0.420278519,0.241681769,-0.875319839,0.003682961,0.001535908,0.004712315,-0.353165388,-0.062627696,0.311619848,-0.256162733,0.430385768,-3.0086236
1.734849572,0.419988722,0.240964457,-0.875176549,0.005663174,-0.000985153,0.004795102,-0.353323638,-0.062715232,0.311617196,-0.256133378,0.430387646,-3.008619308
1.739847422,0.419941545,0.238864556,-0.875271499,0.003618816,-0.000772752,0.005170388,-0.35337612,-0.06274426,0.311616331,-0.256120056,0.430395871,-3.008627415
1.744846106,0.418910682,0.238821551,-0.877758503,0.005354743,-0.001249077,0.003755188,-0.353416502,-0.062766597,0.311615676,-0.256096184,0.430398822,-3.008639336
1.749845743,0.420270234,0.238785222,-0.876685023,0.005654918,-0.000280365,0.003852591,-0.353429884,-0.062774003,0.311615467,-0.256079316,0.430401415,-3.008649588
1.754846454,0.419404805,0.239871368,-0.876777411,0.00434219,-0.002332553,0.006148572,-0.352909893,-0.062520139,0.31153968,-0.256061226,0.43040067,-3.008633852
1.759848475,0.422383428,0.240575686,-0.876126051,0.004026473,-0.002227606,0.003897125,-0.352737486,-0.062435962,0.311514556,-0.25605613,0.430405349,-3.008635283
1.764845371,0.421811312,0.2377491,-0.877302468,0.002093614,-0.003252051,0.003839256,-0.352604806,-0.062371194,0.311495245,-0.2560426,0.430406243,-3.008642912
1.769843698,0.420989394,0.239901349,-0.876986265,0.002217865,-0.003214988,0.002127538,-0.352560818,-0.062349718,0.311488837,-0.256045401,0.430398673,-3.008653164
1.774842381,0.418944478,0.239688665,-0.875250459,0.002714048,-0.00372358,0.003885795,-0.352777332,-0.062330909,0.311207265,-0.256036013,0.430388689,-3.008647919
1.779842615,0.420405656,0.242203102,-0.878211319,5.16E-05,-0.002093202,0.00268732,-0.352911055,-0.062324107,0.311045408,-0.25605458,0.430384457,-3.00865078
1.784843206,0.41886583,0.241460115,-0.874454379,0.001613915,-0.004113246,0.0050172,-0.353013933,-0.062318873,0.310920864,-0.256049335,0.430366993,-3.008635759
1.789845228,0.419534147,0.242192253,-0.876942933,0.00325743,-0.006492225,0.005007314,-0.353048056,-0.06231714,0.310879588,-0.25604412,0.430343032,-3.008622885
1.794842124,0.418733299,0.240498602,-0.87666142,0.002816709,-0.005599188,0.005179277,-0.353018045,-0.062286794,0.310979605,-0.256037235,0.430325568,-3.008616686
1.799840212,0.420259476,0.24221161,-0.877447665,0.002343258,-0.005494555,0.005852738,-0.352951348,-0.062247477,0.311145663,-0.256029993,0.43031612,-3.008598804
1.804839373,0.418646395,0.240744442,-0.8764081,0.002122552,-0.007510753,0.006019318,-0.352900028,-0.062217224,0.311273426,-0.256019503,0.430288017,-3.008576155
1.809839845,0.418939769,0.240314201,-0.875439525,0.003406038,-0.007432634,0.005670156,-0.352883011,-0.062207196,0.311315805,-0.256010324,0.430266708,-3.008564234
1.814840794,0.417597473,0.239404276,-0.876409829,0.00368256,-0.00710312,0.004052946,-0.352869898,-0.062199477,0.311348438,-0.256001264,0.430238247,-3.008558512
1.819843054,0.419021547,0.239495769,-0.876781225,0.0052264,-0.007428661,0.00637607,-0.352864265,-0.062395304,0.311924487,-0.255974919,0.430214822,-3.008543968
1.824846387,0.418535858,0.239701733,-0.876752913,0.004209857,-0.007418047,0.00645389,-0.352859944,-0.062545978,0.312367707,-0.255955875,0.430193692,-3.008523464
1.829844475,0.418129295,0.237744376,-0.876774848,0.002344684,-0.007207847,0.005488236,-0.352858514,-0.062595941,0.312514693,-0.255943537,0.43016088,-3.008523464
1.834843159,0.416782528,0.238836884,-0.877688766,0.001657505,-0.006762614,0.005404733,-0.352857411,-0.062634386,0.312627792,-0.255934447,0.430136889,-3.008512974
1.839842796,0.418852895,0.239019021,-0.877358258,-0.001291007,-0.005186091,0.004222266,-0.352884859,-0.062731564,0.312853277,-0.255941987,0.43012166,-3.008508205
1.844843745,0.419020593,0.238352627,-0.878368676,-0.002255664,-0.007051202,0.005383047,-0.352934152,-0.062891714,0.313216865,-0.255948722,0.430090696,-3.008500099
1.849845767,0.41916886,0.239526153,-0.877157211,-0.001701577,-0.006174494,0.004053602,-0.352950484,-0.062944815,0.313337415,-0.255963415,0.430068851,-3.008497715
1.854842901,0.416292101,0.239623874,-0.876219809,-0.002863743,-0.00485447,0.004078458,-0.35296303,-0.062985666,0.31343016,-0.255984843,0.430050135,-3.008502007
1.859840989,0.417429835,0.240872949,-0.877670348,-0.002028245,-0.00499384,0.003742523,-0.352967203,-0.062999219,0.313460916,-0.255999506,0.430031359,-3.008497715
1.864839911,0.416980505,0.244171575,-0.876987338,-0.002749914,-0.004016071,0.004017447,-0.352977037,-0.062536336,0.313479364,-0.256029487,0.430013955,-3.008477449
1.869839668,0.415410608,0.244663164,-0.876671076,-0.002375174,-0.005152151,0.004428499,-0.352980286,-0.062382851,0.313485503,-0.256049991,0.42998904,-3.008449793
1.874840617,0.416172177,0.241668224,-0.877822757,-0.001541895,-0.003475018,0.004729412,-0.352982789,-0.062264755,0.313490182,-0.256066322,0.429972738,-3.008446217
1.87984252,0.416119158,0.24309139,-0.877378881,-5.29E-05,-0.003298724,0.004587513,-0.352983624,-0.062225599,0.313491762,-0.256074607,0.429961413,-3.008424759
1.884839654,0.418220699,0.244793415,-0.876126409,-0.00033174,-0.001809858,0.005924131,-0.352824986,-0.062663622,0.31269756,-0.25609079,0.429959595,-3.00840354
1.889837623,0.418010443,0.24453108,-0.875609636,-0.000998495,-0.002373803,0.00587275,-0.352732986,-0.062924713,0.312237412,-0.256109625,0.429961681,-3.00839448
1.894836426,0.417138994,0.245312124,-0.87493211,0.000363029,-0.002950589,0.007668579,-0.352662146,-0.063125603,0.31188333,-0.256120682,0.429952264,-3.008362293
1.899836183,0.42267257,0.241168723,-0.877770782,0.001014851,-0.001417148,0.007475632,-0.352638692,-0.063192211,0.311765939,-0.25611788,0.429960549,-3.00835681
1.904836893,0.419796556,0.240980312,-0.873887718,-0.00062472,-0.003608485,0.007495176,-0.352594763,-0.063069917,0.311753064,-0.256125271,0.429963827,-3.008338451
1.909838796,0.416564405,0.244295239,-0.876262486,0.001232354,-0.003074469,0.006131755,-0.352554083,-0.062854357,0.311826915,-0.256130666,0.429950088,-3.008320808
1.91483593,0.414020419,0.241877005,-0.873979867,0.002578957,-0.002259966,0.006998066,-0.35252282,-0.062688492,0.311883748,-0.25612697,0.429946572,-3.008297205
1.919833899,0.418284297,0.241576418,-0.874402165,0.001661521,-0.003169924,0.006466274,-0.352512449,-0.062633492,0.311902583,-0.256121069,0.429941773,-3.008272171
1.924832463,0.418288857,0.241898254,-0.874367893,0.002607865,-0.003694412,0.006274045,-0.352504462,-0.06259118,0.311917067,-0.256120622,0.429934114,-3.008261442
1.92983222,0.418813467,0.239607006,-0.876791716,0.002147735,-0.00401852,0.005529722,-0.35245043,-0.06267903,0.312015861,-0.25610137,0.429926455,-3.00824976
1.934832931,0.418615997,0.239960998,-0.875514805,0.002727436,-0.004117349,0.00527827,-0.352408856,-0.062746622,0.312091887,-0.256089211,0.429913998,-3.008240938
1.939834833,0.418965459,0.241704628,-0.87706542,0.002505935,-0.003752695,0.006545698,-0.352395058,-0.06276904,0.3121171,-0.256079733,0.429901898,-3.008226395
1.944831967,0.418135881,0.241934776,-0.875919998,0.001673144,-0.005645378,0.003147428,-0.352384448,-0.062786289,0.312136501,-0.256084889,0.429882646,-3.008229494
1.949830174,0.418307573,0.240577266,-0.876173615,0.000448799,-0.002895101,0.003616763,-0.352466732,-0.062734507,0.311930776,-0.256087691,0.429877579,-3.008235455
1.954828858,0.419125468,0.239786744,-0.876757801,-0.000892844,-0.003582703,0.004144188,-0.352616787,-0.062636524,0.311558008,-0.256099194,0.429873854,-3.00824213
1.959834933,0.419135332,0.240991652,-0.877529383,-0.000704972,-0.003295792,0.002485097,-0.352666527,-0.06260404,0.311434418,-0.256117105,0.429861546,-3.008247375
1.964835882,0.417612702,0.238759115,-0.877406776,-0.001196853,-0.002823355,0.000803692,-0.352704823,-0.062579043,0.311339289,-0.256134331,0.429845482,-3.008274317
1.969837785,0.418773413,0.239717945,-0.876170039,-0.001604559,-0.002894152,0.002320309,-0.352717519,-0.062570751,0.311307758,-0.256155461,0.429835737,-3.008281469
1.974834919,0.417704165,0.241888568,-0.876895547,-0.002879987,-0.003977138,0.00175273,-0.3526645,-0.062552564,0.312716067,-0.256189078,0.429819465,-3.008283377
1.979832888,0.416413099,0.240599021,-0.877711773,-0.001927624,-0.003709075,0.003506691,-0.352646917,-0.062546529,0.313183039,-0.256203443,0.429804504,-3.008281708
1.984831691,0.418900818,0.240017816,-0.877109945,-0.002483312,-0.001624353,0.002911762,-0.352633387,-0.062541887,0.313542336,-0.256227434,0.429807395,-3.00828743
1.989831686,0.418802708,0.240808949,-0.87814635,-0.002913404,-0.001950412,0.001751095,-0.352628887,-0.062540352,0.313661486,-0.256254286,0.429805517,-3.008297443
1.994832397,0.418301672,0.239550903,-0.875383854,-0.002579748,0.000145854,0.000702505,-0.352870792,-0.062796012,0.312963247,-0.256285816,0.429808825,-3.008321285
1.999834418,0.418087602,0.242120191,-0.878286064,-0.004558111,-0.002645001,0.002786668,-0.353011698,-0.062944345,0.312536269,-0.256325871,0.429799139,-3.008333921
2.004831791,0.417465746,0.243141025,-0.875563264,-0.003498442,-0.000669571,0.002244882,-0.353120148,-0.063058473,0.312207729,-0.256367832,0.429800153,-3.008342505
2.009829283,0.41760692,0.241289437,-0.876870453,-0.004189731,-0.00166499,0.001072559,-0.35315609,-0.063096315,0.312098771,-0.256403267,0.429801345,-3.008358002
2.014828205,0.415695101,0.240624025,-0.878151119,-0.00309231,0.001473985,0.002279548,-0.352984965,-0.063043825,0.311876923,-0.256428808,0.429803371,-3.008378267
2.019828081,0.419861883,0.240277231,-0.880222678,-0.003644351,0.000321586,0.003344805,-0.352727741,-0.062944129,0.311664224,-0.256455958,0.42981565,-3.008386612
2.024828911,0.417084664,0.241235897,-0.874867916,-0.004105475,-0.000540209,0.002468242,-0.352529824,-0.062867418,0.311500549,-0.256496906,0.429816455,-3.008400917
2.029830933,0.41629374,0.243876532,-0.87617445,-0.003995116,-0.00043189,0.004110761,-0.352464199,-0.062841982,0.311446279,-0.256528705,0.429821491,-3.008393764
2.034827948,0.416067183,0.241998777,-0.878237724,-0.004457027,0.002101484,0.002729274,-0.352413714,-0.062822416,0.311404496,-0.256573021,0.429834902,-3.008409739
2.039826393,0.418162227,0.240755275,-0.87814033,-0.00507381,0.001412187,0.004814908,-0.352648079,-0.062811069,0.311395466,-0.256605268,0.429850608,-3.008413792
2.044825315,0.417553723,0.241793305,-0.875743628,-0.005748071,0.002875498,0.003268823,-0.352828413,-0.062802337,0.311388552,-0.256650895,0.429869115,-3.008420944
2.049824953,0.41828981,0.240590572,-0.878965795,-0.005537323,0.003134747,0.005750285,-0.352888197,-0.062799446,0.311386257,-0.256684065,0.429889858,-3.008433342
2.054826021,0.421397597,0.239283815,-0.877527952,-0.00680946,0.003261933,0.004535087,-0.352934211,-0.062797219,0.311384499,-0.25672543,0.429923058,-3.008449793
2.059828281,0.415555537,0.24300465,-0.875292242,-0.004904255,0.003358826,0.003830536,-0.353007644,-0.062736616,0.311490953,-0.256765872,0.429936051,-3.008445978
2.064825296,0.419123501,0.241064444,-0.879801452,-0.005622766,0.004006285,0.004788043,-0.35312292,-0.062629439,0.311681062,-0.256804407,0.429961413,-3.008457661
2.069823265,0.421624422,0.239288762,-0.877868056,-0.004463221,0.00114877,0.004767432,-0.353161126,-0.0625939,0.311744094,-0.256828874,0.429986686,-3.008472919
2.074821949,0.418610036,0.242673546,-0.874278903,-0.004642848,0.003472612,0.004464076,-0.353190541,-0.062566563,0.311792612,-0.256871939,0.43001169,-3.008467913
2.079821825,0.420752466,0.240709916,-0.878440499,-0.004745651,0.002053913,0.003874478,-0.353200316,-0.062557496,0.311808676,-0.256908149,0.430027157,-3.008479595
2.084822416,0.420943499,0.241687179,-0.876426876,-0.00327632,0.001598773,0.004089401,-0.353007138,-0.062749259,0.312692225,-0.256940931,0.430040926,-3.008489609
2.089824438,0.419177592,0.250015378,-0.874658763,0.000202924,0.001543,0.003157664,-0.352943122,-0.062812842,0.312985212,-0.25697577,0.430050671,-3.008448839
2.094827175,0.416168451,0.243517518,-0.873542368,-6.50E-05,0.001236127,0.00642397,-0.352893829,-0.062861763,0.313210666,-0.256974667,0.430066109,-3.008433819
2.099825144,0.424832523,0.241049558,-0.873886168,0.002132922,-0.001754109,0.005316496,-0.352877498,-0.06287799,0.31328541,-0.256969273,0.43007797,-3.008409739
2.104823828,0.42033717,0.233835474,-0.877389669,-0.001116122,0.002480559,0.004270636,-0.352912098,-0.0629481,0.31249997,-0.256974548,0.430094719,-3.008453608
2.109823704,0.420100242,0.240829974,-0.878876686,-0.003483463,-0.00010799,0.003499157,-0.352935255,-0.062985614,0.312030911,-0.25700736,0.430107236,-3.008462906
2.114824772,0.419740915,0.247511461,-0.875406086,-0.003453785,0.000303789,0.00123097,-0.352953047,-0.063014477,0.311670005,-0.257053971,0.430115581,-3.008456707
2.119826794,0.417995155,0.239902213,-0.87988013,-0.004336569,0.000910937,0.002376246,-0.352958977,-0.063024044,0.311550349,-0.257089138,0.430124551,-3.008491993
2.12482357,0.413419068,0.250848055,-0.881442249,-0.002687259,0.001357662,0.006395929,-0.352933794,-0.063146085,0.311618865,-0.257134259,0.430129021,-3.008458376
2.129822016,0.415034741,0.245117173,-0.876294255,-0.002814093,0.004050716,0.003387446,-0.352895498,-0.063302182,0.31180349,-0.257165134,0.430150449,-3.008468628
2.134821177,0.417707324,0.241210654,-0.880422235,-0.001687179,0.004274215,0.005091958,-0.352866024,-0.063422285,0.311945587,-0.257176399,0.430177599,-3.008482695
2.139821053,0.421268851,0.245068833,-0.877203584,-0.002619295,0.002270852,0.003585849,-0.352856249,-0.063462116,0.311992705,-0.257200688,0.430199772,-3.008471966
2.144822121,0.420261204,0.242915794,-0.880185783,-0.002747657,0.00296743,0.004748398,-0.352848738,-0.06349276,0.312028944,-0.257225811,0.430225134,-3.008483648
2.149823666,0.417819202,0.241196617,-0.877502978,-0.001813085,0.004977332,0.002532746,-0.35269624,-0.063406639,0.311755478,-0.257249713,0.430249333,-3.008507967
2.154820681,0.417394102,0.241354287,-0.878807366,-0.00430087,0.003606037,0.002411464,-0.352578908,-0.063340373,0.311545044,-0.257288635,0.430267364,-3.008531809
2.159818172,0.415963113,0.243991405,-0.875311375,-0.003886739,0.004642556,0.002716465,-0.352539986,-0.063318409,0.311475247,-0.257326543,0.430296242,-3.00854063
2.164817095,0.416883498,0.244456291,-0.876933575,-0.001839128,0.006334741,0.002572699,-0.352510035,-0.063301504,0.311421543,-0.257360846,0.430328846,-3.008556366
2.169816971,0.419132233,0.241965786,-0.875713348,-0.002581938,0.004962732,0.003523652,-0.352644831,-0.063258648,0.312018931,-0.25738585,0.430358052,-3.008569956
2.174818039,0.416703433,0.242329344,-0.874593854,-0.002210098,0.00704523,0.000337108,-0.352894843,-0.063187994,0.313100636,-0.257417828,0.430395693,-3.008591175
2.179820299,0.420590878,0.238972113,-0.877128661,-0.003243313,0.006338664,0.002208033,-0.352977753,-0.063164562,0.313459337,-0.257446259,0.430439591,-3.008621693
2.184818029,0.419574261,0.23950237,-0.874763191,-0.003344493,0.006821615,0.002385569,-0.353041559,-0.063146539,0.313735306,-0.257473588,0.430477351,-3.008646011
2.18981576,0.415104806,0.244188994,-0.873860419,-0.00178786,0.007553983,0.002096726,-0.353062719,-0.063140564,0.313826829,-0.257513523,0.43051514,-3.008659363
2.194814682,0.421440423,0.242249712,-0.875273764,-0.002404811,0.005406606,0.001042849,-0.352675021,-0.063090913,0.31226787,-0.257543266,0.430552691,-3.00868082
2.19981432,0.421187818,0.241555378,-0.874532521,-0.002561644,0.004998427,0.003834071,-0.352546453,-0.063074447,0.311750948,-0.257562995,0.430588216,-3.008692503
2.204815388,0.419503003,0.243180573,-0.877213061,-0.003070669,0.006784033,0.002363257,-0.352447569,-0.063061781,0.311353236,-0.257601589,0.430625647,-3.008714914
2.209817171,0.420776963,0.239754096,-0.877652347,-0.001608422,0.006427553,0.001450637,-0.352414757,-0.063057579,0.311221361,-0.257623106,0.430666238,-3.008754969
2.214814186,0.421667218,0.242121354,-0.876321197,-0.002044749,0.005897422,0.001713471,-0.35254091,-0.063000545,0.311122209,-0.257654577,0.430701405,-3.008764982
2.219812393,0.41847828,0.24208048,-0.874025047,-0.003134377,0.006011268,0.001197869,-0.352620214,-0.062968321,0.311089933,-0.257688284,0.430730373,-3.00879693
2.224811316,0.418236434,0.241070226,-0.878096044,-0.000913519,0.005778454,0.000946868,-0.35268122,-0.062943533,0.311065078,-0.257711053,0.430755556,-3.008833885
2.229817152,0.417153239,0.243053406,-0.875840783,-0.000755109,0.006769712,0.002746323,-0.352701426,-0.062935308,0.311056823,-0.257739753,0.430790246,-3.008852005
2.234817743,0.413987547,0.244645536,-0.876953661,-0.000532542,0.007064449,0.001941598,-0.352804512,-0.062893316,0.311611295,-0.257765234,0.430821151,-3.00886941
2.239819765,0.413289875,0.248055696,-0.876503289,0.000230881,0.008470489,0.003386223,-0.35292694,-0.062843435,0.312360674,-0.257799715,0.430860698,-3.008861303
2.24481678,0.417816371,0.243157178,-0.875162363,0.000596969,0.00978157,0.004037556,-0.353021145,-0.062805057,0.31293726,-0.257813901,0.430915087,-3.008876324
2.249814749,0.417659461,0.24221842,-0.876739681,-0.000344079,0.009732406,0.00312807,-0.353052378,-0.062792331,0.313128442,-0.257832885,0.43096143,-3.008898735
2.254813433,0.418053299,0.24673149,-0.873441637,0.00085703,0.007295572,0.004979724,-0.353076398,-0.062782541,0.313275546,-0.25784871,0.431004167,-3.008883953
2.25981307,0.420372486,0.248531297,-0.873967052,0.004892131,0.007916544,0.005402842,-0.3529782,-0.063091256,0.312809706,-0.257845074,0.431054473,-3.008862972
2.264814138,0.419488817,0.240637675,-0.875985205,0.005924745,0.008654523,0.005779667,-0.352902681,-0.06332878,0.312451273,-0.257829309,0.431111336,-3.008887768
2.26981616,0.420320183,0.235855892,-0.876581848,0.001135985,0.00711172,0.00676936,-0.352877647,-0.06340754,0.312332422,-0.257825702,0.431152552,-3.008910894
2.274813175,0.421624422,0.246241659,-0.877130389,0.003380157,0.006948037,0.004189934,-0.352858365,-0.063468143,0.312240988,-0.25783214,0.431193739,-3.008897305
2.279811144,0.420655698,0.238299936,-0.874373436,0.001295834,0.006757958,0.00371726,-0.352939636,-0.063396975,0.312531054,-0.257836521,0.431237668,-3.008924007
2.284809828,0.421738416,0.232959524,-0.874768317,0.000443647,0.005535477,0.005864788,-0.353090793,-0.063249931,0.313078195,-0.257822484,0.431287467,-3.008952379
2.289809942,0.420721561,0.245897949,-0.872490823,0.000678252,0.007133426,0.004100851,-0.35314092,-0.063201174,0.313259631,-0.257854193,0.431324899,-3.008930445
2.294810534,0.413757205,0.241199896,-0.875539124,2.20E-05,0.009562257,0.003222931,-0.353179485,-0.06316366,0.313399225,-0.257871747,0.43137008,-3.008960724
2.299812555,0.419773966,0.242329761,-0.879260242,-0.002157518,0.009735376,0.006075284,-0.3531923,-0.063151225,0.313445508,-0.257895559,0.431431711,-3.008970022
2.304809809,0.414110422,0.24408786,-0.874976695,-0.001716827,0.012542373,0.005286941,-0.352858961,-0.063566335,0.312107682,-0.257926166,0.431487113,-3.008985758
2.309807539,0.422901034,0.238826841,-0.878402412,-0.004445478,0.011628687,0.00363822,-0.352748424,-0.063703977,0.311664075,-0.257953733,0.431562245,-3.009028912
2.314806223,0.419626862,0.235396668,-0.875317931,-0.007588488,0.014252615,0.003851172,-0.352663368,-0.063809879,0.311322749,-0.257995158,0.431641221,-3.009082317
2.319805861,0.423577279,0.24068509,-0.875800252,-0.009137358,0.014028984,0.000397258,-0.352635175,-0.063845001,0.311209559,-0.258066475,0.431721449,-3.009128094
2.32480669,0.419822365,0.243624568,-0.877679288,-0.010391954,0.01400084,0.000153261,-0.3530204,-0.063507639,0.311173171,-0.258146554,0.431787461,-3.009165764
2.329808474,0.421361744,0.240879938,-0.876330495,-0.011332362,0.012856952,-0.000797839,-0.353248835,-0.063305601,0.311173648,-0.258233726,0.431852221,-3.009222746
2.334805489,0.421949208,0.241215169,-0.876639128,-0.010866455,0.014431903,-0.001200008,-0.353424579,-0.063150153,0.311174005,-0.258314461,0.431923658,-3.009270906
2.339803457,0.421031773,0.24573952,-0.875943899,-0.010767114,0.014846522,-0.003596856,-0.353482842,-0.063098609,0.311174154,-0.258414507,0.431997329,-3.009321213
2.34480238,0.418818235,0.242431611,-0.876578689,-0.009940888,0.014289387,-0.002827489,-0.353412479,-0.063119918,0.311066121,-0.25849852,0.432055473,-3.009385347
2.349802256,0.422552794,0.242645428,-0.874199271,-0.010483293,0.012976443,-0.002052935,-0.353273004,-0.063188471,0.310921282,-0.25858286,0.432125688,-3.009432316
2.354803085,0.420008451,0.246353179,-0.873888314,-0.011280657,0.012522069,-0.001622779,-0.353165686,-0.063241214,0.310809851,-0.258676052,0.432187676,-3.009469509
2.359805107,0.41788274,0.242184669,-0.875353634,-0.008335709,0.012700776,-0.001787597,-0.353130102,-0.0632587,0.310772896,-0.258743882,0.432243228,-3.009525299
2.364808083,0.425021738,0.241078004,-0.877128243,-0.008320154,0.011093901,-0.001186584,-0.353102714,-0.063272156,0.310744464,-0.258809865,0.432299733,-3.009579659
2.36980629,0.422700286,0.2430498,-0.873247325,-0.007002831,0.011025011,-0.00245479,-0.353244722,-0.063369468,0.311395854,-0.258882165,0.432354152,-3.009626865
2.374805212,0.423124969,0.239687219,-0.87480557,-0.007176326,0.008939831,-0.004025477,-0.353353977,-0.063444346,0.311897069,-0.258945346,0.432397008,-3.009690046
2.379805088,0.422313988,0.240152791,-0.876028359,-0.009994879,0.008636737,-0.004027593,-0.353390187,-0.063469172,0.312063277,-0.259024292,0.432442129,-3.009754896
2.384806156,0.422289819,0.239888415,-0.876442015,-0.01175547,0.009577157,-0.00477678,-0.353418052,-0.063488275,0.312191159,-0.259114802,0.432485104,-3.00982213
2.389808178,0.419863552,0.243044972,-0.877701342,-0.013042363,0.00587646,-0.001486844,-0.353113413,-0.063446052,0.311880559,-0.259209841,0.432506442,-3.009860992
2.394804955,0.421200812,0.247672662,-0.87607038,-0.010955149,0.006392934,-0.005829982,-0.352561593,-0.063364461,0.311284602,-0.259310305,0.432533205,-3.0099051
2.399802923,0.421343207,0.244697541,-0.875521779,-0.011583583,0.00683317,-0.002868972,-0.352378637,-0.063337408,0.311087012,-0.259397,0.432559222,-3.009943724
2.404801607,0.424708337,0.240037978,-0.876340389,-0.010614106,0.006317524,-0.002402548,-0.35223785,-0.063316599,0.310934961,-0.25946489,0.432598054,-3.010004282
2.409801483,0.425079525,0.247891426,-0.873039782,-0.01113625,0.004051989,-0.003539937,-0.35219118,-0.063309699,0.310884535,-0.259559423,0.432618737,-3.010028124
2.414802313,0.420775473,0.245217249,-0.876648605,-0.007951666,0.002630691,-0.003142828,-0.352821201,-0.063360803,0.310672253,-0.259632051,0.432626545,-3.010073185
2.419804335,0.423872262,0.240369201,-0.875743091,-0.010034192,0.002097188,-0.001469203,-0.353030115,-0.063377753,0.31060186,-0.259694129,0.432640642,-3.010119915
2.42480135,0.424816191,0.245761529,-0.871394038,-0.007997404,-0.002089661,-0.003625068,-0.353190869,-0.063390791,0.310547709,-0.2597664,0.432637751,-3.01014185
2.42979908,0.425364733,0.243495002,-0.87327224,-0.005883588,-0.003327265,-0.00309252,-0.353244185,-0.063395113,0.310529768,-0.259816736,0.432635367,-3.010168552
2.434798002,0.426422,0.242332786,-0.872388065,-0.004529028,-0.003558181,-0.001543776,-0.353485256,-0.063639961,0.311507851,-0.259865791,0.432622999,-3.010197639
2.439798594,0.424257874,0.245836928,-0.872768939,-0.003841822,-0.00630759,-0.002153857,-0.353614688,-0.063780911,0.312077612,-0.259921849,0.432595968,-3.010206938
2.444799423,0.422332257,0.246240929,-0.873575568,-0.003171347,-0.008081986,-0.002148397,-0.353714287,-0.063889369,0.312516004,-0.259961516,0.432560265,-3.010219574
2.449801445,0.424023837,0.243623152,-0.874665082,-0.004176166,-0.009123482,-0.000520932,-0.353747308,-0.063925333,0.31266138,-0.259997159,0.432525575,-3.010233402
2.454798222,0.422942609,0.248476297,-0.871916711,-0.00266824,-0.009411921,-0.000601529,-0.353659123,-0.063898392,0.312663823,-0.260034293,0.432485223,-3.01021862
2.459796429,0.423113346,0.247607544,-0.874100149,-0.002024772,-0.01130505,-0.002824137,-0.353515357,-0.063834392,0.3125543,-0.26006946,0.432433695,-3.010226727
2.464795351,0.422318846,0.244729444,-0.873684466,-0.001326847,-0.010980381,0.001467732,-0.35340476,-0.063785143,0.312470049,-0.260078162,0.432384372,-3.010215759
2.469795227,0.422010005,0.244016469,-0.873776972,-0.000411773,-0.012988133,-0.001136603,-0.353368074,-0.063768812,0.312442124,-0.260092705,0.432327002,-3.010222673
2.474796057,0.422370851,0.242817581,-0.873692513,0.00205632,-0.01446366,0.000286454,-0.353339851,-0.06375625,0.312420607,-0.260093272,0.432255924,-3.010223866
2.47979784,0.423598647,0.242834687,-0.87460953,0.001310331,-0.015920529,-0.001519436,-0.353330672,-0.063702919,0.312225252,-0.260099858,0.432185262,-3.01022768
2.484794855,0.422774822,0.240771115,-0.875746369,-0.000416538,-0.016447889,-0.002508662,-0.353323638,-0.063661881,0.312074959,-0.260116875,0.432104826,-3.0102458
2.489792585,0.423098564,0.239311859,-0.877284944,-0.000127922,-0.015955342,-0.00455513,-0.353321314,-0.063648276,0.3120251,-0.260132611,0.432027102,-3.010283947
2.494791508,0.424014539,0.243923828,-0.876233518,-0.001188477,-0.017588714,-0.002828416,-0.353319496,-0.063637801,0.311986774,-0.260156423,0.431952238,-3.010291338
2.499797344,0.423642367,0.244406074,-0.872906148,-0.0022509,-0.01917834,-0.00322282,-0.353145719,-0.063699566,0.31151849,-0.260191917,0.431854367,-3.010299921
2.504798412,0.425515175,0.245203376,-0.873255193,-0.001547345,-0.022157775,-0.004656168,-0.352836847,-0.063813068,0.310697526,-0.260215938,0.431756973,-3.010312796
2.509800196,0.424247235,0.243622795,-0.873495817,0.000321681,-0.021797869,-0.004645377,-0.352734447,-0.063850701,0.310425311,-0.260230899,0.431657046,-3.010329008
2.514797211,0.425906748,0.244415328,-0.874290347,-0.002011633,-0.023788981,-0.003135805,-0.352655649,-0.063879661,0.310215861,-0.260257483,0.431546271,-3.010336637
2.519795179,0.425447196,0.243047535,-0.87444514,-0.001617253,-0.028414978,-0.002238505,-0.352629513,-0.063889265,0.310146421,-0.26026684,0.431414902,-3.010334969
2.524794102,0.425411195,0.244157478,-0.874527395,-1.36E-05,-0.029532244,-0.00387061,-0.3528741,-0.064350545,0.311661899,-0.260283977,0.431276649,-3.010334015
2.529793739,0.424870789,0.245127276,-0.873442888,0.003251077,-0.031871449,-0.004805632,-0.352955192,-0.064503498,0.312164396,-0.260279149,0.431123167,-3.010331869
2.534795046,0.423515886,0.244337082,-0.873697937,0.001694613,-0.034281634,-0.005253127,-0.353017598,-0.064621188,0.312551051,-0.260282934,0.430961221,-3.010332584
2.539797306,0.424220383,0.24243629,-0.874589384,0.003205183,-0.037804984,-0.005186236,-0.353038281,-0.064660206,0.312679261,-0.260274559,0.430776894,-3.010340214
2.544794559,0.421064287,0.243435845,-0.873007953,0.001659661,-0.039407216,-0.004844341,-0.352654308,-0.064400427,0.311922342,-0.260278314,0.430585653,-3.010339499
2.549792528,0.420607835,0.243093684,-0.873574495,0.003709119,-0.041503482,-0.007204421,-0.352428049,-0.064242572,0.311459631,-0.260270357,0.430381685,-3.010338068
2.554791927,0.42209515,0.240034834,-0.873345792,0.003301338,-0.043074731,-0.007664447,-0.352253973,-0.064121112,0.311103612,-0.260259151,0.430174083,-3.010353565
2.559791803,0.42472297,0.2414608,-0.87586385,0.004196445,-0.047377493,-0.009521537,-0.352196246,-0.064080842,0.310985565,-0.260237515,0.429944694,-3.010359764
2.564792633,0.42315653,0.238938048,-0.874212265,0.000449626,-0.047135957,-0.012070388,-0.35223797,-0.064101361,0.311403245,-0.260250688,0.429711908,-3.010394812
2.569794893,0.420519441,0.235184178,-0.874459863,-0.00206692,-0.049098425,-0.011125718,-0.352338701,-0.064160109,0.312054485,-0.26025635,0.429464936,-3.01043582
2.574791908,0.421752393,0.236342996,-0.874446213,-0.003545392,-0.052420996,-0.012440295,-0.352416217,-0.064205311,0.312555581,-0.260274827,0.429205358,-3.010473251
2.579789639,0.420554668,0.23857598,-0.874539435,-0.00500827,-0.051700447,-0.015808333,-0.352441907,-0.064220294,0.312721729,-0.260317951,0.428943753,-3.01052165
2.584788561,0.421594769,0.238272697,-0.874332428,-0.009796975,-0.059184033,-0.015942374,-0.352461696,-0.064231828,0.312849551,-0.260382533,0.428644806,-3.010558844
2.589788437,0.424925715,0.238009289,-0.876641333,-0.011821124,-0.058570988,-0.016845845,-0.35221526,-0.064392298,0.312982649,-0.260451555,0.428359091,-3.010602951
2.594789028,0.422176242,0.240250528,-0.874555409,-0.013187733,-0.059858941,-0.017681111,-0.352025658,-0.064515777,0.31308502,-0.260533452,0.428056031,-3.010642529
2.59979105,0.422846317,0.23950918,-0.874296308,-0.013296463,-0.060430132,-0.017538683,-0.351962775,-0.064556725,0.313118964,-0.260617644,0.427760124,-3.010676861
2.604788065,0.423448622,0.241199762,-0.876237571,-0.015272745,-0.063830905,-0.016443608,-0.351914376,-0.064588226,0.313145101,-0.260706633,0.427444309,-3.010702133
2.609785795,0.422389448,0.244470209,-0.873775244,-0.014016393,-0.066379793,-0.018012987,-0.351898134,-0.064626835,0.313234001,-0.260798603,0.427106321,-3.010721207
2.614784718,0.421844035,0.245737761,-0.873392463,-0.013941776,-0.067847021,-0.017371396,-0.351885498,-0.064685032,0.313383579,-0.260899544,0.426762998,-3.010736704
2.619784594,0.421366692,0.244957924,-0.873052239,-0.015295773,-0.07363458,-0.01855218,-0.351881295,-0.064704321,0.31343317,-0.260993272,0.426395416,-3.010751009
2.6247859,0.421672255,0.242177367,-0.87322396,-0.014666477,-0.075182304,-0.018264947,-0.351878077,-0.06471917,0.313471317,-0.261076212,0.426024973,-3.010768414
2.629787922,0.424159378,0.2407583,-0.872433841,-0.015470961,-0.078973673,-0.018584175,-0.351876974,-0.064724088,0.313483983,-0.261159331,0.425637126,-3.010789156
2.634790897,0.424397856,0.24137415,-0.873722553,-0.015741047,-0.083056577,-0.017897595,-0.351534873,-0.065146282,0.31280601,-0.261245221,0.425233662,-3.01079607
2.639789104,0.425162941,0.243036672,-0.876714647,-0.017678233,-0.08592014,-0.018513404,-0.351421416,-0.065286279,0.312581211,-0.261343807,0.424807549,-3.010802269
2.644788027,0.42096442,0.24528338,-0.877031267,-0.018111805,-0.089063741,-0.021778582,-0.351334155,-0.065393992,0.312408268,-0.261445969,0.42435813,-3.010822296
2.649787903,0.419264287,0.246969149,-0.876197815,-0.019789027,-0.09003479,-0.020616937,-0.351305187,-0.06542971,0.312350899,-0.261555523,0.423906505,-3.010828018
2.654788971,0.410647422,0.252471685,-0.875229895,-0.020055374,-0.088121176,-0.023172189,-0.351135522,-0.065449387,0.313476771,-0.261694193,0.423449367,-3.01082468
2.659790516,0.406299412,0.253825247,-0.879028678,-0.021350626,-0.088123478,-0.020914786,-0.351042777,-0.065453984,0.314139605,-0.261825562,0.42298314,-3.010808229
2.664787769,0.403162777,0.254961967,-0.879653633,-0.019137325,-0.084786631,-0.017203839,-0.350971431,-0.065457515,0.314649612,-0.261948168,0.422541976,-3.010787249
2.669785261,0.403800935,0.254766524,-0.880583525,-0.01986496,-0.082885154,-0.014917233,-0.350947767,-0.065458685,0.31481871,-0.262069166,0.422113866,-3.010751963
2.674784184,0.406488895,0.252155066,-0.881411254,-0.021077005,-0.076742403,-0.013768851,-0.350729674,-0.065409064,0.314571381,-0.262182355,0.421724856,-3.010730743
2.679784298,0.404570401,0.251170635,-0.88227123,-0.020325255,-0.075934328,-0.012232264,-0.350455821,-0.065341666,0.314108729,-0.262290537,0.421332002,-3.010707378
2.684785128,0.406244546,0.248758912,-0.882199168,-0.019906448,-0.071388833,-0.010982172,-0.350245088,-0.065289818,0.313752741,-0.262390286,0.420964748,-3.010687351
2.689786911,0.408326477,0.247086644,-0.883066595,-0.021864725,-0.06945473,-0.009696329,-0.350175232,-0.065272622,0.313634723,-0.262500167,0.420618653,-3.010671854
2.694783926,0.407818675,0.245727643,-0.880454421,-0.020214558,-0.070027515,-0.007157417,-0.350121468,-0.06525939,0.313543916,-0.26258409,0.420270562,-3.010638237
2.699782133,0.408906132,0.247123286,-0.881271541,-0.020218952,-0.068283029,-0.00513463,-0.349948585,-0.065757751,0.314501762,-0.262680441,0.419934452,-3.010594606
2.704781055,0.408528239,0.246933281,-0.882185996,-0.019600101,-0.068199389,-0.004336116,-0.349815577,-0.06614121,0.315238744,-0.262765944,0.419596851,-3.010553837
2.709780693,0.407353669,0.248448119,-0.881742775,-0.023617037,-0.063880734,-0.002933887,-0.34977147,-0.066268355,0.315483123,-0.262873739,0.419283688,-3.010506153
2.714782,0.407343894,0.253249317,-0.881064832,-0.021883648,-0.062165122,0.000406146,-0.349737525,-0.066366181,0.315671146,-0.262978464,0.418986559,-3.010427237
2.719784021,0.403155267,0.25774765,-0.880749285,-0.019972391,-0.059506278,0.002557136,-0.349696308,-0.066431478,0.315360278,-0.263075113,0.418697596,-3.01032877
2.724781036,0.402062148,0.256872565,-0.881831825,-0.016422398,-0.056059152,0.004046174,-0.34963429,-0.066514939,0.314743668,-0.263152063,0.418425351,-3.010234118
2.729779005,0.398311406,0.258835554,-0.878695726,-0.016550088,-0.053120423,0.005680737,-0.349613726,-0.066542611,0.314539224,-0.263230979,0.418154359,-3.010127783
2.734777689,0.398359835,0.258443326,-0.882061064,-0.011037488,-0.050148383,0.007141317,-0.349597931,-0.066563904,0.314381927,-0.263268948,0.417914212,-3.010015726
2.739777565,0.399949104,0.252949119,-0.883920312,-0.010795071,-0.046395093,0.00989296,-0.349592686,-0.066570967,0.314329773,-0.26329726,0.417690873,-3.009931087
2.744778156,0.397381216,0.253736973,-0.882719278,-0.007630479,-0.042971667,0.009917468,-0.348990411,-0.066451088,0.314463645,-0.26331827,0.417484879,-3.009841681
2.749780178,0.394949555,0.24893567,-0.880908072,-0.009249762,-0.037873566,0.010020986,-0.348790705,-0.066411339,0.314508051,-0.263342708,0.417301565,-3.009766102
2.754777193,0.388574004,0.250130326,-0.883629739,-0.005199198,-0.03491544,0.012291459,-0.348637044,-0.066380754,0.314542204,-0.263344169,0.417120039,-3.009687662
2.759774923,0.387507707,0.249216348,-0.883670628,-0.005090298,-0.03137216,0.01139329,-0.348586082,-0.066370614,0.314553529,-0.263342857,0.416958869,-3.009616852
2.764780045,0.395069957,0.250485539,-0.880764127,-0.004916179,-0.026370784,0.012841894,-0.348497957,-0.066456534,0.315547615,-0.26335007,0.416832954,-3.009538412
2.769780159,0.395927072,0.256505698,-0.881071389,-0.00095667,-0.023496412,0.01301274,-0.348456651,-0.066508219,0.316121072,-0.263350546,0.41672796,-3.009446859
2.774781227,0.397850156,0.259812295,-0.879009485,-0.000136972,-0.020143075,0.015931942,-0.348424852,-0.06654799,0.316562325,-0.263340831,0.416645885,-3.009323597
2.779783487,0.397076964,0.259424299,-0.878003657,0.005302476,-0.015804328,0.016622078,-0.348414302,-0.066561177,0.316708624,-0.263306648,0.416583896,-3.009216309
2.784780502,0.399321318,0.256747931,-0.881177425,0.006157859,-0.013585124,0.018260542,-0.348519534,-0.066544108,0.316396773,-0.263262808,0.416532546,-3.009104013
2.789778471,0.402085632,0.254740894,-0.879823089,0.009518422,-0.010180404,0.020446379,-0.348668665,-0.06651102,0.315865397,-0.263194293,0.416509688,-3.008994341
2.794777632,0.408818126,0.256976217,-0.877674997,0.008560168,-0.010253882,0.023552764,-0.348783404,-0.066485561,0.315456539,-0.263130426,0.41650781,-3.008854151
2.799777508,0.409406632,0.255049199,-0.876085162,0.010772552,-0.011078343,0.024923014,-0.348821461,-0.066477112,0.315320969,-0.263040781,0.416495234,-3.00871253
2.804778337,0.413323253,0.251800209,-0.877545238,0.011961407,-0.011327098,0.0230907,-0.348850727,-0.066470616,0.31521666,-0.262946844,0.416486561,-3.008590937
2.809780121,0.412025839,0.247850031,-0.877058446,0.014130618,-0.011743046,0.022416614,-0.34861204,-0.066367269,0.315645307,-0.262833506,0.416476727,-3.008476973
2.814777374,0.406818241,0.247497663,-0.876461625,0.012550521,-0.011760311,0.022540228,-0.348428398,-0.066287749,0.3159751,-0.262739152,0.41645512,-3.008374929
2.819774866,0.407342494,0.246448308,-0.877409637,0.011500531,-0.010501473,0.018601887,-0.348367512,-0.066261381,0.316084474,-0.262646437,0.416431546,-3.008298874
2.824773788,0.404343188,0.245617583,-0.877497673,0.009219595,-0.009107461,0.016224978,-0.348320663,-0.066241093,0.316168636,-0.262585342,0.416414082,-3.008233547
2.829773664,0.401836723,0.24547255,-0.877254248,0.008848572,-0.008972592,0.014239652,-0.348192692,-0.066148423,0.316353202,-0.262521267,0.416383475,-3.008180141
2.834774494,0.399917901,0.242332295,-0.881896675,0.007686179,-0.007729556,0.011026818,-0.347980559,-0.065990224,0.316653699,-0.262465894,0.416353941,-3.008155823
2.839776516,0.40018338,0.238760799,-0.883491695,0.003547089,-0.008190058,0.007829926,-0.347910225,-0.065937765,0.316753328,-0.26242575,0.416314662,-3.008158684
2.844773769,0.396259755,0.236512721,-0.883390069,-0.001872608,-0.005827919,0.007042488,-0.347856104,-0.065897398,0.316829979,-0.262414217,0.416284829,-3.008177042
2.8497715,0.398421407,0.238779202,-0.884998918,-0.009175761,-0.002435079,0.00317628,-0.347838163,-0.065884016,0.316855401,-0.262462258,0.416267037,-3.008214235
2.854770422,0.40329662,0.237483621,-0.884798944,-0.01395795,0.000223947,0.000460059,-0.348357141,-0.065802619,0.31613636,-0.262532711,0.416269124,-3.008270979
2.859770536,0.410044372,0.236643299,-0.884149432,-0.020572215,-0.001245989,-0.001479976,-0.34852922,-0.065775625,0.315897942,-0.262640148,0.416267574,-3.008340597
2.864771605,0.410970867,0.239149913,-0.881266832,-0.026226576,-0.000531433,-0.005217922,-0.348661631,-0.065754853,0.315714478,-0.262793064,0.416270196,-3.008420706
2.869773626,0.410277575,0.243422642,-0.881947815,-0.030332752,0.000737077,-0.007231692,-0.34870553,-0.065747969,0.315653652,-0.262971967,0.41627562,-3.008494854
2.874770641,0.409173459,0.250825316,-0.881114721,-0.03091957,-0.000134995,-0.010407103,-0.348586351,-0.065898664,0.315558732,-0.26317966,0.416264027,-3.008564472
2.879768372,0.409866989,0.256853372,-0.880196929,-0.027006699,-0.002493421,-0.00895513,-0.348508984,-0.065987237,0.315515339,-0.263371676,0.416243136,-3.00860405
2.884767771,0.411109805,0.2609137,-0.880070806,-0.021579448,-0.001585972,-0.008386939,-0.348449439,-0.06605538,0.315481961,-0.263537496,0.416235238,-3.008633852
2.889767885,0.418377995,0.256454647,-0.880945027,-0.015190392,-0.008981997,-0.009792803,-0.34842971,-0.066077977,0.315470904,-0.263657063,0.416193485,-3.008671284
2.894768953,0.416154206,0.254009783,-0.877514899,-0.017961975,-0.011494252,-0.008046445,-0.348299295,-0.066239126,0.315781504,-0.263784975,0.416147619,-3.008703947
2.899776697,0.410477519,0.253066391,-0.875527978,-0.014350434,-0.011667998,-0.012476928,-0.348139912,-0.066437528,0.316206276,-0.263903022,0.416084319,-3.008766413
2.904779673,0.40090552,0.25673762,-0.881199181,-0.012208642,-0.011112495,-0.009665068,-0.348017246,-0.066590182,0.316533118,-0.264015764,0.41600734,-3.008806944
2.90977788,0.3911874,0.257219166,-0.879565179,-0.009422396,-0.011007888,-0.0084843,-0.347976565,-0.066640802,0.31664151,-0.264101446,0.41591984,-3.008850336
2.914776802,0.383163154,0.262491196,-0.879425883,-0.00554922,-0.005717594,-0.003670664,-0.347945273,-0.066679753,0.316724896,-0.264182568,0.41585502,-3.008849382
2.919776678,0.375777453,0.264654696,-0.881188393,0.000830565,0.002884556,0.000581527,-0.34818542,-0.066641219,0.316287637,-0.264216542,0.415818453,-3.008841276
2.924777508,0.371114552,0.260612547,-0.883493364,0.00409192,0.011590878,0.002641022,-0.348370165,-0.066611566,0.315951228,-0.264231205,0.415829957,-3.008863211
2.929779768,0.371947765,0.26003021,-0.886668026,0.007109957,0.023715476,0.011614169,-0.348431438,-0.066601738,0.315839678,-0.264208287,0.415914357,-3.008844137
2.934777021,0.374794453,0.258214772,-0.889824867,0.009526776,0.032522269,0.015407927,-0.348478585,-0.066594176,0.315753818,-0.264178663,0.416049689,-3.008838654
2.93977499,0.380649358,0.253673434,-0.889893711,0.008937644,0.045895897,0.01751245,-0.348379582,-0.066678368,0.315963924,-0.264140636,0.416258872,-3.008849859
2.944773912,0.391786128,0.253939688,-0.890813828,0.006228148,0.053703636,0.020347765,-0.348187506,-0.066830814,0.316366792,-0.264120549,0.416532427,-3.008845806
2.949773788,0.394076228,0.25594452,-0.888647795,0.005341037,0.060924478,0.021067487,-0.348123848,-0.066881366,0.316500366,-0.26411584,0.416835785,-3.008841753
2.954774618,0.393583864,0.257502198,-0.886968851,0.002099573,0.066779338,0.022457821,-0.348074824,-0.066920266,0.316603124,-0.264131397,0.417171955,-3.008839607
2.959776878,0.391620398,0.25336355,-0.889136732,0.000473938,0.074316025,0.02426252,-0.348058581,-0.066933163,0.316637218,-0.264144599,0.417538941,-3.008849382
2.964774132,0.394379586,0.252536535,-0.889100492,-0.001688448,0.083485402,0.025319168,-0.348376989,-0.066945747,0.315672368,-0.264171422,0.417962998,-3.008867502
2.969772577,0.393860519,0.256716102,-0.88933593,-0.002130735,0.087191269,0.031110296,-0.348482579,-0.066949919,0.31535244,-0.264192551,0.418392569,-3.008850574
2.9747715,0.39593786,0.262759566,-0.887567818,-0.002383079,0.091769852,0.032903932,-0.34856382,-0.06695313,0.315106273,-0.2642304,0.418856204,-3.008801937
2.979771137,0.395142972,0.265126705,-0.886645317,-0.000306669,0.09858574,0.036792476,-0.348590761,-0.066954195,0.315024644,-0.26425609,0.419358641,-3.008743048
2.984772205,0.395650417,0.267248899,-0.883948326,0.000756608,0.10365396,0.042249806,-0.348665148,-0.0667971,0.315430284,-0.26427117,0.419889778,-3.00864625
2.989773989,0.395305157,0.266030967,-0.885634482,0.00458232,0.109560266,0.047373518,-0.348703086,-0.066705935,0.315680712,-0.264253438,0.420459449,-3.008541584
2.994771242,0.398338914,0.263680607,-0.886749387,0.007236686,0.112431087,0.04989171,-0.348732263,-0.06663578,0.315873384,-0.264211833,0.421047598,-3.008429527
2.999768972,0.4002437,0.262880445,-0.890945554,0.009299072,0.119505815,0.054387361,-0.348741949,-0.066612519,0.315937251,-0.264157146,0.421681106,-3.008317709
3.004767895,0.406759769,0.26491946,-0.892011583,0.013456289,0.123347372,0.055368289,-0.349006087,-0.066534549,0.31569764,-0.264084458,0.422340184,-3.008190632
3.009768009,0.411900818,0.269077569,-0.892506361,0.020814059,0.12929891,0.053656407,-0.349352509,-0.066448115,0.315326989,-0.263985574,0.423024207,-3.008069277
3.014768839,0.416525811,0.268783957,-0.897083163,0.028630961,0.132570356,0.051327623,-0.349619061,-0.066381603,0.31504178,-0.263853312,0.423727453,-3.007979393
3.019770861,0.421994984,0.258507371,-0.90014869,0.032147545,0.133008078,0.052837532,-0.349707454,-0.06635955,0.314947218,-0.263671905,0.424442559,-3.007922173
3.024768114,0.431569517,0.262488365,-0.895257592,0.046768948,0.132372811,0.049151231,-0.349775463,-0.066342592,0.31487447,-0.263440102,0.425169945,-3.007846594
3.029766321,0.433585644,0.253920436,-0.889780104,0.054389119,0.130508274,0.044210657,-0.350152522,-0.065932095,0.31386736,-0.263167143,0.425884724,-3.007809401
3.034771204,0.443938315,0.244063675,-0.885341048,0.058681313,0.130388409,0.040356286,-0.350442678,-0.06561625,0.31309247,-0.262863338,0.426609099,-3.007818699
3.03977108,0.428250998,0.225482881,-0.871989429,0.054305524,0.123768181,0.038273931,-0.35053888,-0.065511525,0.312835544,-0.262551427,0.427274495,-3.007878065
3.044772148,0.381783873,0.196469694,-0.887247384,0.031441398,0.141006172,0.038137656,-0.350612909,-0.065430947,0.312637836,-0.262301832,0.427928329,-3.008090019
3.049773932,0.371231437,0.221697643,-0.913344622,0.017917836,0.158874348,0.045132194,-0.35095045,-0.065400593,0.312311888,-0.262206256,0.428668112,-3.008241177
3.054770708,0.355217814,0.228312016,-0.919029415,0.015366152,0.178783104,0.048752841,-0.351526618,-0.065373562,0.311797768,-0.26209262,0.429486036,-3.008384705
3.059769154,0.294086814,0.216455102,-0.921290994,-0.00423844,0.23195754,0.058592346,-0.351717681,-0.065364599,0.311627299,-0.262066334,0.43046689,-3.008633375
3.064768076,0.297631025,0.232758105,-0.955517411,-0.019151784,0.289010793,0.079403646,-0.351864696,-0.065357707,0.311496139,-0.262146175,0.431771696,-3.008814096
3.069767952,0.285499692,0.184210315,-1.021474123,-0.069352165,0.354611754,0.088427663,-0.351913452,-0.06535542,0.311452657,-0.26231724,0.433335483,-3.009304762
3.074768782,0.260250211,0.105710939,-1.086329699,-0.205349699,0.447870821,0.107782722,-0.352689445,-0.064873554,0.310617626,-0.263043046,0.435310006,-3.010163784
3.079771042,0.240547687,0.06892702,-1.117843628,-0.373254299,0.568854332,0.144769996,-0.352946758,-0.064713776,0.310340732,-0.264585614,0.437884808,-3.011089802
3.084768534,0.2553837,0.107202768,-1.142711997,-0.573131979,0.663918734,0.199287608,-0.353144735,-0.064590842,0.310127676,-0.267208189,0.441034555,-3.011766195
3.089766502,0.241602868,0.240369231,-1.120797992,-0.654141068,0.784626365,0.268265069,-0.35321039,-0.064550079,0.310057044,-0.270415783,0.444784552,-3.011707306
3.094765425,0.134321511,0.336136818,-1.118178129,-0.690988779,0.958190143,0.37292558,-0.354508489,-0.064666368,0.307917297,-0.27373147,0.449299783,-3.011264324
3.099765301,0.085760012,0.342444062,-1.146099687,-0.739040732,1.21015501,0.491337657,-0.355247647,-0.06474147,0.306691736,-0.277138114,0.455190063,-3.010621309
3.104765892,0.029241953,0.337912321,-1.130681157,-0.809208035,1.487891793,0.654415667,-0.355816364,-0.064799249,0.305748761,-0.280683488,0.462573528,-3.009578466
3.109767914,-0.001163515,0.375114173,-1.179749608,-0.901257992,1.786253929,0.846833229,-0.356004953,-0.064818405,0.305436105,-0.284451455,0.471627474,-3.007944584
3.114765167,0.074307419,0.437666208,-1.15296793,-0.998675942,2.112650633,0.980685174,-0.357877225,-0.065226927,0.30272904,-0.288805991,0.482561171,-3.005869389
3.119762897,0.260133117,0.481153578,-1.145820022,-1.012273431,2.416383982,0.96998626,-0.360239685,-0.065759465,0.299344242,-0.293563664,0.495288342,-3.004207373
3.12476182,0.340456873,0.388611615,-1.11739409,-0.961399853,2.623494387,0.874659657,-0.362057447,-0.066169217,0.296739846,-0.298296988,0.508894444,-3.004048109
3.129762411,0.418636352,0.38375172,-1.199419022,-0.916940987,2.732959747,0.817274034,-0.36266017,-0.066305079,0.295876294,-0.303033471,0.522882223,-3.004457712
3.134763002,0.459383756,0.39348352,-1.236085773,-0.843675852,2.739212751,0.820722461,-0.363123953,-0.066409618,0.295211852,-0.307340145,0.53677249,-3.00483799
3.139765024,0.393261671,0.382409006,-1.182332873,-0.816934466,2.750744581,0.872516572,-0.369491369,-0.065690756,0.286423832,-0.311392486,0.550696969,-3.005036116
3.144762039,0.40205878,0.404863089,-1.124699235,-0.806632519,2.770432472,0.92254889,-0.374390692,-0.065137647,0.279662073,-0.315377116,0.56483072,-3.004861355
3.149759769,0.497916967,0.392061144,-1.176461577,-0.858076155,2.753425837,0.943359435,-0.376015216,-0.064954244,0.277420014,-0.319557011,0.579050124,-3.0047369
3.154758692,0.59287405,0.411522359,-1.236157417,-0.910931945,2.655122757,0.998006284,-0.377265155,-0.06481313,0.275694877,-0.323785543,0.592848361,-3.004184484
3.159758568,0.573613882,0.461440295,-1.229648829,-0.912896931,2.514714718,1.065006256,-0.381554723,-0.063987017,0.270047069,-0.327755332,0.605969906,-3.002847195
3.164759636,0.482129186,0.4609074,-1.168931961,-0.887250841,2.404966354,1.116707921,-0.38877359,-0.062563352,0.260569096,-0.331259221,0.6185112,-3.001069784
3.169767857,0.474897742,0.497549981,-1.186342716,-0.848617852,2.283642769,1.145249486,-0.391167223,-0.062091295,0.257426381,-0.334411621,0.630522788,-2.998898745
3.174771786,0.439741522,0.45952481,-1.16683948,-0.839862883,2.161217928,1.164223433,-0.393008977,-0.061728075,0.25500828,-0.33723709,0.641938925,-2.996502638
3.17977047,0.168706313,0.415677309,-1.178613782,-0.810073376,1.989080667,1.126881003,-0.393619686,-0.06160764,0.254206479,-0.339708507,0.65201658,-2.99432373
3.184769392,0.219287485,0.536396503,-1.317703366,-0.721286774,1.776614785,1.047417164,-0.402104706,-0.058758564,0.242429435,-0.341960728,0.660930157,-2.992034674
3.189769268,0.176127493,0.663050592,-1.358105183,-0.602694571,1.472612023,0.939550817,-0.404918164,-0.057813868,0.238524392,-0.343693554,0.667840481,-2.989551067
3.194771051,0.20693405,0.686578035,-1.384703517,-0.487861007,1.240339637,0.864452541,-0.407082945,-0.057086986,0.235519737,-0.344963253,0.673670292,-2.987101793
3.199772835,0.14507997,0.703045309,-1.486126661,-0.330048382,0.932733595,0.778689325,-0.407800764,-0.056845963,0.234523445,-0.345144868,0.67772603,-2.98455286
3.204770088,-0.121244885,0.645748317,-1.419220209,-0.163532168,0.613737702,0.642115772,-0.411536545,-0.05386588,0.226655498,-0.34448418,0.679599822,-2.982354403
3.209767818,-0.326097906,0.488985479,-1.31633389,-0.04628098,0.386667043,0.528707623,-0.413563013,-0.052186199,0.222289383,-0.343119234,0.680183351,-2.98074007
3.214766741,-0.429228872,0.369479537,-1.281391501,0.015845671,0.214400485,0.465065718,-0.415122271,-0.050893798,0.218929946,-0.341265887,0.679896533,-2.979358435
3.219766855,-0.484226972,0.301171124,-1.266288757,0.038336921,0.054566655,0.41411823,-0.415639281,-0.050465263,0.217816025,-0.339203745,0.678770661,-2.978019238
3.224767923,-0.49954769,0.247517243,-1.252802968,0.026676498,-0.100880146,0.369879633,-0.416422516,-0.048894856,0.215966552,-0.337103784,0.676869571,-2.976693153
3.229769945,-0.47888878,0.215229988,-1.263643503,-0.003417751,-0.273335159,0.326772481,-0.417070895,-0.047123045,0.214352578,-0.33506155,0.674119234,-2.975313663
3.23476696,-0.455860704,0.200578064,-1.277994514,-0.038269661,-0.470423192,0.277744383,-0.417569786,-0.045759752,0.21311073,-0.333126187,0.670345366,-2.973854065
3.23976469,-0.44438976,0.189989388,-1.284028888,-0.070119493,-0.678211808,0.226899624,-0.417735189,-0.045307714,0.212698966,-0.331261814,0.665506959,-2.972288132
3.244763613,-0.446427882,0.182927042,-1.273103595,-0.09033931,-0.880753279,0.173210174,-0.417862475,-0.044959899,0.212382138,-0.329474092,0.659623861,-2.970657349
3.249763489,-0.456268966,0.174703509,-1.247008443,-0.098874338,-1.065084338,0.124603078,-0.415927559,-0.043079779,0.214705303,-0.327709317,0.6528126,-2.96890378
3.254765034,-0.464793265,0.158045426,-1.214855671,-0.098092131,-1.222462177,0.083006039,-0.414438784,-0.041633151,0.216492832,-0.325919569,0.645230293,-2.96712923
3.259767056,-0.466172099,0.148185104,-1.181258559,-0.086208768,-1.354412317,0.047904149,-0.413945138,-0.041153476,0.21708554,-0.324075282,0.637026846,-2.965321779
3.264764071,-0.453605801,0.137438595,-1.150661945,-0.069515795,-1.460770607,0.021190431,-0.413565278,-0.0407844,0.21754159,-0.322148621,0.628354847,-2.963474274
3.269762039,-0.424216866,0.127411306,-1.1255337,-0.051340222,-1.543022394,0.008318074,-0.411257267,-0.040134545,0.21993579,-0.320143342,0.619363546,-2.961553335
3.274760962,-0.38099134,0.127789661,-1.098922133,-0.031529635,-1.613468289,0.003343013,-0.407274991,-0.039101169,0.224045977,-0.318036735,0.610131741,-2.959486246
3.279760838,-0.330088377,0.132491499,-1.077489018,-0.008168109,-1.66920948,0.001859683,-0.40595454,-0.03875852,0.225408837,-0.315835893,0.600735247,-2.957303286
3.284761906,-0.277662396,0.150172293,-1.0621382,0.024602372,-1.713270783,0.002966254,-0.404938549,-0.03849487,0.226457462,-0.313513547,0.591223657,-2.955009937
3.289764166,-0.233776674,0.164552569,-1.048120737,0.065884426,-1.734410167,-0.008328063,-0.404601663,-0.038407452,0.226805165,-0.311103106,0.581682861,-2.952724457
3.294761181,-0.186575398,0.182294637,-1.04285109,0.11679019,-1.743786693,-0.011604464,-0.396647781,-0.036722649,0.235321537,-0.308509707,0.572165489,-2.950364828
3.299758911,-0.129949197,0.202428564,-1.059815526,0.161282599,-1.762369037,-0.019454271,-0.394010425,-0.036164004,0.238145411,-0.305787027,0.562619388,-2.948014498
3.304763556,-0.050400831,0.223304272,-1.075100183,0.195598826,-1.786694884,-0.038433626,-0.391981184,-0.035734162,0.240318194,-0.303012133,0.553022087,-2.945713282
3.309763432,0.038561501,0.242959619,-1.094590306,0.221846461,-1.821314692,-0.074810989,-0.391308337,-0.035591632,0.241038635,-0.30027324,0.54332006,-2.943548679
3.314764261,0.122481935,0.2647838,-1.106947184,0.237201348,-1.867179394,-0.124610163,-0.384956509,-0.03395221,0.24868767,-0.29765594,0.533430994,-2.941474676
3.319766521,0.19542551,0.294902951,-1.119570851,0.246721834,-1.917486787,-0.191091582,-0.381406724,-0.033030067,0.252979547,-0.295247108,0.523274183,-2.939631701
3.324764252,0.259003282,0.330894023,-1.127856493,0.257514924,-1.968457818,-0.271003932,-0.378675401,-0.03232054,0.256281853,-0.29308933,0.512853444,-2.938096046
3.329761982,0.321192294,0.369468033,-1.135411978,0.282186866,-2.030442715,-0.356512576,-0.377769738,-0.032085273,0.25737685,-0.291083902,0.502094507,-2.936850309
3.33476162,0.379575521,0.414505124,-1.141381979,0.319475114,-2.102196217,-0.438551486,-0.3731637,-0.0308451,0.262207866,-0.289157093,0.490947843,-2.935799837
3.339761734,0.424962759,0.455876976,-1.141292095,0.367945433,-2.18556118,-0.515063882,-0.367694378,-0.029365838,0.267831773,-0.287204623,0.479373693,-2.934870005
3.344762802,0.458213359,0.479435623,-1.132109404,0.431356907,-2.268963814,-0.58807379,-0.363486111,-0.028227646,0.27215898,-0.285101235,0.46735847,-2.934147358
3.349764824,0.484769791,0.478753567,-1.11694169,0.497810334,-2.350962877,-0.657136619,-0.362090737,-0.027850242,0.273593783,-0.282782137,0.454927832,-2.933668852
3.354762077,0.499701619,0.447167128,-1.107293844,0.549894094,-2.425585747,-0.723383248,-0.361017078,-0.027559856,0.27469781,-0.28026551,0.442110151,-2.933525562
3.359759808,0.511802912,0.402911127,-1.096265674,0.568404734,-2.489040375,-0.787014365,-0.352816582,-0.026317287,0.283390641,-0.277705371,0.428971678,-2.933637619
3.36475873,0.524302304,0.360893518,-1.086831093,0.551893473,-2.548521042,-0.847046673,-0.346506864,-0.025361216,0.290079176,-0.27528429,0.415520072,-2.934089422
3.369758606,0.535107076,0.332126677,-1.071916223,0.510143816,-2.59341836,-0.900866449,-0.344414681,-0.025044199,0.292296976,-0.273156434,0.401852071,-2.934818268
3.374759674,0.545259535,0.318468332,-1.051630974,0.453024119,-2.625300884,-0.945457339,-0.342804909,-0.024800278,0.294003427,-0.27139616,0.388039112,-2.93574667
3.379761696,0.559618592,0.319045395,-1.02799046,0.390021265,-2.638958693,-0.98312968,-0.337124735,-0.024463668,0.298596114,-0.270043761,0.37418431,-2.93676424
3.384758711,0.563983858,0.328952491,-1.001697302,0.33365491,-2.632209778,-1.014503479,-0.327550411,-0.023946088,0.306201696,-0.269059837,0.36038354,-2.93787384
3.389757156,0.567152679,0.341437697,-0.977805018,0.284702659,-2.610616207,-1.040272117,-0.324375749,-0.023774467,0.308723569,-0.268390328,0.346714914,-2.939082623
3.39475584,0.571633399,0.348139167,-0.948558629,0.250441223,-2.571732998,-1.06062448,-0.321933061,-0.023642417,0.310663998,-0.267928302,0.333258986,-2.940393209
3.399755716,0.576631606,0.349336952,-0.926674545,0.22595267,-2.519785166,-1.080029845,-0.321123093,-0.023598632,0.3113074,-0.267631203,0.320081055,-2.94183588
3.404756784,0.588592231,0.345782429,-0.906390309,0.210687518,-2.457238674,-1.101554036,-0.306788623,-0.023386845,0.323130369,-0.267435908,0.30724287,-2.94337225
3.409758806,0.611269116,0.338223308,-0.894817114,0.199673727,-2.389114618,-1.125272989,-0.3020356,-0.02331662,0.327050626,-0.267306834,0.29478237,-2.94512558
3.414755583,0.626280844,0.328162283,-0.88191843,0.184053391,-2.317692041,-1.144531369,-0.298378468,-0.023262588,0.330067009,-0.267275035,0.282691121,-2.947067022
3.419754028,0.640385032,0.318615437,-0.875107288,0.167621762,-2.253554106,-1.157400846,-0.297165811,-0.023244673,0.331067175,-0.267327189,0.270938873,-2.949159145
3.424753189,0.654060483,0.309961349,-0.868966877,0.15328674,-2.191813707,-1.158398867,-0.287148833,-0.023967611,0.337111086,-0.267423034,0.259522021,-2.951282978
3.429753065,0.671751618,0.297600001,-0.865041673,0.144228861,-2.133567095,-1.14794302,-0.281579524,-0.024389626,0.340420276,-0.267512947,0.248457491,-2.953427553
3.434754133,0.692954242,0.284744591,-0.862091243,0.129949898,-2.083737373,-1.126707196,-0.277294308,-0.024714341,0.342966497,-0.267610401,0.237714961,-2.955532789
3.439762354,0.713423431,0.271853805,-0.860000372,0.113865182,-2.049487114,-1.102229834,-0.275873423,-0.02482201,0.343810797,-0.267714858,0.22721909,-2.957562447
3.444765806,0.722741783,0.259432524,-0.855761409,0.090030976,-2.025283098,-1.075866461,-0.269847929,-0.025517667,0.347835213,-0.267878056,0.216896012,-2.959490299
3.449764013,0.736070752,0.249059886,-0.856090903,0.064145721,-2.011130333,-1.046125412,-0.262876362,-0.026366295,0.352572799,-0.268103778,0.206710979,-2.961277723
3.454762936,0.747498691,0.253149003,-0.855911553,0.041865781,-2.001204014,-1.005953431,-0.257512212,-0.027019257,0.35621804,-0.268375158,0.196661785,-2.962826729
3.459762573,0.758915126,0.257249922,-0.854428649,0.021503884,-1.986844897,-0.970804632,-0.25573355,-0.027235767,0.357426733,-0.268724591,0.186751634,-2.964197159
3.464763641,0.772886097,0.264474988,-0.845420599,0.007499523,-1.972547531,-0.935845733,-0.254365027,-0.027402354,0.358356744,-0.26909712,0.177005067,-2.965369225
3.469765425,0.782553971,0.27891323,-0.832811117,0.008979979,-1.962640047,-0.89848876,-0.245521352,-0.028453145,0.361985326,-0.269440353,0.167396635,-2.966273069
3.47476244,0.781191587,0.294321239,-0.814791739,0.016622685,-1.957017183,-0.8568995,-0.238716751,-0.029261656,0.364777297,-0.269722044,0.157870457,-2.966892958
3.47976017,0.774209023,0.296833277,-0.798388183,0.028324697,-1.94811368,-0.810576975,-0.236460477,-0.029529745,0.365703046,-0.269895732,0.14845401,-2.967287302
3.484759092,0.768335998,0.280459374,-0.783284307,0.035114992,-1.932526231,-0.762547374,-0.234724432,-0.02973602,0.366415352,-0.269962668,0.13919352,-2.96750617
3.48975873,0.759535968,0.248013005,-0.763730586,0.027925804,-1.909317136,-0.713709593,-0.229247257,-0.030161489,0.36949116,-0.269983023,0.130111828,-2.967583418
3.494759798,0.752221227,0.215319857,-0.748880446,0.002394107,-1.880207539,-0.66044122,-0.220076725,-0.030849917,0.374729097,-0.27006489,0.121258982,-2.967521429
3.49976182,0.735128582,0.198112249,-0.726532936,-0.027367203,-1.846740961,-0.603625,-0.217035949,-0.031078186,0.376465917,-0.270257801,0.11262922,-2.967251301
3.50475955,0.716521084,0.18417722,-0.697767913,-0.05836546,-1.812125802,-0.542291939,-0.214696288,-0.031253822,0.377802283,-0.270573705,0.104238518,-2.966746807
3.509757519,0.694746733,0.172453642,-0.66170752,-0.087805375,-1.768316388,-0.471879393,-0.213920504,-0.031312063,0.378245384,-0.270996511,0.096134484,-2.965956688
3.514756918,0.663600504,0.178112775,-0.629648864,-0.104410887,-1.717632294,-0.397034436,-0.203855708,-0.031639539,0.382333368,-0.271513492,0.088342555,-2.964799166
3.519756794,0.620308518,0.196647406,-0.595547676,-0.103851423,-1.647665977,-0.317485958,-0.200518414,-0.031748123,0.383688867,-0.272042453,0.080941118,-2.963266611
3.524757862,0.586727798,0.210266218,-0.571220875,-0.090665244,-1.555569291,-0.242939666,-0.197950587,-0.031831674,0.384731859,-0.272511393,0.074056201,-2.961452961
3.529759645,0.568068624,0.215212092,-0.555707157,-0.071599714,-1.452561855,-0.176881626,-0.197099149,-0.031859376,0.385077685,-0.27288124,0.067751385,-2.959441662
3.534757137,0.556796551,0.204648331,-0.546030462,-0.059283432,-1.347109437,-0.126068726,-0.189374596,-0.031734969,0.388301373,-0.273162335,0.062025111,-2.95735383
3.539755583,0.557216465,0.195279926,-0.544465303,-0.069963612,-1.246657252,-0.093093842,-0.185063928,-0.031657659,0.390102178,-0.273487657,0.056840744,-2.955272675
3.544754505,0.5574404,0.192922562,-0.549393892,-0.094132632,-1.153950214,-0.076633215,-0.181747168,-0.031598173,0.391487747,-0.273957133,0.052116074,-2.953238249
3.549754381,0.552994251,0.191618845,-0.551942289,-0.131934509,-1.068261266,-0.07753823,-0.180647388,-0.031578448,0.39194718,-0.274643123,0.047791526,-2.951336384
3.554755211,0.553596795,0.19839029,-0.554191232,-0.177513093,-0.98635447,-0.09020742,-0.176872179,-0.031233257,0.393465638,-0.275583327,0.04384179,-2.949572325
3.559757233,0.547871351,0.213439792,-0.551502347,-0.218184218,-0.904321611,-0.115382962,-0.172666788,-0.030786015,0.395143867,-0.276769876,0.040241849,-2.947952986
3.564754248,0.544519782,0.237852231,-0.547039211,-0.250424266,-0.821429968,-0.148889601,-0.169431031,-0.030441893,0.396435171,-0.278177112,0.036995113,-2.946523428
3.569752693,0.543369412,0.267635822,-0.542544603,-0.258946627,-0.736367285,-0.187948525,-0.168358102,-0.030327788,0.396863341,-0.279677451,0.034105934,-2.94529438
3.574757338,0.546842217,0.300044537,-0.540484667,-0.250163734,-0.65340203,-0.227366284,-0.167532563,-0.030239992,0.397192776,-0.281189561,0.031570129,-2.944242954
3.579757214,0.559962451,0.33624807,-0.544616282,-0.221926481,-0.578533292,-0.268743128,-0.163541242,-0.030480312,0.397889704,-0.282600343,0.029373726,-2.943335772
3.58475852,0.582138121,0.358794361,-0.552203894,-0.183328554,-0.514925361,-0.315737516,-0.160470188,-0.030665223,0.398425907,-0.283847332,0.027426872,-2.942651272
3.589760542,0.611325622,0.364496827,-0.557682157,-0.130934969,-0.45745489,-0.368616521,-0.159451887,-0.030726535,0.398603708,-0.284823775,0.025749359,-2.9422822
3.594757557,0.635952234,0.359653056,-0.558688045,-0.073539175,-0.409233332,-0.422734469,-0.158668369,-0.03077371,0.39874053,-0.285497874,0.024253109,-2.942245483
3.599755526,0.653423548,0.353112638,-0.545530021,-0.014822844,-0.372845799,-0.467415988,-0.156897634,-0.031036856,0.400171459,-0.285882413,0.022889087,-2.942453623
3.604754448,0.657288194,0.341510564,-0.519101202,0.046188802,-0.332563043,-0.494374722,-0.15400739,-0.031489592,0.402673513,-0.285955846,0.021674465,-2.94284296
3.609754324,0.655782342,0.329075694,-0.481928617,0.109239422,-0.27785036,-0.500042856,-0.153049022,-0.03163971,0.40350312,-0.285712332,0.020732434,-2.943321228
3.614755869,0.66164583,0.30287534,-0.442924827,0.170160756,-0.204993308,-0.474464625,-0.152311638,-0.031755216,0.404141456,-0.285129905,0.02019565,-2.943818808
3.619757891,0.674910128,0.271405309,-0.40928039,0.22491084,-0.121575095,-0.422293305,-0.15206714,-0.031793516,0.404353112,-0.284225464,0.020180624,-2.944232702
3.624754667,0.695078433,0.237120524,-0.384147108,0.258016348,-0.026636431,-0.342852056,-0.150152683,-0.031375837,0.405287862,-0.283120602,0.020793427,-2.94444108
3.629752398,0.731163979,0.195549354,-0.368928373,0.26815778,0.065411925,-0.247693449,-0.149517879,-0.031237341,0.405597806,-0.28190732,0.022057081,-2.944419861
3.634751558,0.518935263,0.053124622,-0.475559235,0.187325507,0.182499766,-0.14492549,-0.149029449,-0.03113078,0.405836284,-0.280711412,0.023671854,-2.944696665
3.639751196,0.414630979,-0.228569269,-0.178804785,-0.316152513,0.745108485,0.175115719,-0.148867488,-0.031095447,0.40591538,-0.281818748,0.027463846,-2.945925474
3.644752979,1.280751586,0.165561438,0.177840084,-0.311263323,1.328384161,0.190009743,-0.148757204,-0.030195946,0.406764209,-0.284424484,0.037938308,-2.943826675
3.649755239,0.143287912,0.200373232,0.728919148,-0.177762628,1.776385546,0.136995569,-0.148724183,-0.029681833,0.407240659,-0.285898477,0.04647724,-2.943609715
3.654752731,0.1219237,0.139357343,0.768955946,-0.194728673,2.523685455,0.149028659,-0.148698777,-0.029286258,0.407607257,-0.287618339,0.059327122,-2.944696426
3.659750462,0.091478571,-0.115368925,0.221341327,-0.342155665,3.005223751,0.195989564,-0.148690358,-0.029155092,0.407728821,-0.289321542,0.074759327,-2.948077202
3.664749384,-0.015749915,-0.066876233,-0.417807221,-0.507990181,3.488701105,0.135914788,-0.151786864,-0.029095814,0.406231195,-0.291980445,0.09183602,-2.952890873
3.66974926,0.217306823,0.21302256,-1.062483072,-0.628192902,3.769372702,0.12804167,-0.155942664,-0.029118152,0.404130101,-0.295653701,0.110595271,-2.957677126
3.67475009,0.547835827,0.593020797,-1.608818054,-0.490593791,3.65839529,0.197098702,-0.159140259,-0.029135339,0.402513444,-0.2989631,0.129272401,-2.960785151
3.679752111,0.697332561,0.732774198,-1.827005029,-0.267692477,3.262485027,0.343731821,-0.160200521,-0.029141039,0.40197739,-0.300899029,0.146013379,-2.962308645
3.684749365,0.427719325,0.505901694,-1.818784356,-0.13122347,2.948149443,0.528308868,-0.16101633,-0.029145425,0.401564926,-0.301493406,0.160691261,-2.963608265
3.689746857,0.539107502,0.280666441,-1.580993891,-0.092749648,2.928189039,0.709036529,-0.174420372,-0.029800219,0.396998942,-0.301576436,0.176122054,-2.964451313
3.694746256,0.45928514,0.129884109,-1.36008513,-0.121923037,2.901777267,0.757831752,-0.184733883,-0.030304041,0.393485695,-0.301765591,0.191379085,-2.965387821
3.699746609,0.506090045,-0.065707535,-1.196513772,-0.251570433,3.092188358,0.801177502,-0.188153654,-0.030471098,0.392320782,-0.302392721,0.207839981,-2.966995478
3.704747438,0.882019341,0.118751794,-1.227125645,-0.369119585,3.205073595,0.804361045,-0.190784931,-0.030599637,0.391424447,-0.304174632,0.225628868,-2.967681408
3.709755659,1.228303075,0.357197672,-1.43237555,-0.438812256,3.146181583,0.753570914,-0.198842213,-0.030153139,0.388463676,-0.30670476,0.243444592,-2.967869043
3.714758635,1.493783712,0.508419037,-1.594694853,-0.422028124,2.896363497,0.70542413,-0.212306708,-0.029315013,0.383492291,-0.309144199,0.260056198,-2.967571497
