Time,inertial-6253.76535:scaledAccelX,inertial-6253.76535:scaledAccelY,inertial-6253.76535:scaledAccelZ,inertial-6253.76535:scaledGyroX,inertial-6253.76535:scaledGyroY,inertial-6253.76535:scaledGyroZ,inertial-6253.76535:scaledMagX,inertial-6253.76535:scaledMagY,inertial-6253.76535:scaledMagZ,inertial-6253.76535:roll,inertial-6253.76535:pitch,inertial-6253.76535:yaw
0,0.3243935406208038,0.2316713631153107,-0.91463542,-0.066512391,0.000160173,0.034606922,0.070628658,0.002210298,0.2574792504310608,-0.230349302,0.3300473988056183,-0.393603384
0.004998144,0.3236830532550812,0.2356439381837845,-0.910769224,-0.055793215,-0.001250405,0.030802248,0.070628822,0.002150879,0.2574097812175751,-0.230612785,0.3300727605819702,-0.393498778
0.009997056,0.3248017430305481,0.2263346761465073,-0.915045261,-0.048687171,0.000748208,0.024453316,0.070628941,0.002105161,0.2573563158512115,-0.230824575,0.3301165103912354,-0.393402874
0.014997248,0.3265068829059601,0.2251035273075104,-0.919334948,-0.04588173,-0.001923072,0.019152265,0.07057856,0.001950013,0.258592427,-0.231026053,0.3301276564598083,-0.393307924
0.01999872,0.3270599544048309,0.2332419455051422,-0.917869031,-0.042613313,-0.005504785,0.011025887,0.070539795,0.001830637,0.2595435082912445,-0.231243357,0.3301196098327637,-0.393283248
0.02500096,0.3227145373821259,0.2326809465885162,-0.910235941,-0.036232725,-0.010346957,0.004796873,0.070526943,0.001791054,0.2598588764667511,-0.231443927,0.3300611078739166,-0.393300354
0.029998081,0.3256684839725494,0.2373661994934082,-0.908433259,-0.0322726,-0.005791863,0.004551794,0.070517056,0.001760598,0.2601015269756317,-0.231638551,0.3300487995147705,-0.393328547
0.034996223,0.3249737322330475,0.2412873059511185,-0.915297866,-0.020458652,-0.014137389,0.003826395,0.070319638,0.001696045,0.2601271569728851,-0.231770098,0.3299868702888489,-0.393355817
0.039995138,0.3294041156768799,0.243256539,-0.908152342,-0.015248395,-0.016953669,0.003793681,0.069971427,0.001591316,0.2600914537906647,-0.231871337,0.3299051821231842,-0.393378675
0.044995327,0.3310388922691345,0.2465473264455795,-0.914194286,-0.010454663,-0.017699005,-0.003721265,0.069855973,0.00155659,0.2600795924663544,-0.231970996,0.3298273086547852,-0.393457472
0.050002433,0.3267139196395874,0.2398955374956131,-0.910345197,-0.006950535,-0.02687382,-0.00772969,0.06976714,0.00152987,0.2600704729557037,-0.232045144,0.3296849727630615,-0.39352423
0.055004671,0.3238527774810791,0.2410073429346085,-0.908572435,-0.000421533,-0.023279121,-0.005879164,0.06973768,0.00152101,0.2600674629211426,-0.232088923,0.329565704,-0.393584907
0.060002048,0.3219555020332336,0.2389128357172012,-0.918757498,0.010067372,-0.028428974,-0.00862178,0.070108816,0.001369737,0.2598512768745422,-0.232064635,0.3294184803962708,-0.393642902
0.065000191,0.3226416707038879,0.2444531470537186,-0.916575968,0.015159901,-0.032489203,-0.008396965,0.070231877,0.001319578,0.2597796022891998,-0.232044682,0.3292461335659027,-0.393706799
0.069999106,0.3216678500175476,0.2364118546247482,-0.913283646,0.018940786,-0.03452646,-0.010456557,0.070326567,0.001280984,0.2597244381904602,-0.231986776,0.3290517330169678,-0.393773913
0.074999295,0.323482335,0.2366602718830109,-0.917987466,0.023975788,-0.034228001,-0.008649016,0.070357963,0.001268187,0.2597061693668365,-0.23189351,0.3288823664188385,-0.393811315
0.080000259,0.3272558152675629,0.2276772409677505,-0.924126983,0.028988609,-0.037516166,-0.012964864,0.070379406,0.001412621,0.2598989605903625,-0.231765226,0.3286892771720886,-0.393853992
0.085002497,0.3313277959823608,0.2251293212175369,-0.917101383,0.028962599,-0.040129811,-0.015007987,0.070385844,0.00149869,0.2600140571594238,-0.23164849,0.3284896612167358,-0.393891424
0.089999616,0.3326300978660583,0.223315954,-0.915889144,0.024697753,-0.040665206,-0.018518938,0.070390798,0.001564914,0.2601026296615601,-0.231545061,0.3282832205295563,-0.393945247
0.094998017,0.3334640562534332,0.2255066335201263,-0.920153081,0.021334983,-0.043263301,-0.022863481,0.070392437,0.001586873,0.2601320147514343,-0.231482282,0.3280643224716187,-0.394020498
0.099997185,0.3315238952636719,0.2203561812639236,-0.917414546,0.019219741,-0.048042689,-0.028580338,0.070619442,0.001425312,0.2600337862968445,-0.231419832,0.3277981877326965,-0.394107878
0.104997121,0.3293040692806244,0.2197131514549255,-0.916729987,0.013285545,-0.05083973,-0.030816631,0.070922345,0.001191786,0.2598794400691986,-0.231394202,0.3275297880172729,-0.394192368
0.109998077,0.3287633657455444,0.21591033,-0.918056309,0.00891359,-0.052341476,-0.038247298,0.071155399,0.001012104,0.2597606778144836,-0.23139891,0.3272430002689362,-0.394310296
0.115000062,0.328752339,0.2205422520637512,-0.916488767,0.003900786,-0.057602894,-0.04174621,0.071232677,0.000952525,0.2597212791442871,-0.231446683,0.3269286453723907,-0.39444232
0.119997181,0.3292659819126129,0.226096511,-0.914643884,0.004288276,-0.058078662,-0.046464585,0.07129214,0.000906683,0.2596909701824188,-0.231493697,0.3266040086746216,-0.394619167
0.124995075,0.328211784,0.2299425452947617,-0.914157689,0.003500595,-0.061050288,-0.051098213,0.071309485,0.001238447,0.2587386071681976,-0.231565759,0.3262571692466736,-0.394838274
0.129994243,0.329070657,0.2323567420244217,-0.915968299,0.003863608,-0.063255168,-0.056422584,0.071322821,0.001493716,0.258005828,-0.231641531,0.3258991539478302,-0.395076036
0.134994179,0.3244419991970062,0.2281236201524734,-0.917695105,0.004617371,-0.068469264,-0.05909688,0.071327247,0.001578359,0.2577628493309021,-0.231704757,0.325502336,-0.395313025
0.139995396,0.323228657,0.2292197942733765,-0.916130543,0.004888369,-0.072994672,-0.063757561,0.071330652,0.001643486,0.2575758993625641,-0.231784761,0.3250758945941925,-0.39557904
0.144997373,0.322415829,0.2250079363584518,-0.919484615,0.004714513,-0.072818816,-0.069025978,0.07138931,0.001548087,0.257454902,-0.231858626,0.3246474862098694,-0.395852268
0.149994493,0.3222968876361847,0.2247699052095413,-0.920280159,0.005377235,-0.074366078,-0.072822541,0.071492612,0.001356386,0.2573021650314331,-0.23193647,0.3242102265357971,-0.396138638
0.15499264,0.3244187831878662,0.2189040333032608,-0.920279205,0.005903526,-0.078153454,-0.078003518,0.071526863,0.001292821,0.257251501,-0.232008919,0.3237410187721252,-0.396432102
0.159991801,0.3276889622211456,0.2138102054595947,-0.922399759,0.002476207,-0.080982298,-0.082422182,0.071553215,0.001243913,0.2572125196456909,-0.232090369,0.3232679069042206,-0.396716714
0.164992005,0.3261788487434387,0.2084182798862457,-0.922694743,-0.004352612,-0.08541213,-0.086828016,0.071561955,0.001227696,0.257199615,-0.23221311,0.3227620422840118,-0.397016674
0.169993728,0.3253208696842194,0.2030531018972397,-0.922555685,-0.012372312,-0.085260041,-0.093033701,0.07189364,0.001277035,0.2572519183158875,-0.232369691,0.3222508728504181,-0.397335082
0.174995974,0.3252673745155334,0.20271121,-0.924572647,-0.021165967,-0.085787416,-0.096408181,0.072003625,0.001293395,0.2572692334651947,-0.232576892,0.321737677,-0.397663713
0.179993093,0.3222018778324127,0.2101618945598602,-0.925732672,-0.02644646,-0.086418085,-0.097157195,0.072088256,0.001305983,0.2572825849056244,-0.232831225,0.3212093412876129,-0.398026586
0.184997126,0.3225164711475372,0.2086441218852997,-0.922976196,-0.036302891,-0.083903722,-0.101565272,0.072116315,0.001310157,0.2572869956493378,-0.233128428,0.3207034468650818,-0.398408532
0.189996287,0.321798563,0.2108759880065918,-0.923714101,-0.045633238,-0.081202149,-0.103213467,0.072280712,0.001518928,0.2578588128089905,-0.233489171,0.3202040195465088,-0.398806185
0.194996476,0.3101898431777954,0.2111852169036865,-0.926863134,-0.055869758,-0.078826182,-0.099905506,0.072370566,0.001639019,0.2581890523433685,-0.233891979,0.3196882307529449,-0.399202287
0.19999744,0.3064827620983124,0.2251690477132797,-0.922391236,-0.057346281,-0.072111182,-0.100294419,0.0724397,0.00173142,0.2584431767463684,-0.23432669,0.3192072510719299,-0.399645269
0.204999685,0.3021676540374756,0.2360265702009201,-0.921005547,-0.062070023,-0.068559922,-0.102809764,0.072462626,0.001762059,0.2585274279117584,-0.234809235,0.3187417387962341,-0.400139123
0.209996805,0.305223674,0.2332568466663361,-0.920017004,-0.065061852,-0.064482674,-0.109688945,0.072677106,0.001776176,0.2579667866230011,-0.235313877,0.3182997107505798,-0.400664449
0.214994937,0.3100651502609253,0.2303452491760254,-0.920481801,-0.062499743,-0.0617636,-0.113882698,0.072946705,0.00177132,0.2571501731872559,-0.235803559,0.3178691864013672,-0.401193261
0.21999386,0.3078307211399078,0.2273585796356201,-0.925810516,-0.064458542,-0.067106947,-0.114834905,0.073154151,0.001767584,0.2565218508243561,-0.236285731,0.3173969984054565,-0.401703268
0.224994048,0.3088836669921875,0.2324168235063553,-0.919790208,-0.062143877,-0.066867895,-0.11870414,0.073222935,0.001766346,0.2563135027885437,-0.236787066,0.3169276118278503,-0.402251422
0.229995012,0.3064967393875122,0.2269471138715744,-0.915546656,-0.062812082,-0.064995423,-0.119185999,0.073275864,0.001765392,0.2561531960964203,-0.237271577,0.3164635300636292,-0.402795494
0.234997243,0.3091239929199219,0.2263950556516647,-0.91553086,-0.062807918,-0.060069721,-0.115922354,0.073538765,0.001566692,0.2571402490139008,-0.237746701,0.3160417675971985,-0.403307199
0.239994362,0.3100784718990326,0.2241735011339188,-0.921619177,-0.064162351,-0.061151482,-0.112272412,0.073741056,0.001413806,0.2578997015953064,-0.238224179,0.3156154453754425,-0.403790116
0.244992509,0.3052715361118317,0.2311403453350067,-0.916127086,-0.065030158,-0.066963479,-0.108571194,0.073808126,0.001363112,0.2581515312194824,-0.238709778,0.3151513338088989,-0.404273808
0.249991685,0.3059102,0.2394666373729706,-0.911038697,-0.06145731,-0.059647545,-0.103986137,0.073859736,0.001324107,0.2583453059196472,-0.239202872,0.3147391676902771,-0.404771745
0.254991621,0.308461994,0.2377850860357285,-0.920063376,-0.059649769,-0.063049689,-0.10299474,0.073823884,0.00122058,0.2578490674495697,-0.239652142,0.3143190145492554,-0.40524435
0.25999257,0.3144889175891876,0.2279551923274994,-0.924010694,-0.055955648,-0.067744628,-0.099119388,0.073742725,0.001049319,0.2569005489349365,-0.240058437,0.3138843774795532,-0.405638099
0.264994562,0.310865581,0.2135915756225586,-0.923189402,-0.060314983,-0.072107606,-0.0995299,0.073715813,0.000992532,0.2565860450267792,-0.240458637,0.3134124279022217,-0.406009704
0.269991666,0.3114256262779236,0.2061520218849182,-0.922778547,-0.069263704,-0.065852091,-0.097893991,0.073695101,0.000948839,0.2563440501689911,-0.240900159,0.3129831552505493,-0.406347245
0.274989575,0.3151206076145172,0.2093331515789032,-0.930447996,-0.0803155,-0.065127954,-0.098659724,0.073688239,0.000934351,0.2562638223171234,-0.241404235,0.3125690817832947,-0.406706631
0.279988736,0.3152268528938293,0.2195431292057037,-0.931532383,-0.088588558,-0.067522965,-0.098190881,0.073752157,0.000651337,0.2561345398426056,-0.241961867,0.3121276497840881,-0.407082796
0.284988672,0.3082556426525116,0.23371622,-0.927279472,-0.095659323,-0.0674375,-0.093238175,0.073773347,0.000557494,0.2560916543006897,-0.242588148,0.3116838335990906,-0.407482505
0.28998962,0.2994771003723145,0.2500441372394562,-0.920575142,-0.094106421,-0.063239016,-0.089342222,0.073789649,0.000485289,0.2560586631298065,-0.243227035,0.3112534880638123,-0.407918453
0.294991612,0.2915692627429962,0.2570188045501709,-0.922511518,-0.090396725,-0.062189881,-0.08079306,0.073795058,0.000461347,0.2560477554798126,-0.243823931,0.3108179271221161,-0.408325255
0.299988747,0.2902795076370239,0.2713827788829803,-0.923934877,-0.083944663,-0.054784667,-0.071653649,0.074242674,0.000331844,0.255927712,-0.244404331,0.3104415237903595,-0.408724129
0.304986626,0.2967489957809448,0.2801419198513031,-0.926322281,-0.070271842,-0.052970115,-0.066525675,0.074500829,0.000261415,0.2558602690696716,-0.244913325,0.3100887537002563,-0.409111917
0.309985787,0.3039899170398712,0.2771577537059784,-0.918876171,-0.057608169,-0.053494506,-0.061729264,0.074699461,0.000207225,0.2558083832263947,-0.245352253,0.3097433149814606,-0.409458101
0.314985722,0.30813545,0.2690621018409729,-0.91673857,-0.049030866,-0.043204993,-0.057384986,0.074765325,0.000189256,0.255791187,-0.245720863,0.3094742000102997,-0.409767449
0.319993347,0.3052574694156647,0.2603509426116943,-0.923302948,-0.041921332,-0.043715954,-0.058695741,0.07473319,0.000119362,0.2557801902294159,-0.246040195,0.3091909289360046,-0.410064131
0.324996084,0.3059183061122894,0.2527664303779602,-0.924134672,-0.042305261,-0.041324943,-0.055384841,0.07463903,3.964635834563524e-05,0.2557788193225861,-0.246351376,0.3089253902435303,-0.410321504
0.329993725,0.3071735203266144,0.2491797208786011,-0.923862338,-0.043011006,-0.035274476,-0.05234329,0.07456658,-2.17E-05,0.2557777464389801,-0.246657938,0.3087010383605957,-0.410565197
0.334991872,0.3051161468029022,0.2437845915555954,-0.926172733,-0.041909259,-0.032835558,-0.049702633,0.07454256,-4.20E-05,0.2557773888111115,-0.2469524,0.3084836006164551,-0.410791576
0.339990795,0.2912053167819977,0.2395937293767929,-0.92506355,-0.043410689,-0.031091148,-0.040264819,0.074524075,-5.77E-05,0.255777121,-0.247220799,0.3082587420940399,-0.410960078
0.34499073,0.2799074351787567,0.2455316483974457,-0.919847548,-0.043702614,-0.016715694,-0.027583105,0.074719116,-0.000373318,0.2555680871009827,-0.247490972,0.3081016540527344,-0.411108285
0.349991679,0.2766764461994171,0.2570340037345886,-0.922487199,-0.039300159,0.003363808,-0.01789674,0.074869186,-0.000616184,0.2554072737693787,-0.247760937,0.3080713152885437,-0.411269695
0.35499391,0.2830396890640259,0.2738421559333801,-0.927374244,-0.032107949,0.016043246,-0.009023556,0.074918948,-0.000696713,0.2553539574146271,-0.24801603,0.3081155121326447,-0.411437511
0.359991044,0.2908483147621155,0.2748906910419464,-0.927211225,-0.020189304,0.024633911,-0.001467046,0.074957237,-0.000758675,0.2553128898143768,-0.248184875,0.3082161247730255,-0.41157037
0.364989191,0.2989514768123627,0.2695884108543396,-0.928535402,-0.01130318,0.032350995,0.00447058,0.075049967,-0.00065897,0.2560069561004639,-0.24829416,0.3083760738372803,-0.411655515
0.369988084,0.3074058890342712,0.2590733170509338,-0.929327607,-0.004992245,0.035843108,0.008584326,0.075202234,-0.000460662,0.2572565078735352,-0.248343095,0.3085733950138092,-0.411691874
0.374988288,0.3120126724243164,0.2564110159873962,-0.932833254,-0.004399762,0.03933388,0.0114407,0.075252719,-0.000394907,0.2576708495616913,-0.248391196,0.3087910413742065,-0.411713421
0.379989237,0.3148354589939117,0.2567937672138214,-0.934922099,-0.002940265,0.041595645,0.014585867,0.075291567,-0.000344313,0.2579896450042725,-0.248429462,0.3090218901634216,-0.411716551
0.384991497,0.3152806162834167,0.2557368278503418,-0.932549477,5.954688822384924e-05,0.046229973,0.015688131,0.075304449,-0.000327537,0.2580953538417816,-0.248452276,0.3092793524265289,-0.411723673
0.389988601,0.3152761161327362,0.2491317540407181,-0.934000075,0.000646299,0.04947171,0.02074858,0.075052701,-0.000307049,0.2584587931632996,-0.248450339,0.3095579743385315,-0.411698878
0.394986749,0.313512385,0.2536301612854004,-0.925602138,0.001231579,0.050086901,0.022806613,0.074969232,-0.000300255,0.258579284,-0.248462126,0.3098372519016266,-0.411675423
0.399986446,0.3126761913299561,0.2522623538970947,-0.921397984,0.004164695,0.053154558,0.025630059,0.074905008,-0.000295028,0.2586720287799835,-0.248447791,0.3101400434970856,-0.411640614
0.404987127,0.3076846301555634,0.2493776679039001,-0.922120512,0.01051177,0.05328716,0.03306447,0.074883714,-0.000293295,0.2587027847766876,-0.248382658,0.3104421198368073,-0.411562741
0.409988344,0.3058198690414429,0.2496212273836136,-0.925770164,0.013204204,0.059371393,0.036977321,0.074822672,-0.000547829,0.2584173679351807,-0.248302698,0.3107720613479614,-0.411466897
0.414990336,0.3076619505882263,0.2506410777568817,-0.92797941,0.017427729,0.062005464,0.041316096,0.074791379,-0.000695543,0.2582462728023529,-0.248198345,0.311130017,-0.411354274
0.41998747,0.3150687515735626,0.2500208616256714,-0.923258185,0.020917004,0.062382858,0.045675892,0.074767299,-0.000809199,0.2581146359443665,-0.248073161,0.3114956617355347,-0.411216259
0.424985349,0.3156881034374237,0.2487133145332336,-0.924138606,0.0243755,0.059599154,0.043898709,0.074759319,-0.000846885,0.2580709755420685,-0.247931272,0.3118533790111542,-0.411073625
0.42998451,0.3144295215606689,0.2490207701921463,-0.923226178,0.023755612,0.05740222,0.045927484,0.074777894,-0.000673435,0.2581530511379242,-0.247792363,0.3121902346611023,-0.410931081
0.434984446,0.3136706650257111,0.242596447,-0.923545897,0.021896336,0.055121161,0.045309197,0.074808978,-0.000411775,0.2582968771457672,-0.247636497,0.3125154972076416,-0.410775125
0.439985394,0.3174225687980652,0.2402316778898239,-0.923418283,0.020929229,0.055749219,0.041028243,0.074832894,-0.000210446,0.2584075331687927,-0.247501776,0.3128591179847717,-0.410634577
0.444987386,0.3193307816982269,0.2380346357822418,-0.923766613,0.016998846,0.052786574,0.037794404,0.074840821,-0.000143689,0.25844422,-0.247386202,0.3131683766841888,-0.410505444
0.449984521,0.3189246654510498,0.2400765866041183,-0.922506988,0.013958179,0.048928324,0.035763804,0.074846923,-9.23E-05,0.2584724724292755,-0.247293666,0.3134724199771881,-0.410385013
0.454988539,0.316183329,0.2491562813520432,-0.918756068,0.012368441,0.047642227,0.034380421,0.074561194,-0.000334036,0.2573433518409729,-0.247237131,0.3137507438659668,-0.410291046
0.4599877,0.313377708,0.246644601,-0.916051507,0.015311519,0.044810649,0.033792485,0.074341334,-0.000520018,0.2564745843410492,-0.247151002,0.3140103816986084,-0.410198331
0.464987636,0.3113206028938293,0.2489784061908722,-0.914023519,0.018946679,0.044978004,0.035992831,0.074268438,-0.000581685,0.2561865150928497,-0.247040287,0.3142894506454468,-0.410089403
0.469988853,0.3118403255939484,0.2582358717918396,-0.915746629,0.025527855,0.040014755,0.037596695,0.07421235,-0.000629135,0.2559648752212524,-0.246916592,0.3145327568054199,-0.409997195
0.47499162,0.3123961389064789,0.2603324055671692,-0.910061181,0.03657857,0.037931014,0.04039143,0.074138567,-0.000700665,0.2559819221496582,-0.246738493,0.3147637248039246,-0.40989247
0.479989499,0.3123606741428375,0.2581954896450043,-0.91083777,0.044619918,0.036531162,0.043732539,0.074025996,-0.000812121,0.2560865581035614,-0.246503994,0.3149968981742859,-0.409763515
0.484987646,0.3133643269538879,0.2559646666049957,-0.913476229,0.052870702,0.031312756,0.045777541,0.073988669,-0.000849078,0.2561212480068207,-0.246207833,0.3152157366275787,-0.40959993
0.489986807,0.3152419030666351,0.2550166845321655,-0.911093831,0.059055399,0.029643478,0.045857083,0.073959954,-0.000877514,0.2561479508876801,-0.245891631,0.3154218196868896,-0.409435868
0.494986743,0.3205853998661041,0.2467045485973358,-0.912876308,0.063450173,0.030222027,0.043781802,0.073950432,-0.000886942,0.2561568021774292,-0.245541215,0.3156440556049347,-0.409257054
0.499987721,0.3207776546478271,0.2342256903648376,-0.917840362,0.062875196,0.027756985,0.042708594,0.074069887,-0.00088469,0.257477343,-0.245168418,0.3158486485481262,-0.409048796
0.504989982,0.3177851140499115,0.2316692024469376,-0.917076588,0.061912157,0.022300616,0.04059938,0.074109495,-0.000883943,0.257915199,-0.244805053,0.3160099387168884,-0.408839017
0.509987056,0.3132845759391785,0.2313476055860519,-0.920629501,0.058068249,0.022324447,0.037375066,0.074139968,-0.000883368,0.2582520842552185,-0.244467989,0.3161643743515015,-0.408664852
0.514985204,0.3110819160938263,0.2314588576555252,-0.922797859,0.055822231,0.022345994,0.040551484,0.074150071,-0.000883178,0.258363813,-0.244138762,0.3163195252418518,-0.408465087
0.519984126,0.3118324279785156,0.2426472157239914,-0.920831501,0.052126709,0.020016735,0.038857274,0.073862523,-0.000729247,0.2579845488071442,-0.243855014,0.3164582848548889,-0.408312082
0.5249843,0.3098344802856445,0.2490537464618683,-0.921498179,0.054619439,0.018915432,0.037568174,0.073694102,-0.000640153,0.2577436864376068,-0.243567526,0.3165889382362366,-0.408177704
0.529985309,0.3155231177806854,0.2451484650373459,-0.918725848,0.054396156,0.015615872,0.03555803,0.073564515,-0.000571601,0.2575583457946777,-0.243261904,0.3167115151882172,-0.40802747
0.534987509,0.3204086124897003,0.2387157082557678,-0.920337617,0.054440916,0.012758087,0.031072546,0.073521547,-0.00054887,0.2574968934059143,-0.242963031,0.3168291747570038,-0.407880127
0.539984643,0.3220152258872986,0.2303686589002609,-0.923790216,0.049945962,0.008452401,0.031909335,0.073375322,-0.000331108,0.2570350468158722,-0.242657736,0.316917747,-0.40769124
0.544982791,0.3179512321949005,0.2339079231023788,-0.921563983,0.047302302,0.005930364,0.030857135,0.07321272,-5.69E-05,0.2564638555049896,-0.242393345,0.3169896006584167,-0.407535553
0.549981713,0.3192808330059052,0.2334821224212646,-0.924536884,0.044533081,0.002135633,0.029025391,0.07308761,0.000153998,0.2560243606567383,-0.242132559,0.3170472383499146,-0.407383263
0.554981887,0.3195266127586365,0.2404364943504333,-0.921178937,0.042008415,0.001981072,0.027875455,0.073046125,0.000223944,0.2558786273002625,-0.241907567,0.3170892596244812,-0.407257736
0.559983075,0.3163584768772125,0.2385929971933365,-0.925416291,0.042766329,0.000489986,0.028233353,0.073014207,0.000277763,0.2557665109634399,-0.241669789,0.317129523,-0.407121897
0.564985335,0.3173345327377319,0.2360504865646362,-0.924095929,0.037078876,0.001025442,0.028018331,0.07310193,0.000293233,0.2556753158569336,-0.2414556,0.3171752989292145,-0.406973422
0.569982708,0.3142164647579193,0.2424307614564896,-0.921659768,0.034335442,-0.001101809,0.027864709,0.073169433,0.000305135,0.2556051313877106,-0.241273344,0.3172089159488678,-0.406850934
0.574980855,0.312572569,0.251565695,-0.918368638,0.033889711,0.004796147,0.025854655,0.073191814,0.000309082,0.2555818557739258,-0.241114303,0.3172569274902344,-0.406775922
0.579980016,0.3081226348876953,0.2506038844585419,-0.919745147,0.036842462,0.007348758,0.028095424,0.073209032,0.000312119,0.2555639445781708,-0.240929618,0.3173158168792725,-0.406688631
0.584979951,0.3057796955108643,0.2475234121084213,-0.918678403,0.041461717,0.009022366,0.031932794,0.073241964,0.000342242,0.2556459903717041,-0.240706354,0.3173936009407043,-0.40656963
0.589987099,0.3048630058765411,0.2474750280380249,-0.918439865,0.044697676,0.010058774,0.036313239,0.073294826,0.00039486,0.2557980418205261,-0.240462646,0.3174696862697601,-0.406443864
0.5949893,0.3076052665710449,0.248375878,-0.917697489,0.048040565,0.015036091,0.038224313,0.07331235,0.000412308,0.2558484673500061,-0.24020645,0.3175828158855438,-0.406313986
0.599986672,0.3128620088100433,0.2443361878395081,-0.921353042,0.052357975,0.016345369,0.039707061,0.073325843,0.000425732,0.2558872401714325,-0.239917055,0.3177082538604736,-0.406155288
0.604984581,0.3158313035964966,0.2396913915872574,-0.918674052,0.051788308,0.014770051,0.038418919,0.073330313,0.000430184,0.255900115,-0.239626035,0.3178274035453796,-0.405992389
0.609983742,0.31831041,0.2308945953845978,-0.922747374,0.050720993,0.01435096,0.038472638,0.073529802,0.000428557,0.2557677030563354,-0.239320174,0.3179515,-0.405793995
0.614983678,0.3171859085559845,0.2282631695270538,-0.924356639,0.047482096,0.012796047,0.036245149,0.073595949,0.000428017,0.2557238042354584,-0.239028141,0.3180586695671082,-0.405603349
0.619984925,0.319431335,0.22914058,-0.92362386,0.043441445,0.011574198,0.035024945,0.073646843,0.000427602,0.2556900382041931,-0.238769129,0.3181638717651367,-0.405423045
0.624986887,0.3188851177692413,0.2270664125680923,-0.922573864,0.03894655,0.013624009,0.031401519,0.073663719,0.000427465,0.2556788325309753,-0.238534838,0.3182730674743652,-0.405263811
0.62998426,0.3188089728355408,0.2228906899690628,-0.929039419,0.038478732,0.011088399,0.02955286,0.073574804,0.000538465,0.2565051019191742,-0.23829098,0.3183769285678864,-0.40509519
0.634982407,0.3193782269954681,0.2233755588531494,-0.927258134,0.031007884,0.011802595,0.026573526,0.073520102,0.000602765,0.2569856643676758,-0.238100544,0.3184665739536285,-0.404943943
0.639982104,0.3200347125530243,0.2335516363382339,-0.930333257,0.026181409,0.012009002,0.026106996,0.073478013,0.000652239,0.2573554217815399,-0.23795563,0.3185667395591736,-0.404830933
0.644982278,0.3149435818195343,0.2407938688993454,-0.92830193,0.024779167,0.012420219,0.023676727,0.073464058,0.000668643,0.2574780285358429,-0.237830311,0.3186417818069458,-0.404747933
0.649983466,0.313557506,0.2426906675100327,-0.925699234,0.024501553,0.014572755,0.024141593,0.073425941,0.000680181,0.2573952674865723,-0.237706542,0.3187413811683655,-0.404673785
0.654985726,0.3154221773147583,0.2365846335887909,-0.925838053,0.023099886,0.01608127,0.02288435,0.073385693,0.000682913,0.2571892440319061,-0.237579271,0.3188523948192596,-0.404581487
0.65998286,0.3188510835170746,0.2324917763471603,-0.921664596,0.022352135,0.01627264,0.021706488,0.073354729,0.000685016,0.257030725,-0.23745206,0.3189632296562195,-0.404479414
0.664981008,0.3226383030414581,0.2241979539394379,-0.924582005,0.018323964,0.016007051,0.018652504,0.073344462,0.000685713,0.2569781541824341,-0.237339348,0.3190809488296509,-0.404376984
0.66997993,0.3246154487133026,0.2239903211593628,-0.924255848,0.012775403,0.014646676,0.01618172,0.073336564,0.000686249,0.256937712,-0.237260059,0.3191847801208496,-0.404275507
0.674980104,0.3185704350471497,0.2244841307401657,-0.926235497,0.005199345,0.013686317,0.016034367,0.073086835,0.000890529,0.2565097212791443,-0.237217888,0.3192742466926575,-0.404191285
0.679981053,0.3185681998729706,0.2383700609207153,-0.929385722,0.001166773,0.015878364,0.012058983,0.072894692,0.001047708,0.2561804056167603,-0.237231374,0.319373608,-0.404181063
0.684983313,0.3164158761501312,0.2439590990543365,-0.928514242,-0.000896562,0.017821873,0.01662809,0.072830983,0.001099826,0.2560712099075317,-0.237247035,0.3194820582866669,-0.4041484
0.689980388,0.3124648332595825,0.2527675926685333,-0.923641562,0.003703015,0.022032905,0.018207753,0.072781958,0.001139927,0.2559871673583984,-0.237269968,0.319605291,-0.40416187
0.694978535,0.3048363029956818,0.2576127350330353,-0.918500006,0.003929825,0.026528403,0.018744735,0.073128678,0.001006597,0.2564572393894196,-0.237288445,0.319739044,-0.404173434
0.699977458,0.3035992681980133,0.2570119202136993,-0.921519279,0.012348335,0.032811522,0.022073722,0.073762476,0.000755746,0.2573224008083344,-0.237258658,0.319905162,-0.40417701
0.704977691,0.3069446086883545,0.2557271718978882,-0.923022747,0.018991532,0.033341397,0.027056305,0.073972635,0.000672569,0.2576092779636383,-0.237181842,0.3200899362564087,-0.404141039
0.70997864,0.3156315386295319,0.2486493736505508,-0.920274675,0.026147336,0.035708275,0.028748343,0.074134327,0.000608569,0.257830024,-0.237053856,0.3203017115592957,-0.404070258
0.714980841,0.3213541507720947,0.2413497120141983,-0.921769202,0.025394121,0.036032852,0.032728992,0.074187949,0.000587349,0.2579031884670258,-0.236917257,0.3205336332321167,-0.403963685
0.719978213,0.3219645917415619,0.2348496615886688,-0.922705173,0.027122961,0.035812482,0.033977941,0.073444106,0.000851701,0.2574866414070129,-0.236753464,0.3207509517669678,-0.403838575
0.724983037,0.318953276,0.2321986705064774,-0.923464954,0.027575905,0.038273372,0.037646834,0.073197462,0.000939355,0.257348508,-0.236584842,0.3209850788116455,-0.403688252
0.729982734,0.3181785345077515,0.2362675964832306,-0.925316393,0.027200358,0.038362376,0.036701269,0.073007688,0.001006799,0.2572422325611115,-0.236426845,0.3212234377861023,-0.403562993
0.734982908,0.3197146654129028,0.2379261404275894,-0.92231673,0.026938163,0.039466564,0.037942871,0.07294476,0.001029162,0.2572069764137268,-0.236282438,0.3214620351791382,-0.403436959
0.739984155,0.3206840753555298,0.2271076887845993,-0.924368978,0.02536686,0.040827952,0.035672568,0.073191248,0.000942424,0.2575402855873108,-0.236118585,0.3217072486877441,-0.403292984
0.744986355,0.323231578,0.2234321981668472,-0.925271273,0.019835223,0.041617762,0.038387712,0.073345952,0.000887942,0.2577399611473083,-0.235973224,0.3219731152057648,-0.403111756
0.749983728,0.322117031,0.2228687554597855,-0.923818767,0.016573548,0.041006058,0.035916943,0.073464982,0.000846022,0.2578936219215393,-0.235846445,0.3222170174121857,-0.402954042
0.754981637,0.3197494745254517,0.2284391522407532,-0.92379415,0.012355094,0.042814959,0.034637511,0.073504448,0.000832122,0.2579445838928223,-0.235764936,0.3224678337574005,-0.402819455
0.759980798,0.3149625062942505,0.2269585728645325,-0.926083684,0.012159475,0.043861959,0.038058512,0.073367268,0.000880726,0.2578087151050568,-0.235672712,0.3227201104164124,-0.402674764
0.764980733,0.3120505809783936,0.2298476994037628,-0.923949599,0.010986595,0.045534279,0.037681784,0.073152825,0.000956638,0.2575871348381042,-0.235593617,0.3229713439941406,-0.402547687
0.76998198,0.3130288124084473,0.2288354188203812,-0.924081981,0.011468795,0.048161991,0.040764134,0.072987825,0.001015047,0.2574166357517242,-0.235498846,0.3232485055923462,-0.402400672
0.774983943,0.319319099,0.231988326,-0.925048113,0.012452399,0.047090802,0.041519735,0.072933115,0.001034415,0.2573601007461548,-0.235408127,0.323531449,-0.402243197
0.779981077,0.3217324018478394,0.2245490849018097,-0.920981169,0.010497693,0.04659269,0.042314492,0.072891019,0.001049317,0.2573165893554688,-0.235306203,0.3238084614276886,-0.402063847
0.784978926,0.3216385543346405,0.2233002632856369,-0.919364274,0.008751787,0.046940729,0.042891223,0.072193906,0.000860573,0.2569005787372589,-0.2352193,0.3240959942340851,-0.401881665
0.789978087,0.3212520182132721,0.2190612554550171,-0.918880224,0.004577723,0.045757685,0.046379544,0.071657524,0.000715347,0.2565804719924927,-0.235138521,0.3243774771690369,-0.401677072
0.794978023,0.3237013816833496,0.2235575318336487,-0.917143464,0.003261804,0.044035751,0.046192817,0.071479671,0.000667193,0.2564743161201477,-0.235074982,0.3246533870697021,-0.401480466
0.799979746,0.3253951072692871,0.2296271026134491,-0.914313138,0.001783591,0.043813225,0.043066971,0.071342826,0.000630142,0.2563926577568054,-0.235039592,0.3249323964118958,-0.401321858
0.804982007,0.3261969089508057,0.2254674285650253,-0.915873706,0.002205471,0.040454347,0.043158758,0.071628913,0.00073136,0.25686115,-0.234978706,0.3251930475234985,-0.401135743
0.809979379,0.3257623016834259,0.2232681810855865,-0.919245183,-0.000207502,0.03913698,0.043664921,0.072184198,0.000924009,0.2577227354049683,-0.234929547,0.3254477381706238,-0.400940478
0.814977527,0.3259368240833282,0.2228246182203293,-0.921104372,-0.002650112,0.035011884,0.044752553,0.072368324,0.000987888,0.2580084204673767,-0.234885663,0.3256794214248657,-0.400729895
0.819976449,0.3286175429821014,0.2289286553859711,-0.918464005,-0.003207219,0.035839219,0.045205127,0.072509989,0.001037039,0.2582282423973083,-0.234866396,0.3259214758872986,-0.400539249
0.824976623,0.3282921612262726,0.2285974472761154,-0.919700921,-0.004431678,0.034378015,0.044267569,0.072556965,0.001053336,0.2583011388778687,-0.234839946,0.3261558711528778,-0.400358766
0.829977572,0.329054981,0.2285660207271576,-0.919902146,-0.006530031,0.034651801,0.045647308,0.072009206,0.001131428,0.2569129765033722,-0.234825462,0.3263939619064331,-0.40016669
0.834979832,0.3272227942943573,0.2277705520391464,-0.9174968,-0.00422266,0.036107711,0.047986895,0.071827576,0.001157321,0.2564526796340942,-0.234790996,0.3266292810440063,-0.399960399
0.839976966,0.3281733989715576,0.2280053943395615,-0.917923868,-0.002823867,0.034638684,0.050652795,0.071687825,0.001177244,0.2560985088348389,-0.234754398,0.3268692791461945,-0.399736851
0.844975114,0.3280792236328125,0.233203262,-0.917930663,-0.001291562,0.03226136,0.051719271,0.07164149,0.001183851,0.255981058,-0.234707296,0.3270968496799469,-0.399519444
0.849974036,0.3277758061885834,0.2324727326631546,-0.917500675,0.000663162,0.029417897,0.052800342,0.071604639,0.001047519,0.2570914626121521,-0.234651968,0.3273064494132996,-0.399296463
0.85497421,0.3290822207927704,0.2299294620752335,-0.916630924,0.003912305,0.0275067,0.05241983,0.071592122,0.00096732,0.25775677,-0.234572724,0.3275169730186462,-0.39907071
0.859981298,0.3270171582698822,0.2282192707061768,-0.917297244,0.006681759,0.023750672,0.057186544,0.071582496,0.000905613,0.2582686841487885,-0.234462321,0.3277116715908051,-0.398801833
0.864983559,0.3234718143939972,0.2306371033191681,-0.915537655,0.008748014,0.021723676,0.055994004,0.071579307,0.000885152,0.2584384083747864,-0.234351829,0.3278789520263672,-0.398551226
0.869980693,0.3255965113639832,0.2361458390951157,-0.914847374,0.012515876,0.020693941,0.056886688,0.071300179,0.000868036,0.2578342258930206,-0.234233618,0.3280556797981262,-0.398311198
0.87497884,0.3308561444282532,0.2367645800113678,-0.912805676,0.017714135,0.016852103,0.054545205,0.070928626,0.000860976,0.2568929493427277,-0.234096333,0.3282133340835571,-0.398076415
0.879978001,0.3338113725185394,0.2325940877199173,-0.912566841,0.018651627,0.018762292,0.049477708,0.07064274,0.000855544,0.2561687231063843,-0.233951032,0.3283861577510834,-0.397862017
0.884978414,0.3321709036827087,0.2246499806642532,-0.919692993,0.017573124,0.016392471,0.045481261,0.070547946,0.000853743,0.2559285759925842,-0.233800933,0.3285243809223175,-0.397635728
0.889979661,0.3291393220424652,0.2230730354785919,-0.920195699,0.014283388,0.012258276,0.040105436,0.070475012,0.000852357,0.2557438015937805,-0.233680442,0.3286333084106445,-0.39743495
0.894981861,0.3261476159095764,0.2224642485380173,-0.922078073,0.011934457,0.012606664,0.037235621,0.070891276,0.000896049,0.2558820247650146,-0.233568668,0.3287452459335327,-0.397250116
0.899979293,0.3220081925392151,0.2246541231870651,-0.925142884,0.009746718,0.012560316,0.034317058,0.071211562,0.000929667,0.2559883594512939,-0.233478814,0.3288339376449585,-0.397091389
0.904977143,0.3214367032051086,0.226052999,-0.92442286,0.009647483,0.010660735,0.032758478,0.071317762,0.000940815,0.2560236155986786,-0.233398005,0.3289204835891724,-0.396937072
0.909976304,0.323871523,0.2308149635791779,-0.923510849,0.006963967,0.01087243,0.033048518,0.071399473,0.000949392,0.2560507357120514,-0.233329728,0.3290142714977264,-0.396792889
0.914976239,0.3238170444965363,0.2315147072076797,-0.920220912,0.00940888,0.009807198,0.032114372,0.071260288,0.000842262,0.256301075,-0.233254358,0.3290979862213135,-0.396655679
0.919977188,0.3235385417938232,0.2300032526254654,-0.920456409,0.007527436,0.009266444,0.033239067,0.070985064,0.000648633,0.2567377090454102,-0.233184636,0.329182506,-0.396510154
0.92497921,0.3234467506408691,0.2273229360580444,-0.920859575,0.007776068,0.00816784,0.033284623,0.070893802,0.000584429,0.2568824887275696,-0.233111739,0.3292573690414429,-0.396353722
0.929976344,0.3221559226512909,0.2289859354496002,-0.920486927,0.008897543,0.01018982,0.032733392,0.070823587,0.000535028,0.2569938898086548,-0.2330302,0.3293403387069702,-0.396208942
0.934974194,0.3238424956798553,0.2302240580320358,-0.919500113,0.010489157,0.011549869,0.034023497,0.070800304,0.000518648,0.2570308148860931,-0.232940227,0.329443634,-0.396054089
0.939973354,0.3300023376941681,0.2313877791166306,-0.919002771,0.010544748,0.014381112,0.034276843,0.071041532,0.00044237,0.2580248415470123,-0.232860103,0.3295687139034271,-0.39590013
0.94497329,0.3313442766666412,0.2311284393072128,-0.919282198,0.011886419,0.012630342,0.035119105,0.071121514,0.000417077,0.2583544552326202,-0.232768476,0.3296811282634735,-0.395743966
0.949974537,0.3317483365535736,0.2310167998075485,-0.917047977,0.013735585,0.011173377,0.033992648,0.071183056,0.000397616,0.2586080729961395,-0.232671559,0.329780638,-0.395591438
0.954976499,0.3295929431915283,0.2341655045747757,-0.917791843,0.016843192,0.008679822,0.036797326,0.07120347,0.000391163,0.2586921453475952,-0.232555851,0.3298760056495667,-0.395431578
0.959973872,0.3307434320449829,0.2343101352453232,-0.916366816,0.020534249,0.004800011,0.034732275,0.071216524,0.000782524,0.2576575577259064,-0.23242867,0.3299439549446106,-0.39529115
0.964972556,0.3334452211856842,0.2350346297025681,-0.913428783,0.022261174,0.002450856,0.036940347,0.071220197,0.001010364,0.2570424675941467,-0.232284874,0.3300202488899231,-0.395121217
0.969971955,0.3340342342853546,0.232799158,-0.914672852,0.022975089,-0.001190704,0.035190832,0.071223021,0.001185671,0.2565692067146301,-0.23213768,0.330067903,-0.394960105
0.974972188,0.3311060667037964,0.2294921278953552,-0.916809618,0.026989834,-0.004820711,0.033286851,0.071223952,0.0012438,0.2564122974872589,-0.231967747,0.3300857841968536,-0.394793987
0.979973376,0.3275039196014404,0.225556269,-0.917489588,0.024998851,-0.006914367,0.034146886,0.071112588,0.001210106,0.2569459676742554,-0.231793821,0.3300904035568237,-0.394621938
0.984975636,0.3252470195293427,0.2223164439201355,-0.921087623,0.024249339,-0.009530823,0.031175282,0.07096263,0.001119855,0.2577828168869019,-0.231630996,0.3300808668136597,-0.394449711
0.989972711,0.3238348364830017,0.2208538055419922,-0.919750512,0.023105824,-0.012295631,0.02967505,0.070847251,0.001050414,0.2584267556667328,-0.231464759,0.3300477564334869,-0.3942779
0.994976759,0.3240982890129089,0.2232512831687927,-0.918806195,0.019035252,-0.011261202,0.0318572,0.070808992,0.001027388,0.2586402595043182,-0.231325462,0.3300268650054932,-0.394102216
0.99997592,0.323623389,0.2267564535140991,-0.918217361,0.018602546,-0.014731877,0.030454474,0.070779555,0.001009671,0.2588045299053192,-0.231193542,0.3299890756607056,-0.393941283
1.004976153,0.3195205330848694,0.2307333797216415,-0.919073522,0.019126806,-0.013394818,0.03103126,0.070869692,0.00099618,0.2582315504550934,-0.231068224,0.329945445,-0.393792927
1.009977102,0.3212005198001862,0.2335592806339264,-0.918002963,0.019544052,-0.012997604,0.030535722,0.070939049,0.000985799,0.2577906548976898,-0.230949491,0.3299124240875244,-0.393660069
1.014979362,0.3231150805950165,0.238073856,-0.916740656,0.020343278,-0.013525161,0.025529981,0.070962049,0.000982356,0.2576444447040558,-0.230843991,0.3298753499984741,-0.393557429
1.019976497,0.3229984045028687,0.2367648333311081,-0.91623646,0.020939292,-0.011857957,0.024782393,0.070979744,0.000979708,0.2575319707393646,-0.230735764,0.3298470973968506,-0.393458724
1.024974585,0.3228371143341064,0.2330511808395386,-0.915299892,0.021137284,-0.010270858,0.023039354,0.071013495,0.001033271,0.2571974396705627,-0.230613783,0.3298176229000092,-0.393363506
1.029973507,0.3267306685447693,0.2251190841197968,-0.917317569,0.019974073,-0.007373752,0.021755498,0.071067668,0.001129533,0.2566394805908203,-0.230486333,0.3298082053661346,-0.39323771
1.034973741,0.3252342641353607,0.2294956296682358,-0.91670996,0.021324083,-0.009602292,0.019669518,0.071085632,0.001161452,0.2564544975757599,-0.230371252,0.3297868967056274,-0.393150926
1.039975166,0.32500875,0.2279572635889053,-0.919526875,0.01965031,-0.00982532,0.016165124,0.071099453,0.001186011,0.2563121616840363,-0.230272382,0.3297589123249054,-0.39307636
1.044977427,0.3262371420860291,0.2279094904661179,-0.919739723,0.017406998,-0.010295725,0.015782217,0.071104035,0.001194155,0.2562649548053741,-0.230174154,0.3297301828861237,-0.392996162
1.049974799,0.325698584,0.2266031801700592,-0.91830492,0.018210055,-0.009673171,0.016643981,0.07071735,0.001075538,0.2565147578716278,-0.230075881,0.3297046422958374,-0.392918468
1.054972887,0.3282979726791382,0.2213478237390518,-0.920500517,0.015279944,-0.010049645,0.016859017,0.070589133,0.001036207,0.2565975785255432,-0.229969993,0.329683781,-0.39280659
1.059972048,0.3264819979667664,0.2238994240760803,-0.916872442,0.016970314,-0.010740045,0.016443955,0.070490472,0.001005944,0.2566612958908081,-0.229875222,0.3296511769294739,-0.39271459
1.064972043,0.3269160985946655,0.2225237339735031,-0.918003142,0.016650937,-0.009379544,0.019826096,0.070457764,0.00099591,0.256682426,-0.22976242,0.3296376466751099,-0.392602384
1.069972992,0.325537771,0.2312587648630142,-0.915882051,0.015740534,-0.009356518,0.025244899,0.070481263,0.001037078,0.2565929293632507,-0.229675278,0.3296239376068115,-0.392485559
1.074975014,0.3247666656970978,0.2358685731887817,-0.916258037,0.021301633,-0.007350516,0.025138818,0.070501097,0.001062826,0.2565370798110962,-0.229562029,0.3296222686767578,-0.39239493
1.079972148,0.3247444331645966,0.2343721985816956,-0.916324437,0.021863073,-0.008214846,0.02593988,0.070516355,0.001082638,0.2564941048622131,-0.229432896,0.3296170830726624,-0.392279506
1.084969997,0.3242157399654388,0.2309619784355164,-0.915068924,0.025720974,-0.007858454,0.026360342,0.070521414,0.001089207,0.2564798295497894,-0.22928606,0.3296060562133789,-0.392161965
1.089969158,0.3245818316936493,0.2296634763479233,-0.916866601,0.025073456,-0.009600561,0.026691709,0.070801102,0.001208573,0.2569359242916107,-0.22913897,0.3295924067497253,-0.392034531
1.094969034,0.3221817016601563,0.227625236,-0.916493177,0.024733171,-0.010417877,0.028440034,0.071171954,0.001363423,0.257558137,-0.228988945,0.3295721709728241,-0.391897678
1.099970341,0.3208665251731873,0.228331134,-0.91501683,0.022594398,-0.00915843,0.02819884,0.071457297,0.00148257,0.258036882,-0.228851661,0.3295654058456421,-0.391769826
1.104972243,0.3213218748569489,0.2292838096618652,-0.917190313,0.023487203,-0.006261578,0.030093601,0.071551919,0.001522077,0.2581956386566162,-0.228706256,0.3295627236366272,-0.391630948
1.109969378,0.3236952126026154,0.2315200865268707,-0.917284906,0.023764294,-0.008133157,0.029457724,0.071624719,0.001552475,0.258317769,-0.228575051,0.3295587003231049,-0.391509444
1.114967823,0.3225479125976563,0.2235655635595322,-0.918259323,0.025234072,-0.006701806,0.026282677,0.071356937,0.001462856,0.2579479813575745,-0.228416592,0.3295549154281616,-0.391377509
1.119967222,0.3255181312561035,0.2170805633068085,-0.919373214,0.02252879,-0.005923667,0.028323321,0.071150899,0.0013939,0.2576634883880615,-0.228249699,0.3295614719390869,-0.391205937
1.124967456,0.3265236914157867,0.2243877947330475,-0.91786629,0.018747611,-0.007602845,0.028580187,0.071082585,0.001371036,0.2575691342353821,-0.228137314,0.3295668363571167,-0.391066968
1.129974842,0.3239532113075256,0.2289191633462906,-0.917627275,0.01901637,-0.008326419,0.025826855,0.071030021,0.001353443,0.2574965357780457,-0.228019401,0.3295495510101318,-0.390954792
1.134976983,0.3216696977615356,0.2280134558677673,-0.917820036,0.019825695,-0.007784498,0.025563227,0.070985287,0.001318765,0.2574141025543213,-0.227905944,0.3295373916625977,-0.390834808
1.139974117,0.3199619650840759,0.2250636965036392,-0.918856978,0.017164474,-0.006396337,0.024581512,0.070923261,0.001262914,0.2572916746139526,-0.22779581,0.329529881,-0.390716016
1.144972324,0.3164952099323273,0.226766512,-0.91477108,0.014803905,-0.002758829,0.024364326,0.07090269,0.001244395,0.2572510540485382,-0.22771053,0.3295310735702515,-0.390615761
1.149971247,0.3147838413715363,0.2315961122512817,-0.917737365,0.01443029,0.002646504,0.025104322,0.070886865,0.001230146,0.2572198212146759,-0.227634609,0.3295568227767944,-0.390533268
1.154971123,0.3187890350818634,0.2314826846122742,-0.919744849,0.015340641,0.002627477,0.024708703,0.07088162,0.001225422,0.2572094798088074,-0.22754927,0.3295886218547821,-0.390438974
1.159972072,0.3203705251216888,0.2331350445747375,-0.919473469,0.015792409,0.004579736,0.026683658,0.070807785,0.001366899,0.2581711411476135,-0.227468058,0.3296301066875458,-0.390349686
1.164974332,0.3236134052276611,0.2281085252761841,-0.919730783,0.017489037,0.004150361,0.025462747,0.070783302,0.00141381,0.2584899961948395,-0.227357462,0.3296883106231689,-0.390248954
1.169971466,0.326509565,0.2225098460912704,-0.918899477,0.014908858,0.005044803,0.024093771,0.07076446,0.001449905,0.258735329,-0.227256313,0.3297396302223206,-0.390139699
1.174969554,0.3280817568302155,0.2181491851806641,-0.919991255,0.012652162,0.005507626,0.024032978,0.070758216,0.001461874,0.2588166892528534,-0.227164716,0.329808772,-0.390017509
1.179968715,0.3299382627010345,0.218665749,-0.920561969,0.00930608,0.003514526,0.025451342,0.070803195,0.001419341,0.2588789165019989,-0.227087513,0.3298552632331848,-0.38988626
1.184968948,0.3298918604850769,0.2240350842475891,-0.918916345,0.007969175,0.002051888,0.022343984,0.070830435,0.001392435,0.25889945,-0.22703135,0.3299056887626648,-0.38978827
1.18997097,0.3275137841701508,0.2280727028846741,-0.916093826,0.006257122,0.002608651,0.024186349,0.070851393,0.001371732,0.2589152455329895,-0.226993009,0.3299483358860016,-0.38968429
1.19497323,0.3263277113437653,0.2239508777856827,-0.919445872,0.005952991,0.004595397,0.023491446,0.070858344,0.001364868,0.2589204907417297,-0.226946771,0.3300001919269562,-0.389587939
1.199970603,0.3256985545158386,0.2257089614868164,-0.921448052,0.004789576,0.006818107,0.02573592,0.070806332,0.001503528,0.2587759792804718,-0.226908013,0.3300634026527405,-0.389480472
1.204968691,0.324382097,0.2268836945295334,-0.921460271,0.004932563,0.006064923,0.024813065,0.070731252,0.001694656,0.2585782408714294,-0.226868615,0.3301151990890503,-0.389389724
1.209967852,0.3247908353805542,0.2267513573169708,-0.921366692,0.005294077,0.006267934,0.026409976,0.070673481,0.001841717,0.2584261298179626,-0.226825327,0.3301741480827332,-0.389282167
1.214968085,0.3259097039699554,0.2245741039514542,-0.922493577,0.008003573,0.006777884,0.026178658,0.070654325,0.001890479,0.2583756744861603,-0.226766706,0.3302403688430786,-0.389180303
1.219969034,0.3264696300029755,0.2257435619831085,-0.920646369,0.006836047,0.002589698,0.025451921,0.070639588,0.001927998,0.2583368718624115,-0.226706252,0.3302863240242004,-0.389068663
1.224971056,0.3272432684898376,0.2207213640213013,-0.918349385,0.005903595,0.005881268,0.025073761,0.070739433,0.001577757,0.2577525675296783,-0.226650923,0.33035171,-0.388946027
1.229968071,0.3306585848331451,0.2182465195655823,-0.923169613,0.003461428,0.006984318,0.026148392,0.070816264,0.00130827,0.2573029696941376,-0.226607725,0.3304236829280853,-0.388818383
1.23496604,0.3310110569000244,0.2200623005628586,-0.922407806,0.003418345,0.00216057,0.023789644,0.070841737,0.001218913,0.2571538984775543,-0.226563781,0.3304676413536072,-0.388692856
1.2399652,0.3304667174816132,0.2196001261472702,-0.918727875,0.003498361,0.004904656,0.022561515,0.07086134,0.001150159,0.2570392191410065,-0.226525798,0.3305261731147766,-0.388578951
1.244965076,0.3308144509792328,0.2180465906858444,-0.922002196,0.00234625,0.004700527,0.021556871,0.070781879,0.001301769,0.2569712698459625,-0.226492286,0.3305880427360535,-0.388467371
1.249966025,0.3341535329818726,0.2181345671415329,-0.920367956,0.000212367,0.0032704,0.019690573,0.070633829,0.001594776,0.2568887770175934,-0.226469085,0.3306357264518738,-0.388370723
1.254968047,0.3342657685279846,0.2175551652908325,-0.920375645,-0.003880941,0.001696095,0.019254249,0.070584737,0.001691932,0.2568614184856415,-0.22646454,0.3306778073310852,-0.388268948
1.259965181,0.3334671854972839,0.219501793,-0.922463119,-0.003074536,0.001450001,0.015999265,0.070546955,0.001766687,0.2568403482437134,-0.226470366,0.3307197988033295,-0.388197124
1.264969468,0.3348448872566223,0.2222222983837128,-0.92077297,-0.007598507,-0.001325966,0.015780497,0.07053443,0.001791474,0.2568333745002747,-0.226502642,0.3307487666606903,-0.38811934
1.269969106,0.3318817913532257,0.2238442152738571,-0.917688191,-0.003903802,-0.003020927,0.014408427,0.070463493,0.001348222,0.2578043341636658,-0.226513296,0.330760121,-0.388055801
1.274969339,0.3289323449134827,0.2222462147474289,-0.919611692,-0.004980159,-0.000537224,0.012076091,0.070439972,0.001201248,0.258126289,-0.226538554,0.3307692110538483,-0.388006747
1.279970527,0.3268293440341949,0.2207579910755157,-0.921676636,-0.003957925,-0.002683504,0.014134892,0.070421875,0.001088162,0.2583740055561066,-0.226548091,0.3307700157165527,-0.38793394
1.284972548,0.3278150260448456,0.2230260372161865,-0.918207407,-0.005938591,-0.005060595,0.013634676,0.070415869,0.001050664,0.2584561407566071,-0.226572007,0.3307631611824036,-0.387871861
1.289969921,0.3284209370613098,0.2286610454320908,-0.918549478,-0.005025001,-0.005619314,0.011465366,0.070508309,0.001217362,0.257889599,-0.226607665,0.3307508230209351,-0.387840092
1.294968009,0.3276360332965851,0.2271032780408859,-0.919909239,-0.001828172,-0.006735307,0.010937935,0.070562981,0.001321025,0.2575459182262421,-0.226620331,0.3307314515113831,-0.387799829
1.299967289,0.3292964100837708,0.2261334657669067,-0.918666244,-0.00048922,-0.006226806,0.010653727,0.070605047,0.001400786,0.257281482,-0.226629302,0.3307167291641235,-0.387757421
1.304967403,0.3280506432056427,0.2237373292446136,-0.918787956,-0.000894645,-0.010064249,0.010253964,0.070618995,0.001427234,0.2571938037872314,-0.226629838,0.3306805491447449,-0.387708277
1.309968352,0.3281195759773254,0.2228689342737198,-0.917491555,0.001312043,-0.010100815,0.010030596,0.070628174,0.001480215,0.2575404942035675,-0.226626009,0.3306460380554199,-0.387661517
1.314970613,0.3298151791095734,0.2272158414125443,-0.918435514,0.001555545,-0.011065649,0.010428772,0.070629649,0.001530688,0.2580730617046356,-0.226621509,0.3306146264076233,-0.387620479
1.319967747,0.3270636200904846,0.2281787395477295,-0.91948241,0.004992284,-0.012307012,0.008601097,0.070630781,0.001569524,0.2584828734397888,-0.226608619,0.3305555582046509,-0.387595683
1.324965835,0.3281567990779877,0.2281444370746613,-0.917641997,0.005394756,-0.01388617,0.007100073,0.070631161,0.001582402,0.2586187422275543,-0.22658667,0.3305034041404724,-0.387572229
1.329964757,0.3276806771755219,0.22812143,-0.917623341,0.00708599,-0.014003231,0.00572338,0.070631452,0.00159231,0.2587232887744904,-0.226560667,0.3304399847984314,-0.387552321
1.334964991,0.3277995586395264,0.2251019030809402,-0.918068647,0.007349093,-0.015600873,0.007411478,0.070683382,0.001585592,0.2577664852142334,-0.226523921,0.3303734660148621,-0.387511492
1.33996594,0.3277537226676941,0.2232789397239685,-0.921756029,0.006943252,-0.016319431,0.006347705,0.07072334,0.001580423,0.2570302784442902,-0.226491064,0.330305815,-0.387477845
1.344968438,0.327223152,0.224499524,-0.920650899,0.005394917,-0.016696488,0.005757779,0.070736587,0.001578709,0.2567861974239349,-0.226473019,0.3302421271800995,-0.38744998
1.349965811,0.3261439204216003,0.2224723249673843,-0.920191467,0.00492735,-0.015103679,0.004399963,0.070746779,0.00157739,0.2565983533859253,-0.226457641,0.330172211,-0.387427092
1.354964256,0.3263414800167084,0.2220150232315063,-0.922063291,0.002559513,-0.014173896,0.002143532,0.070719257,0.001642485,0.2573353052139282,-0.226452187,0.3301076292991638,-0.387418061
1.359963417,0.3270746767520905,0.2223508507013321,-0.921901941,0.001229401,-0.015424611,0.000978664,0.070666835,0.001758835,0.2587105333805084,-0.226450071,0.3300412893295288,-0.387410372
1.364963531,0.3269154727458954,0.2236891239881516,-0.919542074,2.889998722821474e-05,-0.014679617,3.085006028413773e-06,0.070649453,0.001797414,0.2591665387153625,-0.226467922,0.3299727737903595,-0.387414783
1.3699646,0.32742694,0.2217807322740555,-0.920154512,-0.00147477,-0.014536195,-0.001755318,0.070636079,0.001827098,0.2595173716545105,-0.226487085,0.329905629,-0.387431949
1.374966741,0.3269856870174408,0.2202174812555313,-0.919782162,-0.001630759,-0.014641396,-0.003618508,0.070631646,0.001836941,0.2596337199211121,-0.226513326,0.3298313617706299,-0.38744995
1.379963875,0.3288983106613159,0.2191577255725861,-0.92064923,-0.005041017,-0.016619721,-0.003200937,0.070563249,0.002038124,0.2586138248443604,-0.226550072,0.3297531008720398,-0.38745141
1.384962082,0.3298047780990601,0.2192818969488144,-0.921046436,-0.007649512,-0.015537678,-0.002864915,0.070540577,0.002104832,0.2582756578922272,-0.226604924,0.3296831846237183,-0.387456954
1.389961243,0.3284738063812256,0.2246687114238739,-0.919135273,-0.007046629,-0.015657479,-0.004002091,0.070523128,0.00215616,0.2580154538154602,-0.226663709,0.3296093344688416,-0.387485296
1.394967079,0.3238676190376282,0.2304320186376572,-0.918869555,-0.006560778,-0.015353727,0.000147386,0.070517339,0.002173179,0.2579291760921478,-0.226721689,0.3295354843139648,-0.3875148
1.399968266,0.3211593627929688,0.2310371100902557,-0.917062104,-0.004031748,-0.015204689,0.000537331,0.070713356,0.001926612,0.2576532959938049,-0.226762816,0.3294590711593628,-0.387538433
1.404970288,0.3219427168369293,0.2280829846858978,-0.918194115,-0.000365808,-0.013288398,0.002087121,0.070827961,0.001780601,0.2575099766254425,-0.226781577,0.3293932974338531,-0.387544155
1.409967661,0.3243430256843567,0.2285090684890747,-0.919822574,-5.41E-05,-0.012636299,0.001483743,0.070916131,0.001668255,0.257399708,-0.226794273,0.3293397426605225,-0.387554586
1.41496551,0.3276812434196472,0.2269787937402725,-0.919269323,0.001324494,-0.014457744,0.00256046,0.070945367,0.001631003,0.2573631405830383,-0.226803094,0.3292829990386963,-0.387543678
1.419964671,0.3261467814445496,0.2238088399171829,-0.92068553,-4.77E-05,-0.012725443,0.000602452,0.070854276,0.001776475,0.2572168111801147,-0.226812154,0.3292291164398193,-0.387541652
1.424964905,0.3264041841030121,0.2229442298412323,-0.920554996,0.001113336,-0.011757583,7.996219210326672e-05,0.070709534,0.002000308,0.2570491135120392,-0.226817548,0.3291773796081543,-0.387545228
1.429966092,0.3234375417232513,0.2206857204437256,-0.92072916,-0.000261545,-0.014558086,-0.00053393,0.070598163,0.002172532,0.2569200992584229,-0.226832166,0.3290973305702209,-0.387545228
1.434968352,0.3221183121204376,0.2251508235931396,-0.921042144,-0.002277934,-0.014032731,-0.000765627,0.070561238,0.002229638,0.2568773031234741,-0.226861089,0.3290258646011353,-0.387566745
1.439965725,0.3235642910003662,0.2266444563865662,-0.920866728,-0.000467306,-0.014163609,-0.000465548,0.070532821,0.002273578,0.2568444013595581,-0.226888746,0.328960121,-0.387585819
1.444963813,0.3233616948127747,0.2265038192272186,-0.920347452,-0.00047887,-0.013401923,-0.000997843,0.070673928,0.002080703,0.2566764652729034,-0.22690706,0.3288972973823547,-0.387601495
1.449962974,0.3237209916114807,0.2254618406295776,-0.917248845,-0.001650478,-0.012690193,0.000436928,0.070782505,0.001932299,0.2565472424030304,-0.226927757,0.3288426399230957,-0.387610018
1.454963207,0.3216223418712616,0.225583017,-0.91872865,-0.002294014,-0.010162445,0.001135097,0.070818506,0.00188309,0.2565044164657593,-0.226952493,0.3287920355796814,-0.387614042
1.459964395,0.3218867182731628,0.2277753949165344,-0.91989255,-0.003323559,-0.010782177,0.000513359,0.070846207,0.001845228,0.2564714550971985,-0.226996571,0.328738809,-0.387634993
1.464966416,0.3215202987194061,0.2302854359149933,-0.918980896,0.000630598,-0.011331631,0.000568228,0.07088495,0.001689,0.2565799951553345,-0.227015227,0.3286830186843872,-0.387656569
1.469963551,0.3227567076683044,0.2319803535938263,-0.91680634,0.001122935,-0.008897545,0.001141909,0.070944652,0.001423516,0.2567843496799469,-0.227041349,0.3286409378051758,-0.387677342
1.474961638,0.325050563,0.2313275039196014,-0.919943333,0.001892316,-0.009710087,0.000781905,0.070964448,0.001335487,0.2568520903587341,-0.227057725,0.3286025524139404,-0.387692064
1.479960561,0.3256890773773193,0.2248880714178085,-0.920441628,0.00399365,-0.009483508,3.63331928383559e-05,0.070979685,0.001267754,0.2569042444229126,-0.227054015,0.3285572528839111,-0.387689352
1.484960794,0.3263553977012634,0.221623957,-0.921512544,0.00190937,-0.010138494,-0.000429073,0.070984736,0.001245295,0.2569215297698975,-0.227049917,0.3285151720046997,-0.387678564
1.489961743,0.3249619603157043,0.2212574928998947,-0.91902709,-0.000639615,-0.009714904,-0.001396143,0.071049869,0.001497358,0.2569998502731323,-0.227074146,0.3284685015678406,-0.387690425
1.494964004,0.3230221271514893,0.2247606813907623,-0.918086052,-0.00114821,-0.007502443,-0.001118387,0.071071468,0.001580937,0.2570258378982544,-0.227101058,0.3284342885017395,-0.387713313
1.499961138,0.3217465877532959,0.2259012907743454,-0.923275292,-0.001107421,-0.008588318,-0.001709793,0.071088083,0.001645245,0.2570458352565765,-0.227129757,0.3283894062042236,-0.387738973
1.504959226,0.32281971,0.2257445901632309,-0.920906425,-0.000574876,-0.009115363,0.001380195,0.071093597,0.001666569,0.2570524513721466,-0.227151453,0.3283453583717346,-0.387746215
1.509958386,0.3262093067169189,0.2277995645999908,-0.920194864,8.414016338065267e-05,-0.00769876,0.000902075,0.071242899,0.001638866,0.2580979466438293,-0.227170885,0.3283232748508453,-0.387757599
1.51495862,0.3274544775485992,0.2257061004638672,-0.921377361,0.000172106,-0.008422019,0.001586729,0.071328297,0.001618765,0.2587020695209503,-0.227188542,0.3282927274703979,-0.387767702
1.519959569,0.3264886140823364,0.2254461497068405,-0.920159996,-0.002678899,-0.006060595,0.000408957,0.071394011,0.001603299,0.2591668963432312,-0.227222413,0.3282710313796997,-0.387775719
1.524961829,0.3248729705810547,0.227790505,-0.92143774,-0.000371625,-0.007010353,0.002421489,0.071415804,0.001598171,0.2593210339546204,-0.227240801,0.3282444179058075,-0.387786508
1.529964805,0.3235863149166107,0.2267932891845703,-0.919813514,-0.000110642,-0.007486688,0.001805483,0.071351886,0.001503629,0.2588204443454742,-0.227257639,0.3282086253166199,-0.387792885
1.534962893,0.3221627175807953,0.2268007397651672,-0.918689609,0.001290204,-0.004916187,0.00135816,0.071249336,0.001380926,0.2580301463603973,-0.227275059,0.3281866312026978,-0.387802541
1.539961815,0.3222768604755402,0.2239231169223785,-0.919387519,0.000386102,-0.004825005,0.00104403,0.071170427,0.001286513,0.2574220299720764,-0.227288067,0.3281684517860413,-0.38780582
1.544962049,0.322132021,0.2218909710645676,-0.921425998,0.001934872,-0.006130774,0.002641133,0.07114426,0.001255208,0.2572203874588013,-0.227285117,0.3281387090682983,-0.387796581
1.549962997,0.324062169,0.2203893065452576,-0.919001043,-0.001758989,-0.005964491,0.003602857,0.071124129,0.00123112,0.2570652365684509,-0.227298081,0.328117847,-0.387770802
1.554965019,0.3257178664207458,0.222952276,-0.919399858,-0.001385464,-0.007631759,0.002352545,0.071215771,0.001220758,0.2569597959518433,-0.227318019,0.3280881941318512,-0.387765199
1.559962153,0.3264268636703491,0.2255687266588211,-0.919316947,-0.000830076,-0.007639405,0.002316344,0.071286276,0.001212785,0.256878674,-0.227334782,0.3280608654022217,-0.387762219
1.564960003,0.3259032368659973,0.2276143580675125,-0.918015838,0.000211698,-0.008134503,0.003848754,0.071309656,0.001210141,0.2568517625331879,-0.227357417,0.3280371427536011,-0.387757093
1.569959164,0.3243845701217651,0.2278651148080826,-0.919540823,-0.000577436,-0.00576432,0.00336938,0.071327642,0.001208107,0.2568310499191284,-0.227381602,0.3280117511749268,-0.387754738
1.574959397,0.325342596,0.2246865481138229,-0.920389473,-0.001002311,-0.007183978,0.002109048,0.071331918,0.001350567,0.256704181,-0.227395654,0.3279847204685211,-0.387751758
1.579960585,0.3259175419807434,0.224578321,-0.920760095,-0.000109506,-0.006015027,0.002696107,0.071333505,0.001604912,0.2564852237701416,-0.227406621,0.3279590010643005,-0.38774395
1.584962845,0.3254558742046356,0.2249636948108673,-0.921723962,0.000173433,-0.007404242,0.003743022,0.071334027,0.001689248,0.2564125955104828,-0.227424011,0.3279308080673218,-0.387738973
1.589960217,0.3251090943813324,0.2264083325862885,-0.921143949,-0.000699286,-0.005998362,0.002504761,0.071334429,0.001754139,0.2563567161560059,-0.227437839,0.3279079794883728,-0.387744248
1.594958067,0.3240804672241211,0.2303482592105865,-0.921420515,0.000776361,-0.006426529,0.005780042,0.071334563,0.001775655,0.2563382089138031,-0.227455854,0.3278815150260925,-0.387742758
1.599957228,0.3225874602794647,0.2300600111484528,-0.921064079,0.003081119,-0.006528466,0.004124586,0.071396962,0.001671793,0.2580560743808746,-0.227456629,0.3278502821922302,-0.387748897
1.604957461,0.3237020671367645,0.2288142442703247,-0.919551075,0.005013638,-0.004877736,0.006101835,0.071417652,0.001637355,0.2586256861686707,-0.227446333,0.3278348445892334,-0.387741446
1.609958649,0.3208088278770447,0.2276510745286942,-0.917631269,0.006154488,-0.003467681,0.005025911,0.071433574,0.001610856,0.2590639591217041,-0.227428347,0.3278217315673828,-0.387742132
1.61496067,0.3177170157432556,0.2283935397863388,-0.920065939,0.004457582,-0.000539353,0.007491343,0.071438849,0.00160207,0.2592092752456665,-0.227420405,0.3278183341026306,-0.387738764
1.619958043,0.3198543190956116,0.2286282479763031,-0.92409426,0.004357168,-0.000435144,0.007747142,0.071349643,0.001484189,0.2580728828907013,-0.227406889,0.3278207778930664,-0.387727499
1.624956131,0.321185827,0.2264170050621033,-0.917800725,0.006495089,-0.001325797,0.008648587,0.071296982,0.001417605,0.2573872208595276,-0.227378219,0.3278197646141052,-0.387708962
1.629955292,0.3224295079708099,0.2265534102916718,-0.91861105,0.008119344,0.002582195,0.009504545,0.071256466,0.001366373,0.25685969,-0.227347165,0.3278473019599915,-0.387680054
1.634955287,0.3265218734741211,0.2271214127540588,-0.922920763,0.006750212,-0.001023309,0.00879107,0.071243033,0.001349385,0.2566847503185272,-0.227323458,0.3278581500053406,-0.387657195
1.639956236,0.3272795081138611,0.2262218743562698,-0.918389022,0.005734238,-0.002648407,0.007673881,0.07112097,0.001366774,0.2564927637577057,-0.227298707,0.3278661966323853,-0.387630194
1.644958496,0.3278248608112335,0.2228711992502213,-0.920172036,0.005741864,-0.000256826,0.006073257,0.070967831,0.001403254,0.2563712298870087,-0.227276042,0.3278823494911194,-0.387611806
1.64995563,0.327368826,0.2209973931312561,-0.923502624,0.004843191,-0.003108863,0.007164135,0.070849992,0.001431323,0.2562777400016785,-0.227245465,0.327884853,-0.387570441
1.654953718,0.3275498151779175,0.2210575193166733,-0.919671595,0.00332531,-0.002197758,0.004864821,0.070810921,0.001440631,0.2562467157840729,-0.227239639,0.3278853297233582,-0.387555361
1.659952879,0.3264967799186707,0.2243129462003708,-0.921441495,0.001722876,-0.001340099,0.00447973,0.070780858,0.001447792,0.2562228739261627,-0.227246135,0.3278876543045044,-0.387551427
1.664959192,0.3257588148117065,0.221666619,-0.923460066,0.000443662,-0.003203652,0.002068717,0.070916139,0.001550807,0.2564195394515991,-0.227253154,0.3278756737709045,-0.38754788
1.669960499,0.3264621496200562,0.221811831,-0.921947896,-0.003145388,-0.001467011,0.00268585,0.071020223,0.00163007,0.2565708458423615,-0.227281481,0.3278731107711792,-0.387539685
1.67496264,0.325491339,0.22372444,-0.921243131,-0.003385611,-0.0027293,0.000668611,0.071054734,0.001656352,0.2566210329532623,-0.227310628,0.3278651237487793,-0.387550652
1.679959774,0.327140212,0.2276421189308167,-0.922133029,-0.003618606,-0.003390935,0.000821392,0.071081288,0.001676575,0.2566596567630768,-0.227354839,0.3278592824935913,-0.387569726
1.684957981,0.3255873322486877,0.2278254330158234,-0.920355499,-0.002329934,-0.001154923,-0.000727359,0.071200863,0.001738539,0.2566400766372681,-0.227392241,0.3278555274009705,-0.387604237
1.689957142,0.3260660171508789,0.2241266965866089,-0.921368003,-0.004142583,-0.00014953,0.000951847,0.071404874,0.001842093,0.2565922439098358,-0.227428213,0.3278611898422241,-0.387616575
1.694957256,0.3257797062397003,0.2224457412958145,-0.922648609,-0.003663879,-0.0040908,0.001908176,0.071472518,0.001876429,0.2565763890743256,-0.227452338,0.327846885,-0.387614131
1.699958563,0.3242086470127106,0.2225694805383682,-0.920288503,-0.003563628,-0.004306559,0.001396718,0.071524568,0.001902849,0.2565642,-0.227482244,0.32782805,-0.387612998
1.704960823,0.3256466388702393,0.2246630489826202,-0.919754565,-0.005179925,-0.003374448,0.001195019,0.071541823,0.001911609,0.2565601468086243,-0.227533266,0.327816904,-0.387624472
1.709958196,0.323684961,0.2266937047243118,-0.920585155,-0.005527555,-0.002942858,0.001687706,0.071617082,0.002056506,0.2570392191410065,-0.227574512,0.3278120160102844,-0.387645155
1.714956045,0.3241565525531769,0.2296321541070938,-0.919975877,-0.003812802,-0.004924409,0.003379362,0.071642034,0.002104551,0.2571980655193329,-0.227621719,0.3277949094772339,-0.387657166
1.719955206,0.3247321546077728,0.2286420911550522,-0.918873012,-0.002324845,-0.0050035,0.002297413,0.071661234,0.002141519,0.2573203146457672,-0.227651536,0.3277752995491028,-0.38766858
1.724955082,0.3252429366111755,0.228257954,-0.920650125,-0.001845284,-0.004612683,0.005217467,0.071667597,0.002153776,0.2573608458042145,-0.227677807,0.3277682363986969,-0.387670815
1.729956388,0.3281767666339874,0.2267659157514572,-0.919110179,-0.000134084,-0.007148164,0.005642233,0.071625806,0.001865602,0.2580740451812744,-0.227691635,0.3277481198310852,-0.387654126
1.734958649,0.3283184766769409,0.225894421,-0.919037521,-3.21E-06,-0.006674506,0.004232647,0.071600392,0.001696406,0.2584792971611023,-0.227710009,0.3277382850646973,-0.387647659
1.739956021,0.3256106376647949,0.2247246354818344,-0.919971764,-0.001183529,-0.006030865,0.00372689,0.071580835,0.001566221,0.2587911486625671,-0.227717012,0.3277235329151154,-0.387641639
1.744954109,0.3231759667396545,0.225710467,-0.919439852,-0.000639356,-0.006543245,0.004138212,0.071574353,0.001523054,0.2588945329189301,-0.22773388,0.32769537,-0.38763231
1.74995327,0.3237932026386261,0.2282997667789459,-0.918598413,0.000732663,-0.004187709,0.004093322,0.071626835,0.001483079,0.2583513259887695,-0.227745339,0.3276881277561188,-0.387631655
1.754953265,0.3255220353603363,0.2271951884031296,-0.92097193,0.00023418,-0.005399857,0.00512654,0.07170219,0.001463006,0.2575431764125824,-0.227753237,0.3276728987693787,-0.387622654
1.759954453,0.3240360617637634,0.224123091,-0.921423793,0.001604015,-0.006630884,0.004419778,0.071760178,0.001447561,0.2569213807582855,-0.227752179,0.3276473879814148,-0.387603432
1.764956474,0.3270668089389801,0.222954586,-0.920780778,0.000865256,-0.006614479,0.00370536,0.0717794,0.00144244,0.2567152082920074,-0.227751508,0.3276306390762329,-0.387582749
1.769953847,0.3268996477127075,0.2222814708948135,-0.92117691,0.000406989,-0.008363437,0.002518778,0.07179419,0.0014385,0.2565565705299377,-0.227753744,0.327599049,-0.387564361
1.774951935,0.326964408,0.222353533,-0.92236656,0.0019096,-0.009111323,0.001264613,0.071701638,0.0013883,0.2565064132213593,-0.227745131,0.3275637030601501,-0.387547195
1.779951096,0.3261784613132477,0.2256235927343369,-0.922464311,0.000106712,-0.010165464,0.001498914,0.071630433,0.001349676,0.2564678192138672,-0.227762073,0.3275173604488373,-0.387546897
1.784951091,0.3233529329299927,0.2231637090444565,-0.922526002,-0.000229204,-0.010833125,0.000342754,0.071606822,0.001336868,0.2564550042152405,-0.227776542,0.3274673223495483,-0.387542069
1.789952278,0.3248938620090485,0.2205987721681595,-0.922384501,-0.001792347,-0.011272028,0.000653603,0.071588658,0.001327014,0.2564451694488525,-0.227793008,0.3274201154708862,-0.387527317
1.794954538,0.3255547881126404,0.2195041924715042,-0.922701657,-0.002667412,-0.01187612,-0.000365579,0.071609378,0.001409467,0.2564108073711395,-0.227805734,0.3273701667785645,-0.38750881
1.799957514,0.3204342126846313,0.2237046360969543,-0.91791451,-0.00472619,-0.008718221,-0.000121934,0.07165236,0.001559586,0.2563529014587402,-0.227852419,0.3273164629936218,-0.387522638
1.804955602,0.3156788051128387,0.2297169417142868,-0.918029189,-0.005593613,-0.006603606,0.002834444,0.071666613,0.001609362,0.2563337087631226,-0.2278997,0.3272790908813477,-0.387534559
1.80995512,0.3155921995639801,0.2353998869657516,-0.916974127,-0.00446798,-0.00166823,0.002076911,0.07167758,0.001647662,0.2563189566135406,-0.227961496,0.3272669315338135,-0.387584865
1.814955235,0.3181488513946533,0.235841691,-0.918653131,-0.000864355,-9.10E-05,0.006047102,0.071681216,0.001660361,0.2563140690326691,-0.227986991,0.3272667825222015,-0.387593478
1.819956422,0.3219767510890961,0.2368543446063995,-0.91912508,0.00286158,0.003258282,0.007830404,0.07161776,0.001417253,0.258046418,-0.228001907,0.327290952,-0.387607545
1.824958682,0.3234383165836334,0.2307272851467133,-0.921521902,0.003863705,0.001939775,0.008737199,0.071596719,0.001336643,0.2586208283901215,-0.22799328,0.3273142278194427,-0.387596637
1.829955816,0.3246507048606873,0.2264315336942673,-0.921461999,0.004204639,0.000953152,0.00873851,0.071580529,0.001274619,0.2590628266334534,-0.227970779,0.3273288011550903,-0.387568712
1.834954023,0.3253216147422791,0.2250255197286606,-0.919944525,0.005025017,0.001093632,0.01040931,0.071575165,0.001254053,0.2592093646526337,-0.22794497,0.327357292,-0.387526482
1.839953184,0.3254030048847198,0.225487158,-0.919651628,0.003702418,0.000303021,0.01100703,0.071567759,0.001442825,0.2594762742519379,-0.227931008,0.3273808062076569,-0.387494594
1.844953299,0.3229813575744629,0.2276512384414673,-0.918313682,0.006542229,0.00203234,0.011148487,0.071564488,0.001556046,0.2596029043197632,-0.227907985,0.3274011015892029,-0.38747716
1.849954247,0.3255159556865692,0.2245380282402039,-0.920416772,0.005567517,0.002002928,0.009804896,0.071561977,0.001643162,0.2597003579139709,-0.227884352,0.3274319767951965,-0.387444913
1.854956508,0.326607734,0.2227591574192047,-0.920907915,0.004497596,9.38239973038435e-05,0.009897708,0.071561143,0.001672048,0.2597326934337616,-0.227860674,0.3274528682231903,-0.387412071
1.859953642,0.3268001973628998,0.2223050892353058,-0.920868516,0.004685897,0.000545966,0.009911886,0.071503393,0.001837404,0.2595201730728149,-0.227838263,0.3274661600589752,-0.387381554
1.864951849,0.3235324025154114,0.2242974042892456,-0.919250369,0.003871716,0.000475028,0.008672141,0.07142666,0.002036565,0.2592103481292725,-0.227824345,0.3274766206741333,-0.387372941
1.86995101,0.3227605819702148,0.2235260009765625,-0.922328293,0.002237222,0.000863991,0.008238847,0.071367621,0.002189807,0.2589719891548157,-0.227818742,0.3274921774864197,-0.387359023
1.874951124,0.3217794597148895,0.2232742309570313,-0.920519531,0.002469668,0.000142945,0.007509558,0.071348041,0.002240618,0.2588929533958435,-0.227807239,0.3275033831596375,-0.387342304
1.879952431,0.3209473490715027,0.22695154,-0.917853653,0.001562614,0.000674119,0.010617994,0.071332984,0.002279715,0.2588321268558502,-0.227807,0.3275162577629089,-0.387320101
1.884955406,0.319064736,0.2300506681203842,-0.919579506,7.346711936406791e-05,0.005374733,0.01016198,0.071284339,0.002033475,0.258137971,-0.227826521,0.327550471,-0.387325972
1.889953732,0.3199190199375153,0.230910063,-0.920905352,0.001892885,0.009025373,0.00934778,0.071246907,0.00184401,0.2576038539409637,-0.227836549,0.3276017606258392,-0.387326419
1.89495194,0.3206731975078583,0.2287808209657669,-0.921935141,0.001601836,0.009190239,0.012270437,0.071234494,0.001781188,0.2574267685413361,-0.227838084,0.3276591897010803,-0.387304962
1.8999511,0.3220009803771973,0.2267620414495468,-0.920467794,0.00335216,0.009739266,0.011916288,0.071224943,0.00173285,0.2572905123233795,-0.22782515,0.3277191817760468,-0.387281299
1.904951096,0.3269847333431244,0.225687712,-0.920332134,0.003292648,0.008918357,0.009602161,0.071583785,0.001655913,0.2576534748077393,-0.227814272,0.3277813494205475,-0.387263805
1.909952283,0.3299422264099121,0.2233164757490158,-0.919809282,0.003570075,0.007852248,0.010013455,0.072225928,0.001535129,0.2583454847335815,-0.227798209,0.3278470039367676,-0.387222618
1.914954543,0.327705055,0.22213307,-0.921029449,0.001016288,0.007946749,0.011296518,0.072438851,0.001495079,0.2585749328136444,-0.227788299,0.327904224,-0.387180805
1.919951916,0.3266299366950989,0.2236334830522537,-0.919873655,-0.001375085,0.006003301,0.009643255,0.072602682,0.001464263,0.2587514817714691,-0.227800116,0.3279497027397156,-0.387152761
1.924949765,0.3287206590175629,0.224920854,-0.917963266,0.001509413,0.004377487,0.010057596,0.072657004,0.001454045,0.2588100135326385,-0.227797925,0.3279918730258942,-0.387120962
1.929948926,0.3265846967697144,0.2248528003692627,-0.917377055,0.0003164,0.005050576,0.007028296,0.07205005,0.001447403,0.2576206028461456,-0.227814153,0.3280338048934937,-0.387109876
1.934955001,0.3264185190200806,0.2238101661205292,-0.918421268,-1.51E-05,0.001531785,0.006549309,0.071848795,0.0014452,0.2572262287139893,-0.227822945,0.3280615508556366,-0.387090087
1.939956188,0.3263075351715088,0.2217909246683121,-0.919846892,-0.000737825,0.000291042,0.006005492,0.071693942,0.001443506,0.2569227814674377,-0.227831945,0.3280745148658752,-0.387067497
1.944958448,0.3278429806232452,0.2203764766454697,-0.920213878,-0.001024457,0.000239925,0.006628589,0.071642593,0.001442944,0.2568221688270569,-0.227835894,0.3280937671661377,-0.387035251
1.949955821,0.3267266452312469,0.2211451083421707,-0.919980347,-0.001881111,-0.001724515,0.004122107,0.071456112,0.001395998,0.2569045424461365,-0.227850556,0.3280956745147705,-0.387018561
1.954954028,0.3269613981246948,0.2234408259391785,-0.92091763,-0.003482998,-0.00267314,0.002915949,0.071357906,0.001368922,0.2569713890552521,-0.227884263,0.3280886709690094,-0.387018681
1.95995295,0.3258435130119324,0.2278646230697632,-0.920798481,-0.001776186,-0.005406638,0.001877228,0.07128235,0.001348089,0.2570227980613708,-0.227916598,0.328064501,-0.387033165
1.964953542,0.3258839249610901,0.2262270301580429,-0.920690358,-0.002817107,-0.005421223,0.001069387,0.071257293,0.001341181,0.2570398449897766,-0.227948681,0.3280429542064667,-0.387043774
1.96995461,0.3251663446426392,0.2210203260183334,-0.920550704,-0.005981565,-0.002585215,0.004723,0.07120923,0.001311891,0.2575275003910065,-0.227991015,0.3280395865440369,-0.387025774
1.974956751,0.3234334290027618,0.2183323055505753,-0.92474556,-0.011474836,-0.002605192,0.006002341,0.071164265,0.001278003,0.2581677436828613,-0.22804594,0.3280328512191772,-0.38698867
1.979953885,0.3243745863437653,0.2216103971004486,-0.921380043,-0.016115814,-0.004747996,0.009015813,0.071129672,0.001251929,0.2586603462696075,-0.228131399,0.3280225992202759,-0.386945695
1.984952092,0.325621098,0.221221536,-0.921727836,-0.02139187,-0.003113432,0.011114595,0.071118206,0.001243283,0.2588236927986145,-0.228239149,0.3280298709869385,-0.386895239
1.989951015,0.3243975341320038,0.2236082702875137,-0.924422383,-0.024571054,-0.00251548,0.01469027,0.071109384,0.001236631,0.2589493691921234,-0.228356376,0.3280371725559235,-0.386826694
1.994951129,0.3240936398506165,0.2244152128696442,-0.921972275,-0.026814472,-0.005225137,0.015941182,0.071595147,0.001377305,0.2589799165725708,-0.22848472,0.3280287981033325,-0.386752307
1.999952078,0.3272841572761536,0.2259257882833481,-0.922658801,-0.026779523,-0.002665305,0.013304928,0.071968913,0.001485543,0.2590034306049347,-0.228616267,0.3280344009399414,-0.386699855
2.004954338,0.3250729441642761,0.2273954749107361,-0.925112247,-0.024133993,-0.005276017,0.011154601,0.072092846,0.001521433,0.2590112388134003,-0.228736386,0.3280176818370819,-0.386662126
2.009951591,0.3265898525714874,0.2311340421438217,-0.918878973,-0.023593716,-0.007601309,0.009372446,0.072188199,0.001549048,0.2590172588825226,-0.228865147,0.3279971480369568,-0.386639595
2.01494956,0.3227744102478027,0.2324841916561127,-0.918283045,-0.021403046,-0.004530116,0.009056972,0.072026081,0.001474908,0.2589647471904755,-0.228990614,0.3279899954795837,-0.386629045
2.019948721,0.322789341,0.2326429039239883,-0.920075297,-0.018469704,-0.00475121,0.010365166,0.071705453,0.001333636,0.2588692307472229,-0.229092568,0.3279751539230347,-0.386606365
2.024949074,0.3266158103942871,0.2334262281656265,-0.919513047,-0.014287803,-0.006625243,0.007347705,0.071599141,0.001286792,0.2588375508785248,-0.229182869,0.3279560804367065,-0.386606872
2.029949903,0.3294099569320679,0.2293459475040436,-0.918865621,-0.011457128,-0.009672485,0.003112157,0.071517333,0.00125075,0.2588131725788116,-0.229247957,0.3279234170913696,-0.386601567
2.034952164,0.3215008080005646,0.2263241410255432,-0.915207028,-0.010735008,-0.010019608,0.003262341,0.071490213,0.001238799,0.2588050961494446,-0.229317293,0.3278721570968628,-0.386600673
2.039949656,0.3248049914836884,0.2278259247541428,-0.91854459,-0.009667619,-0.005469879,0.003053717,0.071472034,0.001220738,0.2578290104866028,-0.229380682,0.327857494,-0.386598736
2.044947863,0.3272785544395447,0.2348942905664444,-0.925674498,-0.007525429,-0.013152711,0.004026905,0.071466006,0.00121475,0.2575053572654724,-0.229439616,0.3278034925460815,-0.386601925
2.049947023,0.3251852691173553,0.227262869,-0.914784372,-0.00326366,-0.016813943,0.001986447,0.071461372,0.001210142,0.2572563290596008,-0.229458615,0.327717662,-0.38659808
2.054947138,0.3251930475234985,0.227352574,-0.915718794,-0.004697506,-0.009709953,0.000722878,0.071459837,0.001208614,0.2571737766265869,-0.229500473,0.3276796340942383,-0.386609733
2.059948206,0.3279478549957275,0.2201370894908905,-0.928821445,-0.006570532,-0.013601495,0.00217155,0.071311124,0.001259649,0.2569561004638672,-0.229524493,0.3276285529136658,-0.386577696
2.064950228,0.326653779,0.2239719927310944,-0.918509066,-0.008573704,-0.016495984,0.002831953,0.071225308,0.001289491,0.2568457722663879,-0.229574919,0.327550471,-0.386551946
2.069953442,0.3248058557510376,0.2268051505088806,-0.916728079,-0.013329128,-0.014086546,0.000309743,0.071159281,0.001312453,0.2567608952522278,-0.229663417,0.3274921178817749,-0.386559486
2.074951649,0.3266327083110809,0.2262825071811676,-0.926013947,-0.012241224,-0.016413683,-0.001999188,0.071137384,0.001320066,0.2567327618598938,-0.229743436,0.3274237513542175,-0.386580735
2.079950809,0.3252791464328766,0.2235659211874008,-0.919297576,-0.013587906,-0.017062303,-0.001991072,0.071177579,0.001238045,0.2566813826560974,-0.22981663,0.3273381590843201,-0.386578113
2.084950686,0.326256126,0.2223646193742752,-0.923445225,-0.01424813,-0.015317472,-0.002879559,0.071248427,0.001122231,0.256634384,-0.229895204,0.3272693157196045,-0.386584759
2.089951992,0.3267195820808411,0.2267626225948334,-0.923414528,-0.01627389,-0.018049536,-0.005015445,0.071302943,0.001033121,0.2565982341766357,-0.229999289,0.3271811306476593,-0.386605859
2.094954014,0.3252091109752655,0.2287667244672775,-0.919362187,-0.015063744,-0.018552152,-0.008272944,0.071321018,0.001003573,0.2565862238407135,-0.23010464,0.3270832896232605,-0.386654675
2.099951267,0.3247064650058746,0.231659934,-0.921357334,-0.011976006,-0.018141478,-0.008893402,0.071334928,0.000980838,0.2565770149230957,-0.230198637,0.3269871473312378,-0.386714399
2.104949474,0.3254978060722351,0.2289144545793533,-0.919073105,-0.011973739,-0.017636079,-0.008858138,0.071783975,0.000762064,0.2566198408603668,-0.23028481,0.3268983364105225,-0.386750847
2.109948635,0.3244721293449402,0.2290740758180618,-0.919217587,-0.011179717,-0.020055288,-0.011259716,0.072129481,0.000593732,0.2566528022289276,-0.230373278,0.3267914056777954,-0.386807084
2.11494875,0.327098936,0.2314655333757401,-0.916959941,-0.008071346,-0.021975068,-0.01233901,0.072244048,0.000537916,0.2566637098789215,-0.230456278,0.3266816735267639,-0.386866748
2.119950056,0.3248859643936157,0.2298800051212311,-0.917766154,-0.007810254,-0.022304514,-0.011363153,0.072332203,0.00049497,0.2566721439361572,-0.230529577,0.3265697956085205,-0.386912704
2.124952316,0.3224802315235138,0.2333185523748398,-0.91794306,-0.005329345,-0.021886742,-0.009387106,0.072080612,0.0006581,0.2565599381923676,-0.230589077,0.3264491558074951,-0.386972308
2.129949808,0.3211259245872498,0.2335385084152222,-0.919205487,-0.001220809,-0.022024982,-0.011423778,0.071603075,0.000962967,0.256357342,-0.230639651,0.3263328671455383,-0.387051344
2.134947777,0.3211224675178528,0.2315545231103897,-0.918206036,0.001459628,-0.021143386,-0.008737178,0.071444727,0.001064055,0.2562901675701141,-0.230661839,0.3262259066104889,-0.387100607
2.139946699,0.319887638,0.2320189028978348,-0.918623507,0.003439011,-0.02196499,-0.006924029,0.071322896,0.001141835,0.2562384903430939,-0.230672553,0.3261075913906097,-0.38714391
2.144947052,0.3209109306335449,0.2366383522748947,-0.918367088,0.0055775,-0.022056384,-0.005777071,0.071282499,0.001167626,0.2562213540077209,-0.230686277,0.3259974122047424,-0.387201369
2.149947882,0.3216328620910645,0.2348905950784683,-0.915716588,0.009584658,-0.021001393,-0.006539606,0.071254425,0.000920031,0.2564882338047028,-0.230668932,0.3258916139602661,-0.387249112
2.154950142,0.3222161531448364,0.2292738109827042,-0.918165028,0.011090623,-0.020222884,-0.004186306,0.071245112,0.000837933,0.2565767467021942,-0.230636671,0.3257884383201599,-0.387275547
2.159947157,0.3217981159687042,0.2242090106010437,-0.919478297,0.009815088,-0.018935846,-0.001637697,0.071237952,0.000774764,0.2566448450088501,-0.230592355,0.3256969451904297,-0.387273341
2.164945364,0.3213071823120117,0.2254199683666229,-0.919415593,0.006925921,-0.018676477,0.000588409,0.071235575,0.000753819,0.256667435,-0.230570659,0.3256091475486755,-0.387261122
2.169944525,0.321600616,0.2232780605554581,-0.917711318,0.000506899,-0.018150963,0.004359212,0.07157547,0.000834069,0.2568334937095642,-0.230566517,0.3255326151847839,-0.387220502
2.174944878,0.3234803676605225,0.222137451,-0.920026541,-0.002998557,-0.017810894,0.006429587,0.071772732,0.000884524,0.2569253444671631,-0.230576798,0.3254561424255371,-0.387169778
2.179945707,0.3260883688926697,0.2261523008346558,-0.920241475,-0.005980897,-0.017195433,0.007756119,0.071924515,0.000923346,0.2569960057735443,-0.230606422,0.3253901302814484,-0.387118995
2.184947968,0.3214124143123627,0.2245809584856033,-0.91836971,-0.005549404,-0.018872079,0.007554665,0.071974844,0.000936219,0.2570194602012634,-0.230634794,0.3253082036972046,-0.387074053
2.189944983,0.3211395442485809,0.2228841632604599,-0.920015931,-0.008097932,-0.017480463,0.005479633,0.07195662,0.001061223,0.2568892538547516,-0.230672449,0.3252285420894623,-0.387037933
2.194943666,0.3259112536907196,0.234315038,-0.916692853,-0.008331605,-0.020181712,0.005991124,0.071893148,0.001218737,0.2566966116428375,-0.230734229,0.3251473009586334,-0.387020946
2.199942827,0.3151692748069763,0.2310313880443573,-0.918918192,-0.005873177,-0.018359225,0.006319172,0.07184431,0.001339933,0.2565483748912811,-0.230771095,0.3250470757484436,-0.387023747
2.204948902,0.3155735731124878,0.2215266972780228,-0.92158556,-0.011433761,-0.019348061,0.015388669,0.071828119,0.00138012,0.2564992010593414,-0.230797663,0.3249714970588684,-0.386925876
2.209950209,0.3200124502182007,0.2292042076587677,-0.920113683,-0.017241118,-0.018827703,0.022424327,0.071815655,0.001411041,0.2564613819122314,-0.230872691,0.3249120712280273,-0.386811972
2.21495223,0.3177250027656555,0.2253375351428986,-0.922457516,-0.01981228,-0.01703131,0.027123785,0.071957864,0.001276077,0.2575425207614899,-0.230931088,0.3248578906059265,-0.386672139
2.219949245,0.322942317,0.2250991463661194,-0.919608951,-0.027541893,-0.016649157,0.033284739,0.072067283,0.001172231,0.2583743631839752,-0.231023028,0.3248151540756226,-0.386485815
2.224947453,0.3174655735492706,0.2322143614292145,-0.921319366,-0.023477681,-0.01758869,0.033037569,0.07210356,0.001137798,0.2586501836776733,-0.231123686,0.324768603,-0.386344135
2.229946613,0.3172995448112488,0.2206656038761139,-0.920319378,-0.026814828,-0.017213617,0.040610731,0.072131477,0.001111304,0.2588624060153961,-0.231179655,0.3247281908988953,-0.386119545
2.234946489,0.3209962844848633,0.2251061052083969,-0.921772718,-0.031259585,-0.015193453,0.045026615,0.072170548,0.000958034,0.2589634358882904,-0.231277078,0.3247188329696655,-0.385885298
2.239947796,0.3201483190059662,0.2321821600198746,-0.920955658,-0.031541381,-0.016055729,0.047204405,0.072230741,0.000694005,0.2590722143650055,-0.231377468,0.3246948719024658,-0.385655284
2.244949818,0.3153156936168671,0.2308055758476257,-0.920529246,-0.029495517,-0.015570296,0.050192736,0.072250709,0.000606458,0.2591082751750946,-0.231452182,0.3246639966964722,-0.385411859
2.249947071,0.3204366862773895,0.2282868623733521,-0.918083608,-0.031276323,-0.013454567,0.056868456,0.072266065,0.000539096,0.2591360211372375,-0.231525689,0.3246657252311707,-0.385113418
2.254945278,0.3227471113204956,0.2339843958616257,-0.92094034,-0.028712567,-0.017698716,0.055366419,0.072271153,0.00051676,0.2591452,-0.231602862,0.324651301,-0.384843409
2.259944439,0.3211672008037567,0.2344948947429657,-0.9151932,-0.028291052,-0.017434148,0.060686015,0.072407477,0.000619373,0.2577627599239349,-0.231672779,0.3246377110481262,-0.384554446
2.264944315,0.3165050745010376,0.2344225943088531,-0.919750452,-0.024749294,-0.014959097,0.063684806,0.072452679,0.000653397,0.2573043704032898,-0.231713131,0.3246382772922516,-0.384248167
2.269946098,0.3185178637504578,0.2290977090597153,-0.922387183,-0.025507724,-0.016052762,0.071028627,0.072487459,0.000679576,0.2569516897201538,-0.231734201,0.324639231,-0.383883089
2.274948359,0.3227391839027405,0.2407329082489014,-0.919357181,-0.023699617,-0.019004101,0.06975539,0.072498992,0.000688257,0.2568347454071045,-0.231778577,0.324629545,-0.383557498
2.279945374,0.3185976147651672,0.2350217998027802,-0.92155689,-0.013739058,-0.017912272,0.066611081,0.072460197,0.000545893,0.2570080459117889,-0.231758386,0.3246189951896667,-0.383239806
2.284943819,0.3237122893333435,0.2274172306060791,-0.921318531,-0.016170979,-0.015953844,0.065174751,0.072435535,0.000461807,0.2571306526660919,-0.231738478,0.3246242702007294,-0.382898927
2.289942741,0.3264591097831726,0.2287833243608475,-0.922555506,-0.011131635,-0.017930904,0.060564585,0.072416566,0.000397108,0.257224977,-0.2317072,0.3246240019798279,-0.382583886
2.294943094,0.3242586255073547,0.2278442978858948,-0.918316841,-0.01195747,-0.018971212,0.055806763,0.072410271,0.000375656,0.2572562694549561,-0.23168993,0.3245956897735596,-0.382303536
2.299943924,0.324544221,0.2269238382577896,-0.922459245,-0.008014813,-0.016819641,0.047954347,0.072296448,0.000215465,0.2571064531803131,-0.231658608,0.3245834708213806,-0.382054895
2.304946184,0.3277861475944519,0.22496967,-0.925060987,-0.008415342,-0.017940251,0.041719075,0.072148807,1.745926419971511e-05,0.2568814158439636,-0.231637165,0.3245595097541809,-0.381828457
2.309943199,0.3305380940437317,0.2285550832748413,-0.917941153,-0.005718269,-0.019243186,0.033543982,0.072035208,-0.000134893,0.2567082941532135,-0.231626838,0.3245236277580261,-0.381653845
2.314941406,0.3242064416408539,0.2308004796504974,-0.920063019,-0.003380877,-0.015771503,0.030464401,0.071997546,-0.00018541,0.2566508948802948,-0.231611565,0.3244879841804504,-0.381509066
2.319940329,0.3237850069999695,0.2266482412815094,-0.925718427,-0.002597518,-0.018001143,0.025317213,0.07196857,-0.00022428,0.2566066980361938,-0.23158446,0.3244345188140869,-0.381374657
2.324940443,0.3243241310119629,0.2316173017024994,-0.92138648,-0.002884977,-0.017164413,0.022078665,0.071958102,-0.0001859,0.2566436231136322,-0.231588736,0.3243808150291443,-0.381272376
2.329941511,0.3207179605960846,0.2338654547929764,-0.919333637,0.002791433,-0.016276278,0.019694559,0.071950048,-0.000156369,0.2566720247268677,-0.231568217,0.3243254423141479,-0.381193697
2.334943771,0.3157125413417816,0.2305237650871277,-0.926145673,0.003123798,-0.013018111,0.016734613,0.071947381,-0.000146578,0.2566814720630646,-0.231542617,0.3242701292037964,-0.38112101
2.339946985,0.3200376927852631,0.2285667508840561,-0.9248299,0.005512754,-0.012884919,0.014381574,0.071945325,-0.000139044,0.2566887140274048,-0.231504217,0.3242257833480835,-0.381050706
2.344945431,0.3233246803283691,0.229835644,-0.918936789,0.007054284,-0.012605335,0.011828245,0.071999475,-0.000162138,0.2571640610694885,-0.23146151,0.3241872191429138,-0.381002724
2.34994483,0.3237743973731995,0.2282887697219849,-0.923581719,0.007629718,-0.009289155,0.009681145,0.072096586,-0.000205784,0.2580079734325409,-0.231425166,0.3241602778434753,-0.380964458
2.354944944,0.323223203,0.2256421744823456,-0.923191786,0.006655563,-0.013422251,0.008672501,0.072128788,-0.000220257,0.2582878172397614,-0.231373787,0.3241064250469208,-0.380911469
2.359946251,0.3213123083114624,0.2280320227146149,-0.916712344,0.011462396,-0.012036789,0.006174723,0.072153561,-0.000231393,0.2585031092166901,-0.231330156,0.3240554928779602,-0.380894899
2.364948273,0.3245972096920013,0.2312359809875488,-0.920818448,0.009127227,-0.009569095,0.003977535,0.072161779,-0.000235085,0.2585744857788086,-0.231299415,0.3240303993225098,-0.380887747
2.369945288,0.3188643157482147,0.2310948967933655,-0.923004746,0.016238824,-0.01548221,-5.98E-05,0.072037518,-4.18E-05,0.2576598227024078,-0.231236666,0.3239467740058899,-0.380911827
2.374943495,0.3199315667152405,0.2270106375217438,-0.916397035,0.015231655,-0.012512268,-0.001626873,0.071996316,2.230490281363018e-05,0.2573565542697906,-0.231170639,0.3238805532455444,-0.380922019
2.379942656,0.3254206478595734,0.2303503304719925,-0.924129486,0.015617115,-0.012425628,-0.003428118,0.071964607,7.162043038988486e-05,0.257123202,-0.231116474,0.3238324820995331,-0.38094902
2.384942532,0.3221575319766998,0.2347593903541565,-0.918255687,0.01974052,-0.016707687,-0.005502198,0.071954094,8.79725266713649e-05,0.2570458054542542,-0.23105897,0.3237431049346924,-0.380996168
2.389943838,0.3204150199890137,0.2327738702297211,-0.919080615,0.022132361,-0.011432955,-0.00659439,0.072141863,-4.70E-05,0.2579225897789001,-0.230976716,0.3236786425113678,-0.381058514
2.39494586,0.3189896941184998,0.2272404283285141,-0.927402437,0.020328967,-0.012381645,-0.006764932,0.072252586,-0.000128332,0.2584450244903564,-0.230894044,0.3236143290996552,-0.381100893
2.399943113,0.3217911124229431,0.2281579524278641,-0.920312285,0.02205666,-0.010676607,-0.007505243,0.072337784,-0.00019088,0.2588469982147217,-0.230812863,0.3235564231872559,-0.381137669
2.404941082,0.3208545744419098,0.2345201373100281,-0.921393692,0.02216915,-0.009488653,-0.009674956,0.072366029,-0.00021162,0.2589803040027618,-0.230744973,0.3235038220882416,-0.381219923
2.409940243,0.3173349499702454,0.2288549542427063,-0.924201667,0.025758356,-0.006674264,-0.010376533,0.072360568,-0.000174222,0.258549839,-0.230643243,0.3234462440013885,-0.38129276
2.414940119,0.321107417,0.2237898260354996,-0.924174368,0.023381429,-0.007199791,-0.007968258,0.072331332,-0.000108019,0.2578696310520172,-0.230541289,0.3234074711799622,-0.381321698
2.419941902,0.3224389255046844,0.2209243476390839,-0.922658205,0.022040768,-0.005285496,-0.011938077,0.072308838,-5.71E-05,0.2573462426662445,-0.230456576,0.3233708143234253,-0.381380439
2.424944162,0.3229228854179382,0.2306310832500458,-0.920803726,0.020346688,-0.005848969,-0.012656978,0.072301373,-4.02E-05,0.257172704,-0.230409548,0.3233388364315033,-0.381469548
2.429941654,0.3222992420196533,0.2280572056770325,-0.92220366,0.020254347,-0.005751782,-0.017313296,0.072295628,-2.72E-05,0.2570391595363617,-0.230356917,0.3232961893081665,-0.38157171
2.434939861,0.3172420263290405,0.2242909073829651,-0.921939433,0.018973514,-0.004201353,-0.016112885,0.072386868,0.000137122,0.2580339908599854,-0.230298504,0.3232547044754028,-0.381669015
2.439939022,0.3192383646965027,0.2211966514587402,-0.922782183,0.01387965,-0.004868342,-0.016260767,0.072457068,0.000263551,0.2587994337081909,-0.230253607,0.3232163786888123,-0.38174808
2.444939375,0.3211330473423004,0.2298416048288345,-0.920166075,0.013152016,-0.004011071,-0.017264219,0.072480343,0.000305473,0.2590532302856445,-0.230249465,0.3231831789016724,-0.38186729
2.449940205,0.3145765960216522,0.229864091,-0.923092186,0.01480916,-0.003038167,-0.018733058,0.072498254,0.000337729,0.2592485547065735,-0.230227917,0.3231387138366699,-0.38199985
2.454942465,0.3184412121772766,0.2285787612199783,-0.922547698,0.011828164,-0.003279274,-0.017008655,0.072477885,0.000343822,0.2587513327598572,-0.230222911,0.3231047689914703,-0.38210699
2.45993948,0.3195579946041107,0.2318539768457413,-0.920370817,0.010387244,-0.0007662,-0.018259687,0.072435603,0.000343856,0.2578005194664001,-0.230224803,0.323086679,-0.38223213
2.464937687,0.3163992464542389,0.2333783656358719,-0.921236098,0.011944892,-0.000800513,-0.015598388,0.072421581,0.000343868,0.2574852705001831,-0.230223,0.3230640292167664,-0.38236016
2.469936609,0.3180973529815674,0.2315961122512817,-0.921961606,0.008256046,0.001073318,-0.015918892,0.072410792,0.000343877,0.2572426795959473,-0.230237752,0.3230540156364441,-0.382475078
2.474942684,0.3192457854747772,0.2341719120740891,-0.923123538,0.011028085,0.001031364,-0.015745919,0.072407216,0.00034388,0.2571622431278229,-0.230242267,0.3230422139167786,-0.382604182
2.479943991,0.3178643584251404,0.2357532531023026,-0.921128929,0.011374989,0.00392055,-0.012533652,0.07246761,0.000478239,0.2571668922901154,-0.230240479,0.3230441510677338,-0.38271755
2.484946251,0.317475438,0.2337014675140381,-0.921386361,0.010915466,0.004783246,-0.012712917,0.07248763,0.00052279,0.2571684122085571,-0.230234042,0.3230499625205994,-0.38282758
2.489943266,0.3179143965244293,0.2344651818275452,-0.920287311,0.01240856,0.004814822,-0.010793278,0.072503038,0.000557069,0.2571696043014526,-0.230224475,0.3230627179145813,-0.382935375
2.494941711,0.3207961320877075,0.2328468412160873,-0.91816771,0.013162534,0.005221736,-0.010848778,0.072508141,0.000568436,0.2571700215339661,-0.230199963,0.3230841159820557,-0.383030355
2.499940872,0.3225593566894531,0.2335846573114395,-0.916855872,0.01323479,0.006201858,-0.008128319,0.072606921,0.000634651,0.2581062316894531,-0.230180845,0.3231213092803955,-0.383119673
2.504940987,0.3207757472991943,0.2326550036668777,-0.919963539,0.013565713,0.006804023,-0.009143072,0.072663143,0.000670828,0.2586482763290405,-0.230159372,0.3231449723243713,-0.383214593
2.509942532,0.322263777,0.2299365252256393,-0.921930134,0.014590314,0.008733638,-0.008828553,0.072706401,0.000698664,0.2590653598308563,-0.230119273,0.3231831192970276,-0.383294404
2.51494503,0.3185934126377106,0.229456365,-0.922421634,0.013798423,0.008971019,-0.008957432,0.072720744,0.000707893,0.2592036426067352,-0.23009114,0.3232201933860779,-0.383385122
2.519942284,0.3201587796211243,0.2291363626718521,-0.922250986,0.011043815,0.012397267,-0.007736774,0.072649896,0.00073842,0.258541614,-0.23007077,0.3232757151126862,-0.383465528
2.524940491,0.3189447522163391,0.2270661890506744,-0.922247767,0.009342331,0.015745306,-0.007332269,0.072543837,0.000772165,0.2575471997261047,-0.230064183,0.3233479559421539,-0.383550107
2.529939651,0.3211013972759247,0.2280874401330948,-0.921541512,0.007549195,0.016109958,-0.008641507,0.072462231,0.000798129,0.256782055,-0.230071411,0.3234210014343262,-0.383634448
2.534939766,0.3227430880069733,0.2289695143699646,-0.920900285,0.005260372,0.017586486,-0.010014199,0.07243517,0.000806738,0.2565283477306366,-0.230089039,0.3235056400299072,-0.383732975
2.539940834,0.3223295509815216,0.2319902777671814,-0.924503922,0.00441277,0.020779083,-0.011074628,0.072414346,0.000813362,0.2563331425189972,-0.230120257,0.323601246,-0.383846343
2.544942856,0.3178121745586395,0.2358365654945374,-0.924270689,0.003247238,0.025647052,-0.010659023,0.07225734,0.000973164,0.2565302550792694,-0.230163828,0.3237069845199585,-0.383981645
2.549939871,0.3119721710681915,0.2366584539413452,-0.923738003,0.006457632,0.030485624,-0.008783124,0.072136536,0.001096122,0.256681889,-0.230191633,0.3238297700881958,-0.384130418
2.55493784,0.3114798665046692,0.2410776764154434,-0.923223734,0.009225913,0.036290713,-0.008055789,0.072096482,0.001136892,0.256732166,-0.230222136,0.3239901661872864,-0.3842839
2.559937,0.3082133531570435,0.2496145665645599,-0.925067544,0.009597281,0.04301697,-0.005420413,0.072065659,0.001168262,0.2567708492279053,-0.230259329,0.3241746425628662,-0.384459406
2.564937115,0.3064254820346832,0.255847842,-0.923315287,0.015574692,0.050518479,-0.003538563,0.072138466,0.001123959,0.257286012,-0.230277523,0.3243985176086426,-0.384652376
2.569938421,0.3023698031902313,0.258581281,-0.923442483,0.018898629,0.059925463,0.001512855,0.07227844,0.001034557,0.2581903040409088,-0.230266958,0.3246650397777557,-0.384833753
2.574940681,0.2987682521343231,0.2565053403377533,-0.927179337,0.023092134,0.072288014,0.006227535,0.072324857,0.001004913,0.2584901452064514,-0.230230436,0.3249948918819427,-0.38499707
2.579937935,0.2982582151889801,0.2521254420280457,-0.931523085,0.026183363,0.083024867,0.015066057,0.072360568,0.000982104,0.258720875,-0.230163097,0.3253828585147858,-0.385111392
2.584936142,0.2950596213340759,0.2505122423171997,-0.931581914,0.027297731,0.094735242,0.023085454,0.072372407,0.000974541,0.2587973773479462,-0.230077222,0.3258295059204102,-0.385206997
2.589935541,0.2917945981025696,0.2470888048410416,-0.929975331,0.029411949,0.108308807,0.029956657,0.072059393,0.000768752,0.2584490478038788,-0.22997421,0.3263425230979919,-0.385274708
2.594935894,0.2923395335674286,0.2420344203710556,-0.935505569,0.026198134,0.1258305609226227,0.039497577,0.071955614,0.000700516,0.2583335638046265,-0.229857132,0.3269651532173157,-0.385291278
2.599936962,0.285739541,0.2426576316356659,-0.941898882,0.020305218,0.1414011120796204,0.05223703,0.071875758,0.000648014,0.2582446932792664,-0.22976099,0.3276575803756714,-0.38526392
2.604938984,0.2754109501838684,0.2409255057573318,-0.941728413,0.007549803,0.1574457287788391,0.074965402,0.071849279,0.000630605,0.2582152485847473,-0.229693234,0.3284216821193695,-0.385150701
2.609941959,0.2670518159866333,0.2381636798381805,-0.949267685,-0.00971009,0.1799326837062836,0.1033925637602806,0.071876876,0.000813709,0.2575637996196747,-0.229673102,0.3293311,-0.384917498
2.614940166,0.2534597218036652,0.2335954755544662,-0.957741797,-0.031795867,0.2008571326732635,0.1387061774730682,0.071897894,0.000923046,0.2571921944618225,-0.22969991,0.3303475975990295,-0.384506226
2.619939089,0.238750696,0.2392783164978027,-0.960744262,-0.05187463,0.2213334590196609,0.1775857955217361,0.071914069,0.001007174,0.256906271,-0.229790166,0.3314772844314575,-0.383945763
2.624939203,0.2174313068389893,0.246883214,-0.970909774,-0.069426097,0.2459403872489929,0.2295221835374832,0.071919434,0.00103507,0.2568114399909973,-0.229877248,0.3327507972717285,-0.383190602
2.629940271,0.1956231594085693,0.264571339,-0.974731863,-0.09146563,0.2681088447570801,0.3077722489833832,0.071563073,0.000919867,0.2568062543869019,-0.229997158,0.3341919183731079,-0.382113039
2.634942532,0.1755690723657608,0.2942566275596619,-0.964910626,-0.105408832,0.2874296605587006,0.3960927426815033,0.071081392,0.000743855,0.2568728625774384,-0.230089068,0.3357858657836914,-0.380683184
2.639939547,0.1575683057308197,0.3053480386734009,-0.956593156,-0.125529423,0.3179547488689423,0.4966703355312347,0.070710771,0.000608425,0.2569241225719452,-0.230118513,0.3376179337501526,-0.378820419
2.644937754,0.1165487989783287,0.308047354,-0.965528488,-0.168213353,0.3708452880382538,0.6087943911552429,0.070587881,0.00056352,0.2569411098957062,-0.230217382,0.3397699594497681,-0.376456797
2.649936914,0.089581482,0.2603406012058258,-0.978792608,-0.234348759,0.4326752424240112,0.7250613570213318,0.070493326,0.000528968,0.2569542229175568,-0.230362996,0.3423071503639221,-0.373435855
2.654937029,0.088412687,0.2189487516880035,-1.015210986,-0.316902995,0.539731503,0.817462146,0.069581613,0.000330483,0.2568735182285309,-0.230615139,0.3454899489879608,-0.369904727
2.659938335,0.096916854,0.002187867,-1.097827911,-0.602792799,0.7144811153411865,0.9013369679450989,0.068880118,0.000177763,0.2568114101886749,-0.231887817,0.3495813608169556,-0.365608066
2.664940834,-0.12798059,-0.028936878,-1.19786191,-0.936929405,0.9519402980804443,1.142074346542358,0.068647519,0.000127123,0.256790817,-0.234634683,0.3547936081886292,-0.360294461
2.669938087,-0.079806983,0.3969926238059998,-1.127894402,-0.844251335,1.213117122650146,1.251675367355347,0.068468548,8.816001354716718e-05,0.2567749917507172,-0.237621292,0.3614777326583862,-0.356023431
2.674936533,0.1209233030676842,0.5198764204978943,-1.082527518,-0.63401413,1.560720562934875,1.079123854637146,0.067503616,-0.000916755,0.2567689716815948,-0.239853218,0.3700966835021973,-0.353587329
2.679935694,0.1723015904426575,0.2308960258960724,-1.191669703,-0.667944551,1.845971941947937,1.045103430747986,0.065845482,-0.002693032,0.2567635476589203,-0.241802573,0.380110502,-0.350676
2.684936047,0.2807128131389618,0.2748754024505615,-1.285442233,-0.713520646,1.970864892,1.169502735137939,0.065295674,-0.003282012,0.25676176,-0.24400793,0.3909251391887665,-0.347050071
2.689936876,0.2693891823291779,0.4298170804977417,-1.300469637,-0.645136952,2.005181789398193,1.191920518875122,0.064872637,-0.003735192,0.2567603886127472,-0.246056795,0.4016828238964081,-0.343981445
2.694938898,0.218049631,0.4398217797279358,-1.245092869,-0.606508911,2.044741868972778,1.190341353416443,0.064732358,-0.003885458,0.256759912,-0.247840092,0.4125206470489502,-0.341061264
2.699935913,0.2231623977422714,0.4134154915809631,-1.19511199,-0.626921296,2.108918190002441,1.200077414512634,0.05957491,-0.006666703,0.2572342753410339,-0.249713644,0.4237330555915833,-0.338065147
2.704933882,0.2827261388301849,0.4194095730781555,-1.260877967,-0.640076876,2.167919635772705,1.237043738365173,0.057864796,-0.007588911,0.2573915719985962,-0.251614511,0.4353753328323364,-0.334921658
2.709933043,0.2947031855583191,0.4996528923511505,-1.382949233,-0.580286145,2.110797882080078,1.279725790023804,0.056548979,-0.008298487,0.2575125992298126,-0.253096133,0.4466598331928253,-0.331638724
2.714932919,0.2393223643302917,0.5750136971473694,-1.373520732,-0.468070477,1.980580211,1.277491092681885,0.056112681,-0.008533769,0.2575527429580688,-0.253976375,0.4570463001728058,-0.328462362
2.719934225,0.1587319374084473,0.5984354019165039,-1.292150378,-0.354412973,1.905208945274353,1.218521475791931,0.050248992,-0.00997602,0.2580180764198303,-0.254398435,0.4668800532817841,-0.325674444
2.724936247,0.086329624,0.6249073147773743,-1.380283594,-0.191938475,1.854172945022583,1.146610379219055,0.046936788,-0.010766334,0.2582798898220062,-0.254158258,0.4762986898422241,-0.323310345
2.7299335,0.035075508,0.6985891461372375,-1.530853271,-0.01247545,1.643830657,1.006119251251221,0.044388272,-0.011374428,0.258481354,-0.253210455,0.4841735363006592,-0.321648717
2.734931707,0.1630906164646149,0.6658095717430115,-1.552577615,0.1720834225416183,1.458425045013428,0.8630560636520386,0.043543231,-0.01157606,0.2585481703281403,-0.25146696,0.4910943508148193,-0.32027775
2.739930868,0.089727096,0.6185821890830994,-1.675598979,0.3108161687850952,1.232746124267578,0.756963849,0.039746244,-0.011817194,0.2583656013011932,-0.248966441,0.4966678619384766,-0.318946779
2.744937181,-0.088665023,0.5954762697219849,-1.666766047,0.3956749737262726,0.9113004207611084,0.6214796900749207,0.035314023,-0.011983862,0.2580691576004028,-0.246179432,0.5000550746917725,-0.317990631
2.749938726,-0.289295882,0.5011845231056213,-1.56485939,0.4642296135425568,0.6445722579956055,0.483717144,0.031903733,-0.012112102,0.2578410506248474,-0.243151322,0.5017663240432739,-0.317324638
2.754940987,-0.45192495,0.3531056046485901,-1.491074562,0.4908465147018433,0.423086405,0.3856305480003357,0.030772947,-0.012154624,0.2577654123306274,-0.239853352,0.5022015571594238,-0.316533685
2.75993824,-0.588700891,0.2359746843576431,-1.394070148,0.4648221135139465,0.2384664714336395,0.3353367447853088,0.029902883,-0.012187341,0.2577072083950043,-0.236548707,0.5016176104545593,-0.315493286
2.764936447,-0.692973077,0.1685222834348679,-1.288287878,0.4083007872104645,0.105833501,0.3170851767063141,0.025813431,-0.010551965,0.257586658,-0.233478919,0.5003504753112793,-0.314353049
2.769935369,-0.747883797,0.1324511170387268,-1.232971072,0.3387756049633026,0.00479375,0.3174486458301544,0.022666873,-0.009293654,0.2574939131736755,-0.230690017,0.4986260831356049,-0.313043565
2.774935484,-0.76545465,0.1155911237001419,-1.222187996,0.2816331386566162,-0.110429078,0.3342449367046356,0.021623535,-0.008876421,0.2574631571769714,-0.228054777,0.4963525831699371,-0.311444879
2.779936552,-0.750001848,0.1292258501052856,-1.210220218,0.2304004728794098,-0.234775826,0.3572497367858887,0.020820757,-0.00855539,0.257439524,-0.225574866,0.4935195744037628,-0.309601396
2.784938812,-0.721455693,0.1592363566160202,-1.225803018,0.2037050127983093,-0.3672539,0.3693213164806366,0.019425802,-0.007308704,0.2567597329616547,-0.223188505,0.4900924265384674,-0.307656586
2.789935827,-0.69889605,0.1854282319545746,-1.230242252,0.1979008913040161,-0.528970897,0.3745810091495514,0.017211117,-0.005196504,0.2555572390556335,-0.220762566,0.4858715534210205,-0.305586576
2.794934034,-0.678004026,0.195877343,-1.217094779,0.2003169655799866,-0.678299963,0.3717871010303497,0.016476769,-0.004496139,0.2551585137844086,-0.218281895,0.4809473752975464,-0.303395212
2.799932957,-0.653679192,0.1987696290016174,-1.210478783,0.1997419744729996,-0.827355444,0.3708479106426239,0.015911737,-0.003957256,0.2548517286777496,-0.215750381,0.4753484725952148,-0.301030934
2.804933071,-0.630417764,0.1997161954641342,-1.194492579,0.1923402696847916,-0.967069566,0.3646219372749329,0.015724383,-0.003778572,0.254749984,-0.213232204,0.4690976142883301,-0.298556983
2.809934139,-0.606879711,0.1874620318412781,-1.175340652,0.172300711,-1.0941149,0.3559825420379639,0.01490822,-0.002018138,0.2536271512508392,-0.210796103,0.4622868299484253,-0.295995831
2.814936399,-0.583218098,0.17379576,-1.155731201,0.1343101561069489,-1.206513405,0.3461210429668427,0.014637596,-0.001434411,0.2532548606395721,-0.208536685,0.4549664855003357,-0.293329597
2.819933653,-0.556189656,0.1623307913541794,-1.138041019,0.079944439,-1.29910171,0.3351452946662903,0.014429369,-0.000985273,0.2529684007167816,-0.206577241,0.4472516775131226,-0.290614545
2.824932337,-0.519874871,0.1634815335273743,-1.123986721,0.014516246,-1.375218987,0.3257560729980469,0.014360324,-0.000836347,0.252873421,-0.20499292,0.4392381310462952,-0.287873328
2.829931498,-0.480359554,0.1697368919849396,-1.122106075,-0.057052627,-1.442718506,0.3116205036640167,0.013903806,0.000338642,0.2512842118740082,-0.203828439,0.4309532642364502,-0.28519091
2.834931612,-0.425745487,0.1888405829668045,-1.126728654,-0.123188183,-1.506400704,0.2874756455421448,0.013652612,0.000990645,0.2503820955753326,-0.203088567,0.4224298000335693,-0.282622755
2.839932919,-0.363166183,0.2108428031206131,-1.135344863,-0.19035548,-1.568822503,0.2490788549184799,0.013459335,0.001492318,0.249687985,-0.202810988,0.4136558473110199,-0.280239463
2.844935179,-0.29905805,0.2362953275442123,-1.14805305,-0.250950933,-1.631131649,0.1987286806106567,0.013395249,0.001658663,0.249457836,-0.203001723,0.4046283364295959,-0.278122336
2.849932194,-0.227005839,0.2664433121681213,-1.153497696,-0.299939513,-1.701271057,0.1315383464097977,0.01353704,0.002181275,0.2486804127693176,-0.203609437,0.3953102827072144,-0.276347339
2.854930162,-0.161722794,0.3115371763706207,-1.147810817,-0.331659645,-1.769384146,0.043051749,0.013776761,0.002752498,0.2478172779083252,-0.204633579,0.3856636583805084,-0.275105685
2.859929323,-0.111695059,0.3571130633354187,-1.138318181,-0.345070928,-1.822960973,-0.066761702,0.013961209,0.003192015,0.2471531629562378,-0.206011534,0.3757427036762238,-0.274501622
2.864929438,-0.058192339,0.3949417173862457,-1.127783537,-0.344144881,-1.862563133,-0.19856903,0.014022369,0.00333775,0.2469329535961151,-0.207689375,0.3655982613563538,-0.274634957
2.869930744,-0.00448841,0.4224198162555695,-1.128401279,-0.333520442,-1.888503194,-0.346696913,0.014069427,0.003449884,0.2467635124921799,-0.209616899,0.3552857935428619,-0.275565475
2.874932766,0.045603685,0.4339177906513214,-1.136243701,-0.318999767,-1.916650891,-0.500697255,0.015507288,0.003560159,0.2465746104717255,-0.211727887,0.3447652161121368,-0.277219266
2.87993598,0.093448117,0.4332780539989471,-1.133128285,-0.312820345,-1.944305062,-0.655042768,0.016613625,0.003645008,0.2464292496442795,-0.214039549,0.3340373039245605,-0.279584259
2.884934187,0.1306061148643494,0.4267556071281433,-1.120101452,-0.313688904,-1.96334815,-0.805801928,0.016980466,0.003673142,0.2463810443878174,-0.21656473,0.323133796,-0.282621086
2.889933348,0.1632612943649292,0.4250400066375732,-1.115925312,-0.321182609,-1.970206618,-0.93743062,0.017262725,0.00369479,0.2463439702987671,-0.219309226,0.3121363520622253,-0.286261499
2.894933462,0.21177493,0.4254500269889832,-1.135148168,-0.330474883,-1.983161211,-1.059690118,0.018302653,0.003908157,0.2456299960613251,-0.222227678,0.3010472059249878,-0.290409833
2.899935007,0.2776106297969818,0.4063649773597717,-1.159232974,-0.343016028,-2.025169134,-1.173591614,0.020059699,0.00428082,0.2443711459636688,-0.225255653,0.2897230982780457,-0.294891536
2.904937267,0.3371773958206177,0.3854045271873474,-1.165757775,-0.357225895,-2.081749678,-1.273832798,0.020642303,0.004404387,0.2439537346363068,-0.228379399,0.2780917882919312,-0.299637556
2.909934759,0.3827160000801086,0.3736412227153778,-1.168416739,-0.368999869,-2.14860487,-1.361255288,0.021090576,0.004499464,0.2436325699090958,-0.231580332,0.2661141455173492,-0.304626226
2.914932966,0.4174276888370514,0.3624398410320282,-1.17328763,-0.372344553,-2.219923496,-1.432364106,0.021239216,0.00453099,0.2435260862112045,-0.234770983,0.2537688612937927,-0.30974856
2.919932127,0.4408751130104065,0.3422244191169739,-1.172248006,-0.365898788,-2.299991131,-1.480992675,0.023887768,0.00511664,0.2437349408864975,-0.237840265,0.2410198003053665,-0.314865291
2.924932241,0.4483415186405182,0.307691216,-1.153353095,-0.356859744,-2.380102873,-1.508517861,0.024765978,0.005310831,0.2438041865825653,-0.240732104,0.2278693467378616,-0.319828689
2.92993331,0.447123796,0.2666550278663635,-1.125810027,-0.34925139,-2.437604189,-1.516396999,0.025441701,0.005460247,0.2438574731349945,-0.243440703,0.2144627571105957,-0.324597359
2.93493557,0.4417318999767303,0.2307639569044113,-1.09836936,-0.338433772,-2.480219126,-1.510870934,0.025665758,0.00550979,0.2438751459121704,-0.245949149,0.2008980959653854,-0.329140067
2.939932585,0.4336976110935211,0.1938508450984955,-1.069109201,-0.335189104,-2.505423546,-1.486320376,0.029064989,0.00659265,0.2427193522453308,-0.248299137,0.1872600615024567,-0.333385378
2.944930792,0.4346352815628052,0.1666782051324844,-1.038946748,-0.330515981,-2.513542414,-1.447866678,0.030990601,0.00721023,0.2420467436313629,-0.250498861,0.1736750155687332,-0.337319314
2.949929714,0.4315160810947418,0.1420352011919022,-1.006276011,-0.326132178,-2.501242638,-1.401208162,0.032472227,0.007685415,0.2415292263031006,-0.252543539,0.1602401286363602,-0.34095639
2.954929829,0.4339810013771057,0.1231557428836823,-0.986304283,-0.323107511,-2.472466946,-1.346603036,0.032963507,0.007842978,0.2413576245307922,-0.254463106,0.147056445,-0.34427619
2.959930897,0.4418632686138153,0.1078791245818138,-0.970388293,-0.323948532,-2.434416533,-1.284963608,0.035168737,0.008712266,0.2417145371437073,-0.256286085,0.1341867297887802,-0.347275615
2.964933157,0.453855962,0.093015365,-0.954817832,-0.32588467,-2.385804415,-1.215055466,0.037742514,0.00975484,0.2423259317874908,-0.258019298,0.1216837465763092,-0.349925697
2.969930172,0.4659692645072937,0.084175274,-0.944962144,-0.328207821,-2.328805685,-1.140245438,0.039722864,0.01055703,0.2427963465452194,-0.259685308,0.1095960736274719,-0.352241874
2.974928856,0.4747708737850189,0.08502119,-0.940033078,-0.333895773,-2.269174337,-1.060263991,0.040379509,0.010823022,0.2429523319005966,-0.261305898,0.097934254,-0.354215831
2.979928017,0.479877383,0.087527826,-0.935275435,-0.341063797,-2.201172352,-0.981284022,0.040884752,0.011027684,0.2430723458528519,-0.26293394,0.086734354,-0.355877101
2.98492837,0.4847395718097687,0.08304809,-0.929572403,-0.348434478,-2.123566389,-0.901684046,0.043839078,0.011997885,0.2421093285083771,-0.264542311,0.076042444,-0.357226312
2.989929438,0.4991132318973541,0.078403741,-0.926699638,-0.35521242,-2.044106483,-0.816825986,0.046112232,0.012744389,0.2413683533668518,-0.266139269,0.065890186,-0.358221591
2.994931698,0.5211983323097229,0.093351245,-0.927888811,-0.347510099,-1.982578039,-0.730522156,0.046865966,0.012991915,0.2411226630210876,-0.267688066,0.056201912,-0.35888195
2.999928713,0.5373021960258484,0.115800567,-0.925363839,-0.329157174,-1.928838849,-0.63364327,0.047445912,0.013182371,0.2409336268901825,-0.269132733,0.046926014,-0.359176099
3.00492692,0.5673620104789734,0.1398045569658279,-0.945506573,-0.299385369,-1.902538061,-0.541084945,0.049382292,0.0139111,0.2416289001703262,-0.270435899,0.037961621,-0.359059155
3.009926081,0.6016674041748047,0.1329787522554398,-0.967321575,-0.274148703,-1.90817368,-0.453188509,0.052635737,0.015144809,0.2429302781820297,-0.27154994,0.029131494,-0.358429372
3.014932156,0.6333123445510864,0.1135082468390465,-0.978928626,-0.266852349,-1.936036706,-0.369552553,0.053714518,0.015553884,0.2433617860078812,-0.272586882,0.020326521,-0.357266128
3.019939423,0.6561579704284668,0.09389288,-0.977925181,-0.282184273,-1.973807812,-0.282436401,0.054544568,0.01586864,0.2436938136816025,-0.27368626,0.011496907,-0.355566084
3.024941206,0.6671828031539917,0.085882917,-0.957771003,-0.317709059,-2.02360487,-0.198870704,0.054819796,0.015973005,0.2438039034605026,-0.274983823,0.002571204,-0.353380561
3.029938698,0.6712782979011536,0.106203169,-0.921307623,-0.359871984,-2.06577754,-0.1175019,0.0578904,0.016935095,0.2429917305707932,-0.276588261,-0.006442591,-0.350808501
3.034936666,0.6641256809234619,0.1360693871974945,-0.871976554,-0.397461832,-2.093088388,-0.049647763,0.058908556,0.017254105,0.2427224218845367,-0.278473079,-0.015501477,-0.347988605
3.039935827,0.6497111916542053,0.1674314737319946,-0.822075784,-0.424608171,-2.082588911,0.005240381,0.059691958,0.01749956,0.2425152212381363,-0.280586243,-0.024426244,-0.345038295
3.044936419,0.6421511173248291,0.1914564371109009,-0.787361145,-0.444989562,-2.041678429,0.043841723,0.059951715,0.017580951,0.2424465119838715,-0.2828767,-0.033066429,-0.342038751
3.049937725,0.64690578,0.2115830481052399,-0.759388983,-0.452799171,-1.986281753,0.064779527,0.063232183,0.01810644,0.2439447492361069,-0.285265893,-0.041367967,-0.339070737
3.054939985,0.6539062857627869,0.2399722784757614,-0.736608386,-0.441387773,-1.926846266,0.075668178,0.06508223,0.018395219,0.2448253631591797,-0.287666798,-0.049333069,-0.336194664
3.059937239,0.6553215980529785,0.2660806775093079,-0.709297597,-0.405807704,-1.870223761,0.075359248,0.066505708,0.018617416,0.2455029338598251,-0.289953887,-0.057000767,-0.333476901
3.064935446,0.6432049870491028,0.2753514349460602,-0.670598805,-0.351081461,-1.80426991,0.064775653,0.066977702,0.018691091,0.245727614,-0.291982353,-0.06440296,-0.330952048
3.069934607,0.6333440542221069,0.2605701386928558,-0.631970227,-0.290928394,-1.72149837,0.051397145,0.069179021,0.018799532,0.2459530085325241,-0.293685973,-0.071427897,-0.328592539
3.074934483,0.6284620761871338,0.2322872877120972,-0.59299171,-0.237309873,-1.627735138,0.033678625,0.071762525,0.018887678,0.2460806965827942,-0.29509747,-0.078012362,-0.326399922
3.079935789,0.6322673559188843,0.2048599123954773,-0.548173249,-0.196705669,-1.512629628,0.015106773,0.073750354,0.018955501,0.2461789548397064,-0.296278358,-0.08405149,-0.324439049
3.084938049,0.6392281055450439,0.1888211667537689,-0.506687999,-0.169901535,-1.38297677,-0.001502866,0.074409477,0.018977989,0.2462115436792374,-0.297322631,-0.089478016,-0.322743595
3.089935064,0.6509972214698792,0.1791477352380753,-0.470686644,-0.15207687,-1.236779571,-0.019411689,0.074916638,0.018995292,0.2462366074323654,-0.298279524,-0.09419053,-0.321355462
3.094933271,0.6706117391586304,0.1720003485679626,-0.439985961,-0.139356673,-1.078816295,-0.036812324,0.078269891,0.019295804,0.2462839782238007,-0.299157321,-0.098128222,-0.320264101
3.099932194,0.6985588073730469,0.1640052944421768,-0.415917635,-0.131267309,-0.907988369,-0.059919421,0.08084999,0.019527029,0.2463204264640808,-0.29996708,-0.101228714,-0.319508195
3.104932308,0.7481544017791748,0.1438730955123901,-0.409142345,-0.132802933,-0.742617846,-0.086159073,0.081705496,0.019603699,0.246332511,-0.300701797,-0.103470773,-0.319055647
3.109933376,0.8041684031486511,0.1321360915899277,-0.393313825,-0.143752813,-0.587071419,-0.107842751,0.082363755,0.019662691,0.24634181,-0.301467866,-0.104919448,-0.318873167
3.114935637,0.8575043678283691,0.1300888061523438,-0.383563697,-0.155186474,-0.436111331,-0.128932208,0.083444461,0.01978091,0.2463270276784897,-0.302266061,-0.105582796,-0.318986028
3.119932652,0.9034099578857422,0.1267520934343338,-0.373165339,-0.161210626,-0.289945602,-0.154084206,0.085148059,0.019971628,0.2462975680828094,-0.303064048,-0.105527714,-0.31939584
3.124931097,0.9493131637573242,0.1196925342082977,-0.353154898,-0.158283621,-0.144455105,-0.175162464,0.08571294,0.020034866,0.2462878078222275,-0.303809643,-0.104749747,-0.32008785
3.129930258,1.002465009689331,0.125873476,-0.335212171,-0.135651737,-0.002373014,-0.18605125,0.086147577,0.020083524,0.2462802827358246,-0.304423451,-0.103203647,-0.321031213
3.134930372,1.045097589492798,0.1527897715568542,-0.312075466,-0.077313304,0.1258342117071152,-0.188310564,0.086291701,0.020099659,0.2462777942419052,-0.304779589,-0.100996614,-0.322208643
3.139931679,1.065837264060974,0.1732772439718246,-0.275001675,0.021408197,0.2579711079597473,-0.180548623,0.087050878,0.02056304,0.2452882677316666,-0.304656237,-0.098134972,-0.323596656
3.144933939,1.078483343,0.1756305694580078,-0.253313482,0.1396933645009995,0.4028148651123047,-0.157726973,0.08730261,0.02071669,0.2449601590633392,-0.30390811,-0.094519913,-0.325076789
3.149937153,1.100452184677124,0.1538431644439697,-0.25356251,0.2532109022140503,0.5430032014846802,-0.129504859,0.087496303,0.020834912,0.2447077035903931,-0.302536011,-0.090139784,-0.326538682
3.154935598,1.123128414154053,0.1105885207653046,-0.253205448,0.3419914841651917,0.6796375513076782,-0.089221299,0.087560527,0.020874111,0.244623989,-0.300641775,-0.085016936,-0.327877343
3.159934759,1.151605606079102,0.08192239,-0.264392376,0.4027152061462402,0.8041055202484131,-0.028462594,0.086777531,0.020768518,0.2446294277906418,-0.298441529,-0.07914862,-0.32899785
3.164934874,1.187989115715027,0.075351931,-0.28725484,0.4359727203845978,0.9075806736946106,0.036277834,0.086311914,0.020699913,0.2446485161781311,-0.296109498,-0.072625339,-0.329873681
3.169935942,0.8827266693115234,-0.110098973,-0.43927139,0.3448208570480347,1.059776425361633,0.012542132,0.08595366,0.020647125,0.2446632087230682,-0.293704987,-0.065910585,-0.330682456
3.174938202,0.041818563,-1.008989573,-0.522860289,-0.654001653,1.46408999,0.3660930395126343,0.085834868,0.020629622,0.2446680814027786,-0.295150638,-0.05898625,-0.329614073
3.179935455,0.1697215586900711,-0.193029121,-0.378674328,-0.40785253,1.731763362884521,0.9815743565559387,0.084766679,0.020611595,0.2452829778194427,-0.297500491,-0.047905862,-0.326619267
3.184933662,-0.93763423,0.5022301077842712,-0.6204952,-0.225674585,1.816036343574524,0.881541371,0.083427504,0.020601021,0.2461031675338745,-0.299053282,-0.039883949,-0.327725053
3.189932823,-0.811724961,0.8123725056648254,-0.617932618,-0.002499394,2.068272352218628,1.037106037139893,0.082397096,0.020592885,0.2467342466115952,-0.300369769,-0.029977864,-0.32864517
3.194932699,-0.469510108,1.034245968,-1.018764138,0.1988096535205841,2.392142534255981,0.9925009608268738,0.082055435,0.020590186,0.2469434887170792,-0.300353944,-0.017166926,-0.329872042
3.199934006,-0.519713104,0.7833058834075928,-1.520726562,0.340476394,2.330667495727539,0.7905604839324951,0.081792548,0.020588111,0.2471044957637787,-0.298960388,-0.005503394,-0.331438243
3.204936743,-0.49695012,0.7049735188484192,-1.517068982,0.4100758731365204,2.025594711303711,0.8738915324211121,0.078245446,0.01902236,0.2464607954025269,-0.29705587,0.004386099,-0.33158958
3.20993495,-0.330262661,1.110828995704651,-1.026936889,0.4570308327674866,1.991206884384155,0.7701207399368286,0.075516194,0.017817622,0.2459655255079269,-0.296180904,0.014249397,-0.3333776
3.214932919,-0.167577684,1.282978177070618,-0.582184851,0.5179714560508728,2.424451828,0.403940737,0.074611224,0.017418154,0.2458012998104095,-0.295576513,0.026154382,-0.338562727
3.219932318,-0.052037317,0.8331989049911499,-0.62071234,0.4240609407424927,3.056927204,0.01272206,0.073914908,0.017110791,0.2456749379634857,-0.294374079,0.04105337,-0.345322967
3.224932432,0.1938356161117554,0.3206350207328796,-0.884012222,0.1534209698438644,3.537110090255737,-0.041215342,0.070844308,0.016832856,0.245660588,-0.293969393,0.058575101,-0.351223767
