Time,inertial-6253.76535:scaledAccelX,inertial-6253.76535:scaledAccelY,inertial-6253.76535:scaledAccelZ,inertial-6253.76535:scaledGyroX,inertial-6253.76535:scaledGyroY,inertial-6253.76535:scaledGyroZ,inertial-6253.76535:scaledMagX,inertial-6253.76535:scaledMagY,inertial-6253.76535:scaledMagZ,inertial-6253.76535:roll,inertial-6253.76535:pitch,inertial-6253.76535:yaw
0,0.420488805,0.202789709,-0.886716723,0.011118334,-0.002177779,0.007476736,-0.27491203,-0.23164022,0.477019668,-0.210646465,0.427593201,1.861933589
0.005002496,0.418312371,0.205874324,-0.886419415,0.009830508,-0.003053487,0.005631456,-0.275021344,-0.231704935,0.476710767,-0.210615456,0.42759335,1.861958861
0.010000128,0.417314291,0.204024166,-0.886214674,0.011198773,-0.00432254,0.007451502,-0.275105476,-0.231754735,0.476473123,-0.210559532,0.427580804,1.861998677
0.014998528,0.417300135,0.201688275,-0.887744486,0.010169081,-0.002231966,0.007392431,-0.275133342,-0.231771246,0.476394296,-0.210518926,0.427585304,1.862020612
0.019997695,0.418865442,0.203083932,-0.88748616,0.01098786,-0.003257599,0.007674767,-0.274829924,-0.231643245,0.477632642,-0.210465923,0.42758432,1.862030625
0.024997888,0.41828987,0.202017769,-0.885118842,0.011313957,-0.005417733,0.006077814,-0.274729311,-0.231600806,0.478043258,-0.210417971,0.427570283,1.862028718
0.029999103,0.417261928,0.201931,-0.88736546,0.011369277,-0.006102732,0.008363437,-0.274651885,-0.231568143,0.478359193,-0.210364178,0.427548617,1.86205852
0.035001345,0.416969448,0.201757103,-0.888216078,0.010949678,-0.006525874,0.006195885,-0.274626225,-0.23155731,0.478463948,-0.210315704,0.42753166,1.862072229
0.039998721,0.417980582,0.204080179,-0.888508856,0.0091809,-0.006737664,0.006382204,-0.274856865,-0.231392995,0.478400141,-0.210276142,0.427511424,1.862101078
0.044997118,0.417366356,0.2023509,-0.889624894,0.008376234,-0.003734615,0.007097821,-0.274995297,-0.231299922,0.478343248,-0.21023576,0.427502483,1.862132549
0.049996544,0.415594578,0.201821521,-0.889841378,0.008502753,-0.0080399,0.006664369,-0.275101811,-0.231228292,0.478299469,-0.210197568,0.42747128,1.862171531
0.054996993,0.416113108,0.20088388,-0.888143957,0.008293316,-0.005294689,0.007020027,-0.275137126,-0.23120454,0.478284955,-0.210153326,0.427456915,1.862200737
0.059998207,0.41753915,0.202220172,-0.890346289,0.008892153,-0.005827227,0.007099891,-0.274996847,-0.231072769,0.478408873,-0.210119575,0.427432954,1.862228513
0.065000445,0.416669846,0.201801151,-0.889552772,0.006384294,-0.005657468,0.007308132,-0.274781495,-0.230914637,0.478586197,-0.210092142,0.427417815,1.86226511
0.069997825,0.416966975,0.200503543,-0.888231039,0.004096099,-0.001809613,0.005449378,-0.274615794,-0.230792955,0.478722632,-0.210077792,0.427423656,1.862272739
0.074996479,0.418420315,0.199693039,-0.887743056,0.005471176,-0.003078056,0.006855409,-0.274560839,-0.230752617,0.478767872,-0.210048944,0.427421749,1.862273932
0.080001794,0.417967707,0.19939591,-0.888241231,0.003833493,-0.002785729,0.003871002,-0.274518579,-0.230721578,0.478802681,-0.21003595,0.427411318,1.862276912
0.085001983,0.419727504,0.200536013,-0.887848139,0.003970674,-0.003680989,0.006283146,-0.274549872,-0.230821893,0.477734476,-0.210020497,0.42740947,1.862282991
0.0900032,0.41658774,0.200666428,-0.888028502,0.004319368,-0.003859751,0.004537758,-0.274573952,-0.230899096,0.476912588,-0.210012808,0.42739749,1.862293601
0.095005438,0.418920934,0.201093584,-0.887326121,0.002934967,-0.003186511,0.00444694,-0.274581939,-0.230924681,0.476640046,-0.210005388,0.427394927,1.862294436
0.100002818,0.418291062,0.202944383,-0.886011064,0.002092592,-0.003089087,0.004936364,-0.274588078,-0.23094438,0.476430357,-0.210009441,0.427394927,1.862305403
0.105001219,0.417065024,0.202778921,-0.88661629,0.002300588,-0.004146612,0.005978204,-0.274733186,-0.230942056,0.477033734,-0.210002661,0.427381277,1.862326026
0.110000387,0.41808787,0.202082306,-0.887150764,0.001731636,-0.004120327,0.005835183,-0.274989456,-0.230931312,0.478178382,-0.210001081,0.427371114,1.862330079
0.115000576,0.415387481,0.202417091,-0.887765825,0.00163507,-0.005507639,0.004969399,-0.275074422,-0.23092775,0.478557914,-0.210007429,0.42735225,1.86235714
0.120002046,0.418070048,0.202442557,-0.887387455,0.002065418,-0.005846837,0.006489354,-0.275139838,-0.230925009,0.478849977,-0.210002586,0.427338809,1.862371325
0.125004292,0.417489707,0.204201609,-0.887619495,0.001567147,-0.003886479,0.004786583,-0.275161505,-0.2309241,0.478946805,-0.2100036,0.427321225,1.862384915
0.130001664,0.417295307,0.202484727,-0.888904393,0.000852684,-0.003795415,0.001925494,-0.274520785,-0.230667129,0.478874952,-0.210011914,0.427306324,1.862372875
0.134999812,0.417118251,0.2020998,-0.88863647,0.000902956,-0.002911428,0.004737659,-0.274308354,-0.230581924,0.47885114,-0.210019901,0.427300483,1.862382531
0.139999494,0.4172014,0.203421846,-0.887542188,0.002014901,-0.004019223,0.005174386,-0.274144888,-0.230516359,0.478832811,-0.210022673,0.427286863,1.862386465
0.144999936,0.415898979,0.202373281,-0.886474252,0.001270603,-0.003990346,0.00279222,-0.274090677,-0.230494618,0.478826731,-0.210034996,0.427276909,1.86238575
0.150001153,0.414521337,0.201972649,-0.887592733,0.001379095,-0.003841663,0.00466571,-0.274339259,-0.230789751,0.477454275,-0.210045576,0.427262485,1.862422943
0.155003399,0.416103989,0.202698231,-0.88747716,0.001945362,-0.00396288,0.004310194,-0.274493515,-0.230964795,0.476660728,-0.210043788,0.427251786,1.862442732
0.160000518,0.417523921,0.202602983,-0.887306333,0.000652369,-0.001908529,0.005288049,-0.274612218,-0.231099486,0.476050168,-0.210050195,0.427252412,1.862464666
0.164998651,0.416057527,0.201320425,-0.887936354,0.000130825,-0.003309998,0.003682353,-0.274651587,-0.231144145,0.475847721,-0.210060835,0.42724517,1.862484932
0.169997826,0.415837735,0.201373339,-0.887632728,-5.79E-05,-0.002267899,0.003312268,-0.274710715,-0.231175914,0.475915879,-0.210084394,0.42724058,1.862498164
0.174998015,0.41637525,0.201279402,-0.888848245,-0.00020399,-0.002024674,0.004179689,-0.274759412,-0.231183842,0.476164311,-0.210098267,0.427233875,1.862519622
0.179999232,0.417509794,0.201175317,-0.887815118,-0.002761825,-0.001586144,0.002594192,-0.274796873,-0.231189936,0.476355463,-0.210127771,0.427238584,1.862513661
0.185001478,0.417229146,0.202292606,-0.887298822,-0.00117472,-0.001924294,0.003355667,-0.274809301,-0.231191963,0.476418853,-0.210151449,0.427233636,1.862519145
0.18999885,0.417793453,0.202172354,-0.887644768,-0.002780534,-0.00136183,0.003361743,-0.274818867,-0.231193528,0.476467609,-0.210173771,0.427237868,1.862521648
0.194997251,0.417989254,0.203181267,-0.887985051,-0.001134661,-0.00269488,0.004751982,-0.274523556,-0.231345594,0.477217346,-0.210199177,0.427230805,1.862518668
0.199996412,0.415382713,0.206072927,-0.887351632,-0.001344891,-0.002434349,0.003577834,-0.274296373,-0.231462598,0.47779423,-0.210225731,0.427226961,1.86253655
0.204997376,0.415885746,0.210871339,-0.884950161,0.001586657,-0.002497192,0.004903415,-0.274221033,-0.2315014,0.477985501,-0.210241541,0.427218765,1.862549543
0.209998593,0.41792807,0.205806896,-0.884505153,0.002160392,-0.003518226,0.003832302,-0.274163067,-0.231531247,0.478132665,-0.210251004,0.427218705,1.862536192
0.215006724,0.418726861,0.199849233,-0.888635695,0.000829918,-0.004422541,0.004209322,-0.274171114,-0.23148872,0.477539092,-0.210248768,0.427210778,1.862528563
0.220009983,0.418136865,0.202492148,-0.887803018,-8.79E-05,-0.004725295,0.003635747,-0.27420485,-0.231403008,0.47643286,-0.210268855,0.427199155,1.862524748
0.22500813,0.417887986,0.205143556,-0.886801958,-0.000846994,-0.004643578,0.002518858,-0.274216056,-0.231374592,0.476066023,-0.210297331,0.427186489,1.862529039
0.230007291,0.413967818,0.207418948,-0.886769116,-0.000672262,-0.004796098,0.002931197,-0.274224669,-0.231352732,0.475783795,-0.210319698,0.427162915,1.862568378
0.235007495,0.414204448,0.206058919,-0.886181533,0.002798093,-0.005166909,0.001584651,-0.27422753,-0.231345475,0.475690216,-0.210329771,0.427141458,1.862603068
0.240008965,0.416948915,0.197499618,-0.888862193,0.001376171,-0.001982257,0.0025816,-0.274366528,-0.231128678,0.476271957,-0.210319638,0.427139759,1.862585306
0.245011196,0.419782281,0.197555214,-0.889008343,-0.002461213,-0.003722209,0.003830833,-0.274412632,-0.23105678,0.476464868,-0.210331887,0.42712906,1.862565398
0.250008583,0.416451484,0.201434121,-0.888609052,-0.001238778,-0.002666799,0.003387367,-0.274448127,-0.231001481,0.476613253,-0.210358277,0.427118152,1.862571239
0.255006731,0.414998621,0.212291569,-0.887443006,-0.001309132,-0.001308859,0.001167374,-0.274459869,-0.230983138,0.476662487,-0.210404798,0.427113473,1.862614989
0.260005891,0.41617471,0.200609073,-0.886110544,-0.001046071,-0.001403826,0.001588352,-0.274617553,-0.230967939,0.476506531,-0.21042341,0.427115172,1.862596273
0.265006065,0.418341517,0.195890367,-0.890955448,-0.004323653,-0.000401511,0.002655062,-0.274706632,-0.230962634,0.476406842,-0.210444406,0.427124918,1.862584114
0.270008057,0.416944712,0.202022359,-0.889331877,-0.005562472,-0.000685547,0.003778295,-0.274775177,-0.230958551,0.476330131,-0.210488483,0.427125216,1.862600803
0.275010318,0.414923698,0.212425202,-0.887170911,-0.003774177,0.001005866,0.001622209,-0.274797887,-0.230957195,0.47630468,-0.210553661,0.427128196,1.862649202
0.28000769,0.415601134,0.200363487,-0.884803414,-0.005026928,0.001777576,0.001888929,-0.274475217,-0.231049582,0.476251662,-0.210587174,0.427141905,1.862617254
0.285005838,0.416511744,0.196107462,-0.890265286,-0.00680164,5.11E-06,0.00521863,-0.274025202,-0.231174424,0.476200312,-0.210612625,0.427145302,1.862622857
0.290004998,0.414619386,0.21407719,-0.886808276,-0.001545492,-0.000728389,0.002173592,-0.273678929,-0.231270477,0.476160794,-0.21066764,0.427146047,1.862665772
0.295005172,0.415660262,0.203244835,-0.883370042,-0.00427131,0.003932066,-0.000685379,-0.2735641,-0.231302336,0.476147681,-0.21071054,0.427172482,1.862605095
0.300007164,0.41785267,0.19245027,-0.891899645,-0.005629197,-0.001049738,0.002914165,-0.273475766,-0.231326848,0.476137608,-0.210726574,0.427181304,1.862565398
0.305009395,0.41440922,0.207047135,-0.88455075,-0.007237893,0.000290359,0.002625487,-0.273747146,-0.231370151,0.477222383,-0.210797653,0.427185237,1.862575769
0.310006797,0.41625753,0.209559828,-0.884015918,-0.002853786,0.003347163,-0.002317901,-0.273955941,-0.23140347,0.478057057,-0.210853919,0.427202702,1.862546563
0.315004915,0.417867333,0.197816029,-0.888145149,-0.003941327,0.002053121,0.00210337,-0.274025172,-0.231414527,0.478333831,-0.210879803,0.427219659,1.862501621
0.320004106,0.416875184,0.201740637,-0.887640417,-0.005398745,-0.000852572,0.005098207,-0.274078429,-0.231423035,0.478546768,-0.210915834,0.427221298,1.862514138
0.32500428,0.416538447,0.215659827,-0.885234833,-0.0024261,0.000231103,0.001275148,-0.274208367,-0.231453553,0.478508145,-0.210972339,0.427229881,1.862535834
0.330006003,0.416877568,0.202044651,-0.885676265,0.000328147,0.001044339,0.002066531,-0.274421811,-0.231505051,0.478368044,-0.210981339,0.427242577,1.862493873
0.335008502,0.417903244,0.195460439,-0.889423251,-0.002132305,-0.002167705,0.003591294,-0.274492592,-0.231522128,0.478321582,-0.210991368,0.427249789,1.862470031
0.340006143,0.416753858,0.20324938,-0.886020005,-0.003709141,0.001290364,0.003239678,-0.27454704,-0.231535271,0.478285819,-0.211030051,0.427265912,1.862468958
0.34500429,0.414013177,0.211932704,-0.888798177,-0.000962811,-0.000150136,0.003123209,-0.274565101,-0.231539622,0.478273958,-0.21107088,0.427266896,1.862518191
0.350009352,0.415594369,0.200908095,-0.886810839,-0.000462737,-0.000759774,0.002257281,-0.274446696,-0.231546134,0.478196979,-0.211077183,0.427266747,1.862489581
0.355009526,0.4184497,0.196990654,-0.888821304,-0.001303721,-0.000531019,0.005308354,-0.274407417,-0.231548294,0.478171468,-0.211081088,0.42728126,1.862470508
0.360011011,0.416164905,0.201325044,-0.886995792,-0.000622605,-0.001235575,0.002283942,-0.274377197,-0.231549948,0.478151828,-0.211099878,0.427281141,1.862456679
0.365013242,0.41611138,0.203166947,-0.887787819,-0.000170878,-0.001984497,0.003959515,-0.274367183,-0.2315505,0.478145301,-0.211118743,0.427278399,1.862458348
0.370010614,0.414623916,0.210982874,-0.886680543,0.001119964,-0.000406826,0.003589478,-0.274210393,-0.231553361,0.478186607,-0.211147428,0.42727685,1.862486482
0.375008762,0.418589205,0.205342039,-0.88515079,0.00053591,9.83E-05,0.002375358,-0.274121523,-0.231554911,0.478211761,-0.211162731,0.427285612,1.862442374
0.380007923,0.419604361,0.198704928,-0.890587747,-8.45E-05,-0.000159069,0.00320534,-0.274053127,-0.231556103,0.478231102,-0.21116358,0.427297413,1.862411022
0.385007858,0.41694802,0.201407328,-0.886662185,-0.000316747,-0.000182753,0.002128701,-0.274030447,-0.23155649,0.47823751,-0.211184829,0.427301228,1.862387061
0.390009612,0.415519267,0.207097307,-0.88571471,-0.000196435,-0.000302828,0.00143203,-0.273953378,-0.231678501,0.47768417,-0.211218759,0.427295744,1.862393141
0.39501211,0.415861279,0.206574127,-0.888139188,0.00069346,-0.000999683,0.005313535,-0.273867667,-0.231841668,0.476937681,-0.211225629,0.42729938,1.862410069
0.400009722,0.416915447,0.208446398,-0.884367645,0.000839028,0.000614374,0.003068912,-0.273801714,-0.231967211,0.476363331,-0.211248621,0.427313387,1.862413764
0.405007869,0.417375416,0.200269014,-0.88847816,0.00043367,0.002703963,0.002715903,-0.273779839,-0.23200883,0.476172894,-0.211253956,0.427332461,1.862390757
0.41000703,0.41748175,0.197763398,-0.889139652,-0.002228007,-0.000191578,0.003094942,-0.273763001,-0.232040867,0.476026356,-0.211271137,0.427343667,1.86236918
0.415007234,0.416046709,0.204020858,-0.887276888,-0.002475805,0.002103887,0.004257856,-0.274107099,-0.231942624,0.476032495,-0.211302727,0.427360803,1.862385988
0.420008451,0.414411932,0.213652298,-0.88598907,0.000812321,0.002454109,0.003706138,-0.274371862,-0.231867045,0.476037174,-0.211338192,0.427377015,1.862439036
0.425011188,0.41473186,0.204762042,-0.885918677,0.000572937,0.005257,0.002117693,-0.27445966,-0.231841981,0.476038754,-0.211353332,0.427408814,1.862433195
0.430009335,0.416384935,0.196395352,-0.889580488,-0.001281541,0.004599434,0.006252845,-0.274527222,-0.231822699,0.476039946,-0.211357981,0.427441955,1.862436533
0.435007483,0.413614601,0.212826744,-0.885992289,0.000323097,0.00694581,0.002912752,-0.274550259,-0.231786668,0.47612381,-0.211404935,0.427476019,1.862484455
0.440006644,0.4160752,0.201845601,-0.883800864,-0.000192724,0.00755144,0.001145855,-0.274568617,-0.231728971,0.476272702,-0.211420223,0.427524358,1.862435937
0.445006847,0.41699478,0.192560941,-0.892479002,-0.004735325,0.007165082,0.005146429,-0.274574697,-0.231709838,0.476322085,-0.211429894,0.427568346,1.862425685
0.450008065,0.412444055,0.211350888,-0.886349201,-0.001171905,0.00745379,0.004200017,-0.274579376,-0.231695116,0.476360083,-0.211472914,0.427603483,1.862489104
0.455010563,0.417122006,0.205041334,-0.884138286,-0.001795036,0.009162269,0.002769417,-0.274580926,-0.231690228,0.476372689,-0.211507872,0.427657336,1.862450838
0.460007936,0.418032318,0.196761325,-0.892046869,-0.00370036,0.00729345,0.003720928,-0.274648249,-0.23162061,0.476056188,-0.211527556,0.427706957,1.86243999
0.465006083,0.414352804,0.210306779,-0.886979222,-0.002638938,0.006549789,0.00608189,-0.274670571,-0.231597513,0.475951225,-0.21157001,0.427739441,1.862505198
0.470005244,0.417005986,0.207624242,-0.882910967,-0.000997029,0.009136914,0.001025296,-0.274693996,-0.231580526,0.47582069,-0.21160534,0.427793682,1.862476826
0.475005448,0.418561608,0.197592869,-0.889169514,-0.003449625,0.007582965,0.003919937,-0.274701774,-0.231574893,0.475777417,-0.211631164,0.427840471,1.862453938
0.480006397,0.418159336,0.204427287,-0.886642814,-0.00414186,0.006945604,0.006077901,-0.274061084,-0.231583521,0.475682557,-0.211666837,0.4278813,1.862434626
0.485014796,0.419230968,0.204237938,-0.88125807,-0.00162142,0.007946068,0.00110789,-0.273688644,-0.231589586,0.475635856,-0.211705774,0.427927434,1.862372756
0.490018308,0.419681907,0.197540626,-0.888170719,-0.003217163,0.006185433,0.001252855,-0.273402065,-0.23159425,0.475599915,-0.211734191,0.427965164,1.862321019
0.495016962,0.419916779,0.204445347,-0.887823939,-0.004423601,0.003752497,0.003553938,-0.273307025,-0.231595799,0.475587994,-0.211771965,0.427993149,1.86228919
0.500016153,0.416932464,0.212239832,-0.883028209,0.000695361,0.005612055,0.002108046,-0.273630291,-0.231613621,0.476089299,-0.211819217,0.428023636,1.862290382
0.505016327,0.419511765,0.202442676,-0.888872802,-0.002450143,0.008026019,0.001121518,-0.274137199,-0.231636301,0.476770282,-0.211848676,0.428067923,1.862240911
0.510017514,0.417599112,0.204144269,-0.88834846,-0.001989567,0.002713435,0.005038838,-0.274527192,-0.231653765,0.477294236,-0.211866751,0.42808634,1.862248421
0.515020013,0.419576734,0.208527163,-0.883058131,0.000450468,0.004410277,0.000451102,-0.274656504,-0.231659546,0.477467954,-0.211901486,0.428116351,1.862217307
0.520017385,0.418664396,0.200536519,-0.888662457,-0.000941192,0.005521734,0.00305816,-0.274756014,-0.231664002,0.477601647,-0.211917341,0.428156704,1.862185717
0.525015533,0.417529792,0.20702827,-0.887713432,0.000831864,0.00350492,0.00417311,-0.274837732,-0.231764868,0.477795541,-0.211931661,0.428175241,1.862216234
0.530014694,0.414260387,0.206261173,-0.886135638,-0.000264858,0.006524574,0.005312816,-0.274900585,-0.231842458,0.477944732,-0.211956844,0.428207964,1.862232685
0.535014629,0.417659223,0.206260622,-0.887712955,0.005426082,0.003227888,0.005297551,-0.274921417,-0.231868193,0.477994204,-0.211943164,0.428239971,1.862243176
0.540015876,0.414894372,0.206024036,-0.884198725,0.007525016,0.007077906,0.006897813,-0.274937451,-0.231887996,0.478032261,-0.211919472,0.428280443,1.862267613
0.545018375,0.417651623,0.205157503,-0.88659811,0.010149612,0.008048211,0.005853958,-0.274942577,-0.231867716,0.477821201,-0.211880624,0.42833811,1.862273216
0.550015986,0.417525589,0.20250304,-0.887458146,0.006749563,0.012587415,0.005785042,-0.274946302,-0.231824979,0.477432638,-0.211861983,0.428403795,1.862270355
0.555014372,0.415622503,0.20371145,-0.887655616,0.003222694,0.010288198,0.00418955,-0.274947524,-0.231810808,0.477303803,-0.21186544,0.428451747,1.862296224
0.560013592,0.415164679,0.206602886,-0.88639915,0.002240372,0.012981553,0.00508105,-0.274948478,-0.231799915,0.47720468,-0.211880416,0.428518653,1.862305284
0.565013528,0.417931587,0.204142854,-0.887384057,0.003470188,0.012265023,0.005789445,-0.274948806,-0.231796294,0.477171808,-0.211880788,0.428586841,1.86230433
0.570014715,0.417290837,0.205695897,-0.885104179,0.001734837,0.013988992,0.005602198,-0.275084347,-0.231651649,0.477604866,-0.211898416,0.428664476,1.862305999
0.575016975,0.420527339,0.203530937,-0.886332572,0.003258517,0.011929541,0.005695183,-0.275129318,-0.231603682,0.477748454,-0.211895898,0.42873615,1.862271905
0.580014348,0.419455826,0.207274169,-0.885788202,0.002537165,0.011347714,0.005265781,-0.275163889,-0.231566787,0.477858961,-0.211913407,0.428797603,1.862270951
0.585012496,0.41898793,0.205265149,-0.884787023,0.002257106,0.011251272,0.006145514,-0.275175333,-0.231554553,0.477895588,-0.211921453,0.42886582,1.862256408
0.590011656,0.421012402,0.20630984,-0.883710861,0.003141633,0.010139347,0.004318031,-0.274634987,-0.231708258,0.477914959,-0.211931393,0.428922743,1.862205625
0.59501183,0.418966889,0.206403702,-0.883931458,0.002414657,0.007640503,0.003000353,-0.274319947,-0.231799603,0.477919191,-0.211945161,0.428967476,1.862176061
0.600013316,0.419551104,0.203268319,-0.884921253,0.002531126,0.007377543,0.004596711,-0.274077535,-0.231869876,0.477922469,-0.211944029,0.429017723,1.862134457
0.605015576,0.419035733,0.206843436,-0.886094213,0.00444294,0.005040343,0.005134533,-0.273997128,-0.231893182,0.477923572,-0.211938009,0.429054737,1.862120867
0.61001265,0.418585092,0.202136278,-0.887130082,0.005286579,0.005124606,0.003646711,-0.274243236,-0.231996551,0.477400869,-0.211930215,0.429083765,1.862097263
0.615011334,0.417324811,0.202189952,-0.889196515,0.006729593,0.004987206,0.003278316,-0.274635404,-0.232116997,0.476699591,-0.21191223,0.429109603,1.862105846
0.620016396,0.419172138,0.203728676,-0.886373818,0.004200297,0.009580686,0.002957582,-0.274937183,-0.232209682,0.47616002,-0.211914167,0.429167926,1.862082839
0.62501657,0.419003606,0.201992735,-0.886505246,0.004143654,0.004949144,0.002895431,-0.275037229,-0.232240409,0.475981116,-0.211904809,0.429195642,1.862063766
0.630017817,0.420457393,0.202682972,-0.88764894,0.002879098,0.004982194,0.00188112,-0.275114208,-0.232264057,0.475843459,-0.211909607,0.429227471,1.862036705
0.635020018,0.420818537,0.202781051,-0.886823416,0.002427029,0.005193459,-0.000152651,-0.275393844,-0.232055187,0.476734459,-0.211928263,0.429259151,1.86199069
0.64001739,0.420276642,0.203598723,-0.885286152,0.002453017,0.00415434,0.001102268,-0.275608987,-0.231894463,0.477420002,-0.211936057,0.42928949,1.861960292
0.645015836,0.419964463,0.20378679,-0.885821998,0.001982916,0.001732282,0.000697267,-0.275680333,-0.231841162,0.477647305,-0.211953342,0.429300457,1.861924529
0.650015473,0.417535245,0.202007771,-0.884833157,0.001857563,0.001562298,0.00116381,-0.275735229,-0.231800154,0.477822214,-0.211958483,0.429312825,1.861909151
0.655015707,0.419038206,0.204714999,-0.885186076,0.002959519,0.005285106,-0.000288764,-0.275640309,-0.231789261,0.477822214,-0.211977407,0.429346532,1.861866713
0.660016894,0.42021215,0.205334231,-0.885385096,0.001825899,0.00195902,-4.02E-05,-0.275452912,-0.231783584,0.477763563,-0.21199353,0.429357588,1.8618294
0.665019155,0.420604736,0.208786607,-0.885505736,0.003157366,0.001374481,-0.002840931,-0.275390774,-0.231781706,0.477744102,-0.212020651,0.429369599,1.861792684
0.670016229,0.42030108,0.20608817,-0.885611475,0.003820709,0.00024505,-0.000140364,-0.275342941,-0.231780261,0.477729142,-0.212026879,0.429373264,1.861762166
0.675014377,0.42036736,0.205268204,-0.887113631,0.002429405,-0.00157659,-4.60E-05,-0.275327086,-0.231779784,0.477724165,-0.212042361,0.429368913,1.861726284
0.680013835,0.421260506,0.203002483,-0.884961903,0.002917926,-0.002330966,-0.00124637,-0.275252342,-0.231575623,0.47797817,-0.212039903,0.42936638,1.86167717
0.685014009,0.423225284,0.20597446,-0.885404527,0.001822687,0.000597976,-0.002324927,-0.275227576,-0.231507927,0.478062391,-0.212075353,0.429380268,1.861600876
0.690015256,0.422443628,0.208700135,-0.884817719,0.001677379,-0.003864127,-0.000604676,-0.275208533,-0.231455833,0.478127182,-0.212097272,0.429363668,1.861569405
0.695017219,0.416157842,0.209903136,-0.885360479,0.003638875,-0.004406093,-0.000596594,-0.275202185,-0.231438562,0.478148669,-0.212120265,0.429336429,1.861578345
0.700014353,0.41790244,0.204462484,-0.886420846,0.004434227,-0.006348303,-0.000145795,-0.275490582,-0.231581926,0.477091014,-0.212113589,0.42930609,1.861576915
0.705012202,0.421772957,0.203108251,-0.88878572,0.006568523,-0.003624,-0.000108743,-0.275658786,-0.231668219,0.476474494,-0.212099731,0.429304838,1.861535907
0.710011899,0.423249304,0.204540417,-0.885115445,0.004836409,-0.00769195,-0.001497021,-0.275788218,-0.231734619,0.47600013,-0.21209766,0.429269016,1.861494184
0.715012074,0.421554476,0.202648595,-0.88707006,0.005362289,-0.006349992,-0.00257987,-0.275831133,-0.231756642,0.475842834,-0.212092027,0.429237008,1.861466646
0.720013559,0.420055807,0.201492041,-0.886009455,0.005084821,-0.011438197,-0.002623339,-0.275779814,-0.231828883,0.4761675,-0.212087512,0.429181039,1.861447334
0.725015819,0.420152187,0.201318175,-0.886078,0.006574693,-0.010186491,-0.003133078,-0.2756778,-0.231908605,0.476724625,-0.212077215,0.429138124,1.861403227
0.730013192,0.421741337,0.201267019,-0.885769427,0.005572939,-0.012427034,-0.003811732,-0.275599301,-0.231969953,0.477153301,-0.212069884,0.429074079,1.861349225
0.735011339,0.421818465,0.202236965,-0.883704364,0.004795776,-0.013954642,-0.00424571,-0.275573283,-0.231990293,0.477295458,-0.212068915,0.429005474,1.861297369
0.740010738,0.422232687,0.202060312,-0.886853933,0.003894822,-0.013780229,-0.006768111,-0.275553286,-0.232005939,0.477404803,-0.212073863,0.428942472,1.86122787
0.74501121,0.420582503,0.202138722,-0.886345029,0.004422516,-0.016585829,-0.005162515,-0.275301248,-0.231811211,0.477581561,-0.212076455,0.42886883,1.861172318
0.750012696,0.419629097,0.203110725,-0.886272848,0.0053248,-0.016807258,-0.005704942,-0.275107324,-0.231661379,0.477717549,-0.212081328,0.428780556,1.861118555
0.755021036,0.421107322,0.203528091,-0.885267079,0.004446986,-0.014217334,-0.005269723,-0.275043011,-0.231611699,0.47776264,-0.212087363,0.42870906,1.861078024
0.760024548,0.419657588,0.20534201,-0.885689735,0.003784412,-0.019038653,-0.004308808,-0.274993509,-0.231573477,0.477797329,-0.212093353,0.42861259,1.86106503
0.765022993,0.419817239,0.207879126,-0.886830628,0.004519249,-0.016999554,-0.004333671,-0.27500388,-0.2315927,0.47741881,-0.212107316,0.428530037,1.861051798
0.770021915,0.418563575,0.202522904,-0.887807965,0.004952426,-0.017042063,-0.004853884,-0.275038868,-0.231639743,0.476733208,-0.212098911,0.42845884,1.861024976
0.775022328,0.416089028,0.20846343,-0.886249363,0.006808113,-0.013707421,-0.003041604,-0.275050461,-0.231655344,0.476505876,-0.212101668,0.428374678,1.861039281
0.780023575,0.417911589,0.20548965,-0.887521684,0.007946595,-0.014402157,-0.004032536,-0.275059402,-0.23166734,0.476330966,-0.212087721,0.428299546,1.861027718
0.785025775,0.418566823,0.203414962,-0.88571018,0.00660352,-0.014583115,-0.001873093,-0.275062352,-0.231671318,0.47627297,-0.212078497,0.428227186,1.861014724
0.790023148,0.418181032,0.207957044,-0.890717566,0.00681872,-0.013419337,-0.00270481,-0.274931759,-0.231937051,0.477339417,-0.212075815,0.42816186,1.861019611
0.795021296,0.418739259,0.199742436,-0.886022508,0.005761455,-0.013337636,-0.004683521,-0.274888456,-0.232025161,0.477693021,-0.212060049,0.428103507,1.860949278
0.800020456,0.416708857,0.197097093,-0.894056797,0.00343963,-0.013257951,-0.001898712,-0.274855137,-0.232092947,0.477965117,-0.212045416,0.428043604,1.860942245
0.805021465,0.418759406,0.207001746,-0.884119511,0.00451417,-0.014137532,-0.004607608,-0.27484411,-0.232115433,0.478055328,-0.212068468,0.42796737,1.860905051
0.810023189,0.418572277,0.199270159,-0.887534916,0.002527482,-0.013835485,-0.005384005,-0.274735153,-0.232235,0.478271455,-0.212075785,0.427903801,1.86084199
0.815025389,0.417701125,0.198237449,-0.887366712,-9.43E-05,-0.015973995,-0.00177239,-0.274674147,-0.232299939,0.478379428,-0.212091118,0.427816629,1.860817075
0.820022762,0.419983029,0.209009469,-0.886293888,0.001810316,-0.017274572,-0.005358551,-0.274627209,-0.232349917,0.478462517,-0.212130353,0.427743971,1.860793114
0.825021207,0.419440269,0.203697562,-0.884223402,-0.000109207,-0.013620458,-0.005373475,-0.274611652,-0.232366487,0.478490055,-0.212157831,0.427678198,1.86071384
0.830020368,0.418237299,0.196822569,-0.890756011,-8.43E-05,-0.017742641,-0.003300114,-0.274488807,-0.232236803,0.478535384,-0.212160736,0.427589566,1.860672832
0.835020542,0.417723835,0.211024448,-0.883601248,0.001324255,-0.013839271,-0.004377234,-0.274336278,-0.232050166,0.478574783,-0.212199837,0.427528322,1.860655904
0.840022027,0.417305052,0.203658968,-0.885847628,0.000749114,-0.015778273,-0.003457877,-0.274218947,-0.231906563,0.478605092,-0.212211549,0.427461833,1.860605717
0.845024228,0.418067753,0.202121601,-0.887881339,0.000976909,-0.013552947,-0.005090644,-0.274180025,-0.231858939,0.478615135,-0.212230712,0.427390039,1.860541344
0.85002166,0.41309768,0.203000858,-0.889549673,-0.002434055,-0.0147794,-0.002322807,-0.274150074,-0.231822312,0.478622854,-0.212258577,0.427308142,1.860574365
0.85501951,0.418777108,0.207321867,-0.887322009,0.001013898,-0.010747199,-0.005674879,-0.274485439,-0.23195821,0.478387982,-0.212294132,0.427256405,1.860528946
0.860018671,0.417749584,0.199354813,-0.890102744,-0.003062894,-0.011505179,-0.004539483,-0.274743468,-0.232062772,0.47820726,-0.212325692,0.427204788,1.860479951
0.865018606,0.415166825,0.200605527,-0.889530659,-0.006853442,-0.010533853,-0.001749171,-0.27482903,-0.232097432,0.478147328,-0.212372154,0.427145332,1.860479236
0.87002033,0.416925818,0.206285253,-0.889467537,-0.00482799,-0.006163676,-0.007291592,-0.274894863,-0.232124105,0.478101224,-0.212446034,0.427107602,1.860445499
0.87502259,0.415104061,0.199051037,-0.887796223,-0.007822492,-0.006361171,-0.005352574,-0.274574935,-0.23225908,0.477634013,-0.212504417,0.427071512,1.860398412
0.880019963,0.414860308,0.209751159,-0.895147383,-0.008406473,-0.006594407,-0.003868489,-0.27398321,-0.23249048,0.476817518,-0.212584823,0.427029938,1.860425591
0.88501811,0.415601432,0.204396486,-0.88521409,-0.009238432,-0.004391362,-0.00418263,-0.273786992,-0.232567206,0.476546764,-0.212655038,0.427009821,1.860383153
0.89002341,0.417780936,0.204479635,-0.894206762,-0.010125163,-0.000666078,-0.002798107,-0.273636043,-0.232626244,0.476338446,-0.212731868,0.427010596,1.860361934
0.895023644,0.414268047,0.206167713,-0.885937929,-0.009646459,-0.000979502,-0.002167648,-0.273585975,-0.232645825,0.476269394,-0.212811247,0.426998198,1.860348105
0.900025368,0.416347355,0.202782169,-0.88962692,-0.01134321,0.00349168,-0.002428612,-0.273881674,-0.232384235,0.476219624,-0.21289961,0.427021563,1.860308409
0.905027866,0.415497124,0.203535601,-0.888270736,-0.012436348,0.000865457,-0.002888952,-0.273979723,-0.23229751,0.476203114,-0.212988347,0.427021921,1.860288262
0.910025477,0.415035933,0.206770957,-0.885056496,-0.012767299,0.002998997,-0.001138984,-0.274055153,-0.232230768,0.476190418,-0.213088572,0.427041113,1.860270023
0.915023625,0.415567935,0.210169375,-0.887095571,-0.011034455,0.002338717,-0.00066355,-0.274080187,-0.232208639,0.476186216,-0.213175848,0.427051425,1.860265732
0.920022547,0.416232884,0.209214315,-0.884751678,-0.012146156,0.003263342,-0.00116,-0.274098754,-0.232387811,0.476971835,-0.213270545,0.427072227,1.860223651
0.925022721,0.417238683,0.208864167,-0.885501027,-0.011384727,0.001230129,-0.001400807,-0.274104744,-0.232495755,0.477427572,-0.213358596,0.42708379,1.860194445
0.93002367,0.417659312,0.205538005,-0.884437978,-0.01017093,0.002931141,-0.000438609,-0.274109334,-0.232578814,0.477778196,-0.213436425,0.427097559,1.860144377
0.935026169,0.418769628,0.202742681,-0.886272788,-0.010985401,-0.000183393,-0.001909271,-0.274110854,-0.232606366,0.477894455,-0.213517502,0.427103043,1.860088944
0.94002378,0.419178337,0.20430249,-0.885099173,-0.009891421,-8.57E-05,-0.002078043,-0.274083108,-0.232657999,0.477872014,-0.213596106,0.427110821,1.860027194
0.945022225,0.418379128,0.20620434,-0.884109795,-0.010017321,-0.002046291,-0.003255585,-0.274044693,-0.232705817,0.477751732,-0.21368207,0.427101314,1.859982729
0.950021386,0.418488294,0.205557525,-0.883507371,-0.00992066,-0.001999277,-0.002347156,-0.274015188,-0.232742608,0.477659196,-0.213758364,0.427098155,1.85992527
0.95502156,0.420651883,0.203418866,-0.886003196,-0.008696647,-0.002874634,-0.004167432,-0.274005383,-0.232754812,0.477628499,-0.213826671,0.427090496,1.859851599
0.960022807,0.418490946,0.202258587,-0.885697186,-0.010254509,-0.006018439,-0.002122345,-0.273997843,-0.232764199,0.477604896,-0.213895738,0.427066267,1.859801769
0.965025008,0.416940123,0.205239087,-0.886299849,-0.009578262,-0.006197896,-0.004007663,-0.273997307,-0.232663825,0.477792591,-0.213965267,0.427033484,1.859763265
0.970022142,0.416910708,0.204707697,-0.885693073,-0.010980445,-0.007972217,-0.004730866,-0.27399689,-0.232586592,0.477937013,-0.214049041,0.426991463,1.859721184
0.975020289,0.416498929,0.203623429,-0.886701286,-0.009034513,-0.006308185,-0.002616499,-0.273996741,-0.232560977,0.477984875,-0.214119807,0.426963091,1.859686732
0.980019689,0.415990442,0.203334495,-0.887420118,-0.010946657,-0.006308389,-0.003344058,-0.273996651,-0.232541278,0.478021741,-0.214196116,0.426934808,1.859657168
0.985020161,0.416589022,0.203294486,-0.887069464,-0.011098078,-0.004874283,-0.002764785,-0.27402097,-0.232684687,0.47736603,-0.21427308,0.4269104,1.859636784
0.990021348,0.41725567,0.202469349,-0.888539791,-0.011726162,-0.00370206,-0.004381784,-0.274064332,-0.232946649,0.476186126,-0.214359418,0.426893651,1.859591722
0.995023608,0.416705489,0.200976789,-0.888837099,-0.014775633,-0.005554203,-0.002673929,-0.274078697,-0.233033508,0.475794882,-0.21445033,0.426862687,1.859571099
1.000020742,0.416678786,0.20417811,-0.888638139,-0.018211374,-0.004674981,-0.003114231,-0.274089754,-0.23310034,0.475493878,-0.214566499,0.426838398,1.859546304
1.005018592,0.41738537,0.207102776,-0.887330711,-0.02027755,-0.004094949,-0.005865646,-0.274093419,-0.233122498,0.47539407,-0.214705914,0.426818818,1.859491587
1.010017753,0.414300472,0.205735341,-0.885933757,-0.01978676,-0.004470652,-0.00585491,-0.274103403,-0.232987106,0.477210373,-0.214840218,0.426791459,1.859449148
1.015018225,0.413419515,0.208585903,-0.885644972,-0.020545961,-0.004226233,-0.006078427,-0.274106711,-0.232942209,0.477812618,-0.21498704,0.426769078,1.859421372
1.020019412,0.417122453,0.2100624,-0.885718584,-0.017895056,-0.00248657,-0.005515441,-0.274109274,-0.232907668,0.478276014,-0.21511437,0.426747352,1.859377384
1.025027633,0.416456163,0.210883826,-0.883829713,-0.019085066,-0.003582325,-0.004721629,-0.274110109,-0.232896209,0.478429675,-0.215252012,0.426735371,1.859334707
1.030031085,0.414622903,0.214277104,-0.883595288,-0.017888175,-0.002355476,-0.005056067,-0.273807526,-0.233200029,0.478348881,-0.215389028,0.426714957,1.859300375
1.035029531,0.418495357,0.210731357,-0.887541294,-0.015863463,-0.001155231,-0.003546309,-0.273632169,-0.233378142,0.478272825,-0.215498209,0.426718175,1.859248638
1.040028691,0.418039978,0.212222308,-0.883325636,-0.013920355,-0.004374485,-0.000609308,-0.273497254,-0.233515188,0.478214324,-0.215595856,0.426701009,1.859205723
1.045028806,0.415662974,0.21514599,-0.883280098,-0.011845741,-0.002165375,-0.001331792,-0.27345252,-0.233560622,0.478194922,-0.215691343,0.426687747,1.859197617
1.050030351,0.416442543,0.210175484,-0.887215137,-0.010697049,-0.004955959,-8.92E-05,-0.273531049,-0.233593404,0.478182167,-0.215766132,0.426665992,1.859174252
1.055032611,0.414179295,0.213283509,-0.883266926,-0.007568492,-0.005068776,0.002397483,-0.273671031,-0.233602062,0.47818011,-0.215830863,0.426644415,1.859187245
1.060029984,0.418422341,0.21031481,-0.889519215,-0.006218148,-0.005039869,0.000297582,-0.273778707,-0.233608738,0.478178561,-0.215885803,0.426629663,1.859163284
1.065028071,0.417707682,0.206823647,-0.884291232,-0.007349655,-0.00764069,0.001493541,-0.27381444,-0.233610943,0.478178024,-0.215932935,0.42659843,1.859142065
1.070027471,0.415496051,0.210483015,-0.885453939,-0.007071168,-0.004496358,0.002428842,-0.273841918,-0.233612642,0.478177637,-0.215993896,0.426582098,1.859152079
1.075027704,0.417247981,0.206228644,-0.889452577,-0.006871429,-0.008589841,-0.000356708,-0.273850858,-0.233662263,0.47837472,-0.216041312,0.426545054,1.859122038
1.08002913,0.415622503,0.20740664,-0.883866727,-0.00595712,-0.007909793,0.001081109,-0.273857743,-0.233700439,0.478526354,-0.216089889,0.426510811,1.859109163
1.08503139,0.412314177,0.209025994,-0.887718558,-0.006426804,-0.007200067,-5.81E-05,-0.273860037,-0.23371309,0.47857663,-0.216149226,0.426477075,1.859120607
1.090028763,0.413468897,0.206734642,-0.887249053,-0.006229443,-0.005246224,0.001156086,-0.273861796,-0.233722836,0.478615314,-0.216188997,0.426451743,1.859128475
1.09502697,0.413754702,0.211553663,-0.885191202,-0.006706594,-0.005939469,0.000173209,-0.27371797,-0.233904585,0.478348166,-0.216253459,0.426419854,1.859127402
1.100025892,0.412381679,0.214252785,-0.886533201,-0.004487606,-0.004617895,0.001176433,-0.273461282,-0.234224945,0.477859497,-0.216305256,0.42639029,1.85915637
1.105026007,0.414656013,0.207250789,-0.890580356,-0.004825239,-0.002105894,0.002065079,-0.273376167,-0.234331161,0.477697492,-0.216340885,0.426387668,1.859155655
1.110027313,0.41452986,0.213079989,-0.886885881,-0.004724196,-0.001907572,0.00261472,-0.273310661,-0.234412894,0.477572829,-0.216389582,0.426377088,1.859173179
1.115029454,0.414407194,0.211242855,-0.889843941,-0.004049865,-0.001750003,0.002142055,-0.273288935,-0.234439999,0.477531463,-0.216426387,0.426374674,1.859185696
1.120026827,0.414349079,0.212482989,-0.88463974,-0.004163427,0.001200572,0.002044055,-0.273271859,-0.234526619,0.477696419,-0.216479078,0.426388055,1.859185457
1.125025034,0.417765468,0.206551015,-0.88992095,-0.004194124,0.00111314,0.005125803,-0.273266196,-0.234555349,0.477751106,-0.216506109,0.426406085,1.859164596
1.130023956,0.417697549,0.209399223,-0.885920405,-0.004300763,0.001137001,0.004251983,-0.273261815,-0.234577447,0.477793187,-0.216547474,0.426423162,1.859143019
1.135024071,0.412260681,0.208849519,-0.885769129,-0.003463218,0.000422936,0.003721474,-0.273260385,-0.234584779,0.477807134,-0.216589317,0.42642951,1.859164715
1.140025854,0.413475633,0.206771582,-0.887910545,-0.003010075,0.00107925,0.005192921,-0.273162037,-0.234439358,0.477863431,-0.216616273,0.426440775,1.859170198
1.145028353,0.418780446,0.209240437,-0.885434151,-0.003261751,-0.000229077,0.005110356,-0.273105383,-0.234353766,0.477893353,-0.216645047,0.426458478,1.859150529
1.150025725,0.4195427,0.210611075,-0.886734903,-0.002583309,-0.001455419,0.003280808,-0.273061782,-0.234287903,0.47791636,-0.216684386,0.426464379,1.859105349
1.155024171,0.413715035,0.209474057,-0.885042608,-0.002036898,-0.00075941,0.00424198,-0.273047328,-0.234266058,0.477924019,-0.216705829,0.426461518,1.859125495
1.160029411,0.41746676,0.207715467,-0.887918532,-0.001857349,0.001175697,0.003986175,-0.273204118,-0.234251067,0.477374762,-0.216732219,0.426475942,1.859123349
1.165029645,0.415727168,0.211456761,-0.884099364,-0.002715846,-0.002050661,0.007064863,-0.27342543,-0.234247938,0.476632863,-0.216751441,0.426472515,1.859155297
1.170031071,0.413905978,0.210025162,-0.885843635,0.00061032,0.001252292,0.005815778,-0.273595691,-0.234245524,0.476062,-0.216764987,0.426480949,1.859193683
1.175033331,0.411060154,0.213737339,-0.886276722,0.000961522,0.000566147,0.00832375,-0.273652166,-0.234244734,0.475872725,-0.216776088,0.426485538,1.859285116
1.180030704,0.413182944,0.2143379,-0.885069549,0.002895293,0.00436584,0.008647843,-0.273695588,-0.234244123,0.475727111,-0.216782644,0.426517367,1.859325767
1.185028911,0.409582198,0.212640166,-0.885270774,0.001319187,0.003459936,0.01098483,-0.273461938,-0.234392285,0.476659,-0.216778576,0.426541507,1.859400034
1.190028071,0.414177448,0.214946657,-0.886158109,0.006337171,0.008914059,0.01087797,-0.27328214,-0.234506279,0.477376014,-0.216765761,0.426596135,1.859441757
1.195027947,0.414420307,0.215037599,-0.889896214,0.005812553,0.005215283,0.01292106,-0.273222536,-0.234544083,0.477613747,-0.21674493,0.426636338,1.859506607
1.200029492,0.41516149,0.211542904,-0.884950101,0.006182094,0.012285388,0.013652382,-0.27317667,-0.234573171,0.477796674,-0.21671547,0.426708788,1.8595438
1.205031633,0.415567815,0.207549363,-0.891588748,0.004316148,0.010000188,0.01671469,-0.273329854,-0.234527901,0.477189898,-0.216680408,0.426782072,1.859618545
1.210029006,0.415911824,0.210854337,-0.881105542,0.006316195,0.012725801,0.014614903,-0.273617983,-0.23443757,0.476048172,-0.216657519,0.426867932,1.859660864
1.215027213,0.419423491,0.201122314,-0.888656795,0.005059602,0.013736252,0.014853898,-0.273713529,-0.234407619,0.475669593,-0.216613829,0.426965535,1.859665871
1.220026374,0.417792499,0.209393874,-0.885350227,0.003117049,0.011263436,0.013900851,-0.273787051,-0.234384567,0.475378275,-0.216602832,0.427036822,1.859710813
1.225026608,0.419350952,0.203866214,-0.885732114,0.00224517,0.012408321,0.01204675,-0.27381143,-0.234376922,0.475281686,-0.216583073,0.427116483,1.859715819
1.230028033,0.419739336,0.204255164,-0.887318671,-0.001066614,0.010463655,0.015317846,-0.273765445,-0.234238982,0.475008607,-0.216579795,0.427195132,1.859747529
1.235030293,0.415953904,0.205045924,-0.883869469,-0.001991402,0.009872355,0.011273736,-0.273750216,-0.234193251,0.474918067,-0.216595694,0.427249938,1.859771848
1.240027428,0.416402608,0.200293601,-0.889029384,-0.0034101,0.012202145,0.012289525,-0.273738474,-0.234158069,0.47484839,-0.216605395,0.427333564,1.859795332
1.245025516,0.415980071,0.210979849,-0.888311923,-0.004935749,0.00952386,0.009664794,-0.273734599,-0.234146386,0.474825293,-0.216651052,0.427381963,1.859848022
1.250024676,0.414115399,0.209054962,-0.883915663,-0.005480385,0.012544981,0.011339406,-0.273734301,-0.234177008,0.476037174,-0.216682449,0.427453429,1.859876156
1.25502491,0.416861862,0.215435833,-0.889204919,-0.005114158,0.010351574,0.013417142,-0.273734868,-0.234196976,0.476743311,-0.21672152,0.427527666,1.859935522
1.260026097,0.413297921,0.210828617,-0.88355577,-0.005562908,0.012675901,0.012761296,-0.273735315,-0.234212324,0.477286637,-0.216749579,0.42759788,1.859975815
1.265028596,0.409649968,0.213547111,-0.88561517,-0.004011613,0.017038221,0.01483696,-0.273735464,-0.23421742,0.477466792,-0.216783971,0.427691251,1.86007154
1.270026207,0.407310337,0.214374259,-0.889912546,-0.005974598,0.022832047,0.014341968,-0.273959845,-0.234222323,0.477023453,-0.216829002,0.427802384,1.860192657
1.275024414,0.407769203,0.215404347,-0.88753736,-0.004927687,0.027005242,0.015847312,-0.274260461,-0.234224945,0.47628957,-0.216865033,0.427941859,1.860324383
1.280023575,0.410275966,0.218723357,-0.886693001,-0.004755148,0.030752355,0.01882912,-0.274491757,-0.234226957,0.475724936,-0.216909215,0.428104341,1.860450745
1.285023689,0.413453251,0.215459466,-0.888205707,-0.002243215,0.032965321,0.018483482,-0.274568439,-0.234227628,0.475537688,-0.21691972,0.42828691,1.860547662
1.290024996,0.416192979,0.210303932,-0.889285326,-0.002298852,0.036344897,0.017118944,-0.274627447,-0.234228149,0.475393623,-0.216936916,0.428486347,1.860596657
1.295033574,0.421130091,0.205128744,-0.891611874,-0.004778609,0.036544487,0.01495308,-0.274253458,-0.234076306,0.476123154,-0.216956005,0.428685844,1.860574365
1.300037146,0.421158493,0.200638965,-0.891042054,-0.00673821,0.035241697,0.011093167,-0.273965716,-0.233959466,0.476684481,-0.216988906,0.428874552,1.860528708
1.30503583,0.423260838,0.197784498,-0.891013145,-0.009956119,0.037101462,0.007636904,-0.273870319,-0.233920723,0.476870626,-0.217045903,0.429073393,1.860446692
1.310035229,0.422570229,0.197898835,-0.893420637,-0.014090315,0.034962807,0.004561415,-0.273796886,-0.233890921,0.477013826,-0.217129469,0.429250836,1.860359669
1.315035343,0.424470276,0.198348388,-0.891448617,-0.018559404,0.034430146,0.002309867,-0.273967743,-0.234023109,0.476899177,-0.21723415,0.429430097,1.86025393
1.32003665,0.426141113,0.199897319,-0.889993429,-0.022644434,0.034296658,-0.001728206,-0.274296612,-0.234268486,0.476647049,-0.217378944,0.429606885,1.860114932
1.325038791,0.42829138,0.2028016,-0.889003515,-0.025573343,0.031260684,-0.002502866,-0.274405658,-0.234349847,0.476563454,-0.217541501,0.429762423,1.859963655
1.330036283,0.427295893,0.200985566,-0.890254736,-0.026786428,0.027147846,-0.002162583,-0.274489582,-0.234412447,0.47649911,-0.217700452,0.429907024,1.85982728
1.335034609,0.427759469,0.198608071,-0.887238562,-0.029667044,0.024401106,-0.003629539,-0.274517387,-0.234433204,0.476477802,-0.217878416,0.430041462,1.859677076
1.34003377,0.4278633,0.19874683,-0.884512782,-0.031393513,0.023831394,-0.002934149,-0.275324792,-0.234650239,0.474976242,-0.218056336,0.43017301,1.859539509
1.345034003,0.427570581,0.20302026,-0.884052575,-0.033305388,0.020385271,-0.003463248,-0.275592506,-0.234722212,0.474478364,-0.218259707,0.430281311,1.859414816
1.350035191,0.428065419,0.207280532,-0.883535385,-0.034207061,0.016194658,-0.003014798,-0.2757985,-0.234777585,0.474095285,-0.218464538,0.430380166,1.859303832
1.355037451,0.429035664,0.209892303,-0.881866455,-0.035569247,0.015943207,-0.000465431,-0.275866807,-0.234795943,0.473968267,-0.218674615,0.430474043,1.859209895
1.360034823,0.426602632,0.209048852,-0.880903006,-0.034820952,0.011235194,-0.001651698,-0.275816381,-0.235017613,0.473625034,-0.218878597,0.43053779,1.859119892
1.365032911,0.425042689,0.210473686,-0.880252361,-0.032485589,0.010047273,0.000745766,-0.275774181,-0.235142484,0.473450482,-0.219070271,0.430599928,1.859055996
1.37003243,0.421590477,0.212575629,-0.881273091,-0.03275805,0.008620557,-2.64E-05,-0.275741696,-0.235238552,0.473316193,-0.219264001,0.430648357,1.859025717
1.375032544,0.415109843,0.214710817,-0.879184604,-0.030356353,0.010636042,-5.57E-05,-0.275730938,-0.235270411,0.473271638,-0.21945402,0.430687457,1.859039307
1.380034089,0.413241476,0.216345012,-0.883938611,-0.028526666,0.010652264,0.001730683,-0.275499552,-0.235234916,0.473958313,-0.219635203,0.430737555,1.85906899
1.38503623,0.407505929,0.215927362,-0.884721935,-0.029334798,0.013001557,0.003685712,-0.275197834,-0.235162631,0.474912971,-0.219808891,0.430787444,1.859149456
1.390033722,0.413519502,0.221700922,-0.891601741,-0.025806328,0.018971501,0.004748014,-0.274965674,-0.235107005,0.475647509,-0.219981134,0.430882484,1.859198928
1.395032048,0.417029262,0.213929683,-0.890573442,-0.027953861,0.016939897,0.003826482,-0.274888694,-0.235088557,0.475891083,-0.220145836,0.430961907,1.859198093
1.400031447,0.422667414,0.206098333,-0.89056325,-0.030625651,0.019238284,0.002010691,-0.274829477,-0.235074371,0.47607848,-0.220311329,0.431061924,1.859128714
1.405031681,0.425013959,0.193196461,-0.895078957,-0.036347307,0.018740755,0.001015729,-0.275052994,-0.235422567,0.475952685,-0.22047703,0.4311665,1.859024286
1.410032868,0.428525031,0.183729813,-0.891888082,-0.044594608,0.021012023,-0.003257109,-0.275224984,-0.235690489,0.475855887,-0.220687211,0.431279182,1.858844995
1.415035129,0.432101339,0.182574958,-0.891894162,-0.056076899,0.021968188,-0.003985018,-0.275282025,-0.235779315,0.47582379,-0.220959276,0.431405634,1.858637452
1.420032263,0.434286743,0.192988575,-0.888370812,-0.065101676,0.020757966,-0.007395662,-0.275325894,-0.235847667,0.475799084,-0.221310362,0.431521505,1.858413577
1.425030351,0.434143245,0.208207116,-0.883792222,-0.068230554,0.0196939,-0.009964976,-0.27542305,-0.235875592,0.475038707,-0.221718848,0.431628883,1.858221531
1.430035472,0.430909961,0.217555672,-0.879887164,-0.068901598,0.019088818,-0.009858536,-0.27558139,-0.235902369,0.473693073,-0.222129181,0.431731761,1.858071089
1.435035944,0.429585248,0.219293296,-0.88033098,-0.063216344,0.016940495,-0.009913737,-0.275633872,-0.23591125,0.473246872,-0.222514972,0.431818545,1.857936978
1.440037131,0.429185063,0.219777927,-0.87714529,-0.059576914,0.011862145,-0.010941421,-0.275674254,-0.23591809,0.47290355,-0.222875252,0.431884497,1.857784748
1.445033669,0.426131099,0.219485164,-0.87401855,-0.054304808,0.010216173,-0.010624909,-0.275687635,-0.235920355,0.472789735,-0.223212704,0.431936413,1.857654929
1.450030804,0.424368799,0.219994798,-0.87714231,-0.051599085,0.009893696,-0.010494777,-0.27602464,-0.236379087,0.473758996,-0.223535344,0.431982398,1.857536674
1.455029249,0.421238959,0.221442237,-0.875889182,-0.047447234,0.002274049,-0.010899611,-0.276136369,-0.236531198,0.474080384,-0.223830566,0.431983888,1.857458591
1.46002841,0.420447677,0.230024949,-0.875894427,-0.04133058,0.000912733,-0.010158442,-0.276222348,-0.236648232,0.474327683,-0.224112228,0.431979448,1.857404351
1.46502912,0.419999242,0.231641591,-0.877308726,-0.035189714,-0.000136898,-0.011121185,-0.276250869,-0.236687034,0.47440967,-0.224361986,0.431966454,1.85735786
1.470030546,0.414788544,0.233191714,-0.877006769,-0.02840147,-0.000100577,-0.008275051,-0.276269883,-0.237126783,0.474153906,-0.224575192,0.431946069,1.857364893
1.475026965,0.412484378,0.231993407,-0.883374214,-0.023119085,0.000917244,-0.005829067,-0.276274562,-0.237373918,0.473997205,-0.224755868,0.431932449,1.857421517
1.480024099,0.412037641,0.22861734,-0.882365584,-0.017618509,-0.001604133,-0.004292978,-0.276278168,-0.237564072,0.473876655,-0.224893302,0.431903273,1.857476592
1.485021949,0.416577041,0.222455397,-0.882615566,-0.013948622,0.000164202,-0.002391872,-0.27627936,-0.237627119,0.47383669,-0.224995792,0.431899726,1.857486486
1.490021348,0.418372482,0.217293397,-0.881345689,-0.012444829,-0.000342142,-0.002378732,-0.276025832,-0.237626374,0.473409563,-0.225086376,0.431889892,1.857461333
1.495021582,0.419666648,0.214711845,-0.883656263,-0.011418889,-0.001043477,-0.002720936,-0.275685191,-0.23757647,0.472868294,-0.225163475,0.431886494,1.857430935
1.500023007,0.417914242,0.217297509,-0.883136988,-0.01048458,-0.001627292,-0.004482302,-0.27542311,-0.237538055,0.472451806,-0.225247741,0.431867629,1.857417703
1.505019426,0.420223445,0.220113888,-0.879788876,-0.008953218,-0.002792869,-0.004627421,-0.275336206,-0.237525329,0.472313702,-0.225337595,0.431857526,1.857373714
1.510016799,0.420647353,0.223893508,-0.877823055,-0.006712409,-0.001267589,-0.002436048,-0.27526933,-0.237515524,0.472207457,-0.225422278,0.431849509,1.857349634
1.515014887,0.422518224,0.224390253,-0.876889646,-0.003912124,-0.001414192,-0.000356537,-0.275740534,-0.237709627,0.471790761,-0.22548236,0.431851059,1.857324719
1.520014048,0.418049216,0.221346021,-0.878116667,-0.001337496,-0.003108215,-0.000823035,-0.276103079,-0.237858966,0.471470118,-0.225520983,0.431835413,1.857339621
1.525014281,0.414994657,0.220935196,-0.878124654,0.001222694,-0.001678223,0.000130997,-0.276223302,-0.237908483,0.471363813,-0.225549579,0.431821048,1.857371092
1.530015707,0.411178857,0.220744357,-0.877132714,0.002454636,-0.002267626,0.001972394,-0.276315808,-0.237946585,0.471282005,-0.225560352,0.431802839,1.857444048
1.535012364,0.410791665,0.226349756,-0.876406908,0.005310446,0.001647939,0.003901081,-0.276175499,-0.23807773,0.471280813,-0.225573406,0.431811839,1.857521653
1.540009737,0.409192711,0.229974866,-0.880605698,0.010741985,0.002663658,0.00649284,-0.275894642,-0.238298476,0.471306115,-0.225556657,0.431817889,1.857654095
1.545007825,0.408592999,0.232898176,-0.880025625,0.013110123,0.007175715,0.006532869,-0.27580151,-0.238371685,0.47131452,-0.225528553,0.431844503,1.857775807
1.550006986,0.409463912,0.241488785,-0.884041429,0.020965468,0.008176443,0.012632331,-0.275729865,-0.238427997,0.471321017,-0.225465953,0.431886613,1.857961774
1.555007458,0.407678396,0.248909727,-0.885281563,0.03137907,0.011555802,0.017725848,-0.275706112,-0.238446668,0.471323162,-0.225357354,0.43194598,1.858202338
1.560009003,0.41106692,0.248924926,-0.886340201,0.039985303,0.014127029,0.021805737,-0.275959343,-0.238238901,0.472895384,-0.225196943,0.432017416,1.858421683
1.565011144,0.413751632,0.238296539,-0.88811332,0.047277119,0.015280529,0.027041696,-0.276043326,-0.238170013,0.473416716,-0.224950448,0.432111114,1.858628273
1.570014238,0.415210485,0.228814706,-0.884895504,0.052770112,0.018453943,0.028684018,-0.276107907,-0.238117009,0.473817855,-0.224669352,0.432224989,1.858797073
1.575012326,0.416070014,0.223109141,-0.889700472,0.053500473,0.023012877,0.029233782,-0.276129335,-0.238099426,0.473950833,-0.224365756,0.432365239,1.858976245
1.580011487,0.417979717,0.21274808,-0.891756356,0.053294666,0.025850922,0.02763976,-0.275750637,-0.237890676,0.473994106,-0.224064589,0.432519168,1.859083176
1.585011721,0.422739446,0.206542164,-0.893723428,0.05171011,0.027480893,0.027872641,-0.275527328,-0.237773165,0.473993838,-0.223759174,0.432685435,1.859162211
1.590013146,0.426884174,0.200059816,-0.892965674,0.046469826,0.028567411,0.026026146,-0.275355488,-0.237682745,0.473993629,-0.223472372,0.432869256,1.859179378
1.595009804,0.437912911,0.189774826,-0.889855683,0.038623668,0.027199078,0.023742212,-0.275298506,-0.237652764,0.47399357,-0.223220021,0.433060557,1.859061241
1.600007176,0.441092014,0.181286201,-0.890346169,0.029009936,0.026882136,0.021073896,-0.275791258,-0.237509176,0.473416328,-0.223005682,0.433242619,1.858935237
1.605005264,0.442844719,0.176504284,-0.887863457,0.017347997,0.023509556,0.014032258,-0.276495725,-0.237340033,0.472642869,-0.222857177,0.43340984,1.858753204
1.610004425,0.444465578,0.180944934,-0.886015415,0.007381148,0.023932746,0.009499548,-0.27703777,-0.237209901,0.472047716,-0.222795501,0.433576673,1.858546019
1.615004659,0.443414986,0.185676157,-0.885211766,-0.004419808,0.019989878,0.004900776,-0.277217507,-0.237166747,0.471850395,-0.222799823,0.433712333,1.858339906
1.620006442,0.443316281,0.190318853,-0.880901515,-0.013396725,0.017199302,-0.001285887,-0.27735579,-0.237133533,0.471698552,-0.222875312,0.433822453,1.858108997
1.625003219,0.442882657,0.195734888,-0.877556503,-0.021635976,0.017408462,-0.003825886,-0.277154535,-0.237025186,0.471691459,-0.223001793,0.433944017,1.8578583
1.630000353,0.440357774,0.19321388,-0.877414107,-0.025943888,0.014189418,-0.007734322,-0.276999682,-0.236941829,0.471686006,-0.223150969,0.434042245,1.857610464
1.63499856,0.432471693,0.191573963,-0.875674605,-0.032881964,0.012793642,-0.011817575,-0.276948363,-0.236914188,0.471684217,-0.223338485,0.434110194,1.857403159
1.639997721,0.430101246,0.194591403,-0.873419583,-0.037663851,0.007634749,-0.015102976,-0.276908845,-0.236892924,0.471682817,-0.223556325,0.434147626,1.857191443
1.644997835,0.424794227,0.199174389,-0.867642164,-0.041332927,0.004581346,-0.016338715,-0.276867092,-0.23691529,0.471682131,-0.223812729,0.43415758,1.857002616
1.649999857,0.420669645,0.211911827,-0.868150711,-0.043279819,0.002948693,-0.016819254,-0.276806027,-0.236962259,0.471681386,-0.224106476,0.434159994,1.856867909
1.654996991,0.417720944,0.220972717,-0.867952049,-0.040426996,0.000148546,-0.018923251,-0.276785761,-0.236977831,0.471681118,-0.224402934,0.434139878,1.856764197
1.659994364,0.415198356,0.2301521,-0.868248701,-0.033341605,-0.003117651,-0.014637508,-0.276770204,-0.236989811,0.471680939,-0.224663228,0.434104264,1.856727839
1.664992571,0.414294749,0.243330702,-0.870791495,-0.021773761,-0.008008996,-0.011131339,-0.276765049,-0.236993775,0.47168088,-0.224869236,0.434038609,1.856768131
1.669991732,0.417360216,0.253161967,-0.874187171,-0.009231398,-0.012493011,-0.005073362,-0.27675426,-0.237470359,0.471620739,-0.225009903,0.433961421,1.856846213
1.674991846,0.421321452,0.25108403,-0.871715605,0.005260949,-0.015589947,-0.000907401,-0.276750684,-0.2376284,0.471600801,-0.225057438,0.433886886,1.856894255
1.679993868,0.423310935,0.243264779,-0.874986649,0.018556872,-0.01871798,0.006746841,-0.276747942,-0.237749994,0.471585453,-0.224998951,0.43381387,1.856974363
1.684991002,0.420520902,0.235565439,-0.878022134,0.030817028,-0.023592995,0.01329684,-0.276747048,-0.237790301,0.471580356,-0.224847347,0.433709532,1.857106209
1.689988375,0.418884546,0.226412192,-0.877033174,0.040251724,-0.026327662,0.014227782,-0.276595175,-0.238121644,0.472412646,-0.224633679,0.433592558,1.857224703
1.694986463,0.421954334,0.217523202,-0.881219029,0.046327382,-0.032314699,0.017703131,-0.276507407,-0.238305822,0.472895563,-0.224365577,0.433457196,1.857329965
1.699991822,0.424393952,0.210228667,-0.881914377,0.047681805,-0.031944968,0.017531171,-0.276439875,-0.238447517,0.473267108,-0.224076748,0.43332392,1.857405186
1.704992294,0.431343377,0.201905563,-0.882694066,0.046730332,-0.038702466,0.015817463,-0.276417464,-0.238494515,0.473390311,-0.223785982,0.433167338,1.857403874
1.70999372,0.438034594,0.194467962,-0.88388443,0.04071071,-0.042810373,0.010456668,-0.276375532,-0.238216683,0.473146051,-0.223522484,0.433001071,1.857326508
1.714990139,0.442997158,0.189495042,-0.882752001,0.034720629,-0.047033116,0.005495466,-0.2763367,-0.23780793,0.472723156,-0.223299742,0.432811618,1.85718441
1.719987512,0.44583863,0.186544999,-0.883806765,0.027393581,-0.054677296,-0.001216444,-0.276306808,-0.237493411,0.472397774,-0.223118499,0.43258509,1.857001066
1.7249856,0.445811152,0.183122784,-0.884646058,0.020606516,-0.062237121,-0.007520945,-0.276296884,-0.237389132,0.47228989,-0.222978905,0.432310194,1.856794119
1.72998476,0.444614351,0.177585974,-0.885094047,0.00955394,-0.072228089,-0.013746426,-0.276289284,-0.23730889,0.472206861,-0.222881883,0.431981981,1.856548071
1.734984994,0.443439424,0.183391035,-0.880218744,0.002043791,-0.077161118,-0.021838132,-0.276041955,-0.237225905,0.473304659,-0.222869545,0.43162179,1.856263399
1.73998642,0.434745669,0.188741192,-0.880342484,-0.007254643,-0.082162365,-0.027402135,-0.275851637,-0.237162068,0.474149346,-0.222913131,0.431214422,1.856034279
1.744982839,0.423703581,0.201419652,-0.877701938,-0.012434282,-0.087037988,-0.034035236,-0.275788546,-0.237140894,0.474429429,-0.223030731,0.430755764,1.85589385
1.749980688,0.406536877,0.21519205,-0.878727376,-0.01308402,-0.084622145,-0.034934998,-0.275739998,-0.237124592,0.474644929,-0.22316961,0.43028295,1.855903864
1.754979014,0.392407477,0.226611584,-0.880914092,-0.011904044,-0.08156018,-0.029855028,-0.275695801,-0.237091631,0.474631786,-0.223305598,0.429808229,1.856060743
1.759978294,0.386132687,0.234514445,-0.882054746,-0.005466984,-0.074086197,-0.025935106,-0.275633395,-0.237038404,0.474536121,-0.223420307,0.429373145,1.856284142
1.764978409,0.381353676,0.244601786,-0.880849421,2.13E-05,-0.066045985,-0.015732041,-0.275612712,-0.237020761,0.474504381,-0.223496526,0.428976089,1.856606364
1.769979954,0.385364503,0.248684168,-0.884828448,0.009665145,-0.054430641,-0.008107708,-0.275596797,-0.237007186,0.474479973,-0.223510236,0.428667486,1.856932282
1.774976492,0.388155907,0.246918008,-0.887519717,0.015577371,-0.041330401,0.002586803,-0.275591552,-0.237002671,0.474471897,-0.223478615,0.428426981,1.857267141
1.779973626,0.398093194,0.243639857,-0.89552772,0.023670394,-0.03089221,0.005663475,-0.274857253,-0.237346306,0.474978,-0.223397627,0.428258181,1.857531309
1.784972072,0.40434432,0.237684384,-0.897007525,0.02784449,-0.022114156,0.013223585,-0.274613798,-0.237460241,0.475145817,-0.223270416,0.428146213,1.8577739
1.789971232,0.408652067,0.229843214,-0.895106256,0.03086615,-0.012261149,0.017908826,-0.27442643,-0.237547919,0.47527495,-0.22310847,0.428097665,1.857980847
1.794971347,0.413759053,0.22923024,-0.896497905,0.032732621,-0.00515604,0.021152519,-0.274364293,-0.237576991,0.475317776,-0.222937107,0.428088069,1.858162045
1.799972653,0.415705293,0.230372697,-0.889273524,0.034389615,-0.000682611,0.024484657,-0.274213612,-0.237661108,0.474366188,-0.222758174,0.428116471,1.858325958
1.804969192,0.415064126,0.228378162,-0.889418781,0.037214413,0.002603046,0.024738731,-0.274138182,-0.237704277,0.473807067,-0.222560272,0.428153008,1.858497024
1.809966326,0.419905007,0.216423124,-0.886062264,0.039194413,0.006394187,0.024737518,-0.274080127,-0.237737507,0.47337684,-0.222342089,0.428224683,1.858583927
1.814965248,0.423609346,0.206172183,-0.883913815,0.037611011,0.006386892,0.026001371,-0.274060875,-0.237748519,0.473234177,-0.222103894,0.428297251,1.858621597
1.819964409,0.423760802,0.207241878,-0.879928589,0.038150936,0.001532436,0.022962429,-0.274077475,-0.237635851,0.473681986,-0.22187826,0.428342253,1.858649015
1.824964643,0.425278187,0.202203721,-0.881343663,0.037841231,9.62E-05,0.02096351,-0.274114668,-0.237476334,0.474392772,-0.221654445,0.428384453,1.858637094
1.82996583,0.424099892,0.200471878,-0.881355107,0.034221318,-0.004764252,0.021193773,-0.274143279,-0.237353608,0.474939644,-0.221429348,0.428397596,1.858650088
1.83496809,0.422220349,0.204522699,-0.881832957,0.033767246,-0.009917041,0.021137754,-0.274152756,-0.237312913,0.475120962,-0.221218303,0.428387523,1.858704209
1.839971542,0.420497537,0.199773103,-0.882378519,0.033366032,-0.011485289,0.016223669,-0.274160057,-0.237281606,0.475260496,-0.221011251,0.428351462,1.858726382
1.844969988,0.42240265,0.200830907,-0.884511173,0.029468426,-0.014472988,0.015913865,-0.274067014,-0.236968979,0.475203156,-0.220826998,0.42830956,1.858738065
1.849969149,0.420290798,0.199031979,-0.884445727,0.026657142,-0.018480962,0.013928747,-0.273995459,-0.236728415,0.475159049,-0.220656574,0.428240329,1.858763099
1.854969382,0.422492594,0.195627198,-0.883833647,0.02327439,-0.023435505,0.01196189,-0.273971736,-0.236648649,0.475144416,-0.220496744,0.428149819,1.8587538
1.859970808,0.425383091,0.202980801,-0.881760716,0.023044053,-0.027834387,0.010022823,-0.273953468,-0.236587286,0.475133151,-0.220357805,0.428048193,1.858730555
1.864967227,0.419916868,0.206302807,-0.876268685,0.021175807,-0.029239353,0.008888646,-0.274201185,-0.236618489,0.475274533,-0.22023882,0.427921116,1.858747959
1.869964242,0.412280858,0.208359286,-0.876794457,0.019749708,-0.030809436,0.009371045,-0.274648339,-0.236694634,0.475530028,-0.22012727,0.427784741,1.858826995
1.874962926,0.408490926,0.211977839,-0.876886785,0.022216897,-0.028901875,0.012871429,-0.274796605,-0.236719877,0.475614727,-0.219999194,0.427650213,1.85895896
1.879962325,0.405061662,0.217525065,-0.878748834,0.024076343,-0.025713257,0.01123514,-0.274910688,-0.236739308,0.475679904,-0.219880164,0.427525997,1.859125853
1.884962559,0.406628728,0.218107477,-0.883106947,0.026200155,-0.024315726,0.012435483,-0.274948508,-0.23674576,0.475701511,-0.219747648,0.427413434,1.859280109
1.889963984,0.406982839,0.217447758,-0.882802367,0.029103398,-0.02084003,0.016192956,-0.274327666,-0.23608309,0.476220548,-0.219581887,0.427316666,1.859446764
1.894960642,0.407740563,0.219044074,-0.885124385,0.030340118,-0.016643791,0.019436328,-0.274121791,-0.235863358,0.476392657,-0.219418824,0.427247286,1.859616995
1.899958014,0.40848884,0.220418051,-0.889897227,0.031222323,-0.012262507,0.020721778,-0.273963422,-0.235694304,0.476525068,-0.219245031,0.427203238,1.85980773
1.90495646,0.409854293,0.217933968,-0.892687261,0.029646806,-0.005401074,0.021496885,-0.27391088,-0.235638246,0.476568997,-0.219081551,0.427186102,1.859981298
1.909956336,0.412874281,0.221581027,-0.893763483,0.030536352,-6.49E-05,0.024552075,-0.273716778,-0.235855371,0.476258606,-0.218910888,0.427210271,1.860153675
1.91495657,0.411212832,0.220201671,-0.892523289,0.032965653,0.007137696,0.024499096,-0.273614377,-0.235991761,0.476070523,-0.218732998,0.427259356,1.860327244
1.919957995,0.414775699,0.216405004,-0.892793655,0.030885102,0.011533606,0.025645582,-0.273535579,-0.23609671,0.475925803,-0.218550026,0.42734611,1.860458493
1.924954414,0.419805467,0.20629248,-0.891988754,0.031014955,0.013369054,0.027254017,-0.273509443,-0.236131504,0.475877821,-0.218355089,0.427457452,1.86052382
1.929951429,0.419119537,0.205500484,-0.889377534,0.029155314,0.014564092,0.026401695,-0.273633033,-0.236009642,0.476009548,-0.218179658,0.427561134,1.860598207
1.934949636,0.416842192,0.211891398,-0.888000906,0.029029995,0.017244622,0.025503999,-0.27381891,-0.235819355,0.47622326,-0.218017906,0.427674294,1.860706925
1.939948797,0.418821543,0.209996358,-0.885762572,0.030600807,0.015344157,0.026341192,-0.273961931,-0.235672951,0.47638768,-0.217835203,0.427788168,1.860785961
1.944949269,0.422821552,0.206530467,-0.88573724,0.031222532,0.014084694,0.027137171,-0.274009377,-0.235624403,0.476442218,-0.217641741,0.427898318,1.860843778
1.949950457,0.426643521,0.202844232,-0.885066748,0.031722769,0.011843125,0.025817938,-0.274045855,-0.23558706,0.47648415,-0.217438146,0.428001821,1.860846877
1.954947114,0.421232253,0.214859113,-0.884857297,0.034732826,0.006333527,0.025750121,-0.274210095,-0.235416561,0.476794183,-0.217253819,0.428064942,1.860951304
1.959944248,0.42349726,0.212988764,-0.881546557,0.035293587,0.006456749,0.026683386,-0.274336457,-0.235285357,0.477032751,-0.217045471,0.428130537,1.861005425
1.964942336,0.430319875,0.204793975,-0.888783157,0.034678787,-0.000366761,0.026719173,-0.274378389,-0.23524186,0.477111846,-0.216826156,0.428179741,1.861024022
1.969947696,0.42888841,0.205166057,-0.877268434,0.033652447,-0.006316322,0.025116879,-0.274410635,-0.235208392,0.477172703,-0.216606125,0.428205848,1.861008406
1.974948406,0.417012036,0.214456975,-0.882413089,0.039117705,-0.004559936,0.025408296,-0.274392664,-0.235116571,0.476605117,-0.216399744,0.428208947,1.86117053
1.979949832,0.42290327,0.212037399,-0.880832911,0.040272105,-0.009515369,0.026710112,-0.274349868,-0.234964311,0.475574136,-0.21615997,0.428199768,1.861253977
1.984946489,0.422482699,0.211560965,-0.883849144,0.043191366,-0.012653268,0.029157801,-0.274335682,-0.234913826,0.475232273,-0.215903774,0.428179801,1.861369252
1.989943504,0.42488268,0.211801365,-0.881500125,0.049336657,-0.017700434,0.028923785,-0.274324745,-0.234874979,0.474969238,-0.215614721,0.428140432,1.861470699
1.99494195,0.426840454,0.199338734,-0.884101987,0.049779255,-0.020754406,0.028057888,-0.274321139,-0.234862104,0.474882007,-0.21529147,0.428087711,1.861531138
1.999941349,0.432927847,0.186447918,-0.885872781,0.046994567,-0.02746411,0.026905075,-0.274321169,-0.234649509,0.474812657,-0.214967534,0.428009987,1.861524343
2.00494194,0.435994774,0.182055891,-0.886099994,0.040714785,-0.033739541,0.022317074,-0.274321169,-0.234579012,0.474789679,-0.214686915,0.427908123,1.861469984
2.009943247,0.439765424,0.182458073,-0.891561925,0.035208568,-0.042357184,0.014462509,-0.274321169,-0.234524757,0.474771976,-0.214447007,0.427749753,1.861375809
2.014939547,0.446818948,0.180070862,-0.887929976,0.031019276,-0.05525383,0.007660273,-0.274321169,-0.234506786,0.474766105,-0.214229107,0.427532494,1.861178279
2.0199368,0.436472297,0.181742921,-0.881587744,0.02495853,-0.064593896,0.00360334,-0.274230152,-0.234079137,0.475738347,-0.214054599,0.42724815,1.861053228
2.024935007,0.427176535,0.186829284,-0.879399002,0.019522719,-0.066924386,-0.002812939,-0.274177462,-0.233834937,0.476302415,-0.213931978,0.426937103,1.860975266
2.029934168,0.420097023,0.190227702,-0.882791936,0.013824017,-0.071656331,-0.005799167,-0.274136901,-0.233647048,0.476736456,-0.213836625,0.426585793,1.860961914
2.034934282,0.420416474,0.191532418,-0.881082594,0.013366565,-0.077897452,-0.007965109,-0.27412346,-0.233584747,0.476880372,-0.213747799,0.426205695,1.860925674
2.039935827,0.423561364,0.189646497,-0.880454302,0.012208658,-0.079814591,-0.010009793,-0.274112999,-0.233482122,0.476655483,-0.213675499,0.425827652,1.860836387
2.044932365,0.425907969,0.190619916,-0.879195809,0.010863586,-0.087446347,-0.011689878,-0.274109393,-0.233392954,0.476242453,-0.213608727,0.425409555,1.860740304
2.049929619,0.421081245,0.189858615,-0.872238874,0.006939174,-0.085884295,-0.020464109,-0.274106622,-0.233324334,0.475924671,-0.213608503,0.42499423,1.860602856
2.054927826,0.412779897,0.189869508,-0.882049859,0.006795553,-0.097183287,-0.018957473,-0.274105698,-0.23330158,0.47581929,-0.213549063,0.424494147,1.860602379
2.059927225,0.401514381,0.194511741,-0.877211571,0.007327056,-0.101545632,-0.017149551,-0.274104983,-0.233284071,0.475738198,-0.213514984,0.423965394,1.860661387
2.064928532,0.392317086,0.200804889,-0.88279748,0.006855032,-0.097109146,-0.016439339,-0.273710012,-0.233275622,0.476834297,-0.213487372,0.423437297,1.860817909
2.069930077,0.39799732,0.202135354,-0.894302964,0.007767766,-0.098436415,-0.016370304,-0.273406118,-0.233269125,0.477677703,-0.213449076,0.422920942,1.860954523
2.074926615,0.40786621,0.200955257,-0.891886413,0.007739081,-0.09848401,-0.015746307,-0.273305357,-0.233266979,0.477957368,-0.213412568,0.422418118,1.860989809
2.079923868,0.418144614,0.20223923,-0.891089976,0.004582529,-0.09658698,-0.017742487,-0.273227811,-0.23326534,0.478172541,-0.213402614,0.421947569,1.860937715
2.084922075,0.424444228,0.205560267,-0.895281553,0.003491147,-0.09665253,-0.021525154,-0.272918999,-0.233244956,0.477847338,-0.213419661,0.421472818,1.860853195
2.089921474,0.428508818,0.210940555,-0.894655466,-0.002007911,-0.098823898,-0.025509821,-0.272395134,-0.233209208,0.477196097,-0.21347855,0.42098546,1.860721588
2.094922066,0.429976821,0.223090157,-0.894676208,-0.002742791,-0.10264533,-0.025984734,-0.272221446,-0.233197346,0.47698015,-0.213560015,0.420485914,1.860625744
2.099929333,0.428923666,0.233449921,-0.895031929,0.002209952,-0.103159219,-0.028389828,-0.272087783,-0.233188227,0.476814002,-0.213631094,0.419975579,1.860555172
2.104931831,0.426018775,0.239496991,-0.893962383,0.005932431,-0.107500091,-0.02618913,-0.272043467,-0.233185202,0.476758897,-0.213687003,0.419436514,1.860521317
2.109929323,0.424791843,0.244851828,-0.891927063,0.016372541,-0.111710757,-0.025922988,-0.271276534,-0.233667493,0.476969093,-0.213697687,0.418877542,1.860491037
2.114927292,0.419588476,0.24636218,-0.896216869,0.031122327,-0.11548543,-0.02419978,-0.27102223,-0.233827397,0.477038771,-0.213619009,0.418293893,1.860535502
2.119926453,0.414573342,0.244893625,-0.897735655,0.03915761,-0.117867507,-0.019928472,-0.270826548,-0.233950436,0.477092385,-0.213491589,0.417697728,1.860642195
2.124926805,0.40819639,0.244689479,-0.89608407,0.051776394,-0.119292907,-0.013631353,-0.270761669,-0.233991235,0.477110177,-0.213285163,0.417092532,1.860827208
2.129928589,0.402416587,0.243397236,-0.899411559,0.063616149,-0.113965765,-0.008473906,-0.269969404,-0.233831003,0.47740224,-0.213006973,0.416516453,1.861040711
2.134926081,0.393086612,0.238763928,-0.903898418,0.070075169,-0.107081175,-0.002339799,-0.269523025,-0.23373045,0.477567971,-0.212679714,0.415960371,1.861367226
2.139923573,0.385596156,0.226780638,-0.902509034,0.078124762,-0.097769707,0.007083699,-0.269179553,-0.233653069,0.477695465,-0.212273598,0.415448368,1.86173892
2.14492178,0.379752159,0.21665366,-0.903534532,0.082028821,-0.088524826,0.013812813,-0.269065678,-0.233627409,0.477737755,-0.211826146,0.414990425,1.862169266
2.14992094,0.378647447,0.213909015,-0.902557015,0.084079601,-0.076959297,0.021816092,-0.268585235,-0.23349677,0.478096396,-0.21134983,0.414599806,1.862589359
2.154921293,0.377210021,0.205717579,-0.902208388,0.082963616,-0.063254274,0.027947402,-0.268029779,-0.233341619,0.478544205,-0.210861385,0.414289981,1.863014221
2.159922838,0.377479315,0.201326117,-0.905507982,0.08222907,-0.04965926,0.035531208,-0.267602354,-0.233222246,0.47888875,-0.210357144,0.414049208,1.86345017
2.164919853,0.380996555,0.199046969,-0.91034162,0.075399756,-0.036874257,0.038939118,-0.267460644,-0.233182669,0.479002982,-0.2098905,0.413879097,1.863873363
2.169917107,0.389255613,0.196018457,-0.913426757,0.069990247,-0.022982433,0.047307406,-0.267351627,-0.233152196,0.479090899,-0.209424064,0.413792253,1.864263296
2.174915552,0.388343126,0.200167403,-0.925127447,0.049283203,-0.006193455,0.057832919,-0.267421633,-0.232875615,0.480249792,-0.209064633,0.413789451,1.86477375
2.179914713,0.389536887,0.201084018,-0.927323461,0.019214345,0.0112404,0.071708269,-0.267475486,-0.232662812,0.481141478,-0.208847955,0.413890541,1.865298033
2.184915304,0.379854441,0.191075444,-0.915554941,-0.011959021,0.033697888,0.089196041,-0.267493337,-0.232592255,0.481437147,-0.208732724,0.414099216,1.865931034
2.189917088,0.377553135,0.192735225,-0.93119657,-0.050402332,0.069717489,0.106362559,-0.267507076,-0.232537955,0.481664628,-0.208807737,0.414527774,1.86665976
2.194914341,0.375754148,0.186846375,-0.942365527,-0.093731724,0.088271298,0.138831511,-0.267539948,-0.232409015,0.481180996,-0.209013611,0.415055603,1.867596984
2.199911594,0.377391011,0.196812361,-0.937114537,-0.137976974,0.114442334,0.178193212,-0.26759389,-0.232197642,0.480243593,-0.209388718,0.415745974,1.868698478
2.204909801,0.364099711,0.226039901,-0.947922826,-0.206497759,0.161165103,0.241054684,-0.267611772,-0.232127547,0.479932755,-0.21004729,0.416697174,1.870327592
2.209909201,0.370669514,0.270081997,-0.940308273,-0.25535351,0.230607331,0.299320906,-0.267625511,-0.232073605,0.479693592,-0.210968941,0.418079048,1.872224331
2.214909554,0.381734431,0.302957535,-0.923080087,-0.248315573,0.323489845,0.332190454,-0.26763007,-0.232055724,0.479614288,-0.211846173,0.420001119,1.874067068
2.219911098,0.406321228,0.346491247,-0.917454481,-0.212084889,0.428897202,0.313672662,-0.268429726,-0.231951892,0.480351657,-0.212707132,0.422471225,1.875628948
2.224907875,0.428083628,0.346457481,-0.953412235,-0.13931115,0.501100481,0.261155188,-0.268694878,-0.231917471,0.480596155,-0.21330303,0.42524001,1.876616359
2.229905605,0.353648245,0.346063375,-0.97216624,-0.068987191,0.551724672,0.224892601,-0.268898875,-0.231890976,0.480784297,-0.213597476,0.427993685,1.878095627
2.234910011,0.368254989,0.333999425,-0.908940792,-0.005666254,0.656960785,0.207802832,-0.268966526,-0.231882185,0.480846643,-0.213698983,0.431301951,1.879033446
2.23990941,0.408408284,0.108871102,-0.94470489,-0.093869045,0.899652779,0.248312205,-0.271497101,-0.231999621,0.478781104,-0.213730335,0.436018378,1.878950715
2.244909525,0.36168775,-0.218588486,-1.03633678,-0.387697667,1.18076241,0.471232951,-0.272949517,-0.232069299,0.477573216,-0.214344442,0.442335457,1.879929304
2.24991107,0.463692397,-0.269156039,-1.033184886,-0.610132694,1.469321489,0.78787899,-0.274067044,-0.232122898,0.476643831,-0.21551995,0.450599432,1.881426454
2.25490737,0.5861426,-0.060996808,-1.150864244,-0.76380688,1.694932818,1.064407349,-0.274437606,-0.232140675,0.476335675,-0.217210233,0.460428357,1.884301543
2.259904861,0.618401527,0.200752214,-1.219153643,-0.840611696,1.778667331,1.296341062,-0.277368605,-0.232352614,0.474114209,-0.21926783,0.470645696,1.889200807
2.264903069,0.575620234,0.546787381,-1.239450336,-0.707913578,1.821974277,1.448499322,-0.281008571,-0.232622802,0.471376628,-0.220751032,0.481025577,1.896215439
2.269902706,0.467464149,0.747283697,-1.274555206,-0.458150655,1.879980803,1.517048001,-0.283809304,-0.232830688,0.469270229,-0.221019253,0.49143523,1.904833674
2.274902821,0.241879478,0.885648787,-1.294319987,-0.113500096,1.942103028,1.509397149,-0.284737945,-0.232899621,0.468571782,-0.219699189,0.501745045,1.915391326
2.279903889,0.062647499,0.859130025,-1.208695769,0.285868347,2.083752632,1.433782101,-0.285452485,-0.232952669,0.468034387,-0.216483325,0.512391984,1.926095128
2.284900665,0.07522653,0.834817767,-1.320443511,0.673021078,2.247398615,1.363132,-0.296082616,-0.231560081,0.461257845,-0.21142599,0.523905575,1.936453938
2.289898396,0.066438228,0.862866998,-1.565934658,0.971636713,2.215823412,1.271991014,-0.304261774,-0.230488569,0.45604378,-0.205014259,0.534777582,1.947670698
2.294896841,0.039324522,0.805810809,-1.678732157,1.211529136,2.109808683,1.129015684,-0.306973845,-0.23013328,0.454314888,-0.197555184,0.544674218,1.958572507
2.299896002,-0.033522896,0.767672658,-1.809329867,1.326057553,1.935858011,0.956683099,-0.309060603,-0.229859903,0.452984631,-0.189824596,0.553306818,1.969617724
2.304896593,-0.179791689,0.69180876,-1.875223398,1.338347077,1.665763497,0.76702553,-0.316343784,-0.226208851,0.449225247,-0.182346374,0.560019076,1.981287837
2.3098979,-0.369319946,0.595767498,-1.852352142,1.276957631,1.38444066,0.594950795,-0.328612506,-0.219799459,0.442977369,-0.175404757,0.564896584,1.993157268
2.314894676,-0.563259006,0.535348475,-1.780682087,1.164219141,1.116983533,0.452932924,-0.332680613,-0.217674226,0.44090572,-0.169273421,0.568129063,2.005224943
2.319891691,-0.740506411,0.507124662,-1.695776224,1.031960368,0.86767453,0.340718299,-0.335810751,-0.216039002,0.439311713,-0.164047241,0.569882512,2.017501354
2.324890137,-0.879468262,0.495751649,-1.600717306,0.899962246,0.647424638,0.267329514,-0.336848617,-0.215496793,0.438783169,-0.159613281,0.570412278,2.030030012
2.329889297,-0.97353673,0.51131618,-1.531096697,0.788308561,0.445728064,0.229964823,-0.347344905,-0.206394464,0.437029243,-0.155797899,0.569879353,2.042972088
2.33488965,-1.01391387,0.508894563,-1.486976743,0.699120998,0.257818013,0.21187745,-0.35082528,-0.203376308,0.43644765,-0.152370259,0.568410695,2.055918694
2.339891195,-1.014108658,0.481284529,-1.473296046,0.60175693,0.074589804,0.208780169,-0.353503168,-0.201054037,0.436000168,-0.149275288,0.566079795,2.068720341
2.344887733,-0.984560907,0.43851459,-1.467528224,0.4798567,-0.119124606,0.211927429,-0.354391128,-0.200284019,0.435851812,-0.146610215,0.56284827,2.081232548
2.349884987,-0.937351108,0.406494379,-1.471745968,0.332234681,-0.31264779,0.214486375,-0.357048661,-0.196969166,0.434663594,-0.144553274,0.558730602,2.093545198
2.354883671,-0.875756204,0.382355481,-1.480502725,0.156586304,-0.517149687,0.213568136,-0.358418405,-0.19519636,0.4340038,-0.143279046,0.553683817,2.105505943
2.35988307,-0.805461407,0.37029171,-1.473240972,-0.023323432,-0.724754155,0.203886315,-0.359472334,-0.193832308,0.433496147,-0.142869309,0.547703564,2.116984606
2.364883423,-0.73816371,0.3776021,-1.462419868,-0.197707146,-0.929918885,0.184153825,-0.359821796,-0.193380013,0.433327824,-0.143338665,0.540811002,2.12803936
2.369890928,-0.670100987,0.404498935,-1.443638563,-0.346199721,-1.12846148,0.162537336,-0.358686745,-0.192839608,0.435095161,-0.144604847,0.533050001,2.138644457
2.37489295,-0.613371789,0.440955579,-1.404819369,-0.457831681,-1.311807871,0.12480285,-0.356894642,-0.192466408,0.437593967,-0.146535695,0.524454594,2.14880085
2.37989068,-0.554370463,0.476197481,-1.371677637,-0.530938327,-1.46552515,0.085515007,-0.355515748,-0.192179263,0.439516604,-0.148932591,0.515230596,2.158483982
2.384889126,-0.50608772,0.487119466,-1.3433218,-0.579013169,-1.602129579,0.039716139,-0.355058521,-0.192084044,0.440154135,-0.151638135,0.505411029,2.167693138
2.389888525,-0.454163015,0.482254624,-1.31078124,-0.616231441,-1.710272193,-0.014663777,-0.354706705,-0.192010775,0.440644652,-0.154601738,0.495147318,2.176211119
2.394888639,-0.401470006,0.466931522,-1.290183663,-0.652364194,-1.805931568,-0.077353783,-0.348152548,-0.194365337,0.444347143,-0.157825291,0.484494597,2.183865309
2.399890184,-0.350693107,0.44676581,-1.259860158,-0.693157852,-1.879045486,-0.145526499,-0.343109548,-0.196177021,0.447195947,-0.161371499,0.473548532,2.190764666
2.404886484,-0.293890923,0.437582374,-1.242323995,-0.734953165,-1.937691331,-0.217405066,-0.341437399,-0.196777731,0.448140591,-0.165254578,0.462397724,2.19694066
2.409883976,-0.238232449,0.433869272,-1.224403143,-0.76952827,-1.990798116,-0.289099395,-0.340150803,-0.19723995,0.44886741,-0.169449612,0.451044083,2.202433348
2.414881945,-0.176812246,0.434172124,-1.204166532,-0.793615818,-2.040450096,-0.358445108,-0.334160358,-0.199962214,0.451346606,-0.173874378,0.439521372,2.206988096
2.419881582,-0.117236882,0.445661098,-1.177603483,-0.803280473,-2.085776567,-0.423153996,-0.323925197,-0.20465447,0.455517352,-0.178466037,0.427837998,2.210904121
2.424881697,-0.055084735,0.459357649,-1.153364539,-0.799424589,-2.119505167,-0.494716167,-0.320531428,-0.20621033,0.456900299,-0.183176965,0.41605702,2.214189053
2.429883242,0.002065093,0.462242842,-1.132006168,-0.777835906,-2.14373517,-0.572553575,-0.317920148,-0.20740746,0.457964391,-0.187888548,0.404213309,2.216789961
2.43487978,0.047543544,0.463987052,-1.110821486,-0.742322028,-2.159732103,-0.650200546,-0.317054272,-0.207804412,0.45831722,-0.192521334,0.392306685,2.218635798
2.439877033,0.083115526,0.463487148,-1.092173934,-0.69263649,-2.167694807,-0.731590152,-0.300376654,-0.215399086,0.463325083,-0.197016865,0.380370617,2.219662428
2.44487524,0.111816831,0.456640631,-1.075423241,-0.639153004,-2.167363882,-0.817049503,-0.294846684,-0.217917338,0.464985609,-0.201343074,0.368422151,2.220093489
2.449874878,0.137230098,0.436903983,-1.054921865,-0.58987236,-2.157757044,-0.894738734,-0.290591747,-0.219854966,0.466263294,-0.205478728,0.356520712,2.219911337
2.454875469,0.163621202,0.412681639,-1.03767097,-0.552522838,-2.141047716,-0.968303263,-0.289180875,-0.220497444,0.466686934,-0.209473059,0.344689727,2.219136477
2.459876776,0.188410267,0.376766354,-1.021684527,-0.531728566,-2.115410805,-1.034955382,-0.274342179,-0.227328464,0.470013052,-0.213382751,0.332985222,2.217302561
2.464873552,0.212636545,0.340734243,-1.00686729,-0.526409686,-2.084832191,-1.09465909,-0.266018659,-0.231161535,0.471858323,-0.217258945,0.321425557,2.214907408
2.469870567,0.237497315,0.304492414,-0.994608581,-0.539351761,-2.051160336,-1.14287889,-0.259616137,-0.234111086,0.473262101,-0.221178323,0.31004858,2.211987972
2.474869013,0.262886584,0.275972426,-0.984745443,-0.565509975,-2.014566422,-1.178767681,-0.257493198,-0.235089093,0.473727554,-0.225210652,0.298859298,2.208646536
2.479868412,0.29708907,0.255120814,-0.988268673,-0.609004915,-1.989081621,-1.200125217,-0.247404262,-0.238942593,0.474710345,-0.229406208,0.287832081,2.204730034
2.484868765,0.353818446,0.230133653,-1.012946486,-0.673287034,-1.977226019,-1.225234628,-0.235532492,-0.243347377,0.475666106,-0.23385267,0.276928067,2.200130701
2.48987031,0.41968447,0.197590366,-1.039582014,-0.749925375,-1.998645663,-1.249552488,-0.226397976,-0.246736556,0.476401478,-0.238581851,0.265957475,2.195015192
2.494866848,0.489736915,0.1797892,-1.063858271,-0.834069967,-2.036903143,-1.280522346,-0.223369136,-0.247860342,0.476645321,-0.243681535,0.254875243,2.189382792
2.49986434,0.541280389,0.18027924,-1.083084583,-0.91636759,-2.097109079,-1.303929567,-0.221038654,-0.248725027,0.476832926,-0.249127984,0.243515685,2.183461189
2.504868507,0.58936429,0.189945459,-1.089648128,-0.985380411,-2.162680864,-1.333966613,-0.206711724,-0.254761875,0.476893634,-0.254886091,0.231869459,2.176988602
2.509867668,0.633255482,0.210336342,-1.092831731,-1.029106736,-2.236710548,-1.362039447,-0.195688114,-0.259406775,0.476940364,-0.260814339,0.219891399,2.170395851
2.514868498,0.671981454,0.239094004,-1.091712117,-1.040483117,-2.315665007,-1.388711452,-0.192032889,-0.260946959,0.476955861,-0.266766101,0.207547754,2.163732052
2.519870043,0.687914252,0.25868994,-1.076788902,-1.0216676,-2.399178505,-1.409975529,-0.189220443,-0.262132019,0.476967782,-0.272562623,0.194797978,2.157139778
2.524866819,0.683662713,0.265130669,-1.052665472,-0.982984424,-2.464960337,-1.425425649,-0.179906949,-0.266126126,0.476403087,-0.278082609,0.181703538,2.150333881
2.529864073,0.668380797,0.244420931,-1.01951158,-0.934185624,-2.510817051,-1.435568213,-0.164266393,-0.272840708,0.475393623,-0.283245027,0.168375671,2.143520832
2.534862518,0.6428442,0.200075462,-0.976145625,-0.891008973,-2.526298761,-1.435344934,-0.159080282,-0.275067121,0.475058913,-0.288059533,0.154969782,2.136769295
2.539861917,0.613328159,0.14851591,-0.933985531,-0.867363513,-2.514422655,-1.420061231,-0.155089915,-0.276780218,0.474801362,-0.292620242,0.14164497,2.130121231
2.544862509,0.587383628,0.105864346,-0.89685595,-0.862520754,-2.479084492,-1.38959527,-0.153766781,-0.27734825,0.474715978,-0.297059476,0.128522024,2.12346673
2.549864292,0.569521606,0.074009828,-0.870448172,-0.86673075,-2.422328949,-1.341006279,-0.13168636,-0.285844266,0.472242147,-0.301421046,0.115749411,2.116741896
2.554861069,0.564639211,0.054082002,-0.847759783,-0.877129436,-2.354748487,-1.275995374,-0.124364905,-0.288661391,0.471421868,-0.305756152,0.103418261,2.110263586
2.559858322,0.569666922,0.049938872,-0.826386869,-0.882300854,-2.27491045,-1.203336954,-0.118731551,-0.290828973,0.470790744,-0.310063273,0.091609299,2.104038239
2.564856529,0.577034116,0.061277892,-0.807401419,-0.874496698,-2.197591782,-1.116898298,-0.116863638,-0.291547686,0.470581472,-0.314306974,0.080337025,2.098215103
2.56985569,0.589106619,0.078507394,-0.791813612,-0.84665674,-2.127167225,-1.019180894,-0.099938773,-0.296897948,0.467470258,-0.318377137,0.069580413,2.092336416
2.574856043,0.59794414,0.090848185,-0.778393149,-0.807977438,-2.060019016,-0.913604498,-0.09049435,-0.299859107,0.465708613,-0.322204351,0.059339076,2.086892605
2.579857588,0.60108453,0.081661336,-0.760023713,-0.768780649,-1.997264862,-0.813550353,-0.083227508,-0.302137494,0.464353144,-0.325785756,0.049548931,2.081853151
2.584854364,0.601122379,0.051198114,-0.750232637,-0.749368966,-1.93590498,-0.718491495,-0.08081796,-0.302892983,0.463903695,-0.329182297,0.04023261,2.077089071
2.589851618,0.600375891,0.025129627,-0.741827309,-0.752056718,-1.877497554,-0.625985742,-0.071478225,-0.305478901,0.462067276,-0.332560956,0.031338107,2.072404623
2.594849825,0.606034756,0.004914183,-0.743090689,-0.775744855,-1.829363585,-0.537751675,-0.06083275,-0.308357805,0.459955275,-0.336033404,0.022839123,2.067822695
2.599849224,0.615834117,-0.002827515,-0.744551301,-0.814737082,-1.794436574,-0.452447891,-0.052641779,-0.310572952,0.458330244,-0.339696944,0.014655223,2.063562393
2.604849339,0.634658813,0.009414367,-0.762892365,-0.857349813,-1.762424111,-0.373129815,-0.049925812,-0.31130746,0.457791418,-0.343591332,0.006813566,2.059551001
2.609851122,0.648240149,0.028472196,-0.767961621,-0.893395603,-1.757342696,-0.2979334,-0.047836058,-0.311872602,0.457376838,-0.347710967,-0.000865208,2.055854559
2.614847898,0.660239398,0.051039606,-0.762315452,-0.91116333,-1.758687496,-0.230237454,-0.037642017,-0.315274507,0.453601003,-0.351955771,-0.008400632,2.052271605
2.61984539,0.669182599,0.080884218,-0.756361067,-0.912100255,-1.766466618,-0.169195801,-0.029798398,-0.317892075,0.450695753,-0.356263071,-0.015848961,2.049096584
2.624843836,0.660487533,0.107289553,-0.742211401,-0.895081282,-1.767363071,-0.117029615,-0.027197601,-0.318759978,0.449732423,-0.360544086,-0.02322842,2.046392679
2.629843235,0.647612274,0.118253,-0.720039189,-0.863450527,-1.752960205,-0.072749928,-0.025196467,-0.319427788,0.448991209,-0.364694655,-0.030451849,2.044049501
2.634843349,0.637711346,0.117715441,-0.690555751,-0.82941103,-1.721002817,-0.031310178,-0.019590957,-0.321350425,0.446686685,-0.368691772,-0.037447337,2.041731834
2.639851093,0.626418769,0.120573744,-0.653657973,-0.795854807,-1.670827389,0.006396532,-0.010280794,-0.324549943,0.442831784,-0.372573972,-0.044116039,2.03961277
2.64485383,0.618053973,0.132180288,-0.606075585,-0.75684154,-1.594029546,0.042204455,-0.007193719,-0.325610876,0.441553593,-0.376329064,-0.050359968,2.037719727
2.649851322,0.610489607,0.146816373,-0.572881043,-0.715880513,-1.504851341,0.069584787,-0.004818426,-0.326427162,0.440570086,-0.379941761,-0.056114208,2.035962105
2.654849768,0.608941674,0.161485165,-0.53757745,-0.666110158,-1.393591642,0.096394718,-0.004030824,-0.326697856,0.440243989,-0.383350223,-0.061281227,2.034156561
2.659848928,0.617313445,0.180967197,-0.512952685,-0.613309741,-1.272426128,0.110636622,0.005823021,-0.33063826,0.435348481,-0.386532664,-0.065815575,2.032086611
2.66484952,0.628357947,0.203008816,-0.498028606,-0.549888372,-1.153814793,0.108478233,0.00909037,-0.331944823,0.433725208,-0.389441729,-0.069768094,2.029794216
2.669851065,0.63636893,0.218408361,-0.480189651,-0.482321262,-1.029148936,0.091900393,0.011604372,-0.332950145,0.432476223,-0.392016202,-0.073164098,2.02721262
2.67484808,0.642903984,0.231965914,-0.463419497,-0.407481551,-0.896708667,0.060942639,0.012437968,-0.333283484,0.432062089,-0.394216031,-0.075994536,2.024264336
2.679845572,0.651730895,0.24828282,-0.460346013,-0.328070134,-0.762962937,0.017514724,0.018677732,-0.335195512,0.429195553,-0.396018445,-0.078246608,2.020629883
2.684844255,0.662578344,0.260230958,-0.459256858,-0.248208269,-0.641187012,-0.027668014,0.022132052,-0.336239189,0.42761457,-0.397400022,-0.080015652,2.016504049
2.689843416,0.66400671,0.26515919,-0.460560203,-0.166466668,-0.521347582,-0.078086808,0.024789916,-0.337042212,0.426398128,-0.398338348,-0.081337385,2.011900663
2.694844007,0.66162622,0.258217931,-0.455163598,-0.084014535,-0.409799397,-0.127310529,0.025671214,-0.337308496,0.425994754,-0.39881295,-0.082248576,2.006849051
2.699845314,0.650553823,0.240262479,-0.446238697,-0.007017249,-0.299694449,-0.160519153,0.027797753,-0.337953359,0.424795896,-0.398849577,-0.082744099,2.001410961
2.704842091,0.639883399,0.219581217,-0.433181047,0.05981192,-0.181278959,-0.179420531,0.029963473,-0.338610888,0.423502356,-0.398506403,-0.082745112,1.99565208
2.709839582,0.640375018,0.193612009,-0.432467341,0.121232562,-0.063669965,-0.183106884,0.031629845,-0.339116812,0.422507077,-0.397802174,-0.082197629,1.989538312
2.71483779,0.654592097,0.162928939,-0.433767259,0.172711745,0.047313362,-0.16936478,0.032182384,-0.339284539,0.422177076,-0.396784604,-0.081090085,1.983051419
2.719837189,0.686335802,0.129230708,-0.439745486,0.208042875,0.149119943,-0.138657853,0.032607526,-0.339413643,0.421923161,-0.395538807,-0.079389319,1.97613728
2.724837303,0.744943261,0.102618001,-0.454959393,0.227266446,0.233580902,-0.092734993,0.034383141,-0.338981539,0.42160517,-0.394166231,-0.077089615,1.968667269
2.729838848,0.802399278,0.082122087,-0.460293323,0.239178494,0.300924659,-0.038930245,0.035749357,-0.338649064,0.421360493,-0.392728657,-0.074307323,1.960841775
2.734835386,0.853678823,0.07273595,-0.463662833,0.250737697,0.358806938,0.024768937,0.036202367,-0.338538826,0.421279371,-0.391241312,-0.0710482,1.952802181
2.739832878,0.90299207,0.062659517,-0.46174702,0.258175343,0.412925035,0.096701361,0.036550928,-0.338454008,0.421216965,-0.389717817,-0.06732133,1.944608212
2.744831562,0.954429269,0.045322876,-0.454940647,0.260910481,0.464941919,0.168173194,0.036483683,-0.337552339,0.421636581,-0.388179183,-0.063139722,1.936238647
2.749830961,1.002585173,0.021857066,-0.438931882,0.256063938,0.517328799,0.242593884,0.036247078,-0.33597523,0.422404647,-0.386658192,-0.058495957,1.927695632
2.754831076,-0.117677957,0.155321717,-0.51209867,0.3432827,0.817918122,0.487559915,0.036168627,-0.335452318,0.422659308,-0.385093749,-0.054152559,1.928118467
2.759832859,0.922148228,0.269484103,0.255099118,1.199480176,1.512036204,0.491221249,0.036108259,-0.335049957,0.422855258,-0.379312485,-0.044735014,1.922507048
2.764829397,0.194071293,-0.149973154,0.356669545,1.029097319,2.223354101,0.945540369,0.036088243,-0.334916562,0.422920227,-0.373833239,-0.030909568,1.918023944
2.769826889,-1.160100818,-0.055179942,0.099675462,1.228586435,2.542268038,0.984981716,0.032730374,-0.332497716,0.425491154,-0.367709577,-0.020111859,1.929939628
2.774831295,-0.26520294,0.128747359,0.13070862,1.289329529,3.53103137,1.278364897,0.031616967,-0.331695676,0.42634359,-0.361295998,-0.001175326,1.929908514
2.779831409,-0.182805419,0.166033328,-1.170659184,0.991821826,4.175484657,1.307548285,0.030760275,-0.331078559,0.426999509,-0.355892718,0.021674577,1.927127361
2.784831524,-0.284162253,0.075749844,-1.967344046,0.7460379,3.916894436,1.36531651,0.030476213,-0.330873936,0.427217007,-0.351365745,0.041807082,1.926518798
2.789833307,0.27537033,0.51520133,-1.858656645,0.882919788,3.666348219,1.346769333,0.018351315,-0.326087028,0.430610985,-0.346824437,0.061628137,1.9233073
2.794829845,0.352470964,0.698756337,-1.735699058,1.034359574,3.431393862,1.351256728,0.011384674,-0.323354214,0.432534814,-0.341819882,0.080370277,1.921209931
2.79982686,0.476897031,0.59980005,-1.340167046,1.23684442,3.271022081,1.353323221,0.006024318,-0.321251512,0.434015065,-0.335609555,0.098386899,1.918660283
2.804825306,0.417179644,0.171516925,-1.052305937,1.238624573,3.467081547,1.378736019,0.004246925,-0.320554286,0.43450588,-0.328708351,0.117500491,1.915165067
2.809824467,0.494240969,-0.198095486,-1.011110425,0.992450178,3.73323822,1.44079113,-0.007918444,-0.317345709,0.436123788,-0.322662771,0.138268709,1.910820603
2.81482482,0.714044273,-0.050054327,-1.117977619,0.711603463,3.893523455,1.35574317,-0.022840688,-0.313587278,0.437910944,-0.318601906,0.160148963,1.904641986
2.819826365,0.895368934,0.056464005,-1.316928983,0.500437558,3.92673111,1.188600659,-0.03432234,-0.31069544,0.439286053,-0.315846622,0.181850582,1.897080779
2.824823618,1.325428128,0.17377457,-1.579857826,0.380313575,3.796149731,1.041457176,-0.038129441,-0.30973655,0.439741999,-0.313729048,0.203366846,1.886151314
2.829820633,1.517801166,0.259184152,-1.800053716,0.216192201,3.385190248,0.98293215,-0.041058742,-0.308998764,0.440092832,-0.31236738,0.222798184,1.875103831
2.83481884,1.360330582,0.269787878,-1.738336086,0.164586022,2.947394371,0.929108918,-0.060640506,-0.30397898,0.439730018,-0.311176181,0.239338771,1.867104769
2.839818001,1.122557282,0.185711369,-1.526380301,0.099289551,2.655438185,0.945595682,-0.075707339,-0.300116599,0.43945086,-0.310088992,0.254306644,1.860974193
2.844818354,0.878590465,0.192456707,-1.321611762,0.089203522,2.464123249,0.981571615,-0.080703221,-0.298835933,0.439358294,-0.309049487,0.268101901,1.857232571
2.849819899,0.75147295,0.233498305,-1.160758257,0.074850917,2.373816252,1.026865244,-0.084547214,-0.297850519,0.439287096,-0.308123112,0.281489491,1.854470611
2.854816437,0.871654034,0.346725285,-1.146160364,0.107029386,2.290125608,1.050872803,-0.09447512,-0.296383828,0.438441604,-0.307124496,0.294857353,1.851442456
2.859813929,0.92254734,0.590908647,-1.180143595,0.131118476,2.082074404,1.012513876,-0.11086382,-0.294102639,0.436959982,-0.30636695,0.307070673,1.849049926
2.864812374,0.892535985,0.747894526,-1.075985312,0.221327797,1.915514946,0.905695081,-0.116297998,-0.293346256,0.43646872,-0.305551827,0.318121612,1.846840739
2.869811773,0.906731129,0.824726164,-0.997178435,0.319212794,1.799448729,0.789674819,-0.120479234,-0.292764246,0.436090708,-0.304461062,0.328620911,1.84404707
2.874812126,0.743972063,0.845811307,-0.865072787,0.427907974,1.692500591,0.702902615,-0.121865653,-0.292571276,0.435965389,-0.302998543,0.338139564,1.842289209
2.879813671,0.734895051,0.735030055,-0.845407546,0.627982378,1.658155084,0.671985865,-0.138231039,-0.288991421,0.431815982,-0.300298482,0.347569853,1.840361118
2.884810209,0.750304997,0.53976059,-0.95671767,0.728982508,1.530750155,0.643112481,-0.143657491,-0.287804425,0.430440098,-0.296521068,0.356372774,1.838063478
2.889808655,0.685527742,0.310168564,-1.002320051,0.785175562,1.402873158,0.615973651,-0.147832781,-0.286891073,0.42938149,-0.292103112,0.364304394,1.836036325
2.8948071,0.699454308,0.214105114,-1.097415686,0.828198373,1.25582993,0.623370171,-0.149217233,-0.286588222,0.429030448,-0.287213713,0.37152192,1.834443569
2.899806499,0.798838556,0.105726704,-1.178255916,0.817130506,1.040560246,0.652370393,-0.15907757,-0.283040702,0.428107083,-0.281927109,0.377918422,1.832573771
2.904806614,0.752919555,0.163044736,-1.136287332,0.782058656,0.833864927,0.627924323,-0.164523453,-0.281044245,0.427639276,-0.277000487,0.383054227,1.83167243
2.909814596,0.783002913,0.294642448,-1.114639163,0.73749429,0.695275903,0.54618299,-0.168713689,-0.279508084,0.427279323,-0.272671014,0.387536466,1.830488205
2.914817333,0.700128555,0.283225298,-1.091234803,0.706722796,0.555555224,0.444734544,-0.170103103,-0.278998762,0.427159965,-0.268595725,0.391023338,1.829517126
2.919815063,0.61863023,0.28656131,-1.051575065,0.666111708,0.461603284,0.365630776,-0.174481824,-0.276202172,0.427384317,-0.264836788,0.393831909,1.828990698
2.924813509,0.600101769,0.232876062,-1.076358676,0.607010663,0.385445893,0.289892465,-0.179271191,-0.272850007,0.427777559,-0.26136893,0.39623487,1.8281883
2.929812908,0.584281683,0.152662024,-1.074310303,0.54014951,0.292151839,0.250671595,-0.182956278,-0.270270765,0.428080142,-0.258114636,0.398081005,1.827301025
2.934813261,0.523814678,0.120217763,-1.029248834,0.476253361,0.208298042,0.234030515,-0.184178174,-0.269415528,0.428180486,-0.25515002,0.399434626,1.826754332
2.939814806,0.505928755,0.14130637,-0.970344245,0.407554179,0.183077186,0.217900634,-0.185118362,-0.268757492,0.428257674,-0.252615929,0.40067476,1.826209545
2.944811583,0.508438826,0.209999293,-0.977745533,0.354310453,0.168221414,0.166839823,-0.188208327,-0.265629232,0.429385722,-0.250604391,0.4018417,1.825597763
2.949808836,0.505588531,0.185309723,-0.978698969,0.314357668,0.125879079,0.12238092,-0.190585852,-0.263222247,0.430253685,-0.248768657,0.402676404,1.824788332
2.954807281,0.5044052,0.143552467,-0.976359427,0.265397519,0.098252803,0.097811855,-0.191374183,-0.262424141,0.430541486,-0.247142151,0.403385282,1.823746085
2.959806681,0.451847494,0.13799718,-0.958335221,0.224528342,0.056876887,0.108274959,-0.191980764,-0.261810035,0.430762917,-0.245655939,0.403821945,1.823234439
2.964806795,0.412635386,0.193126723,-0.911168933,0.184383541,0.055663723,0.093320645,-0.192957357,-0.260695308,0.430980653,-0.244575694,0.4041816,1.822973251
2.969808578,0.387903124,0.23291938,-0.90118885,0.160295993,0.083031185,0.069841966,-0.194492906,-0.258916348,0.431294113,-0.243740514,0.404648125,1.822772026
2.974805355,0.389777094,0.245234296,-0.908694685,0.149104849,0.097744018,0.065028161,-0.195002064,-0.258326471,0.431398064,-0.242982507,0.405194223,1.822473884
2.97980237,0.392597169,0.246544465,-0.909577131,0.14709945,0.104549319,0.07110364,-0.195393831,-0.257872611,0.431478053,-0.242196396,0.40577814,1.822207093
2.984801769,0.395569116,0.256826282,-0.907956481,0.152970701,0.102802143,0.080380991,-0.195523724,-0.25772211,0.431504548,-0.241368666,0.406369537,1.821995497
2.98980093,0.392425269,0.247721508,-0.894092679,0.159678817,0.112196289,0.079690732,-0.19577527,-0.256315291,0.432035834,-0.240510464,0.406997353,1.821741104
2.994801521,0.389995724,0.233309865,-0.897151589,0.159940243,0.125799611,0.078745425,-0.195858687,-0.255848795,0.432211995,-0.239629731,0.407689661,1.821475983
2.999802828,0.398765266,0.214082584,-0.906338513,0.15365155,0.138978079,0.076177336,-0.195922866,-0.255489886,0.432347536,-0.238740712,0.408450544,1.821091652
3.004799604,0.389574051,0.19777149,-0.924190283,0.14062272,0.140032694,0.079688512,-0.195944145,-0.255370855,0.432392508,-0.23789987,0.409214646,1.820802212
3.009796619,0.397877663,0.198353633,-0.917209029,0.126948223,0.143137872,0.079832494,-0.196717203,-0.254502207,0.43243295,-0.237130806,0.409976095,1.820496798
3.014795065,0.397337258,0.190227106,-0.927446008,0.108193099,0.152286857,0.086391792,-0.197160766,-0.254021913,0.432447851,-0.236434415,0.410816789,1.820184231
3.019794464,0.381284058,0.204711303,-0.92029655,0.093311615,0.149740845,0.095830299,-0.197502077,-0.253652304,0.432459295,-0.235818088,0.411606282,1.820129037
3.024794817,0.373359919,0.208333775,-0.898828983,0.085764818,0.165803969,0.099785022,-0.197615251,-0.253529757,0.43246308,-0.235277489,0.412479281,1.820014834
3.029796362,0.380147815,0.219148025,-0.906968117,0.08001098,0.170875534,0.106105886,-0.198159486,-0.253133923,0.432918131,-0.234751105,0.413408518,1.81996572
3.0347929,0.394070476,0.222871229,-0.908159137,0.078141481,0.170198247,0.115647927,-0.198800951,-0.2526986,0.433524907,-0.234206885,0.414360434,1.819858551
3.039790392,0.399175853,0.228052795,-0.901605189,0.0794039,0.17222546,0.115960076,-0.199294508,-0.252363652,0.43399182,-0.233682245,0.415304482,1.819725752
3.044795036,0.395812511,0.217739344,-0.904343009,0.076749921,0.175648764,0.114227973,-0.199458167,-0.252252549,0.434146643,-0.233143151,0.416275054,1.819582701
3.049795151,0.399256021,0.206059948,-0.904260695,0.07201691,0.177365899,0.111804873,-0.199584082,-0.252167076,0.434265763,-0.232612833,0.417254031,1.819386482
3.054795504,0.407369137,0.209272802,-0.902828217,0.076258563,0.176558092,0.110626899,-0.200625718,-0.251617342,0.433630526,-0.2320856,0.418236554,1.819159269
3.059797049,0.414431632,0.227729678,-0.902130604,0.086806975,0.168053061,0.109031901,-0.201427191,-0.251194388,0.433141768,-0.23153086,0.419182271,1.818939209
3.064793587,0.41361782,0.244351655,-0.892895699,0.109354816,0.165434584,0.105847143,-0.201692939,-0.251054138,0.432979703,-0.230892926,0.42010358,1.818724155
3.069791079,0.410409451,0.250419259,-0.883113265,0.142873064,0.163231924,0.091854341,-0.201897413,-0.250946224,0.43285501,-0.230144292,0.420998245,1.81843996
3.074789047,0.405772448,0.253134608,-0.878924847,0.175437018,0.166968212,0.080024272,-0.202507272,-0.250606745,0.433323234,-0.22923921,0.421892643,1.818142056
3.079788685,0.396028668,0.235567704,-0.875028849,0.201991528,0.175026745,0.075253189,-0.203524604,-0.250038445,0.434198767,-0.228186563,0.422809482,1.817823172
3.084789038,0.3957555,0.235180259,-0.882201076,0.214633867,0.180715695,0.073169678,-0.203861937,-0.24984999,0.434489071,-0.227080896,0.423757076,1.817531943
3.089790583,0.392257124,0.230154976,-0.892487943,0.221298844,0.187469423,0.078061044,-0.204121485,-0.249705002,0.43471244,-0.22593528,0.424720854,1.817282677
3.094787121,0.393999547,0.245325923,-0.896227181,0.22560665,0.184334397,0.087858312,-0.204207554,-0.249656931,0.434786499,-0.224780574,0.425677001,1.817179799
3.099784374,0.383060664,0.241223544,-0.89627099,0.231901973,0.186199084,0.104552545,-0.205674827,-0.248389497,0.433484972,-0.223541692,0.426645011,1.817231417
3.104782581,0.381758183,0.257793635,-0.894939303,0.239309311,0.191401929,0.114363447,-0.206161335,-0.24796924,0.433053434,-0.22228229,0.427637696,1.817400813
3.109782219,0.381138355,0.258959472,-0.889707446,0.254779279,0.209151357,0.113231905,-0.206535667,-0.24764587,0.432721376,-0.220967218,0.428732067,1.81748867
3.114782572,0.39121753,0.239682004,-0.886462688,0.265357465,0.223462924,0.112439297,-0.206659794,-0.247538656,0.432611287,-0.219569862,0.429909766,1.817432046
3.119783878,0.418542713,0.218238741,-0.888110161,0.265539229,0.236937419,0.107214868,-0.207866058,-0.246313274,0.432879299,-0.218162298,0.431209445,1.817137957
3.124780655,0.427111208,0.194942862,-0.893784344,0.2504794,0.226057336,0.108390883,-0.208540902,-0.245624155,0.43305546,-0.216755331,0.432448059,1.816794753
3.129778147,0.428111464,0.182229042,-0.88393414,0.242088079,0.223577052,0.106413029,-0.209060162,-0.245093927,0.433191001,-0.215391025,0.433661461,1.816416025
3.134776592,0.435411721,0.185120806,-0.896279752,0.226865187,0.211357743,0.114004888,-0.20923233,-0.244918108,0.433235943,-0.214076653,0.434839129,1.816112757
3.13977623,0.441600889,0.187071413,-0.882350385,0.211774036,0.195365906,0.110878445,-0.209825963,-0.2441376,0.433411747,-0.212877557,0.43591845,1.815733552
3.14477706,0.444814682,0.170797765,-0.887188077,0.198079601,0.187661827,0.115752324,-0.210487843,-0.243228137,0.433612436,-0.211678505,0.436995834,1.81535244
3.149778605,0.437699854,0.169334963,-0.88845706,0.177962422,0.164499611,0.119911686,-0.210997105,-0.242528379,0.433766872,-0.210573748,0.437932253,1.815132856
3.154775381,0.435377032,0.176168725,-0.882317066,0.160240456,0.150789097,0.125008315,-0.211165965,-0.242296353,0.433818102,-0.209538385,0.438807726,1.814953566
3.159772396,0.428972781,0.19129625,-0.88221705,0.150325894,0.136203989,0.138531253,-0.211295888,-0.242117822,0.433857501,-0.208564579,0.439616531,1.814935446
3.164770842,0.422899544,0.217872098,-0.866960227,0.155820608,0.134019017,0.136223808,-0.212344363,-0.241228133,0.433634877,-0.207614332,0.440402091,1.814997435
3.169770002,0.418812335,0.223325193,-0.865047634,0.160707489,0.146929368,0.134570241,-0.213151082,-0.240543574,0.433463603,-0.206665486,0.441263229,1.81503427
3.174770832,0.422186196,0.216264278,-0.868494034,0.169699043,0.152971104,0.136390835,-0.213418573,-0.240316585,0.4334068,-0.205629274,0.442161143,1.815074325
3.179778337,0.431301564,0.215476438,-0.867585361,0.173815385,0.154066324,0.132722288,-0.213624403,-0.240141928,0.43336308,-0.20459111,0.443063796,1.815000653
3.184780836,0.434752703,0.194045022,-0.878163874,0.168410003,0.149711415,0.134405673,-0.214237407,-0.239523515,0.433520317,-0.203500286,0.443946064,1.81492281
3.18977809,0.436783493,0.181230903,-0.878275096,0.161725596,0.138926834,0.135781139,-0.215259895,-0.238480926,0.433814913,-0.20244953,0.444765329,1.814860702
3.194776535,0.443657339,0.178763285,-0.885518789,0.155210331,0.126222,0.147457689,-0.215598941,-0.238135234,0.433912575,-0.201365799,0.44555372,1.814877748
3.199775696,0.440138102,0.190835536,-0.879572392,0.143998697,0.115583129,0.145345137,-0.215859801,-0.237869233,0.433987737,-0.200401902,0.446265042,1.814932704
3.204776287,0.43471694,0.18724978,-0.876948833,0.130182117,0.108601339,0.149991944,-0.215946287,-0.237781033,0.434012651,-0.199462637,0.446953595,1.81502068
3.209777594,0.430030704,0.187746048,-0.881522834,0.129116416,0.100918546,0.152283013,-0.217227221,-0.236190632,0.43547526,-0.198518381,0.447594255,1.815208793
3.21477437,0.430051237,0.188634202,-0.886751354,0.120225787,0.09045589,0.158642545,-0.217651963,-0.235663295,0.435960233,-0.197606802,0.448170662,1.815449357
3.219771624,0.434468597,0.17596963,-0.891050816,0.108884126,0.082714416,0.157999426,-0.217978761,-0.235257536,0.436333388,-0.19672519,0.44872728,1.815639257
3.224770069,0.428505749,0.171847865,-0.894442439,0.097236715,0.076894149,0.165679023,-0.218087122,-0.235122994,0.436457127,-0.195860997,0.44923991,1.815957308
3.22976923,0.428816199,0.166405141,-0.885101497,0.087501168,0.08101517,0.163490251,-0.219019815,-0.23450546,0.435383201,-0.195083693,0.449782968,1.816228509
3.234770536,0.428523451,0.17071107,-0.892274737,0.071180634,0.083231553,0.161443546,-0.21953924,-0.234173506,0.434737802,-0.194374204,0.450332493,1.816532612
3.23977232,0.427781224,0.178097144,-0.897191465,0.059705753,0.086515538,0.160140887,-0.219938904,-0.233918086,0.434241235,-0.193752944,0.450902134,1.816874743
3.244769335,0.427343398,0.174083248,-0.896294892,0.054260716,0.086837418,0.160794556,-0.220071435,-0.233833387,0.434076577,-0.19314678,0.451456726,1.817185283
3.249766588,0.426202774,0.166658103,-0.895984113,0.044199798,0.085739695,0.165796429,-0.220435739,-0.233323321,0.434703678,-0.192561418,0.452015042,1.817551613
3.254764795,0.43161723,0.164699301,-0.897766411,0.033085581,0.091029331,0.170159668,-0.220821068,-0.232705563,0.435671717,-0.192012608,0.452611625,1.817885876
3.259764194,0.432507247,0.164791033,-0.894870937,0.01592396,0.096040636,0.171713978,-0.221117571,-0.232230246,0.436416537,-0.191555873,0.453234106,1.818196058
3.264764309,0.428628534,0.167227536,-0.902603209,0.007783256,0.104084417,0.183799952,-0.221215889,-0.232072622,0.436663508,-0.191121057,0.45389545,1.818663001
3.269766092,0.428236753,0.18697542,-0.898913085,0.00060665,0.113366008,0.195289716,-0.221291527,-0.231951356,0.436853558,-0.190730557,0.454618692,1.819198489
3.274762869,0.421047419,0.19525288,-0.892980635,0.006580711,0.121127643,0.208057627,-0.222365305,-0.231343344,0.435652405,-0.19029896,0.455374658,1.819878101
3.279760361,0.415180266,0.188953757,-0.898848057,0.011965866,0.137714401,0.223588765,-0.2231915,-0.230875507,0.434728175,-0.189780742,0.456226349,1.820695639
3.284758806,0.429355681,0.178387344,-0.8946141,0.010792168,0.147706687,0.2281041,-0.223465458,-0.230720386,0.434421748,-0.189244807,0.457147032,1.821349978
3.289758205,0.429825693,0.156504363,-0.903918386,0.004436827,0.158056319,0.237018093,-0.223676249,-0.230601028,0.434185952,-0.188689753,0.458132744,1.822032332
3.29475832,0.420331299,0.168905124,-0.903473914,-0.004180653,0.159913808,0.251722038,-0.224228397,-0.230352342,0.433863521,-0.18816565,0.459091753,1.822947621
3.299760818,0.415508628,0.181658074,-0.897614956,-0.011755258,0.175069153,0.262003213,-0.22514087,-0.229949549,0.433368444,-0.187700778,0.460160553,1.823931217
3.304758549,0.415095299,0.194538504,-0.899854302,-0.007720325,0.179571554,0.280801743,-0.225443423,-0.22981599,0.433204293,-0.187159717,0.461230814,1.825067401
3.309755802,0.423266888,0.209342465,-0.900538325,-0.005483434,0.190054178,0.299148083,-0.225676224,-0.229713231,0.433077991,-0.186627105,0.462410212,1.826231837
3.314760208,0.407868534,0.220834002,-0.904041111,0.001334237,0.204400033,0.318831861,-0.225753427,-0.229679152,0.433036119,-0.186038047,0.463621825,1.827635884
3.319759607,0.390986204,0.230434284,-0.907034218,0.027976813,0.241531804,0.336614221,-0.227149397,-0.228740707,0.433934033,-0.18529363,0.465018809,1.829276681
3.324759722,0.388355017,0.21911779,-0.924770296,0.053866167,0.275549173,0.35023132,-0.227612272,-0.228429526,0.434231758,-0.184327424,0.466597617,1.831004024
3.329761267,0.408387274,0.195918396,-0.922092676,0.044488974,0.296634942,0.368411094,-0.227968425,-0.228190109,0.434460849,-0.18334052,0.468305796,1.832571745
3.334757805,0.404559076,0.194524691,-0.929056048,0.013263053,0.32990548,0.38981241,-0.228086516,-0.228110716,0.434536785,-0.182498783,0.470190436,1.834314227
3.339755297,0.411894172,0.174914643,-0.928982794,-0.020558126,0.365580261,0.407016903,-0.22992681,-0.227308169,0.434178382,-0.181753173,0.472276747,1.836071014
3.344753742,0.384783477,0.218897715,-0.920136392,-0.015762381,0.42747286,0.423467159,-0.230969921,-0.226858601,0.433956385,-0.181127533,0.474630922,1.838145494
3.349753141,0.392968863,0.19516398,-0.938984156,0.026222453,0.505750358,0.414304823,-0.231772512,-0.226512671,0.433785588,-0.180149093,0.477391124,1.840019703
3.354753494,0.401731521,0.150292873,-0.93920511,-0.003823609,0.581289232,0.411841959,-0.232038647,-0.226397976,0.433728963,-0.179333076,0.480546236,1.841596961
3.359755039,0.394869417,0.143662974,-0.948708177,-0.041923407,0.648605943,0.421280563,-0.233688071,-0.225744486,0.432478726,-0.178735361,0.48399505,1.843352199
3.364751577,0.374878109,0.163168669,-0.957700908,-0.063616164,0.7386536,0.425253361,-0.235691741,-0.224957824,0.430847377,-0.178331628,0.487843394,1.845297337
3.369749308,0.373158872,0.234728098,-0.946388841,0.007963829,0.839884818,0.421491355,-0.237233445,-0.224352553,0.429592192,-0.17774722,0.492200583,1.847251892
3.374747753,0.376825154,0.147780582,-0.952798605,0.027171612,0.950270534,0.396622688,-0.237744629,-0.22415185,0.429176003,-0.176866606,0.49708268,1.84868443
3.379746914,0.384108722,0.099213704,-0.968804181,-0.034905382,1.048679113,0.417792886,-0.238137975,-0.223997429,0.428855777,-0.176282093,0.502486229,1.850116491
3.384747267,0.405434847,0.17125985,-0.964778602,-0.057967752,1.144223571,0.424261421,-0.241906926,-0.223122299,0.427827805,-0.176061824,0.50835824,1.851611257
3.389748812,0.399719805,0.188150689,-0.959477782,-0.026765101,1.252314925,0.42068693,-0.244806871,-0.222448945,0.427036822,-0.175698683,0.514727771,1.853046536
3.39474535,0.403539598,0.157438651,-0.971453309,-0.022596544,1.368399382,0.426734418,-0.245768443,-0.222225681,0.426774561,-0.175231352,0.521699667,1.854339242
3.39974308,0.419997245,0.178389773,-0.987936497,-0.012683958,1.471159339,0.4400644,-0.2465083,-0.222053885,0.42657274,-0.174806133,0.529174566,1.85562253
3.404741287,0.415654123,0.183039457,-0.962104797,0.007388975,1.574249387,0.449159235,-0.249665499,-0.221407875,0.424824923,-0.174289331,0.537137508,1.856976867
3.409740686,0.423237801,0.155441433,-0.971342385,0.003856594,1.712677121,0.468906909,-0.255039126,-0.220315203,0.421780437,-0.173727572,0.545838177,1.85823369
3.414741278,0.422107399,0.139622405,-1.010126352,-0.018666936,1.82488513,0.499882519,-0.256820917,-0.219952896,0.420770973,-0.173209935,0.555046976,1.85978961
3.419743061,0.428116173,0.178530127,-1.026835203,-0.018645514,1.930692077,0.512701571,-0.258191854,-0.219674125,0.419994235,-0.172787234,0.564746976,1.861403108
3.424739599,0.39967218,0.160361677,-1.016855001,-0.024163615,2.081865072,0.519508243,-0.258646458,-0.219581679,0.419736683,-0.172351375,0.575142443,1.863160014
3.429737329,0.39102748,0.113295883,-1.051974297,-0.066679738,2.240094185,0.525211632,-0.268253446,-0.217639416,0.4126423,-0.172133684,0.586319864,1.864970446
3.434735775,0.386317909,0.130205095,-1.047714472,-0.110019177,2.404128075,0.552914858,-0.271438956,-0.216995403,0.410289943,-0.172168985,0.598279297,1.866909027
3.439735413,0.404443979,0.201836124,-1.063286662,-0.116164826,2.593524218,0.571686924,-0.273889989,-0.21649988,0.408479959,-0.172449723,0.611200035,1.868799686
3.444735527,0.37983793,0.255820751,-1.077724814,-0.086996287,2.797789574,0.6070894,-0.274702698,-0.216335565,0.4078798,-0.172619507,0.625065982,1.871050835
3.449743032,0.323131531,0.288186461,-1.066929579,-0.051099565,3.052229404,0.657369077,-0.284621924,-0.215225533,0.400951058,-0.17261368,0.640145063,1.874059796
3.454745531,0.299490482,0.321756095,-1.099603653,-0.029813532,3.33321023,0.722833335,-0.290210754,-0.214614064,0.397053361,-0.172490805,0.656624675,1.877487898
3.4597435,0.279034346,0.356007427,-1.141320586,-0.009979953,3.591349363,0.791859686,-0.294510961,-0.214143574,0.394054353,-0.172210291,0.674326777,1.881475329
3.464741945,0.257875711,0.365969032,-1.140797734,0.003227407,3.871687889,0.884720564,-0.295936853,-0.213987574,0.393059909,-0.171673372,0.693405032,1.885868788
3.469741821,0.244576529,0.388287932,-1.191221237,0.030305615,4.153655529,0.979019463,-0.303842187,-0.212742984,0.387326419,-0.170792103,0.713906169,1.891199827
3.474742174,0.243395627,0.436542779,-1.205330729,0.087655008,4.438685894,1.108335018,-0.31332761,-0.211196184,0.380422652,-0.169338793,0.735774159,1.897467852
3.479743958,0.22585994,0.539031625,-1.237879872,0.162934437,4.807696819,1.306271076,-0.320625961,-0.210006014,0.375110656,-0.166936114,0.759583116,1.905158758
3.484740973,0.110541061,0.611234546,-1.248938203,0.273980319,5.193162441,1.590835214,-0.323045969,-0.209611371,0.373349309,-0.162939191,0.785336971,1.915509224
3.489738226,0.093636185,0.702592373,-1.160605431,0.456124842,5.62664032,1.90704143,-0.324908018,-0.20930773,0.371994048,-0.156540737,0.81349051,1.927858829
3.494736671,0.255704433,0.82641387,-1.154240131,0.636682451,6.137029171,2.205319166,-0.341402501,-0.205029458,0.355829835,-0.147847056,0.844680667,1.942052245
3.499735832,0.464930028,0.9167189,-1.294369102,0.843843043,6.479184151,2.422894239,-0.354093879,-0.201737612,0.343392581,-0.136606961,0.877655745,1.958294749
3.504736423,0.672227502,0.837754309,-1.307234645,1.080276847,6.588626862,2.614060402,-0.358302116,-0.200646102,0.339268625,-0.121801443,0.911158919,1.976010323
3.509737968,0.995835781,0.80154407,-1.329531431,1.280903578,6.648640156,2.738011837,-0.361540049,-0.199806258,0.336095542,-0.103546947,0.944908857,1.994971037
3.514734507,1.327307582,0.801186144,-1.64343226,1.399861813,6.653505802,2.795184135,-0.374407321,-0.19378297,0.322869003,-0.082657248,0.978456616,2.01761961
3.519731998,1.39744556,0.680546999,-1.79075253,1.434526324,6.422162533,2.893504381,-0.396233022,-0.183339551,0.300381839,-0.058286957,1.010095358,2.044689655
3.524730444,1.535797834,0.697134018,-1.691157818,1.497577429,6.241939545,3.031758308,-0.40346998,-0.179876715,0.292925507,-0.029771427,1.040644526,2.074822664
3.529729605,1.832011938,0.780071378,-1.815650821,1.550997853,6.14565134,3.012608767,-0.409038335,-0.177212298,0.287188381,0.001414677,1.070492506,2.107916832
3.534729958,1.954710841,0.7404176,-2.005488634,1.603587389,5.816507816,3.109229088,-0.410884708,-0.176328823,0.285286069,0.037073329,1.097794652,2.146990538
3.539731503,1.994475365,0.902798593,-1.844078541,1.761009097,5.49288702,3.108536482,-0.439322293,-0.155829892,0.252050221,0.076967038,1.122825146,2.189941168
3.544728279,1.770584822,0.853860795,-1.704934478,1.874932647,5.318878651,3.005593061,-0.448751628,-0.149032831,0.241029859,0.120005108,1.146548152,2.235036612
3.549725771,1.708702445,0.703035533,-1.616534472,2.019983053,5.141172886,2.944365263,-0.456006885,-0.143802956,0.232550427,0.167917401,1.16870141,2.283548117
3.554724455,1.563244462,0.631368279,-1.638400555,2.10595727,4.86871624,2.898450375,-0.458412588,-0.142068833,0.229738802,0.220345393,1.188435674,2.336689234
3.559723854,1.293038249,0.542364895,-1.465032101,2.29344058,4.565050602,2.842606544,-0.474209398,-0.124099039,0.205094904,0.277350962,1.20564115,2.393438101
3.564724207,0.902843952,0.413910061,-1.380861759,2.414469004,4.28139925,2.745197058,-0.482898235,-0.114024103,0.191360578,0.338114321,1.220498443,2.452913761
3.56972599,0.36518243,0.255718529,-1.346729875,2.365147352,3.912261963,2.588147879,-0.489583701,-0.106272116,0.180792958,0.39985916,1.232252479,2.513403654
3.574723005,-0.086657196,0.000411246,-1.717361093,1.908260942,3.352291584,2.388258934,-0.491800457,-0.103701703,0.177288935,0.456548661,1.239875555,2.573325396
3.579720974,0.050051872,-0.101277411,-1.538858414,1.35905087,2.743322372,2.37370944,-0.498234034,-0.092835009,0.16433911,0.508224487,1.243752599,2.629294634
3.584725618,0.919163167,-0.360072672,-1.546000719,0.702359498,2.752490759,2.274940968,-0.505134881,-0.080268249,0.14970541,0.558826029,1.247935653,2.684664011
3.589725018,1.530896187,-0.231442064,-2.690961123,-0.184334502,2.134270191,2.193276405,-0.510444582,-0.07059899,0.138445765,0.595832586,1.24817729,2.739917278
3.594725132,0.960608125,0.232829228,-2.286524057,-0.885167778,1.093767285,2.020880222,-0.512205184,-0.067392841,0.134712279,0.614443958,1.243926287,2.779165745
3.599726677,0.248641968,0.424051285,-1.584576011,-1.298825502,0.730576158,1.861254573,-0.513559878,-0.064925931,0.131839618,0.628770232,1.239903092,2.810989857
3.604723215,0.014766942,0.587956309,-1.467078447,-1.442914605,0.358295202,1.746329308,-0.518613517,-0.052588902,0.118900903,0.637573004,1.234890699,2.839103699
3.609720945,0.024101201,0.764589846,-1.370111585,-1.391271591,-0.032950059,1.640723825,-0.522501945,-0.043096397,0.108945444,0.641232848,1.228760242,2.86158967
3.614719152,0.021115387,0.8195889,-1.303704023,-1.255327821,-0.385742396,1.520989299,-0.523791254,-0.039948862,0.105644397,0.641282797,1.221711397,2.879200459
3.619718552,-0.048352353,0.793748617,-1.186313272,-1.107654333,-0.691100001,1.395411491,-0.524783313,-0.037527047,0.103104465,0.638638675,1.213879824,2.892183542
3.624718904,-0.160759822,0.771197677,-1.062933207,-0.957184911,-0.914540648,1.243875146,-0.525194645,-0.032661781,0.101184964,0.633895576,1.205721021,2.901482344
3.629720211,-0.272797704,0.736766398,-0.975514829,-0.814124763,-1.107875824,1.06358242,-0.525594413,-0.024810731,0.098618716,0.626991928,1.197360158,2.907191992
3.634716988,-0.357504636,0.68784976,-0.898675978,-0.703127801,-1.261274934,0.847718835,-0.525726974,-0.022207472,0.0977678,0.61787039,1.189019799,2.909275532
3.639714241,-0.399543673,0.627390802,-0.856710672,-0.631501377,-1.385420442,0.602342904,-0.525828958,-0.020204442,0.097113073,0.606368303,1.18084836,2.907942772
3.644712925,-0.404261798,0.579497695,-0.826712787,-0.599284828,-1.476466179,0.335347801,-0.525862753,-0.019540275,0.096895978,0.592329144,1.173048615,2.903331757
3.649712324,-0.384660959,0.534162045,-0.827160418,-0.589260161,-1.572202444,0.057831194,-0.524471641,-0.012726351,0.101986207,0.575608194,1.165541172,2.895593882
3.654712915,-0.355583787,0.498396754,-0.818202853,-0.591763079,-1.676863909,-0.219948784,-0.52401036,-0.010466984,0.103674032,0.556165636,1.15822947,2.884648561
3.65971446,-0.326735854,0.461434484,-0.818394899,-0.606764793,-1.788710475,-0.490692288,-0.523655415,-0.008728554,0.104972698,0.534145296,1.150985241,2.870740175
3.664711237,-0.282436281,0.427987665,-0.832129419,-0.63135922,-1.905417204,-0.744415939,-0.523537755,-0.008152123,0.105403312,0.50975579,1.143653035,2.85421586
3.66970849,-0.23156397,0.38382858,-0.845786452,-0.66455245,-2.027141809,-0.98311013,-0.52182138,-0.007932121,0.112538345,0.483176738,1.136093616,2.835077763
3.674707174,-0.188408539,0.339747548,-0.855441034,-0.69935894,-2.158804893,-1.203938007,-0.520849943,-0.007914483,0.116587795,0.454782993,1.128139257,2.813861132
3.679706812,-0.146995798,0.302243322,-0.853189051,-0.739499867,-2.289764881,-1.399678946,-0.520102501,-0.007900911,0.119703569,0.424918532,1.119676948,2.790884018
3.684707403,-0.10706041,0.272149295,-0.85707444,-0.770122468,-2.411273003,-1.577452421,-0.519854665,-0.007896411,0.120736696,0.393961072,1.110651493,2.766604424
3.68970871,-0.068175256,0.255408645,-0.867841601,-0.791245937,-2.532662153,-1.734244227,-0.517938972,-0.011110552,0.126894251,0.362260252,1.100942135,2.741267443
3.694705486,-0.021706033,0.244916499,-0.878201008,-0.796010494,-2.650022984,-1.873255014,-0.515564322,-0.015420916,0.134343624,0.330236256,1.090500116,2.715269089
3.69970274,0.038217466,0.243265375,-0.903135478,-0.783821762,-2.77039957,-1.99723959,-0.513737202,-0.018737448,0.14007543,0.298187733,1.079257369,2.689082623
3.704701185,0.103365302,0.238100484,-0.929036617,-0.749407172,-2.907049894,-2.105197668,-0.51313138,-0.019837148,0.141975984,0.266507685,1.067056775,2.662909508
3.709700584,0.176446855,0.233672559,-0.956797242,-0.708391666,-3.056066513,-2.195958614,-0.512665272,-0.02068329,0.143438324,0.235467926,1.053796768,2.63692975
3.714700937,0.245686725,0.221711546,-0.984022141,-0.668587863,-3.211560011,-2.270570278,-0.508724093,-0.030745549,0.15516825,0.205355868,1.039419174,2.611102819
3.719708443,0.316079646,0.194813341,-1.013373971,-0.628994882,-3.37915349,-2.339210033,-0.505691588,-0.03848777,0.164193645,0.176339418,1.023866296,2.585875034
3.72471118,0.38293165,0.169039473,-1.037899971,-0.594449639,-3.559068918,-2.390256166,-0.504686058,-0.041054945,0.167186275,0.148614168,1.007075787,2.561463833
3.72970891,0.42439419,0.141117498,-1.041370988,-0.570181549,-3.756069183,-2.421955585,-0.503912389,-0.043030214,0.169488907,0.12233264,0.988934755,2.538025618
3.734707117,0.447741061,0.115215473,-1.026306748,-0.560799241,-3.925666332,-2.441416264,-0.499691039,-0.050179243,0.178763062,0.097570591,0.969670236,2.515270948
