Time,inertial-6253.76535:scaledAccelX,inertial-6253.76535:scaledAccelY,inertial-6253.76535:scaledAccelZ,inertial-6253.76535:scaledGyroX,inertial-6253.76535:scaledGyroY,inertial-6253.76535:scaledGyroZ,inertial-6253.76535:scaledMagX,inertial-6253.76535:scaledMagY,inertial-6253.76535:scaledMagZ,inertial-6253.76535:roll,inertial-6253.76535:pitch,inertial-6253.76535:yaw
0,0.5174703,0.209387466,-0.830106318,0.000807552,-0.003042276,0.002621734,-0.369897813,-0.05648078,0.275216997,-0.232360229,0.542973161,-3.062398434
0.005000448,0.518472791,0.209579006,-0.83080411,0.000277205,-0.002155055,0.002031549,-0.369883895,-0.056480814,0.275252938,-0.232369155,0.542970121,-3.062392473
0.010002176,0.518097639,0.209391281,-0.831110179,0.000941394,-0.000895728,0.002685552,-0.369873196,-0.056480836,0.275280625,-0.232381389,0.542969704,-3.062384844
0.01499904,0.517417192,0.209725901,-0.829205513,0.000546897,-0.001801951,0.001886404,-0.369981706,-0.056565545,0.275265455,-0.232391745,0.542961836,-3.062374115
0.019996416,0.518102229,0.211829111,-0.831111729,0.002063644,-0.002420394,0.003280937,-0.370178491,-0.056716368,0.275229126,-0.232399419,0.54295218,-3.062360048
0.024995072,0.517778397,0.208339557,-0.830554485,0.00191866,-0.002331287,0.004019582,-0.370243758,-0.05676638,0.275217086,-0.232400879,0.542952061,-3.062355042
0.029994495,0.519061804,0.211924329,-0.830083191,0.002005211,-0.003481355,0.003222768,-0.370293975,-0.056804858,0.275207818,-0.232410356,0.54293561,-3.062336922
0.034995198,0.518619955,0.212365091,-0.82993114,0.002900935,-0.003419029,0.002748075,-0.370310605,-0.056817617,0.275204748,-0.232410014,0.542926013,-3.062311888
0.039996929,0.517790794,0.210215464,-0.831171155,0.002641566,-0.003246527,0.003332204,-0.370323896,-0.056890313,0.275717705,-0.232406929,0.542913914,-3.062297106
0.044993792,0.517302394,0.211816549,-0.831953168,0.003993184,-0.00205243,0.00380712,-0.370328307,-0.056914415,0.275887787,-0.232405573,0.542907357,-3.062276363
0.049991425,0.518145978,0.211139202,-0.831528187,0.002219191,-0.001078432,0.003391827,-0.370331705,-0.056932963,0.276018679,-0.23240985,0.542910397,-3.062260866
0.054990079,0.51783514,0.209557727,-0.831556916,0.0025253,-0.00169442,0.003848584,-0.370332837,-0.05693911,0.276062071,-0.232406765,0.542910755,-3.062251806
0.059989762,0.517447054,0.209926113,-0.830011606,0.002784498,-0.002775995,0.002895286,-0.370036364,-0.056845702,0.27633062,-0.232408777,0.542898059,-3.06223321
0.064990461,0.517891824,0.210988313,-0.828593016,0.00299635,-0.001583389,0.003313569,-0.369864494,-0.056790445,0.276477873,-0.232408181,0.542895675,-3.062215328
0.069992192,0.516858995,0.210402653,-0.830393374,0.004016181,-0.00309694,0.004318119,-0.369732261,-0.056747932,0.276591182,-0.232402548,0.542884231,-3.062199116
0.074989058,0.517741263,0.20975107,-0.830755293,0.001700754,-0.005010106,0.002624632,-0.369688421,-0.056733835,0.276628762,-0.232410714,0.542866647,-3.062190771
0.079986691,0.518346012,0.209281206,-0.831113696,0.002928972,-0.004389214,0.003185826,-0.369740009,-0.056637716,0.276328444,-0.232406944,0.542857587,-3.062180042
0.084985346,0.518251359,0.209228903,-0.831086814,0.002492688,-0.003482237,0.002292341,-0.369843125,-0.056519859,0.275896907,-0.232407063,0.542841494,-3.062165022
0.08998502,0.520305097,0.212258175,-0.829928637,0.003170091,-0.003824242,0.003051597,-0.369922489,-0.056429174,0.275564879,-0.232411727,0.542843044,-3.062145233
0.09498547,0.516915381,0.214207232,-0.832492471,0.003211507,-0.004497053,0.003148255,-0.369948804,-0.056399103,0.275454789,-0.232416704,0.542816818,-3.062115192
0.099987201,0.51750505,0.206867874,-0.832980156,0.002845427,-0.004115869,0.002831944,-0.36996904,-0.056375965,0.275370091,-0.232401446,0.542792857,-3.062106848
0.104983807,0.519792974,0.206635132,-0.83285445,0.000531308,-0.003339864,0.003060949,-0.370125502,-0.056462251,0.275878459,-0.23240149,0.542791843,-3.06210804
0.10998144,0.518949568,0.209521294,-0.830720842,0.002264065,-0.003941149,0.002933327,-0.370245874,-0.056528639,0.276269615,-0.232407734,0.542781293,-3.062092781
0.114979841,0.517888963,0.212646335,-0.831179142,0.000588964,-0.003093354,0.001729872,-0.370285809,-0.056550652,0.276399344,-0.232430711,0.542765319,-3.062075377
0.119979523,0.519107461,0.209439576,-0.830242157,0.001815855,-0.003204379,0.000264337,-0.370316505,-0.056567591,0.276499152,-0.232442215,0.54275322,-3.062078953
0.124979965,0.519173086,0.209127814,-0.831959665,0.002389415,-0.004979027,0.000588813,-0.369929403,-0.056637887,0.276607722,-0.23244819,0.542735577,-3.062079906
0.129988089,0.51932013,0.208855197,-0.829589665,0.00214259,-0.005711723,0.000265828,-0.369229883,-0.056757379,0.276767582,-0.232456058,0.542712927,-3.062078953
0.134991109,0.520648062,0.212357968,-0.829280257,0.000996141,-0.005717599,0.001478725,-0.368997931,-0.056797002,0.2768206,-0.232473537,0.542694032,-3.06205225
0.139989242,0.519376814,0.209013581,-0.833140373,0.002324089,-0.00511907,0.001883847,-0.368819445,-0.056827486,0.276861399,-0.232471153,0.542667568,-3.062051296
0.144987911,0.517858386,0.205980048,-0.831997931,0.002213403,-0.006876917,0.000499686,-0.368760258,-0.056837596,0.27687493,-0.232473925,0.542633653,-3.062060833
0.149987578,0.5206604,0.209234983,-0.830927193,0.000402691,-0.008120555,-0.000520608,-0.369511276,-0.056633711,0.276190817,-0.232496411,0.542605758,-3.062062263
0.154988036,0.519432545,0.209932491,-0.829970181,-0.000133783,-0.00828257,-0.000856987,-0.369760275,-0.056566104,0.275963962,-0.232519403,0.542566597,-3.062062025
0.159990013,0.517576218,0.211511642,-0.830163956,0.000978152,-0.008200698,-0.001075517,-0.369951874,-0.056514088,0.27578941,-0.232531652,0.542524397,-3.06205821
0.164986879,0.515348911,0.214784786,-0.8288607,0.001343681,-0.009343012,0.000740471,-0.370015413,-0.05649684,0.275731534,-0.232555732,0.542481601,-3.062027931
0.169984251,0.51522696,0.211580336,-0.83082974,0.003049832,-0.007630859,0.002301095,-0.370162129,-0.056585118,0.275496393,-0.232559592,0.542445898,-3.062017679
0.174982905,0.5151788,0.208676159,-0.831291497,0.000763116,-0.006926795,0.002169672,-0.370234996,-0.056639519,0.275371283,-0.232557654,0.542420805,-3.062014341
0.179982334,0.515954554,0.213462546,-0.830304563,0.002559137,-0.004427333,0.002799194,-0.370291054,-0.056681376,0.275275022,-0.232575253,0.54239434,-3.061999083
0.184983045,0.516098142,0.214345947,-0.83023876,0.002658695,-0.004883058,0.002372551,-0.370309651,-0.056695256,0.275243104,-0.232587069,0.542376637,-3.061979294
0.189984769,0.516550779,0.214355439,-0.830291152,0.003539232,-0.004458728,0.003858232,-0.37018314,-0.056650665,0.275242686,-0.23258996,0.54236263,-3.061952114
0.194981635,0.51799804,0.2130436,-0.829730809,0.003864352,-0.004818447,0.00494784,-0.3699992,-0.056580145,0.275266886,-0.232578039,0.542342365,-3.061919689
0.199979514,0.518283665,0.209569931,-0.831077516,0.004779485,-0.003496618,0.004649892,-0.369857699,-0.056525886,0.275285482,-0.232556224,0.54233557,-3.061898708
0.204978183,0.518761277,0.209817991,-0.832832873,0.003357723,-0.004630231,0.004231269,-0.36981079,-0.056507893,0.275291651,-0.232546672,0.542322755,-3.061881542
0.209977597,0.51852572,0.209637731,-0.830522895,0.004655786,-0.004664142,0.004329406,-0.369774669,-0.05649405,0.27529639,-0.232531682,0.542303741,-3.06186533
0.214978307,0.518752217,0.211291626,-0.831526697,0.003913704,-0.004882406,0.004915234,-0.369811267,-0.056638412,0.275591046,-0.232527971,0.542288601,-3.061839819
0.219980031,0.5182845,0.211077929,-0.83188051,0.00133405,-0.004089338,0.004764556,-0.36983943,-0.056749489,0.275817782,-0.232523799,0.542276978,-3.061810493
0.224976897,0.5161888,0.210301042,-0.831355095,0.001205402,-0.004150809,0.005844918,-0.369848758,-0.056786317,0.275892943,-0.232520059,0.542263091,-3.061782837
0.229974523,0.518876612,0.209545061,-0.830589592,0.001865392,-0.003033681,0.006425008,-0.36985594,-0.056814659,0.275950789,-0.232516363,0.542264044,-3.06174922
0.234973177,0.516652703,0.21138154,-0.83171922,-0.000351601,-0.003514492,0.006915698,-0.369490445,-0.056857046,0.276293099,-0.232527331,0.542256236,-3.061715126
0.23997286,0.517538846,0.211290881,-0.828906417,-0.002242337,-0.001899899,0.007671447,-0.368837297,-0.056923021,0.276883215,-0.232542157,0.542263746,-3.061676502
0.24497357,0.516338527,0.210839033,-0.828397214,-0.001972341,-0.00322459,0.011180893,-0.368620723,-0.056944899,0.277078867,-0.232547209,0.542265177,-3.061613321
0.249975294,0.517963231,0.212458163,-0.832619071,-0.000230059,-0.001647214,0.010087399,-0.368454069,-0.05696173,0.277229428,-0.232545093,0.542266726,-3.061559916
0.25497216,0.517490745,0.210214168,-0.831874251,0.000672806,-0.005077236,0.009669129,-0.368398815,-0.056967311,0.277279347,-0.232538283,0.542254627,-3.061503172
0.259970039,0.518523216,0.208552748,-0.830698788,-0.003550414,-0.002142133,0.01090207,-0.369218409,-0.056761008,0.276367188,-0.232542112,0.542260647,-3.061455727
0.264974594,0.518861175,0.210225597,-0.828960598,-0.00285935,-0.001813248,0.009851562,-0.369490206,-0.0566926,0.276064724,-0.232556224,0.542268276,-3.061413288
0.26997453,0.518301189,0.210367605,-0.828797996,-0.002558296,-0.003072153,0.009984925,-0.369699299,-0.056639969,0.275832027,-0.232566744,0.542263687,-3.061359882
0.274974972,0.521409094,0.210646093,-0.829431117,-0.001123596,-0.002323536,0.008385835,-0.36976862,-0.056622516,0.275754869,-0.232564896,0.542263091,-3.061311722
0.279976696,0.520621061,0.21001111,-0.828371525,-0.000795258,-0.00556205,0.009593534,-0.369523346,-0.056709517,0.276465356,-0.232559919,0.542251766,-3.061249495
0.284973323,0.520623863,0.209578961,-0.830399334,0.000579503,-0.007909035,0.009519474,-0.369368106,-0.056763217,0.27689147,-0.232544288,0.542229056,-3.061192274
0.289970934,0.521636665,0.208474115,-0.829739571,0.003006539,-0.009349887,0.007148765,-0.369248658,-0.05680453,0.277219325,-0.232525781,0.542201698,-3.061153173
0.294969857,0.521745563,0.207013339,-0.828847349,0.003180435,-0.010814133,0.007178783,-0.369209051,-0.056818228,0.277328044,-0.232505158,0.542173088,-3.061113834
0.299969524,0.520623207,0.207317457,-0.82888329,0.004139558,-0.01323121,0.004881262,-0.369406015,-0.056711622,0.277112395,-0.23248142,0.542114556,-3.061079502
0.304969996,0.519811392,0.208409876,-0.829534113,0.003760202,-0.015777128,0.004955263,-0.3697007,-0.056558143,0.276739061,-0.232455656,0.542051017,-3.061042547
0.30997172,0.518774986,0.206850082,-0.831320584,0.003490687,-0.016777337,0.003842978,-0.369927466,-0.056440055,0.276451796,-0.232431009,0.541971266,-3.061016798
0.314968586,0.518627584,0.210469365,-0.83232832,0.002546277,-0.015119852,0.003112101,-0.370002657,-0.056400899,0.276356548,-0.232423529,0.541911185,-3.060977697
0.319966197,0.514933705,0.210726351,-0.834236264,0.002609605,-0.014768846,0.003649066,-0.370060503,-0.056370772,0.276283264,-0.232413575,0.541836321,-3.060945272
0.324964851,0.510095596,0.211197451,-0.829821825,0.00238362,-0.011539037,0.002741218,-0.369732291,-0.056361344,0.276929975,-0.232414529,0.541776061,-3.060911894
0.329964548,0.501643836,0.219968304,-0.831104875,0.000934373,-0.00777019,0.00692145,-0.369479746,-0.056354091,0.277427554,-0.232434213,0.541724741,-3.060832739
0.334964991,0.504868388,0.222027183,-0.834108889,0.001922322,-0.002325856,0.006798261,-0.369396001,-0.056351684,0.27759254,-0.232447028,0.54171139,-3.06076622
0.339966983,0.505612731,0.221363753,-0.832722127,0.003593516,0.002485303,0.009821469,-0.369331568,-0.056349833,0.277719468,-0.232440948,0.541724026,-3.060682774
0.344963849,0.513071179,0.222115502,-0.829943955,0.006906048,0.003889511,0.016197236,-0.369533151,-0.056522392,0.277300507,-0.232404456,0.541763127,-3.060573339
0.349961221,0.517385244,0.218296573,-0.827786922,0.00941741,0.002971493,0.015954174,-0.369913727,-0.056830272,0.276511997,-0.232352763,0.541803658,-3.060482025
0.354959875,0.518396437,0.20978336,-0.830009997,0.011351402,0.004442402,0.015983416,-0.37003991,-0.056932356,0.276250541,-0.232261375,0.541850209,-3.060411453
0.359959304,0.51832372,0.207421511,-0.83102423,0.011998381,0.002151995,0.018039685,-0.370137006,-0.057010904,0.276049346,-0.232166469,0.54188323,-3.060334444
0.364960015,0.518906772,0.206505179,-0.830777049,0.011188699,0.001104322,0.018642291,-0.370169193,-0.057036947,0.275982648,-0.232077822,0.541917026,-3.06025815
0.369961739,0.51936686,0.206034362,-0.832662582,0.007223171,0.002263919,0.0187105,-0.370136291,-0.056514103,0.276309997,-0.232005209,0.541953266,-3.060169697
0.374958605,0.519581139,0.201540157,-0.835150659,0.001493864,0.005322011,0.020680685,-0.370125383,-0.056340735,0.276418537,-0.231954187,0.542006671,-3.060100555
0.379955977,0.519999504,0.199767143,-0.834814608,-0.006086807,0.008599176,0.022380389,-0.370116979,-0.05620734,0.276502043,-0.231931418,0.542078018,-3.060026407
0.38495487,0.518067777,0.202573374,-0.834693611,-0.01799133,0.011692593,0.024271872,-0.370114207,-0.05616311,0.276529729,-0.231975302,0.542168498,-3.05993104
0.389954299,0.517738044,0.208908886,-0.833644569,-0.024916926,0.012858649,0.025112936,-0.370013714,-0.056174789,0.2773242,-0.232065141,0.542261124,-3.059805393
0.394955009,0.516806185,0.207695395,-0.835031569,-0.028735811,0.0117182,0.024243847,-0.369956076,-0.056189969,0.277778953,-0.232179269,0.542356253,-3.059700966
0.399962634,0.518030345,0.209192395,-0.830621004,-0.031650975,0.010546535,0.026184898,-0.36991173,-0.056201652,0.278128862,-0.232293546,0.542441607,-3.059559345
0.404965371,0.521066785,0.20455651,-0.830154836,-0.031329945,0.00847415,0.023844285,-0.369897038,-0.056205522,0.278244883,-0.232403815,0.542518556,-3.059455633
0.40996325,0.520538986,0.206004217,-0.827636421,-0.031149779,0.008482099,0.022718376,-0.369940728,-0.056240305,0.277895719,-0.232521102,0.542598367,-3.059346914
0.414961934,0.520806074,0.209285095,-0.827943981,-0.030568322,0.005846968,0.02306737,-0.370010734,-0.05628391,0.277337849,-0.232635662,0.542660594,-3.059233904
0.419961601,0.520228863,0.210732922,-0.829363883,-0.027881918,0.00470609,0.020180563,-0.370064586,-0.05631746,0.276908606,-0.232746363,0.542708218,-3.059136629
0.424962312,0.519194484,0.207878485,-0.829403579,-0.026354369,0.002142621,0.016774766,-0.370082438,-0.056328584,0.27676627,-0.232846633,0.542738438,-3.059054375
0.429964036,0.519946516,0.207797304,-0.831963778,-0.02607673,0.001777127,0.013193114,-0.370096177,-0.056337144,0.276656777,-0.232959509,0.542764723,-3.0589993
0.434960634,0.519775689,0.207472995,-0.830898225,-0.02254099,-0.000139299,0.012665533,-0.369749278,-0.056402467,0.27608186,-0.233050346,0.542783201,-3.058944225
0.439958543,0.521482527,0.207346857,-0.831986547,-0.022986596,-0.000456916,0.009747686,-0.369482368,-0.056452729,0.275639474,-0.233148009,0.542796433,-3.058907032
0.444956928,0.522033632,0.20708482,-0.831957638,-0.020538179,-0.002493009,0.008940725,-0.369393855,-0.056469392,0.275492787,-0.233242735,0.542800248,-3.058882952
0.449956596,0.520923316,0.212053493,-0.830498636,-0.01916316,-0.003234817,0.006326168,-0.369325757,-0.056482218,0.275379926,-0.23334527,0.542798638,-3.058835745
0.454957068,0.521829009,0.212401152,-0.828754961,-0.017032014,-0.005176763,0.005709203,-0.369416028,-0.05651341,0.27531752,-0.233439818,0.542787194,-3.058799982
0.459958792,0.522370934,0.212397903,-0.827301562,-0.015270337,-0.008483826,0.005302545,-0.369599581,-0.056564648,0.275244206,-0.233512312,0.542763293,-3.058758259
0.464955658,0.521492362,0.212195441,-0.827764452,-0.012323811,-0.010607331,0.004829543,-0.369660467,-0.056581639,0.275219917,-0.233577073,0.542726398,-3.058721781
0.469953269,0.522801518,0.211839154,-0.826990306,-0.010081669,-0.014875034,0.004100854,-0.369707316,-0.056594711,0.275201231,-0.233631805,0.542674243,-3.058684111
0.474951923,0.522656262,0.211558267,-0.827381134,-0.006241101,-0.018274002,0.004557119,-0.369722843,-0.056599047,0.275195032,-0.233656555,0.542598546,-3.058635473
0.47995162,0.525430977,0.209056154,-0.829634905,-0.005154526,-0.022294339,0.003022009,-0.369800955,-0.056795023,0.276158631,-0.233678132,0.54250282,-3.058608055
0.484952062,0.524360061,0.20759213,-0.828445315,-0.004356133,-0.026258381,0.00212772,-0.369826853,-0.056860004,0.276478142,-0.233690441,0.542386472,-3.058576345
0.489954054,0.524926066,0.206036747,-0.82759428,-0.002859388,-0.028806323,0.001597601,-0.369846761,-0.056910001,0.276723981,-0.233690292,0.542265773,-3.058552742
0.49495092,0.523377001,0.205550775,-0.82950598,-0.002247468,-0.033000693,-0.000464514,-0.369853377,-0.056926578,0.27680549,-0.2336988,0.542112589,-3.058540106
0.499948531,0.523036778,0.205930859,-0.82987231,-0.001141694,-0.035488121,-0.004282816,-0.370156527,-0.05693797,0.276389897,-0.23370932,0.541944385,-3.058545828
0.504947186,0.520470202,0.205544427,-0.829862356,-0.002442138,-0.038058724,-0.003599575,-0.370330781,-0.056941409,0.276133746,-0.233714655,0.541758299,-3.058550119
0.509946883,0.516440213,0.206306487,-0.833603859,-0.006200139,-0.037475355,-0.006133858,-0.370464832,-0.056944054,0.275936604,-0.233754262,0.541567564,-3.058567286
0.514947355,0.510376394,0.209504753,-0.833631217,-0.007630459,-0.034469016,-0.005468916,-0.370509297,-0.056944933,0.275871247,-0.233804688,0.541382313,-3.058573484
0.519949079,0.505946159,0.215365008,-0.833644032,-0.008554434,-0.029688401,-0.00224928,-0.370089918,-0.057037748,0.276170582,-0.233869821,0.541225374,-3.058547974
0.524945915,0.505198538,0.217418119,-0.835914373,-0.007149892,-0.026746096,-0.001373434,-0.369493484,-0.057161443,0.276622385,-0.233927622,0.541071177,-3.058521748
0.529943287,0.507394731,0.217691109,-0.83728832,-0.006800313,-0.023357889,0.00077135,-0.369034529,-0.057256617,0.276969999,-0.233981505,0.54094696,-3.058492661
0.534948111,0.50967896,0.217246294,-0.83668232,-0.005501202,-0.018624917,-0.000295631,-0.368882358,-0.057288177,0.277085245,-0.234028697,0.540847898,-3.058479548
0.539947748,0.513717413,0.216477782,-0.833528578,-0.0027226,-0.017984094,-9.25E-05,-0.368765265,-0.057312459,0.277173966,-0.234062865,0.54076159,-3.058452606
0.544948459,0.51582098,0.214711323,-0.831016421,-0.003149466,-0.016774179,0.000821519,-0.36872828,-0.057217471,0.277347475,-0.234095663,0.540686488,-3.058427811
0.549949944,0.515190363,0.214310363,-0.831096113,-0.001024377,-0.015385604,0.001429519,-0.368699819,-0.057144385,0.277481019,-0.234118447,0.540606558,-3.058402538
0.55494684,0.513927281,0.213796854,-0.832339704,-0.000966317,-0.015034935,-0.000163155,-0.368690372,-0.057120152,0.277525276,-0.234137848,0.54052633,-3.058379412
0.559944212,0.514540017,0.214156523,-0.833272219,0.001083135,-0.014438787,0.002802292,-0.36868313,-0.057101503,0.27755934,-0.234135762,0.540458322,-3.058348656
0.564942837,0.514841139,0.2151988,-0.832520545,0.003380471,-0.013033146,0.003160985,-0.368794531,-0.056981374,0.277159184,-0.234134704,0.54040128,-3.058311224
0.569942534,0.517319083,0.214580983,-0.830895424,0.007384409,-0.013406263,0.003824926,-0.368995309,-0.056773726,0.276435256,-0.234106794,0.540338993,-3.058272362
0.574943244,0.515207946,0.21133627,-0.831921518,0.008448062,-0.014245363,0.004878788,-0.369061887,-0.056704871,0.276195228,-0.234063387,0.540275574,-3.058234692
0.579944968,0.516456187,0.209033653,-0.834358573,0.00804357,-0.014484545,0.005789577,-0.369113117,-0.056651894,0.276010513,-0.234011918,0.540210605,-3.058212519
0.584941804,0.518289626,0.209048837,-0.836286426,0.010115908,-0.01481984,0.003934131,-0.369130105,-0.056634329,0.27594927,-0.233959064,0.540148258,-3.058192492
0.589939475,0.518522263,0.204697698,-0.837942421,0.008303961,-0.01315096,0.000941321,-0.369341403,-0.056812648,0.276680082,-0.233911544,0.540086329,-3.058208227
0.594938397,0.518674552,0.206230521,-0.836700201,0.003807276,-0.011215306,-0.000429598,-0.369411469,-0.056871776,0.276922435,-0.233902127,0.540039599,-3.058216572
0.599938035,0.518429637,0.202055797,-0.83523494,0.002100483,-0.009296257,-0.004278084,-0.369465381,-0.056917269,0.277108878,-0.233899727,0.539991796,-3.058277845
0.604938507,0.51989758,0.202257782,-0.835093021,-0.001762212,-0.00843763,-0.00835244,-0.369483262,-0.056932356,0.277170688,-0.233934224,0.539949059,-3.058356047
0.609940231,0.517044008,0.205122933,-0.836520553,-0.003270468,-0.007278054,-0.009351547,-0.369998068,-0.056830384,0.277468771,-0.233989537,0.539900422,-3.058433771
0.614936829,0.516459525,0.207293689,-0.836922109,-0.007911941,-0.005528741,-0.013958776,-0.370292753,-0.056768466,0.277629614,-0.234087333,0.53985399,-3.058531284
0.61993444,0.515735149,0.210633263,-0.835169017,-0.0074437,-0.003127687,-0.014429703,-0.370519519,-0.056720819,0.277753353,-0.234184444,0.539825678,-3.058614969
0.624932885,0.517173827,0.21398741,-0.831822515,-0.008433616,-0.00178987,-0.013533885,-0.37059471,-0.056705024,0.277794391,-0.234292492,0.539805174,-3.058681011
0.629932821,0.511514366,0.217274085,-0.827972949,-0.006406232,-0.001039124,-0.01179566,-0.37033987,-0.056702167,0.277462602,-0.234397903,0.539786041,-3.058739185
0.634933233,0.510884285,0.221736118,-0.829863191,-0.003946063,1.70E-05,-0.010462085,-0.369940072,-0.05671059,0.276986182,-0.234498501,0.539773524,-3.058776379
0.639935255,0.510603011,0.22148861,-0.83015281,-0.003564972,0.002419476,-0.010026256,-0.369632453,-0.056717075,0.276619613,-0.234588847,0.539767087,-3.058812618
0.644932091,0.510151982,0.216412783,-0.829892099,-0.003189893,0.004647949,-0.005963499,-0.369530439,-0.056719225,0.276498079,-0.234653607,0.539779127,-3.058853149
0.649929702,0.511788607,0.216511399,-0.828521729,-0.002150342,0.005515987,-0.00343011,-0.36945194,-0.056720879,0.27640456,-0.234712109,0.539801955,-3.058876753
0.654928386,0.513006032,0.222075969,-0.82577014,-0.000607748,0.006680317,-0.00269903,-0.369470835,-0.057076465,0.276378453,-0.234775513,0.539832354,-3.058873177
0.659928083,0.512217402,0.222763941,-0.826150775,0.002301903,0.006343978,-0.000774052,-0.369485378,-0.057350066,0.276358366,-0.234808519,0.539862871,-3.058857918
0.664934933,0.509628952,0.221128479,-0.828694761,0.003263558,0.005640606,0.003759667,-0.369490206,-0.057440784,0.27635169,-0.23482497,0.539886117,-3.058828831
0.669936895,0.507721841,0.218050465,-0.831831276,0.004583137,0.006835198,0.007531091,-0.369493902,-0.057510588,0.276346564,-0.234815434,0.539914966,-3.05879879
0.674933732,0.512031078,0.214967296,-0.832494736,0.006075849,0.008340912,0.008122237,-0.369554311,-0.0574141,0.276674569,-0.234800637,0.539966762,-3.058768511
0.679931402,0.514448047,0.215467036,-0.828875184,0.005157022,0.00976633,0.010179355,-0.369660676,-0.057218891,0.277260274,-0.234780073,0.540030777,-3.058715343
0.684930027,0.513658345,0.21741201,-0.828339636,0.004922699,0.009557991,0.01300192,-0.369695961,-0.057154164,0.277454495,-0.234761655,0.540096045,-3.058646679
0.689929485,0.51535064,0.217449307,-0.830410242,0.006020444,0.010784272,0.01358589,-0.369723082,-0.05710436,0.277603924,-0.234725431,0.540163994,-3.058576107
0.694929898,0.513134003,0.215141654,-0.831967771,0.006325387,0.011423286,0.015960032,-0.369732112,-0.057087842,0.277653456,-0.234684795,0.54023093,-3.05850625
0.699931622,0.515105307,0.215564087,-0.832389235,0.007788864,0.012007426,0.020713516,-0.369728267,-0.057626359,0.276539743,-0.23461853,0.540311575,-3.058414698
0.704928517,0.516056061,0.217865661,-0.8302176,0.00877177,0.013340661,0.019525057,-0.369726956,-0.05780492,0.276170433,-0.23455818,0.540403724,-3.05831933
0.70992589,0.514853954,0.220447958,-0.829251826,0.007078576,0.013911053,0.021520946,-0.369725972,-0.057942308,0.275886297,-0.23451671,0.540491462,-3.058212757
0.714924514,0.514342785,0.217229515,-0.83004725,0.009368713,0.013567816,0.024245793,-0.369725645,-0.057987865,0.275792092,-0.234434053,0.540588915,-3.058099747
0.719923973,0.514126241,0.214984939,-0.831076026,0.009928763,0.015048924,0.027407529,-0.369627565,-0.057921369,0.275910139,-0.234338045,0.540689051,-3.057972193
0.724924922,0.514556468,0.216787636,-0.828896105,0.009467157,0.01509529,0.027404698,-0.369570851,-0.057874192,0.275996447,-0.234250367,0.540793955,-3.05783987
0.729926646,0.518353164,0.213495627,-0.830606997,0.008208367,0.017005218,0.028356804,-0.369527221,-0.057837892,0.276062876,-0.234170929,0.540914118,-3.057718754
0.73492378,0.517749131,0.212600634,-0.830763578,0.007741699,0.016886864,0.028535856,-0.369512737,-0.057825856,0.2760849,-0.234086826,0.541034758,-3.057597637
0.739921391,0.516290247,0.214073032,-0.830346406,0.003254213,0.017598379,0.029126666,-0.369419158,-0.057672076,0.276291043,-0.234033734,0.541161001,-3.057473183
0.744920075,0.515079618,0.21522966,-0.831615984,0.002391128,0.020257063,0.031986605,-0.369304985,-0.057475355,0.276550204,-0.233972475,0.541292608,-3.057318211
0.749919772,0.516688704,0.216478467,-0.830541015,0.000661566,0.024141394,0.034467012,-0.369217128,-0.057323989,0.276749581,-0.233927831,0.541447639,-3.057165146
0.754920423,0.515840888,0.221130505,-0.829135478,-0.00104946,0.027105983,0.033551693,-0.369188011,-0.057273798,0.276815712,-0.233899578,0.541621447,-3.056993723
0.759922147,0.514481604,0.21928066,-0.83296591,-0.003939291,0.029555444,0.034750756,-0.36916557,-0.057235181,0.276866555,-0.233885169,0.541799903,-3.056840181
0.764919043,0.515937269,0.217283934,-0.830666244,-0.012055813,0.041006707,0.042577088,-0.369609296,-0.057109762,0.277132988,-0.233867407,0.542041779,-3.05664587
0.769916952,0.521469116,0.203514799,-0.84114629,-0.008521919,0.039761093,0.031296887,-0.369950712,-0.057013258,0.277337968,-0.233858421,0.542284012,-3.056577444
0.774915576,0.506742895,0.213468432,-0.84047091,-0.00749903,0.048026837,0.031089794,-0.370063931,-0.056981258,0.277405947,-0.23386769,0.542516828,-3.056491375
0.779915273,0.509019911,0.221548751,-0.838952839,-0.006241872,0.054158419,0.031452104,-0.370151013,-0.056956641,0.277458251,-0.233891457,0.542801857,-3.05636549
0.784915686,0.506027579,0.222039044,-0.838230312,-0.002929453,0.059478965,0.034546684,-0.369984388,-0.056750149,0.277469546,-0.233890265,0.54310894,-3.056235313
0.789917469,0.503371537,0.223731548,-0.84024328,-0.001035895,0.069480471,0.035331953,-0.36965847,-0.056390725,0.277472109,-0.233876273,0.543464065,-3.056106567
0.794914067,0.504309535,0.21832414,-0.843772948,-0.00049925,0.075626887,0.037582282,-0.369550407,-0.056271549,0.277472943,-0.233855873,0.543847501,-3.055997372
0.799917817,0.508512557,0.208814308,-0.848983467,-0.003864546,0.084813289,0.036242094,-0.369467258,-0.056179851,0.277473599,-0.233838305,0.544281423,-3.055943966
0.804916501,0.510874212,0.208105594,-0.849155605,-0.004003599,0.093616657,0.036301009,-0.369439691,-0.056149445,0.277473807,-0.233824968,0.544758856,-3.055906534
0.809916139,0.514327645,0.20744355,-0.846849024,-0.00410343,0.102547176,0.033130247,-0.370010912,-0.056128614,0.27594164,-0.23383674,0.545283318,-3.055907726
0.814916611,0.519376636,0.205312431,-0.849556208,-0.004626197,0.108343445,0.033871189,-0.370200336,-0.056121707,0.27543363,-0.233834967,0.545844972,-3.055891991
0.819918573,0.520751297,0.207627445,-0.848764777,-0.003734504,0.120269537,0.03215985,-0.370346069,-0.056116391,0.275042742,-0.233865425,0.546461046,-3.055918694
0.824915469,0.518161833,0.212483123,-0.853078604,-0.00839152,0.130126178,0.030855332,-0.370394409,-0.056114633,0.274913132,-0.233932376,0.547110498,-3.055942059
0.829913616,0.518080592,0.209229499,-0.858895361,-0.011776682,0.143866003,0.031729501,-0.370834559,-0.055899028,0.27515763,-0.233997419,0.547821641,-3.056009293
0.834912241,0.510113597,0.209410816,-0.863295913,-0.016111,0.162343904,0.033132259,-0.37108022,-0.055774521,0.275323898,-0.234105617,0.548608363,-3.056095123
0.839911938,0.508680344,0.217119247,-0.870760083,-0.025341,0.184731752,0.04104716,-0.371269256,-0.055678722,0.275451839,-0.234261766,0.549513519,-3.056132793
0.84491241,0.497080326,0.233858094,-0.886793375,-0.050306298,0.217022538,0.060758274,-0.37133193,-0.055646956,0.275494248,-0.234529123,0.550548792,-3.056074381
0.849914372,0.485087723,0.250229537,-0.900997102,-0.082894079,0.264652789,0.087570257,-0.37157467,-0.055741485,0.274734765,-0.234968826,0.551837981,-3.055895805
0.854911208,0.440796763,0.265439808,-0.914097905,-0.130934909,0.334376335,0.138807893,-0.371851295,-0.055892803,0.273684204,-0.235564247,0.55342871,-3.055509806
0.859908879,0.403507411,0.294636935,-0.940942764,-0.179079235,0.420724034,0.211686015,-0.372064143,-0.056009233,0.272875875,-0.236290693,0.555485845,-3.054724932
0.864907503,0.436343998,0.285577059,-0.97700423,-0.246117145,0.527228177,0.276628047,-0.372134715,-0.056047838,0.272607833,-0.237161413,0.558155656,-3.053788185
0.869906962,0.398673058,0.185635954,-1.096863747,-0.467803776,0.631493747,0.34053573,-0.372189045,-0.056077544,0.272401601,-0.23869887,0.561252177,-3.053132296
0.874907374,0.327052176,0.296581596,-1.114926815,-0.604947686,0.792327225,0.400466472,-0.373005599,-0.05602286,0.272154361,-0.241441324,0.565036416,-3.052009821
0.879909098,0.31596604,0.379270315,-1.111704946,-0.505246937,0.987661958,0.463527888,-0.373633862,-0.055980783,0.271964103,-0.243567243,0.569938183,-3.050523758
0.884905994,0.405838966,0.373715967,-1.106001377,-0.44938457,1.130456209,0.504401445,-0.37384218,-0.055966832,0.271901011,-0.245179906,0.575715899,-3.049045086
0.889903605,0.478259504,0.313446224,-1.109453797,-0.483009785,1.26445806,0.519762337,-0.374002486,-0.055956095,0.271852463,-0.246978074,0.582226217,-3.047936916
0.894902289,0.539796889,0.220244408,-1.127327204,-0.577691376,1.38490212,0.573064327,-0.375186086,-0.055775166,0.269904464,-0.249030977,0.589463532,-3.047025204
0.899901927,0.615153372,0.116998762,-1.161701322,-0.781698108,1.440887928,0.680489898,-0.377239823,-0.055456601,0.266452163,-0.251541555,0.597157836,-3.045845747
0.904902637,0.691281855,0.111115158,-1.19503057,-1.054559112,1.462609291,0.780321896,-0.377920806,-0.05535097,0.265307426,-0.255197227,0.605132818,-3.044058323
0.909904361,0.77435416,0.205837801,-1.164480329,-1.302683234,1.467077613,0.838503063,-0.378444791,-0.055269696,0.264426649,-0.26019299,0.613285124,-3.041581392
0.914901257,0.841577172,0.326731026,-1.099289656,-1.469709873,1.477131844,0.883374453,-0.378618509,-0.055242747,0.264134586,-0.266159892,0.621646285,-3.038478851
0.919898868,0.789289534,0.499267876,-1.06661272,-1.505125761,1.492714643,0.90715152,-0.383512348,-0.054530285,0.255631864,-0.272531539,0.629998267,-3.034887314
0.92489779,0.817200482,0.685132802,-1.071466684,-1.416908503,1.505075574,0.893381238,-0.385135084,-0.054294046,0.252812505,-0.278818369,0.638370991,-3.030923128
0.929897487,0.769590795,0.857150853,-1.082360864,-1.213230371,1.473645091,0.810270131,-0.386383653,-0.054112278,0.250643224,-0.284602642,0.646316051,-3.027202606
0.934904337,0.789380074,1.020878553,-1.135439992,-0.843005717,1.403041601,0.719768524,-0.386797667,-0.054052006,0.24992393,-0.289052844,0.653675854,-3.023570299
0.939906299,0.751422703,1.056198478,-1.240927458,-0.361184418,1.283985853,0.601060271,-0.39099285,-0.054029424,0.244169354,-0.291176558,0.660078704,-3.020672798
0.944903195,0.615892172,0.983200431,-1.328207016,0.103636861,1.157242298,0.466231823,-0.39334318,-0.054027822,0.240974218,-0.291017056,0.665348649,-3.01882863
0.949901044,0.451447338,0.830331981,-1.362930655,0.484954834,1.043897629,0.338129312,-0.395151585,-0.054026589,0.238515779,-0.288988113,0.669680476,-3.018107176
0.954899728,0.271022111,0.641854465,-1.364494562,0.754581451,0.961742222,0.228119016,-0.395751238,-0.054026183,0.237700611,-0.285598278,0.673306465,-3.018434048
0.959899366,0.100647248,0.445767909,-1.361818075,0.889594615,0.904830635,0.144239873,-0.397970468,-0.053354762,0.234130904,-0.281471401,0.676412106,-3.019710302
0.964899838,-0.034323595,0.272330344,-1.362261295,0.900018275,0.860306144,0.095714957,-0.400478959,-0.052455388,0.229980066,-0.277179807,0.67913878,-3.021619797
0.969901562,-0.141551793,0.139516324,-1.364015698,0.806604326,0.814816356,0.079819404,-0.402409077,-0.051763378,0.226786271,-0.273187041,0.681543887,-3.023812056
0.974898458,-0.226883024,0.062202707,-1.372652173,0.648793161,0.763650358,0.084938683,-0.403049052,-0.051533923,0.225727275,-0.269827038,0.683625162,-3.026007175
0.979896069,-0.28700611,0.039177865,-1.391567945,0.469578326,0.691266179,0.105810247,-0.403541476,-0.051357374,0.22491245,-0.267202586,0.685287952,-3.027952194
0.984894454,-0.328822494,0.061477922,-1.40584898,0.316019863,0.590320587,0.134893239,-0.405467063,-0.04956333,0.221655399,-0.265189141,0.686416507,-3.029429197
0.989894152,-0.353753299,0.108110428,-1.413804173,0.211537033,0.465776563,0.166392326,-0.406948686,-0.048182935,0.219149321,-0.263508409,0.686925769,-3.030349255
0.994894862,-0.374442667,0.165734768,-1.421229362,0.169750512,0.319812357,0.200805202,-0.407439947,-0.047725223,0.218318358,-0.261825144,0.686704695,-3.030643225
0.999896824,-0.396183014,0.213244304,-1.427056193,0.189605728,0.15911594,0.235188678,-0.40781796,-0.047373042,0.217678994,-0.259783298,0.685698986,-3.030346394
1.004893661,-0.420643985,0.232598513,-1.426437855,0.246857151,-0.006177515,0.262978315,-0.408322364,-0.04644249,0.217245206,-0.25715661,0.683874488,-3.029548168
1.009891272,-0.445159495,0.218417332,-1.422494292,0.314516068,-0.173494622,0.278355926,-0.409093738,-0.044903636,0.216687158,-0.253912956,0.681234896,-3.028441668
1.014889956,-0.473361313,0.183105096,-1.404336452,0.364283919,-0.329422742,0.284396708,-0.409349531,-0.044393379,0.216502115,-0.250188708,0.67784673,-3.027148247
1.019889712,-0.506752193,0.137320757,-1.378395796,0.384808183,-0.480208278,0.284461856,-0.409546316,-0.044000771,0.216359749,-0.24618642,0.673714995,-3.025739431
1.024890423,-0.543826044,0.098810911,-1.346296072,0.377917111,-0.612366676,0.290672392,-0.409611583,-0.043870591,0.216312543,-0.242053196,0.668944776,-3.02415967
1.029892325,-0.575918257,0.070713319,-1.318414688,0.352441579,-0.726063967,0.30382365,-0.408507824,-0.041020371,0.216479942,-0.237923697,0.663638771,-3.02239275
1.034889221,-0.585908651,0.052621756,-1.298532128,0.31132248,-0.826089263,0.325706512,-0.408141822,-0.040075295,0.216535449,-0.233854771,0.657895684,-3.020386219
1.039886594,-0.574890196,0.052726604,-1.2856884,0.257982552,-0.922621667,0.355149001,-0.407860219,-0.039348118,0.216578156,-0.229916826,0.651752949,-3.018060923
1.044885278,-0.53990531,0.068600751,-1.284298897,0.1994818,-1.021096468,0.386435986,-0.407766849,-0.039106999,0.216592312,-0.226175129,0.645210326,-3.015377045
1.049884677,-0.484213382,0.08616215,-1.293791056,0.143781886,-1.127569795,0.41394183,-0.405599803,-0.036031816,0.220063671,-0.222608477,0.638235569,-3.012303114
1.054885387,-0.422229737,0.10499876,-1.306084394,0.086237252,-1.247252584,0.423088968,-0.404362798,-0.03429709,0.222071007,-0.219300658,0.63074106,-3.009011745
1.059887052,-0.356951684,0.130671486,-1.317259312,0.036508847,-1.375357509,0.417993486,-0.403411001,-0.032962333,0.223615512,-0.216269597,0.622677803,-3.005567074
1.064883947,-0.295049667,0.162122816,-1.32546258,-0.008388288,-1.511677027,0.394980907,-0.403095394,-0.032519754,0.224127635,-0.213582799,0.613982797,-3.002067804
1.069887757,-0.243641734,0.192458123,-1.328845263,-0.043198522,-1.646967649,0.355902851,-0.400759965,-0.030460097,0.22745806,-0.211233765,0.604635239,-2.998558044
1.074886918,-0.202234656,0.218891472,-1.328204632,-0.067502506,-1.780305624,0.30285576,-0.397875398,-0.0280436,0.231523395,-0.20919618,0.594643056,-2.995147705
1.079886556,-0.167573825,0.243894383,-1.319544792,-0.08105199,-1.903541803,0.239288419,-0.39565593,-0.02618427,0.234651402,-0.207474753,0.584044158,-2.991964102
1.084887266,-0.142042816,0.256237149,-1.306298852,-0.087031193,-2.016874313,0.167282343,-0.394919991,-0.025567751,0.235688582,-0.20602347,0.572874486,-2.989075184
1.08988905,-0.124092653,0.263314545,-1.291763902,-0.091937974,-2.115640163,0.091475472,-0.394353718,-0.025093382,0.236486629,-0.204840913,0.561201751,-2.986510277
1.094885945,-0.104124323,0.267522365,-1.272441149,-0.097781256,-2.199141979,0.014783729,-0.389332414,-0.022273749,0.243356153,-0.203938663,0.549111187,-2.984229565
1.099883556,-0.083274662,0.266290218,-1.254081845,-0.106772773,-2.272375822,-0.058295235,-0.3854689,-0.020104231,0.248641789,-0.203304663,0.536668956,-2.982294798
1.104882479,-0.058216862,0.263101786,-1.233218908,-0.121625841,-2.327577829,-0.126877785,-0.384187818,-0.019384861,0.250394404,-0.202947229,0.523968995,-2.980698347
1.109882116,-0.027870104,0.259384066,-1.217110634,-0.137179673,-2.37035346,-0.190529689,-0.383202136,-0.018831354,0.251742929,-0.202848643,0.51108861,-2.979410887
1.114882827,0.015725657,0.264898956,-1.20266223,-0.155619159,-2.408529043,-0.243377447,-0.379049748,-0.017582942,0.256694674,-0.203013152,0.498077571,-2.97824955
1.119884849,0.069809303,0.276500076,-1.187431335,-0.165113464,-2.446577549,-0.289447755,-0.371986538,-0.015545618,0.26505959,-0.203364789,0.484956056,-2.977221012
1.124881625,0.13228038,0.295276612,-1.158797026,-0.163072065,-2.493982077,-0.327827364,-0.369644493,-0.014870079,0.267833233,-0.203840062,0.471695274,-2.976243258
1.129879355,0.188306034,0.321849406,-1.125768661,-0.145731583,-2.544416666,-0.360386401,-0.367842466,-0.014350299,0.269967347,-0.204346329,0.4582766,-2.975247145
1.134877682,0.23416096,0.347866863,-1.099023104,-0.102811918,-2.58934021,-0.390176088,-0.367244929,-0.014177949,0.270674974,-0.204736829,0.444715053,-2.974210024
1.139877319,0.262547672,0.364275277,-1.066853046,-0.043156024,-2.620004892,-0.421861023,-0.356229842,-0.012527516,0.282061636,-0.204921022,0.431049287,-2.973190069
1.14487803,0.282902122,0.374212831,-1.039396644,0.021729106,-2.633782148,-0.452990353,-0.352577448,-0.011980264,0.285837233,-0.204846069,0.417377412,-2.972268343
1.149880052,0.309125692,0.371995598,-1.017013311,0.083055153,-2.630712032,-0.488511473,-0.349767178,-0.01155919,0.288742304,-0.204557687,0.403769672,-2.971523285
1.154876947,0.335647255,0.361569375,-0.999281466,0.133307219,-2.616359949,-0.525777698,-0.348835349,-0.01141957,0.289705575,-0.204081327,0.390276283,-2.971009016
1.159875035,0.360178769,0.344768167,-0.984726012,0.168143272,-2.59117198,-0.562214434,-0.339621305,-0.010632935,0.299181402,-0.203510612,0.376948088,-2.970660925
1.164873719,0.386894673,0.324249268,-0.97511214,0.184736699,-2.557643414,-0.6036461,-0.334463477,-0.01020403,0.304484844,-0.202926859,0.363827109,-2.970616341
1.169873714,0.413866788,0.295354515,-0.963208795,0.178892717,-2.514380217,-0.643049359,-0.330494881,-0.009874017,0.308565468,-0.202421591,0.35096091,-2.970888853
1.174874425,0.442958683,0.265409261,-0.951045096,0.152363673,-2.469881773,-0.68789345,-0.329178989,-0.009764591,0.309918523,-0.202099591,0.338342279,-2.971494198
1.179876328,0.471038759,0.233781338,-0.940816998,0.10776078,-2.424726248,-0.730197251,-0.32294637,-0.009048215,0.31527707,-0.202042803,0.325983107,-2.97237587
1.184873223,0.502156973,0.206786811,-0.947463155,0.04772016,-2.380509377,-0.772205234,-0.315615803,-0.008173192,0.321407586,-0.202321768,0.313872218,-2.973535061
1.189871073,0.553382933,0.176759019,-0.973350108,-0.040322557,-2.338202,-0.81444937,-0.309975415,-0.007499921,0.326124579,-0.203048453,0.302016526,-2.975020409
1.194869995,0.636344433,0.144580394,-1.012611151,-0.140640348,-2.320391655,-0.861457527,-0.308105171,-0.007276677,0.327688664,-0.204265982,0.290348202,-2.976813793
1.19986999,0.719808757,0.098342568,-1.041785598,-0.265148371,-2.335377216,-0.923693597,-0.306666166,-0.007104905,0.328892112,-0.206086844,0.278665483,-2.978984594
1.204876781,0.788640499,0.062319085,-1.068358779,-0.40208894,-2.382059813,-0.995057642,-0.297822982,-0.007057966,0.334647506,-0.208582893,0.266771764,-2.981494904
1.209878564,0.827502847,0.045579739,-1.078543782,-0.537015259,-2.442842722,-1.069669724,-0.291018754,-0.007021849,0.339075863,-0.211774677,0.254544824,-2.984293699
1.214875698,0.835556448,0.050389599,-1.06932497,-0.647356987,-2.507038593,-1.128523588,-0.288762599,-0.007009874,0.340544224,-0.215551168,0.241951659,-2.987240791
1.219873309,0.836189449,0.070629284,-1.043128252,-0.708266377,-2.565294981,-1.16331315,-0.287026644,-0.007000659,0.34167403,-0.219625756,0.229051173,-2.990124702
1.224871993,0.810472071,0.090085387,-1.012501597,-0.715300918,-2.605985641,-1.174214721,-0.281181306,-0.007813528,0.345996708,-0.223676741,0.215932325,-2.992836475
1.229871631,0.783512771,0.11200425,-0.966944933,-0.674767971,-2.628479004,-1.15708375,-0.271355182,-0.009264003,0.353314817,-0.227459908,0.202714175,-2.995262861
1.234872341,0.762628436,0.131805643,-0.917711556,-0.59247303,-2.629188776,-1.119117498,-0.268097043,-0.009744952,0.355741352,-0.230759129,0.189554542,-2.997339249
1.239874363,0.741620421,0.15092428,-0.869645119,-0.482552707,-2.604426622,-1.064700723,-0.265590131,-0.010115011,0.357608438,-0.233429968,0.176585749,-2.999026299
1.244871736,0.731396914,0.161014095,-0.819087386,-0.359699249,-2.560944796,-0.99720633,-0.264758885,-0.010237715,0.358227521,-0.235419914,0.16394484,-3.000328779
1.249869347,0.738542795,0.159479856,-0.772815108,-0.241965666,-2.499694824,-0.918851137,-0.251684427,-0.014493383,0.365714222,-0.236733809,0.151753634,-3.001260996
1.254867911,0.754425883,0.154306501,-0.727345645,-0.152010456,-2.431445599,-0.838695943,-0.247349188,-0.015904481,0.368196666,-0.23755011,0.140058994,-3.001829386
1.259867668,0.769166052,0.156337202,-0.691408932,-0.089482404,-2.352695704,-0.761055946,-0.244013533,-0.016990226,0.370106757,-0.238045201,0.128880948,-3.002059937
1.264868379,0.789304912,0.158713609,-0.657682419,-0.050921578,-2.261212587,-0.699005723,-0.242907479,-0.01735024,0.370740086,-0.238349542,0.118282564,-3.002036095
1.269870281,0.816591799,0.151065916,-0.630695522,-0.040692933,-2.157595873,-0.648476064,-0.23242195,-0.018943446,0.375412047,-0.23858279,0.108323038,-3.001870394
1.274867415,0.85345161,0.143182769,-0.606058717,-0.056378163,-2.052709103,-0.608216763,-0.226561069,-0.01979742,0.377996713,-0.238908157,0.099015713,-3.001634359
1.279865384,0.881822467,0.153020263,-0.573991001,-0.085235164,-1.947878957,-0.581269324,-0.222051516,-0.020454498,0.379985422,-0.239427596,0.090305708,-3.001311302
1.284864306,0.898088694,0.175930917,-0.530097961,-0.109808862,-1.845399261,-0.556410491,-0.220556229,-0.020672372,0.380644828,-0.240134999,0.082147822,-3.000840902
1.289863944,0.89789629,0.19269681,-0.484746009,-0.114618905,-1.740101099,-0.526202083,-0.21454002,-0.020770043,0.383228689,-0.240890712,0.074540555,-3.000208855
1.294864416,0.885628402,0.193274677,-0.439593315,-0.099827044,-1.615218401,-0.490719914,-0.207638621,-0.020731874,0.386179358,-0.24157016,0.067578189,-2.999508858
1.299866319,0.881815791,0.173939794,-0.39672026,-0.070005447,-1.482185125,-0.452314883,-0.202328473,-0.020702504,0.388449699,-0.242051601,0.061327361,-2.998808861
1.304863214,0.879951835,0.149497062,-0.360530645,-0.044731256,-1.340053678,-0.418752342,-0.200567737,-0.020692766,0.389202476,-0.242377177,0.055823173,-2.998178005
1.309860826,0.878787756,0.120482504,-0.325665087,-0.021851018,-1.192302704,-0.385056943,-0.199212953,-0.020685274,0.389781713,-0.242549062,0.051082715,-2.997622252
1.314859509,0.90529722,0.088737354,-0.295379579,-0.012193419,-1.043236852,-0.35644421,-0.192189902,-0.020428987,0.392602563,-0.242625713,0.047172561,-2.997138023
1.319859147,0.945166528,0.062172823,-0.26354298,-0.013150438,-0.90681082,-0.336112678,-0.18678613,-0.020231795,0.394773036,-0.242703393,0.04401809,-2.996767282
1.324859619,0.971348107,0.045685399,-0.230108052,-0.016283562,-0.76625514,-0.323025435,-0.18499434,-0.020166408,0.395492703,-0.242785484,0.041599583,-2.996500015
1.329861641,0.988418043,0.034448508,-0.208583087,-0.024141559,-0.627415419,-0.317691714,-0.183615685,-0.020116098,0.39604646,-0.242913917,0.039893445,-2.996382713
1.334858537,0.999357283,0.03512343,-0.187544242,-0.030221438,-0.484404862,-0.317410827,-0.180418491,-0.019821584,0.397630721,-0.243097261,0.038894948,-2.996373415
1.339862585,1.007681131,0.046939407,-0.1704676,-0.024846951,-0.339187413,-0.31483075,-0.175187811,-0.019314043,0.400265962,-0.243287981,0.038622919,-2.996451616
1.344861746,1.012167454,0.06636861,-0.152108833,-0.001816034,-0.192003608,-0.313288569,-0.17345342,-0.019145751,0.401139766,-0.243394285,0.039075427,-2.996598244
1.349861622,1.024662256,0.09273693,-0.136728853,0.034751017,-0.050124347,-0.306433648,-0.172118932,-0.019016262,0.401812077,-0.24337393,0.040256705,-2.996745825
1.354862332,1.023733616,0.122039214,-0.126463175,0.090921409,0.089865983,-0.291943729,-0.171676442,-0.018973326,0.402034998,-0.243113533,0.04212391,-2.99685955
1.359864354,1.019507647,0.148432672,-0.123036146,0.155310839,0.227181256,-0.268358648,-0.170087948,-0.018281216,0.403011084,-0.242568344,0.044678587,-2.996904135
1.364861131,1.013501763,0.173760757,-0.129712284,0.226795003,0.358081222,-0.239831612,-0.169561237,-0.018051725,0.403334737,-0.241691515,0.04789,-2.996880293
1.369858861,1.00741744,0.203377485,-0.144477934,0.302997231,0.481276423,-0.202237293,-0.16915597,-0.017875148,0.403583765,-0.240488723,0.051741857,-2.996715546
1.374857426,1.001600981,0.234023228,-0.15488492,0.378645182,0.594977021,-0.159586027,-0.169021592,-0.017816598,0.403666317,-0.238950685,0.056180824,-2.996351957
1.379857183,0.99003917,0.262847245,-0.166596398,0.453767478,0.697440445,-0.097715728,-0.169192031,-0.016182622,0.404540122,-0.237072036,0.061160613,-2.99567318
1.384857893,0.992061079,0.281428814,-0.185401723,0.517085671,0.790139318,-0.026004381,-0.169316307,-0.015247641,0.40503037,-0.234891087,0.066680521,-2.994677782
1.389859796,0.999452472,0.295839489,-0.207472473,0.558584332,0.867806971,0.059551746,-0.169411927,-0.014528237,0.405407578,-0.232502654,0.072684057,-2.9933002
1.394857168,1.021522999,0.315404385,-0.226745665,0.573099434,0.933640242,0.162179723,-0.169443637,-0.014289697,0.405532658,-0.23005347,0.079159483,-2.991399288
1.399854898,1.070305467,0.342939198,-0.23852393,0.560037255,0.977604866,0.276201874,-0.170932516,-0.012664549,0.405476063,-0.227706611,0.086057194,-2.98878479
1.404853463,0.53170681,0.334439993,-0.115853176,0.544431329,1.076553106,0.442652613,-0.172902972,-0.010671971,0.40530318,-0.225476608,0.092492104,-2.98581171
1.40985322,0.62388581,0.273410738,-0.216148078,0.627899468,1.643770814,0.660564721,-0.174419105,-0.009138817,0.405170143,-0.222406089,0.102533489,-2.982369661
1.41485393,0.2489537,0.452698529,-0.256628752,0.772557199,1.931121469,0.705090106,-0.174921826,-0.008630453,0.405126035,-0.218899518,0.113857418,-2.978821516
1.419855595,-0.563204229,0.438985735,-0.637398601,0.629171371,2.121916771,0.658749998,-0.17530863,-0.0082393,0.40509209,-0.216106325,0.123201214,-2.976744652
1.424852729,-0.830254078,0.242134362,-1.338630319,0.466454417,2.557162285,0.528433621,-0.179825872,-0.004374951,0.403913498,-0.213732436,0.134675249,-2.977497816
1.42985034,-1.324463487,0.123934314,-1.797764063,0.187838554,3.150404215,0.20695594,-0.183301583,-0.001401597,0.403006643,-0.212643296,0.147662476,-2.981771231
1.434849024,-1.398371935,0.296421468,-1.721343875,-0.14311856,3.939010143,-0.207356364,-0.184454069,-0.000415689,0.402705938,-0.214395911,0.164158136,-2.988129854
1.439848661,-0.770324469,0.563224912,-1.325679421,-0.306709945,4.64700985,-0.488117546,-0.185340822,0.0003429,0.402474582,-0.218206927,0.185376436,-2.994632721
1.444849372,0.314704984,0.485142499,-0.91345048,-0.31272465,5.161880016,-0.642276883,-0.191823572,0.002074333,0.399669737,-0.222190022,0.210902825,-3.001825094
1.449851394,1.229506254,0.053430527,-0.805093169,-0.348497719,5.357991219,-0.777082026,-0.203069389,0.004902961,0.394753069,-0.225732848,0.238705844,-3.011332512
1.454848289,1.69485867,-0.206752449,-0.840227842,-0.5200001,5.333893776,-0.838590205,-0.206798285,0.005840881,0.393122792,-0.230229393,0.266422868,-3.022060156
1.459846139,1.691006064,-0.377729058,-1.111680508,-0.742213547,5.189021587,-0.765519142,-0.209667429,0.006562546,0.391868412,-0.235734671,0.293045878,-3.033137321
1.464844823,1.537625551,-0.572690129,-1.413055658,-0.974894464,4.940764427,-0.556439221,-0.210618764,0.006801837,0.391452461,-0.241764307,0.318005085,-3.044183493
1.46984446,1.689799905,-0.702136934,-1.697936893,-1.158917546,4.528078079,-0.208188087,-0.235611364,0.004507804,0.379538119,-0.247843966,0.341481954,-3.053736925
1.47485137,1.863566756,-0.74521333,-1.886715412,-1.335012555,3.908203602,0.226971745,-0.243898422,0.003747146,0.375587553,-0.253712356,0.362495214,-3.060441732
1.479853272,1.873359442,-0.692328453,-1.888005733,-1.461988568,3.254298449,0.659893155,-0.250274777,0.003161871,0.372547865,-0.259280115,0.380619138,-3.063752651
1.484850168,1.795392632,-0.562812746,-1.710303664,-1.613588691,2.599803925,0.980289876,-0.252389044,0.002967805,0.37153995,-0.264959842,0.39586851,-3.063964605
1.489847779,1.551555276,-0.270118654,-1.400746346,-1.727644444,2.148427963,1.184910655,-0.270851403,-0.000512519,0.360382229,-0.271339923,0.408898771,-3.061338186
1.494846463,1.28207159,0.127841264,-1.147686958,-1.769607782,1.835212469,1.24105227,-0.281139195,-0.002490795,0.35411343,-0.278500557,0.420265287,-3.05665803
1.499846101,1.023270369,0.611437261,-0.960782409,-1.740929961,1.651771188,1.21134901,-0.28905496,-0.004012944,0.349290043,-0.286399364,0.430411786,-3.050274849
1.504846811,0.857144952,1.157069683,-0.831582844,-1.564162493,1.548879504,1.103992939,-0.291679651,-0.00451766,0.347690701,-0.294627428,0.439737588,-3.042528629
1.509848833,0.823043585,1.76455462,-0.760958076,-1.142945409,1.485665917,1.000338078,-0.298295975,-0.005880732,0.343893826,-0.302041739,0.448479414,-3.033509016
1.514845729,1.000290632,2.389149189,-0.748820186,-0.368257523,1.316071391,0.939464331,-0.305125177,-0.007315611,0.340047032,-0.306210041,0.456739008,-3.022231102
1.519843578,0.830165386,2.374161005,-0.601207376,0.145102441,1.105033994,0.495655417,-0.310379773,-0.008419653,0.337087184,-0.308571488,0.462717295,-3.013584852
1.524842262,0.543943703,1.985599518,-0.342265427,0.594664514,1.038923144,0.100028321,-0.312122107,-0.008785733,0.336105764,-0.309262455,0.467650592,-3.008663654
1.5298419,0.251311839,1.063745499,-0.368593425,0.881045282,1.131733298,0.098560363,-0.313462704,-0.009067407,0.335350603,-0.306595713,0.472849548,-3.007242203
1.53484261,0.504761636,0.166955799,-0.78662169,0.906145692,1.171639085,0.261573017,-0.318254411,-0.007843884,0.330958068,-0.301493883,0.479209095,-3.008141518
1.539844632,0.802508652,-0.244850338,-1.146987081,0.775185108,0.991332889,0.443215966,-0.321941316,-0.006902465,0.327578306,-0.295888543,0.485097319,-3.008852482
1.544841528,0.935819566,-0.328684181,-1.192888975,0.605479598,0.742674112,0.604642093,-0.323163837,-0.006590309,0.326457649,-0.290553659,0.489995956,-3.008038998
1.549839139,0.824085236,-0.125360429,-1.007150173,0.444653064,0.589853585,0.64790529,-0.324104458,-0.006350126,0.325595349,-0.286459535,0.494059145,-3.005672932
1.554837704,0.669361472,0.267742336,-0.829822063,0.368903965,0.561470985,0.574035406,-0.32661745,-0.004732255,0.324702471,-0.283893168,0.497723699,-3.002220869
1.559837461,0.594737411,0.520032465,-0.787773907,0.389044344,0.564005256,0.459835678,-0.330776721,-0.001932022,0.323401719,-0.281948447,0.501176536,-2.998776913
1.564838171,0.578797042,0.450349033,-0.83439523,0.437767416,0.541815341,0.39912349,-0.332155854,-0.001003518,0.32297039,-0.279516041,0.504389286,-2.996184111
1.569840431,0.619664967,0.198475957,-0.922728777,0.443950176,0.494069487,0.399938494,-0.333216995,-0.000289098,0.322638541,-0.27633068,0.507432342,-2.99447298
1.574837804,0.649850011,0.027084952,-0.966173291,0.38885659,0.426349521,0.417513728,-0.333568871,-5.22E-05,0.322528511,-0.273030251,0.510216057,-2.993023872
1.579835415,0.663306057,0.045489363,-0.946694553,0.312457055,0.365874231,0.406337291,-0.336670786,0.003946677,0.320075452,-0.270259172,0.512699366,-2.991257668
1.584834099,0.652171671,0.164533168,-0.907577932,0.25588578,0.321456939,0.362303287,-0.337699294,0.005272632,0.319262058,-0.26819402,0.514873505,-2.989173651
1.589833736,0.637102783,0.239794627,-0.882360637,0.229441762,0.284171253,0.309054136,-0.338490665,0.006292864,0.318636179,-0.266512752,0.516778946,-2.9871068
1.594834447,0.627021372,0.209983155,-0.898986936,0.208682507,0.250568539,0.267879963,-0.338753074,0.006631154,0.318428665,-0.264885336,0.518448293,-2.985424042
1.599836111,0.610534132,0.139360771,-0.921615005,0.175704777,0.221875548,0.235076159,-0.340477675,0.009091342,0.316530854,-0.263318539,0.519898534,-2.984162331
1.604833245,0.59906137,0.106385529,-0.925634205,0.134786919,0.198969766,0.208454549,-0.341426313,0.010451464,0.3154715,-0.261958957,0.521199763,-2.983083963
1.609837055,0.601884782,0.11907915,-0.91578722,0.089345895,0.18011795,0.175505325,-0.342156261,0.011497987,0.314656407,-0.260964066,0.522387147,-2.982064009
1.614835978,0.600443482,0.150219887,-0.895474017,0.054558091,0.157505929,0.137084857,-0.342398286,0.011844994,0.314386129,-0.260327816,0.523422599,-2.981087685
1.619835615,0.585111439,0.165790737,-0.885120451,0.021843821,0.13744323,0.101069562,-0.342735618,0.012751868,0.314366281,-0.259946048,0.524280787,-2.980228424
1.624836087,0.568499923,0.174539164,-0.876723409,-0.005635852,0.120477751,0.065912217,-0.342999846,0.01369782,0.314549387,-0.259815991,0.525005639,-2.979521513
1.629838109,0.538671851,0.18892321,-0.868587315,-0.023676805,0.114536047,0.046812717,-0.343203127,0.014425665,0.314690262,-0.259837329,0.525618017,-2.978863001
1.634835243,0.52702713,0.207469195,-0.863803566,-0.040221401,0.111216798,0.028679412,-0.34327057,0.014667005,0.314736962,-0.260022193,0.526200831,-2.978230238
1.639832854,0.527619123,0.214526802,-0.852445781,-0.047336943,0.107398272,0.010100786,-0.343322456,0.014852699,0.314772934,-0.260338187,0.526761055,-2.977677822
1.644831181,0.530594349,0.212595373,-0.851161063,-0.055741105,0.104018442,0.000266461,-0.344088733,0.015027811,0.314507663,-0.260673672,0.527282655,-2.977174759
1.649830937,0.525607347,0.213753864,-0.849897146,-0.066089936,0.100364551,-0.012712906,-0.344678342,0.015162548,0.314303547,-0.261102229,0.527767241,-2.976749659
1.654831409,0.514680147,0.218885913,-0.847007215,-0.07263124,0.101514682,-0.023488525,-0.344873846,0.015207225,0.314235866,-0.261609197,0.528227568,-2.976360083
1.659833312,0.511183679,0.227107987,-0.841932893,-0.075155117,0.100496061,-0.028994823,-0.345024258,0.0152416,0.314183801,-0.26215595,0.528679073,-2.975976467
1.664830446,0.503197968,0.233681813,-0.83767271,-0.070004627,0.097784862,-0.030478157,-0.345185995,0.015222792,0.313784182,-0.26268208,0.529096246,-2.975569963
1.669828296,0.494581401,0.243303195,-0.834032774,-0.06675718,0.097859815,-0.02531811,-0.345423579,0.015177777,0.313090056,-0.263200611,0.529518306,-2.975110769
1.67482698,0.493347883,0.249566033,-0.828563929,-0.059376881,0.100665763,-0.01737152,-0.345502347,0.015162852,0.312859893,-0.263673246,0.529963672,-2.974587202
1.679826975,0.501289487,0.252079904,-0.824808776,-0.048495565,0.100337736,-0.007753032,-0.345562935,0.015151368,0.312682807,-0.264056951,0.530436993,-2.973981619
1.684827685,0.505944729,0.248618215,-0.822779,-0.036680702,0.097334877,0.002894599,-0.345583051,0.015147559,0.312624067,-0.264342666,0.530912519,-2.973342419
1.689829588,0.499343753,0.245522097,-0.821645916,-0.029353464,0.095486775,0.013979763,-0.346515983,0.014611362,0.311444879,-0.264545053,0.531377673,-2.972652674
1.694826484,0.492405534,0.248831674,-0.818738461,-0.021575421,0.099103123,0.02651212,-0.346825331,0.014433569,0.311053902,-0.264692605,0.531868875,-2.971891403
1.699824333,0.482190877,0.242233381,-0.818065703,-0.014843926,0.100979879,0.041736282,-0.347063363,0.01429677,0.310753047,-0.264748693,0.532384813,-2.971073866
1.704823017,0.477524817,0.25027898,-0.819972515,-0.008016257,0.106276691,0.05623835,-0.347142279,0.01425141,0.310653269,-0.264764518,0.532936752,-2.970169067
1.709823012,0.478276879,0.252800047,-0.820506394,0.003750032,0.111636229,0.067671835,-0.347052306,0.014258717,0.309943765,-0.264681965,0.533524036,-2.969189644
1.714823723,0.484364867,0.251284182,-0.82404238,0.016249796,0.114037864,0.080799863,-0.346985161,0.014271585,0.309551954,-0.264501691,0.53415221,-2.968163013
1.719825387,0.484793842,0.246226326,-0.821952701,0.02853523,0.116098352,0.095958687,-0.346933484,0.014281486,0.309250474,-0.264199406,0.534810781,-2.96706748
1.724822521,0.480559111,0.251885682,-0.819000065,0.039392654,0.120389223,0.112688318,-0.346916378,0.014284769,0.309150517,-0.263819963,0.535507739,-2.965876341
1.729820132,0.485598445,0.274531305,-0.812062025,0.057415966,0.122435331,0.130080357,-0.347048491,0.014439716,0.309652001,-0.263355672,0.536246002,-2.964469433
1.734818816,0.478983462,0.282371968,-0.806647301,0.076423876,0.126143828,0.145957917,-0.347238839,0.014644795,0.310401529,-0.262757659,0.537002802,-2.962966919
1.739818454,0.486828983,0.278540045,-0.810854316,0.101672933,0.124708764,0.159089103,-0.347385287,0.014802589,0.310978264,-0.261987239,0.537787378,-2.961411953
1.744825363,0.488465428,0.263709068,-0.820996106,0.121390879,0.123514481,0.165148228,-0.347433835,0.014854911,0.311169505,-0.261047333,0.538552225,-2.959883928
1.749827027,0.506322026,0.250611126,-0.82052964,0.139382794,0.119455233,0.169067144,-0.347471207,0.014895169,0.311316639,-0.259987324,0.539352357,-2.958359957
1.754823923,0.508477509,0.236450791,-0.823401868,0.156697139,0.125212133,0.172369063,-0.347937286,0.015466018,0.310206056,-0.258801341,0.540164232,-2.956866264
1.759821534,0.507766962,0.227125764,-0.829253674,0.173471436,0.128418684,0.166467145,-0.348295867,0.015905246,0.309351563,-0.257559955,0.540993512,-2.955462456
1.764820457,0.511551738,0.220692381,-0.833494961,0.183775693,0.129029036,0.159568623,-0.348414779,0.016050886,0.309068233,-0.256269276,0.541816413,-2.954121828
1.769820213,0.513666332,0.21334213,-0.836489439,0.203432381,0.131274,0.157598153,-0.348506272,0.016162945,0.308850229,-0.254861921,0.54264015,-2.952819109
1.774820805,0.521292925,0.216673508,-0.838724434,0.210883409,0.128998131,0.15216352,-0.348744541,0.016841577,0.309022099,-0.253461808,0.543455899,-2.951510668
1.779822826,0.523810744,0.225346446,-0.837404191,0.216709122,0.123061687,0.149108872,-0.349138141,0.018012371,0.309401274,-0.252049327,0.544230282,-2.950162411
1.784819961,0.522212505,0.235944793,-0.836983323,0.216142938,0.117936864,0.141497657,-0.349268645,0.018400583,0.30952701,-0.250691205,0.544971108,-2.948822498
1.78981781,0.521965802,0.236063018,-0.838172734,0.207603037,0.108775862,0.139028609,-0.349369079,0.018699288,0.309623748,-0.249366313,0.545650423,-2.947479963
1.794816732,0.527093172,0.227624133,-0.832845807,0.199572191,0.097436734,0.136311278,-0.349402368,0.018798335,0.309655815,-0.248076916,0.546293378,-2.94615674
1.799816728,0.531081378,0.21579051,-0.838342309,0.187835932,0.091717288,0.129126579,-0.350037068,0.019829269,0.309359878,-0.246823594,0.546897113,-2.944909096
1.804817677,0.526801825,0.215304658,-0.836247146,0.172557607,0.085747063,0.120788254,-0.350247532,0.020171108,0.309261739,-0.245683223,0.547459185,-2.9436903
1.809819341,0.520776212,0.223030061,-0.838569582,0.158849567,0.084490083,0.117129907,-0.350409448,0.02043413,0.30918622,-0.244644985,0.548000515,-2.942479372
1.814816236,0.507820547,0.230066374,-0.835817158,0.146541834,0.079149492,0.113165267,-0.350463152,0.020521343,0.309161186,-0.243695006,0.548479438,-2.941260576
1.819814086,0.509546101,0.223273754,-0.837582529,0.137651086,0.080959938,0.116652854,-0.351118654,0.021766655,0.308801621,-0.242750287,0.548985064,-2.940029383
1.824813008,0.512428045,0.217194796,-0.834181309,0.128063381,0.077357568,0.117983796,-0.351487994,0.022471126,0.308598191,-0.241837397,0.549478292,-2.938806057
1.829813004,0.51415664,0.219880998,-0.832090974,0.121364884,0.075936049,0.121419348,-0.351772159,0.023013169,0.308441639,-0.240956724,0.549980819,-2.937541008
1.834813476,0.517279088,0.222602025,-0.827995002,0.118486263,0.075650916,0.121845163,-0.351866394,0.023192901,0.308389753,-0.240098387,0.550480366,-2.936253548
1.839815378,0.521835625,0.220697328,-0.827152312,0.116985314,0.077381678,0.125944719,-0.351971805,0.023704929,0.308098793,-0.239225432,0.551001906,-2.934951067
1.844812274,0.519692004,0.221684888,-0.822564542,0.115912318,0.07936877,0.130781412,-0.352039933,0.024251582,0.307749212,-0.238354534,0.551538229,-2.933612108
1.849810123,0.519999862,0.219892919,-0.825440764,0.113319978,0.077896073,0.138185069,-0.352092355,0.024672193,0.307480216,-0.23745431,0.552075028,-2.932238102
1.854808807,0.526172817,0.210861862,-0.829283893,0.111854605,0.080183834,0.137728184,-0.35210973,0.024811661,0.307391047,-0.236564845,0.552627683,-2.930895805
1.859808803,0.526750326,0.203079358,-0.834237397,0.107629418,0.077178404,0.143064842,-0.352123111,0.024918972,0.307322413,-0.235647231,0.553164542,-2.929551125
1.864809513,0.526295125,0.196439445,-0.838965178,0.099428311,0.078122556,0.138885528,-0.352584928,0.025766782,0.306185901,-0.234785631,0.553696156,-2.928267717
1.869811416,0.528621912,0.192818552,-0.842952013,0.094528213,0.081745535,0.135046482,-0.352940261,0.026419116,0.305311412,-0.233959839,0.554241598,-2.927013636
1.874808311,0.526827216,0.179090351,-0.847710609,0.082260169,0.087090239,0.131581217,-0.3530581,0.026635418,0.305021465,-0.233165756,0.55481714,-2.925858021
1.879812121,0.523250699,0.176021546,-0.847516954,0.069532618,0.08643806,0.126486108,-0.353148758,0.026801845,0.304798394,-0.232465461,0.555365741,-2.924742222
1.884811044,0.528500319,0.1868909,-0.837244868,0.0635809,0.079937518,0.121314481,-0.35301432,0.027257569,0.304661691,-0.231809393,0.55586189,-2.923547029
1.889810681,0.526106715,0.196672976,-0.83419311,0.051306613,0.088339351,0.113942526,-0.35274452,0.028013224,0.30449307,-0.231289595,0.556430161,-2.92239356
1.894811392,0.519898117,0.198259979,-0.835184395,0.042216554,0.094708301,0.102909714,-0.352655053,0.028263787,0.30443719,-0.230851263,0.556987762,-2.92132163
1.899813175,0.508638144,0.20644547,-0.838220656,0.036828883,0.097549058,0.086580493,-0.35258621,0.028456576,0.304394186,-0.230502158,0.557529867,-2.920318604
1.90481019,0.504841447,0.212867275,-0.839855492,0.02940839,0.1059094,0.063099645,-0.352563381,0.0285205,0.30437991,-0.230289102,0.558060646,-2.919467449
1.90980792,0.492113113,0.219357818,-0.844014525,0.028735282,0.109152265,0.041041266,-0.353078395,0.028780339,0.304119587,-0.230155379,0.558564723,-2.918755531
1.914806843,0.482563257,0.22927098,-0.846905708,0.025981197,0.112976253,0.028368225,-0.353249162,0.028866496,0.304033279,-0.230092525,0.559050083,-2.918108463
1.91980648,0.493792742,0.232127473,-0.842620254,0.024571605,0.119526878,0.026086409,-0.353380561,0.028932789,0.30396685,-0.230062783,0.559587896,-2.917451382
1.924807191,0.498151362,0.235986292,-0.834759116,0.021949712,0.122888938,0.036497176,-0.353424132,0.02895477,0.303944826,-0.230008394,0.560176194,-2.916700602
1.929808855,0.510805607,0.223937094,-0.82973063,0.020990234,0.13054204,0.060670424,-0.353664935,0.029534534,0.303877115,-0.229858264,0.560852945,-2.915834188
1.934805989,0.512460947,0.224602878,-0.830871165,0.019699953,0.134087577,0.077158339,-0.353796065,0.029866051,0.303842098,-0.229671925,0.56156522,-2.914852142
1.9398036,0.508955717,0.221933737,-0.829220474,0.020878591,0.141070768,0.090508357,-0.353896976,0.030121129,0.303815156,-0.229436606,0.562302828,-2.91383481
1.944802523,0.510738492,0.225398451,-0.836648464,0.016671067,0.149115831,0.097820967,-0.353930444,0.030205708,0.303806216,-0.229219556,0.563097239,-2.912782669
1.949802279,0.511010766,0.217215136,-0.84423846,0.012276968,0.163050532,0.105168708,-0.354322582,0.030216383,0.303394735,-0.228975296,0.563964486,-2.911747932
1.95480299,0.511636615,0.21792914,-0.849560261,0.002243227,0.172361299,0.115215652,-0.354822099,0.030165061,0.302850246,-0.228778392,0.564879358,-2.910678148
1.959804654,0.501977623,0.223044842,-0.860721469,-0.005323364,0.190168709,0.126748681,-0.35520643,0.030125573,0.302431315,-0.228603572,0.565860271,-2.909572124
1.964801311,0.496041924,0.215203792,-0.872252941,-0.02175685,0.21676001,0.142722547,-0.355333894,0.030112479,0.302292407,-0.228443429,0.566980362,-2.908457756
1.969799161,0.496655077,0.21916993,-0.87212342,-0.037067611,0.248421341,0.159812823,-0.355431944,0.030102406,0.302185535,-0.228356257,0.568276227,-2.907263756
1.974797845,0.500363231,0.224216923,-0.874737442,-0.046282221,0.276760638,0.173990712,-0.35616827,0.030614959,0.301480174,-0.228296697,0.56974864,-2.906006098
1.979797482,0.498836309,0.21687673,-0.882580519,-0.065476827,0.314260066,0.189877555,-0.356734812,0.031009333,0.300937444,-0.228285968,0.571395099,-2.904757738
1.984798431,0.50678432,0.20921813,-0.886027217,-0.07961677,0.35024333,0.200722665,-0.356922686,0.0311401,0.300757498,-0.228320345,0.573247194,-2.903517485
1.989800453,0.510075271,0.200739518,-0.885198891,-0.095565654,0.395932376,0.208958536,-0.357067227,0.031240717,0.300619006,-0.228427425,0.575335622,-2.902319193
1.994797349,0.514584839,0.203186065,-0.888233721,-0.101559669,0.442006767,0.21308966,-0.357431769,0.031626929,0.300602734,-0.228595108,0.577654958,-2.90114522
1.999795198,0.515985847,0.189207718,-0.899072707,-0.117237478,0.497006714,0.212152213,-0.358032405,0.032280881,0.300620228,-0.228829771,0.580233514,-2.900113344
2.004793882,0.505162656,0.20228596,-0.897539794,-0.121014506,0.555309772,0.214820951,-0.358231574,0.032497719,0.30062601,-0.22917977,0.583064616,-2.899101734
2.00979352,0.510002017,0.17338261,-0.934934914,-0.137685105,0.630075395,0.216054186,-0.358384818,0.03266456,0.30063048,-0.229522303,0.58625412,-2.898319244
2.01480031,0.492625087,0.093886755,-0.997071266,-0.295456201,0.747195125,0.215576857,-0.358435631,0.03271988,0.30063194,-0.230582729,0.589935541,-2.898121119
2.01980257,0.421901673,0.154868722,-0.983249485,-0.327983797,0.932616532,0.210078061,-0.360192597,0.033033781,0.29712531,-0.232295349,0.594421029,-2.898007631
2.024799824,0.450957209,0.142426163,-1.004682541,-0.315162271,1.117980838,0.198440284,-0.360775173,0.033137865,0.295962572,-0.233901441,0.59991473,-2.898309231
2.029797554,0.475816309,0.120672226,-1.003362298,-0.355377734,1.254706502,0.188930333,-0.361223429,0.033217952,0.295067936,-0.235822603,0.606064439,-2.898924112
2.034796238,0.469575107,0.126486227,-1.000845551,-0.388433039,1.395581484,0.188741341,-0.361372054,0.033244506,0.294771284,-0.238109738,0.61283952,-2.899712086
2.039796114,0.46394527,0.13241908,-1.004093647,-0.394658417,1.55969131,0.193532348,-0.363772988,0.033135086,0.292216837,-0.240542948,0.620408595,-2.900739908
2.044796944,0.475954771,0.091347553,-1.02675426,-0.433688641,1.727840662,0.196152776,-0.365134925,0.033066671,0.290794194,-0.243185341,0.628803313,-2.902182341
2.049798727,0.474815428,0.075678758,-1.043685079,-0.498788953,1.894116282,0.178308949,-0.366182834,0.033014037,0.289699584,-0.246402979,0.637922943,-2.904116631
2.054795504,0.469653577,0.109032229,-1.058205247,-0.551984847,2.077854872,0.169636995,-0.366530299,0.03299658,0.289336622,-0.250238746,0.647885442,-2.906330824
2.059793234,0.447486877,0.113468245,-1.079876661,-0.598709285,2.276770115,0.168915153,-0.369251311,0.032800037,0.285973132,-0.254503548,0.658747017,-2.909003258
2.064791918,0.428642929,0.115474403,-1.107139349,-0.655713499,2.495682716,0.172549292,-0.372627825,0.032550212,0.281747729,-0.259316415,0.670585692,-2.912177801
2.069791555,0.397612184,0.133618608,-1.113744378,-0.71797353,2.733807087,0.188723758,-0.375225842,0.032357983,0.278496593,-0.264747649,0.683512568,-2.915722609
2.074792147,0.37406531,0.174775004,-1.118473649,-0.795343935,2.998918533,0.212444961,-0.376087308,0.032294247,0.277418584,-0.27098316,0.697710872,-2.919593573
2.07979393,0.33974582,0.215156928,-1.101976633,-0.871560454,3.297046185,0.254154027,-0.376750112,0.032245204,0.276589125,-0.278006494,0.713306189,-2.923823833
2.084790945,0.312404633,0.272304803,-1.156583071,-0.900826931,3.619598866,0.296851367,-0.382323295,0.031537123,0.267228007,-0.285671294,0.730391443,-2.928618431
2.089788675,0.273265481,0.223205626,-1.204056978,-0.944229007,3.963462353,0.355065703,-0.386611521,0.030992303,0.260025263,-0.293740332,0.749112606,-2.934246063
2.094787598,0.236301884,0.226886198,-1.20549953,-0.999442875,4.317675114,0.39496848,-0.38803342,0.030811651,0.257636994,-0.302704751,0.769414961,-2.94058156
2.099787235,0.203335315,0.264153749,-1.201785922,-1.055127144,4.704518795,0.458639055,-0.389127463,0.030672653,0.255799353,-0.312725991,0.791572094,-2.947660208
2.104788303,0.15858452,0.318199664,-1.214937687,-1.074303508,5.119126797,0.544766068,-0.394028574,0.03038881,0.248050749,-0.323652923,0.815680444,-2.955618143
2.109789848,0.093528785,0.405784637,-1.264702797,-1.05251348,5.543962479,0.69603765,-0.402388632,0.029930005,0.234869838,-0.335123122,0.841759861,-2.964092731
2.114787102,0.00446287,0.509355187,-1.289207101,-1.102760673,6.035009384,1.006028652,-0.405160636,0.029777875,0.230499297,-0.346977532,0.870424986,-2.972095013
2.119784594,0.013369372,0.603751063,-1.233213782,-1.077928424,6.573792458,1.330602646,-0.407293528,0.029660821,0.227136463,-0.358951807,0.902228653,-2.979516506
2.124783516,0.11958012,0.720244288,-1.230092049,-1.052856803,7.144306183,1.614474893,-0.408000767,0.029622007,0.226021409,-0.371697783,0.937218368,-2.987477541
2.129783392,0.352375656,0.820836127,-1.239311218,-1.003165722,7.597601891,1.871696711,-0.42167598,0.030734042,0.196715206,-0.38513574,0.974873066,-2.995977163
2.134784222,0.653743207,0.738780797,-1.235392094,-0.917991638,7.901453495,1.991503,-0.426210433,0.031102771,0.186997831,-0.399274528,1.01422739,-3.006082058
2.139786005,1.049163938,0.614049911,-1.319447875,-0.932981431,8.086925507,1.993576527,-0.429699361,0.031386483,0.179520965,-0.415423006,1.054407477,-3.019144773
2.144782782,1.582379818,0.575420439,-1.531203628,-1.126571536,8.112530708,1.911356807,-0.430856228,0.031480554,0.177041784,-0.435483873,1.094338059,-3.03565979
2.149786711,2.164125681,0.743128061,-1.664894938,-1.37432456,7.913281918,1.803507447,-0.441536397,0.03803372,0.145817637,-0.461017698,1.132808924,-3.055979252
2.154785395,2.645165205,0.943971336,-1.616538763,-1.397840023,7.514233112,1.859283924,-0.447500348,0.041810315,0.128209829,-0.488829851,1.169239163,-3.077305079
2.159785032,2.942478657,1.084017992,-1.614607453,-1.095257759,7.031974792,2.076372385,-0.45208919,0.044716146,0.114661813,-0.513866127,1.203761578,-3.096838951
2.164785624,2.862823963,1.139714241,-1.481444478,-0.596880317,6.587612629,2.246968985,-0.453610748,0.045679662,0.110169552,-0.535435259,1.236438751,-3.114943981
2.169787645,2.559422255,1.160053492,-1.426333308,-0.099768214,6.226223469,2.290032148,-0.457353055,0.05105881,0.090518266,-0.555471301,1.267327785,-3.13407445
2.174784422,2.286296844,1.196045399,-1.542026401,0.338000208,5.826723576,2.25188303,-0.461187094,0.057519153,0.0676715,-0.574641764,1.295776963,3.128542662
2.179782391,2.071692467,1.118146658,-1.742783427,0.733027339,5.271839619,2.210060835,-0.464137137,0.062489953,0.05009247,-0.589584351,1.321174383,3.109573841
2.184781313,1.725431204,0.834382355,-1.939916611,0.926928759,4.641622543,2.183065891,-0.465115309,0.064138174,0.044263594,-0.596669495,1.343574405,3.096179485
2.189781189,1.430018425,0.494175851,-2.08977437,0.888192236,3.830205441,2.197176695,-0.465867937,0.065406367,0.039778672,-0.592434943,1.362535954,3.093383551
2.194782257,0.832139075,0.052355476,-2.144709587,0.596422851,2.998380423,2.215776205,-0.464390188,0.075236887,0.014285177,-0.572571576,1.378115058,3.106496811
2.199784517,0.180292845,-0.207103267,-2.047783136,0.035100974,2.326625824,2.303402424,-0.46325317,0.082800806,-0.005330335,-0.540676475,1.391014814,3.134517193
2.204781532,-0.000486141,-0.149348438,-1.845665932,-0.473368883,1.830992818,2.474092245,-0.462876141,0.085308857,-0.011834467,-0.496871084,1.402482867,-3.104841232
2.209779501,0.259166598,-0.035467245,-1.833761215,-0.834873319,1.42087853,2.603613853,-0.462586045,0.087238632,-0.016838955,-0.440724909,1.412005067,-3.046480179
2.214778423,0.559218705,0.115293048,-1.903579473,-1.22726059,0.94875586,2.643021584,-0.460197419,0.093263067,-0.024871871,-0.373864293,1.418656826,-2.975074291
2.219778299,0.322807282,0.227956474,-1.70012331,-1.595128775,0.523114026,2.677856684,-0.456041515,0.103343092,-0.037497278,-0.300289571,1.42264688,-2.894113064
2.224778891,0.073122844,0.410561293,-1.46498239,-1.729789495,0.185195446,2.759272575,-0.454663485,0.106685437,-0.041683625,-0.220886976,1.424509048,-2.805617571
2.229780674,0.005854791,0.575820804,-1.297314882,-1.634966254,-0.131675303,2.81535244,-0.453603178,0.109257139,-0.044904735,-0.13790974,1.424053431,-2.713443995
2.234777689,0.036766235,0.684506536,-1.188110232,-1.417444587,-0.489987224,2.815371752,-0.4532516,0.110109866,-0.045972794,-0.055586331,1.420804024,-2.62274313
2.239775181,0.052617617,0.717914343,-1.125297308,-1.217404723,-0.846991658,2.755985975,-0.447448879,0.127548888,-0.047156669,0.020933421,1.414772034,-2.538566589
2.244774103,0.050736967,0.739657402,-1.072224975,-0.998884618,-1.202493787,2.622999907,-0.445524812,0.133331329,-0.047549218,0.086674236,1.406219006,-2.466264963
2.249773741,-0.040510319,0.732057869,-0.996540487,-0.776667893,-1.486302257,2.427429199,-0.444044381,0.137780532,-0.047851257,0.139715478,1.395765901,-2.407857656
2.25477457,-0.141813666,0.703601897,-0.917464018,-0.575356841,-1.695471644,2.17687583,-0.443553507,0.139255807,-0.047951408,0.180013224,1.384220481,-2.363369226
2.259776354,-0.237838864,0.648789585,-0.866218984,-0.387490213,-1.856927752,1.868158698,-0.439614147,0.152507946,-0.044459056,0.208313927,1.371991992,-2.331876993
2.26477313,-0.28274861,0.610556364,-0.792590737,-0.29518187,-1.955800772,1.565025568,-0.437426567,0.159900501,-0.042417798,0.226471037,1.359617949,-2.311135054
2.269770861,-0.320546359,0.543450713,-0.759160578,-0.228215128,-2.021214247,1.217163682,-0.435743392,0.165588573,-0.040847186,0.235625386,1.34727931,-2.300152779
2.274769783,-0.328887671,0.483320296,-0.734095037,-0.189449579,-2.068438768,0.851968586,-0.435185283,0.167474627,-0.040326402,0.236550942,1.335180163,-2.297926903
2.279769421,-0.345024765,0.408516437,-0.728458226,-0.152475178,-2.111754417,0.456867188,-0.433672905,0.173763618,-0.035932917,0.230150461,1.323293447,-2.303553581
2.284776449,-0.3391487,0.366499633,-0.692156792,-0.194875792,-2.112719297,0.109835729,-0.432079405,0.180727348,-0.030449823,0.217889369,1.311865568,-2.314989805
2.289778471,-0.31696403,0.315773487,-0.696914017,-0.244650483,-2.136013985,-0.221025169,-0.430853307,0.186085463,-0.026230954,0.200832516,1.300585151,-2.331321239
2.294775486,-0.281985253,0.280020565,-0.704606831,-0.284925789,-2.171798944,-0.536346018,-0.430446744,0.187862098,-0.024832059,0.17958504,1.289315701,-2.351988316
2.299773455,-0.244954363,0.25757131,-0.712277949,-0.335056186,-2.214589357,-0.808954477,-0.430133939,0.189229116,-0.023755703,0.155271024,1.277927279,-2.375680685
2.304772139,-0.210458174,0.237747461,-0.722280443,-0.371219784,-2.266573191,-1.052255392,-0.430877328,0.19208993,-0.01764885,0.128768846,1.266274691,-2.401536942
2.309772253,-0.174739182,0.231666282,-0.733028233,-0.385659754,-2.327436686,-1.26892662,-0.431449294,0.194291145,-0.012950042,0.100787506,1.254236341,-2.428993464
2.314773083,-0.152198061,0.217335805,-0.750151992,-0.373816609,-2.387876034,-1.451128364,-0.431638956,0.195021018,-0.011392007,0.072312564,1.241703391,-2.457238913
2.319774628,-0.071377203,0.208600163,-0.787599742,-0.352664888,-2.472664833,-1.604421258,-0.431784868,0.195582613,-0.010193205,0.043904703,1.228566885,-2.485695124
2.324771643,-0.017723355,0.187455416,-0.810978234,-0.310887396,-2.58164525,-1.748800993,-0.433468789,0.194369406,-0.005184567,0.016008653,1.214578748,-2.514069319
2.329769135,0.033495367,0.184609786,-0.829200745,-0.300383657,-2.68659091,-1.851044178,-0.436418205,0.192020893,0.003331822,-0.011005946,1.199851036,-2.541648149
2.334767818,0.073495783,0.175426826,-0.853306115,-0.2757743,-2.805099964,-1.937526703,-0.437396169,0.191242173,0.006155695,-0.03672035,1.184241295,-2.568184376
2.339767694,0.11841438,0.171071142,-0.883578539,-0.241725713,-2.927006721,-2.005343437,-0.438148648,0.190642998,0.008328474,-0.060894378,1.167754292,-2.593457222
2.344768524,0.169301927,0.170409352,-0.920933962,-0.203466281,-3.057784796,-2.05441308,-0.438398153,0.19044432,0.009048927,-0.083361901,1.150370598,-2.617292404
2.349770546,0.226690859,0.169973493,-0.95491755,-0.167644039,-3.197853565,-2.085608006,-0.445348054,0.18296805,0.022232924,-0.10393817,1.132077456,-2.639467478
2.354767323,0.281141996,0.172069743,-0.986597061,-0.129774436,-3.349346399,-2.102084875,-0.447652519,0.180489063,0.026604487,-0.122571744,1.112858534,-2.659893751
2.359765291,0.340450525,0.170854017,-1.014284492,-0.099015757,-3.509345293,-2.105437994,-0.449425638,0.178581655,0.029968107,-0.139283717,1.092721581,-2.678548813
2.364763975,0.405798644,0.160651252,-1.042577744,-0.070259318,-3.680334806,-2.105330706,-0.450013578,0.17794919,0.03108342,-0.154136285,1.071638227,-2.695490122
2.369763851,0.465615094,0.146614343,-1.064970255,-0.054531284,-3.857761621,-2.110981464,-0.455125809,0.1695759,0.043933559,-0.167365253,1.049619555,-2.710929394
2.374764442,0.516217768,0.136919916,-1.07845962,-0.052727822,-4.031977177,-2.11748004,-0.457974017,0.164847896,0.051161874,-0.179201543,1.026705146,-2.724969387
2.379766464,0.568075418,0.137022138,-1.084542871,-0.052512314,-4.203782082,-2.124939442,-0.46016553,0.161210015,0.056723569,-0.189820811,1.002937317,-2.737731934
2.384763479,0.617825508,0.139611065,-1.079778552,-0.048188597,-4.37153244,-2.131112337,-0.460892171,0.160003766,0.058567721,-0.199322611,0.978381038,-2.749298096
2.389760971,0.658542037,0.155737147,-1.068394184,-0.035574622,-4.526395321,-2.137536287,-0.463297188,0.153814927,0.068219498,-0.207827657,0.953100801,-2.759798765
2.394759893,0.683669031,0.164693639,-1.059033036,-0.003706386,-4.662621021,-2.141559839,-0.465956032,0.14645794,0.079721794,-0.215272829,0.927199662,-2.76933527
2.399759531,0.703451872,0.170933634,-1.04577148,0.044336949,-4.780191898,-2.141582727,-0.468001813,0.140797243,0.088572033,-0.221700922,0.900781631,-2.778011799
2.404760599,0.719421685,0.164949819,-1.030216813,0.098126858,-4.879980087,-2.139044046,-0.468680173,0.138920262,0.0915066,-0.227095887,0.873952746,-2.785898685
2.409762383,0.735151768,0.145378396,-1.024870753,0.148007005,-4.958739758,-2.138881922,-0.469202101,0.137476042,0.093764551,-0.231610253,0.846820414,-2.793223619
2.414759159,0.750668168,0.126186401,-1.020914912,0.179357409,-5.020383358,-2.139783382,-0.470527321,0.127053335,0.111349821,-0.235432222,0.819467425,-2.800055742
2.419763088,0.76397717,0.108277313,-1.022003174,0.19292137,-5.063872337,-2.139253855,-0.471546948,0.119033776,0.124880485,-0.23872897,0.791969061,-2.806471586
2.424762249,0.780306816,0.091241777,-1.033457637,0.189302012,-5.088763237,-2.130799055,-0.471885055,0.116374642,0.129366994,-0.241619781,0.764429569,-2.812524796
2.429762125,0.80905813,0.088635288,-1.048158646,0.166356906,-5.102679253,-2.122517586,-0.4721452,0.114328615,0.132819071,-0.244289324,0.73691231,-2.818218708
2.434762716,0.847564638,0.097691648,-1.066654086,0.13481532,-5.115443707,-2.108496428,-0.470614195,0.10725528,0.14544104,-0.246806547,0.70943886,-2.823535442
2.439764738,0.887999177,0.119030811,-1.087389827,0.102529064,-5.129161358,-2.088048697,-0.467800856,0.095346563,0.166758165,-0.249181539,0.681997776,-2.828433037
2.444761753,0.922283053,0.149980932,-1.111103773,0.076770209,-5.135706902,-2.07033062,-0.466868013,0.091397859,0.173826516,-0.251441866,0.654620409,-2.832956076
2.449759483,0.953332186,0.194358692,-1.143563747,0.074549697,-5.142402172,-2.055856943,-0.466150224,0.088359602,0.179265127,-0.253527075,0.627272844,-2.83712697
2.454758406,0.985780656,0.234590143,-1.178719521,0.076935306,-5.139879227,-2.049935341,-0.465912223,0.087352179,0.181068465,-0.255435675,0.600013733,-2.84106636
2.459758282,1.02998209,0.288475841,-1.215817213,0.09356261,-5.137544155,-2.048139572,-0.457414359,0.070358761,0.207244709,-0.257187873,0.57286495,-2.844774246
2.46475935,1.075489044,0.341334164,-1.254943967,0.134594828,-5.128377914,-2.046494484,-0.454596639,0.064724065,0.215924263,-0.258636385,0.545844376,-2.848241091
2.469761372,1.113529682,0.386113137,-1.307511449,0.188105121,-5.121925831,-2.04592967,-0.452428579,0.060388554,0.222602591,-0.259709865,0.518928826,-2.851538658
2.474758387,1.167853594,0.426691771,-1.356987119,0.243582457,-5.1118536,-2.054901838,-0.451709688,0.058950983,0.224816993,-0.260439664,0.492161691,-2.854698896
2.479756355,1.210057855,0.474883974,-1.405245662,0.306665331,-5.111726761,-2.068641663,-0.439928561,0.046624608,0.246520102,-0.260844141,0.465463102,-2.85778594
2.484755039,1.265205383,0.518779933,-1.460217118,0.361185223,-5.110463142,-2.06437397,-0.433243781,0.039760929,0.258665323,-0.260873079,0.438893914,-2.860661745
2.489754915,1.348032951,0.565425456,-1.504522324,0.40107429,-5.123506546,-2.068274021,-0.428100288,0.034479793,0.268010229,-0.260665685,0.412429571,-2.863324165
2.494755507,1.443382263,0.599029481,-1.534742117,0.426094472,-5.147414207,-2.083032608,-0.42639479,0.032728672,0.271108806,-0.260297477,0.386041284,-2.865833521
2.49975729,1.557776451,0.622111678,-1.558499217,0.440475285,-5.180012703,-2.112834454,-0.416445166,0.025672905,0.283176661,-0.259824216,0.359696746,-2.868275881
2.504754066,1.697232246,0.624366105,-1.563178539,0.444139779,-5.222462654,-2.152155876,-0.404436171,0.017577026,0.296943158,-0.259292305,0.333399057,-2.870690107
2.509752035,1.838971019,0.583668768,-1.562252164,0.433262825,-5.267463684,-2.204720259,-0.39519605,0.011347798,0.307535529,-0.258689165,0.307128072,-2.873257875
2.514750719,2.004958391,0.531332791,-1.520083666,0.379999727,-5.336045742,-2.245904207,-0.392132193,0.009282304,0.311047763,-0.258218646,0.280861378,-2.875871181
2.519750595,2.130718946,0.496290088,-1.444863439,0.284009367,-5.406965256,-2.251970053,-0.38977477,0.007693046,0.313750207,-0.258112609,0.254529804,-2.878239155
2.524751425,2.223196983,0.504997253,-1.314530253,0.158338249,-5.451150417,-2.214256048,-0.369219899,-0.000847284,0.330667198,-0.258584768,0.228298232,-2.879994869
2.529753447,2.295918226,0.511032581,-1.148029923,0.062566936,-5.451840878,-2.127765417,-0.353404313,-0.007418487,0.34368366,-0.259449393,0.202447444,-2.880982876
2.534750223,2.349717379,0.517578781,-0.945784748,0.03732628,-5.409334183,-1.995253086,-0.348160177,-0.009597374,0.347999662,-0.26029712,0.17722109,-2.881006002
2.539748192,2.386072636,0.50529784,-0.677830577,-0.033472896,-5.303643227,-1.790219069,-0.344125181,-0.01127388,0.351320535,-0.261323422,0.152963892,-2.879799128
2.544746637,2.383664846,0.389188141,-0.433043122,-0.129379883,-5.125018597,-1.565927863,-0.330292016,-0.015577814,0.360358745,-0.262533844,0.129994437,-2.877765894
2.549746752,2.359685659,0.202883065,-0.198520839,-0.314429551,-4.85875845,-1.334294677,-0.30701369,-0.022679251,0.375338674,-0.264344066,0.108711474,-2.875287533
2.554753542,2.337138414,-0.007412557,0.013660032,-0.620094597,-4.533534527,-1.120565534,-0.299295008,-0.025033955,0.380305737,-0.267445087,0.089369267,-2.872609854
2.559755564,2.338041544,-0.184802175,0.219345793,-1.02773726,-4.173720837,-0.925294697,-0.293356031,-0.026845738,0.384127527,-0.272462189,0.072089799,-2.869701385
2.564752579,2.394233465,-0.307803214,0.406288087,-1.501566887,-3.799132824,-0.755039632,-0.291386783,-0.027446492,0.385394782,-0.279839218,0.05701058,-2.866396666
2.569750547,2.479707956,-0.368916392,0.575563788,-1.945983052,-3.42325592,-0.633900821,-0.259786248,-0.034647182,0.399821013,-0.289510518,0.044081625,-2.862671852
2.574749231,2.598922491,-0.376785368,0.741913676,-2.293740749,-3.030504704,-0.551752567,-0.249308109,-0.037034795,0.404604465,-0.301011324,0.033384878,-2.858586073
2.579748869,2.728739977,-0.33733201,0.900913775,-2.493182898,-2.626867056,-0.510881007,-0.241245881,-0.038871899,0.408285022,-0.313631058,0.024940694,-2.854177952
2.584750175,2.819999695,-0.244364947,1.057646871,-2.525774956,-2.217610121,-0.46940589,-0.238572598,-0.039481048,0.409505397,-0.326616526,0.01865215,-2.849293947
2.58975172,2.825470448,-0.129417822,1.207610488,-2.356722355,-1.810998917,-0.411901861,-0.220147565,-0.048021283,0.41288051,-0.338912427,0.014362792,-2.843966722
2.594748974,2.761111498,0.015979584,1.330626369,-1.996291518,-1.365424752,-0.326772898,-0.209987819,-0.052850388,0.414602458,-0.349628896,0.012235435,-2.838120222
2.599746466,2.618065834,0.192161366,1.419993877,-1.442720056,-0.880041003,-0.205621421,-0.202170596,-0.056566056,0.41592738,-0.357777476,0.012367011,-2.831734896
2.604745388,2.333183289,0.412849903,1.483355999,-0.699388206,-0.341383934,-0.044446167,-0.199578553,-0.057798099,0.416366696,-0.362558156,0.014915026,-2.824798584
2.609745264,1.638479829,0.721124113,1.569380641,0.827465892,0.547185004,0.485443324,-0.192140475,-0.063290074,0.417502701,-0.359742165,0.020830831,-2.816523075
2.614746094,2.133241415,0.753185093,1.60493958,1.806616068,1.672576666,0.960675299,-0.18418476,-0.06969326,0.418684065,-0.352043897,0.035206381,-2.806958437
2.619747877,2.195747614,0.780156612,1.812120318,2.646951199,2.449786901,1.375102043,-0.178063378,-0.074620076,0.419593066,-0.340420842,0.053739469,-2.796178579
2.624744892,1.819435596,0.410451829,1.656654358,3.204839706,3.239384651,1.756492496,-0.176033646,-0.076253712,0.419894457,-0.324941427,0.0756265,-2.787091017
2.629742861,0.098895252,-0.180067152,0.817006469,3.193070173,3.782783508,1.937643647,-0.1744719,-0.077510685,0.420126379,-0.308131605,0.097045265,-2.784214258
2.634741783,-1.45542264,-0.205539614,-0.42061004,2.561604977,4.777641296,2.148677111,-0.1770899,-0.07116162,0.419509739,-0.294065535,0.119834907,-2.785295963
2.639741659,-1.446174383,0.271639168,-1.769805193,1.854883432,5.932999611,1.923296809,-0.179104283,-0.066276446,0.419035286,-0.285083026,0.149008468,-2.787801504
2.644742489,-1.456217766,0.544290781,-2.515116692,1.389079571,6.730724812,1.297927976,-0.179772213,-0.064656608,0.418877959,-0.278842002,0.180522248,-2.794440985
2.649744272,0.379737794,0.527284622,-2.226448059,1.094893694,7.017732143,0.515440643,-0.180286139,-0.063410252,0.418756902,-0.275201559,0.215937659,-2.80235815
2.654741287,2.134071112,0.066318035,-1.273207068,0.894156814,6.767932892,-0.062736034,-0.191105857,-0.056192406,0.414200515,-0.272747636,0.252114534,-2.810350895
2.659739017,2.467914343,-0.375949174,-0.792197943,0.675191522,6.679042816,-0.377028942,-0.210199013,-0.043758266,0.406128049,-0.27130267,0.287546605,-2.820437908
2.664737701,2.170505047,-0.75404489,-0.843952894,0.166588396,6.653618336,-0.618060052,-0.216529936,-0.039635342,0.403451383,-0.272630721,0.321798921,-2.833978176
2.669737577,2.144824743,-0.939056635,-1.282441974,-0.377253234,6.490272999,-0.622231185,-0.221401155,-0.03646303,0.401391864,-0.276760042,0.354918867,-2.848840237
2.674738407,2.584197521,-0.936857343,-1.746115327,-0.820807636,5.900135517,-0.332602501,-0.223016366,-0.035411149,0.400708973,-0.282445431,0.386018395,-2.861405134
2.679740429,2.808710337,-0.690192461,-2.076162577,-0.959903717,4.95743227,0.232267112,-0.2559973,-0.031803161,0.380955279,-0.287652284,0.412946135,-2.868849993
2.684737206,2.584313631,-0.421387762,-2.145674944,-0.906262159,4.021165371,0.933008313,-0.266933143,-0.030606819,0.374405324,-0.290676057,0.435484141,-2.870613337
2.689741373,2.336539507,-0.140529573,-1.891467929,-0.820242882,3.22835803,1.512043595,-0.275347531,-0.029686317,0.369365573,-0.29205507,0.454849571,-2.866954803
2.694740295,1.966613054,0.381376505,-1.474487066,-0.613151908,2.645456553,1.85796988,-0.278137594,-0.029381096,0.367694497,-0.292437255,0.471472323,-2.858804941
2.699740171,2.113559484,1.430945277,-1.299636602,-0.262227476,2.110803604,1.921141386,-0.297838062,-0.030701429,0.354083925,-0.292264342,0.486094952,-2.845685005
2.704740763,1.836755872,2.191035271,-0.846023679,0.156092644,1.482542276,1.406106591,-0.308714062,-0.031524058,0.346521109,-0.292773843,0.496221334,-2.832256794
2.709742785,1.144410133,2.380814314,-0.372390091,0.606260657,1.209386706,0.784870803,-0.317082405,-0.032157015,0.340702027,-0.292825282,0.503247082,-2.822268724
2.714739799,0.557485044,1.749449015,-0.261265248,1.018878698,1.188281178,0.513641834,-0.31985718,-0.032366894,0.338772535,-0.290133834,0.50940764,-2.816805124
2.71973753,0.399578273,0.525288522,-0.650084019,1.17973578,1.252039552,0.598208666,-0.326157033,-0.029987466,0.334838361,-0.283426881,0.5161587,-2.815516949
2.724736214,0.742307961,-0.374773264,-1.132257104,1.099214435,1.124294519,0.839066863,-0.332445741,-0.026636245,0.331063718,-0.274576545,0.523112476,-2.815087795
2.729735851,1.013382673,-0.640657246,-1.288400769,0.881510973,0.867933273,1.042500019,-0.337284476,-0.024057709,0.328159392,-0.265750051,0.529256105,-2.812963963
2.734736681,1.032672286,-0.276013196,-1.101229429,0.648661137,0.690746963,1.037673354,-0.338888913,-0.023202715,0.32719636,-0.259206116,0.534451067,-2.808759451
2.739738464,0.928083301,0.290596336,-0.872162282,0.554080606,0.607579231,0.862277329,-0.340123385,-0.022544855,0.326455384,-0.25502339,0.538928151,-2.803539276
2.744735479,0.840055346,0.493328691,-0.834437907,0.575551033,0.525844395,0.656706154,-0.344186723,-0.017397922,0.323707461,-0.251448661,0.54256022,-2.799149275
2.749733448,1.042354941,0.153161332,-1.113371611,0.530804396,0.416615725,0.502067149,-0.347313166,-0.013437706,0.321593136,-0.247252777,0.545641541,-2.796935081
2.75473237,0.986245096,-0.323244095,-1.177092433,0.387757272,0.241959959,0.390605301,-0.348349839,-0.012124573,0.320892066,-0.243074328,0.547654867,-2.796826839
2.759732008,0.737993479,-0.300967753,-1.019904017,0.215807229,0.197776109,0.341120541,-0.349147499,-0.011114206,0.320352644,-0.240141377,0.549068093,-2.796588182
2.764732599,0.689765096,0.08141195,-0.93554008,0.103500694,0.178725675,0.25768885,-0.350405335,-0.008430505,0.319149286,-0.239055663,0.550379336,-2.795239925
2.769734621,0.618615091,0.309261024,-0.836255372,0.083954357,0.156215712,0.196868256,-0.352377564,-0.003990694,0.317187458,-0.238613859,0.551419437,-2.793553591
2.774731874,0.578191996,0.311834425,-0.823703945,0.093619823,0.147655308,0.18169564,-0.353031516,-0.002518537,0.316536963,-0.237959862,0.552384496,-2.792110682
2.779729605,0.542058825,0.230268002,-0.855635762,0.098748952,0.136207938,0.181357667,-0.353534698,-0.001385812,0.316036433,-0.237018555,0.553232253,-2.79106307
2.784728527,0.520847976,0.182843849,-0.877117991,0.090134531,0.136085153,0.176406831,-0.353701532,-0.001010222,0.315870464,-0.236044273,0.554030359,-2.790211678
2.789728165,0.536146879,0.177036747,-0.869638562,0.078372769,0.138859749,0.162570506,-0.354642659,0.000381914,0.316453665,-0.235210106,0.554878354,-2.789366484
2.794729233,0.55232507,0.181714296,-0.857595026,0.06533426,0.139238626,0.143285438,-0.35495472,0.00084352,0.316647053,-0.234523505,0.555744052,-2.788570166
2.799731255,0.55076921,0.165579259,-0.859721363,0.052646611,0.138640776,0.121593215,-0.355194837,0.001198695,0.316795826,-0.233926743,0.556568325,-2.78796196
2.80472827,0.557600021,0.13058199,-0.862825632,0.032573014,0.150498018,0.094493054,-0.355274439,0.001316464,0.316845149,-0.233455867,0.557448149,-2.787638187
2.809726238,0.550779283,0.11288099,-0.863668859,-0.003041469,0.159675837,0.073894128,-0.355942786,0.002222204,0.315772265,-0.233205304,0.558323264,-2.787515163
2.814724922,0.558444202,0.15972665,-0.856491804,-0.012633797,0.159019172,0.048495594,-0.3563146,0.002724235,0.315141618,-0.233219162,0.559187531,-2.787332296
2.819724798,0.49483344,0.181876227,-0.861096442,-0.03283371,0.184840575,0.025312576,-0.356600732,0.003110514,0.314656377,-0.233402222,0.559976816,-2.787400007
2.824731588,0.468521744,0.198503986,-0.876216054,-0.034060717,0.215424284,0.021500036,-0.356695592,0.003238597,0.314495474,-0.233659536,0.560915411,-2.787522793
2.82973361,0.474296212,0.208971635,-0.856363773,-0.025731836,0.215556502,0.021095594,-0.356968015,0.003454749,0.314181775,-0.233906597,0.561906636,-2.787493467
2.834730387,0.514953196,0.216193587,-0.837739885,-0.011569779,0.215184897,0.015773488,-0.357259452,0.00364501,0.313886255,-0.234157592,0.563001156,-2.787385702
2.839728355,0.536294162,0.204829901,-0.830657005,-0.014359174,0.216864794,0.012126141,-0.357483715,0.003791403,0.313658863,-0.234402537,0.564093828,-2.787385702
2.844727039,0.530591071,0.206293643,-0.826921999,-0.021227377,0.215293095,0.014848204,-0.357558072,0.003839944,0.313583493,-0.23463513,0.565124571,-2.787361383
2.849726915,0.521895468,0.23164621,-0.83185488,-0.017378379,0.202417761,0.019714003,-0.357615262,0.003877293,0.313525468,-0.234879151,0.566088557,-2.787228107
2.854727745,0.518669844,0.256634712,-0.831653833,0.002482955,0.181016847,0.019729301,-0.358227491,0.003737628,0.312309235,-0.235062078,0.566929102,-2.78699398
2.859729767,0.505094826,0.23923263,-0.84114629,0.010873974,0.1691681,0.027776126,-0.358698547,0.003630164,0.311373442,-0.235085621,0.567684293,-2.78680563
2.864726543,0.533914864,0.210462391,-0.839970112,0.010208458,0.161158904,0.026347451,-0.358854771,0.003594531,0.311063141,-0.235076547,0.568479419,-2.786662817
2.869724512,0.554681778,0.197654188,-0.840956032,0.006821394,0.144783765,0.010248285,-0.358974934,0.003567114,0.310824364,-0.235106811,0.569201291,-2.7865839
2.874723434,0.54404825,0.192792177,-0.84567827,0.002661809,0.132864997,-0.005779047,-0.359326422,0.003591427,0.310585946,-0.235202819,0.569810271,-2.786652088
2.87972331,0.533033013,0.196162835,-0.84660846,-0.004627912,0.121274941,-0.012130377,-0.359912008,0.003643909,0.310241431,-0.235343829,0.570323884,-2.786730528
2.884723902,0.52628988,0.221708789,-0.843774259,-0.008738014,0.120503694,-0.018643467,-0.36010617,0.003661311,0.310127199,-0.235600054,0.570833087,-2.786766768
2.889726162,0.517091513,0.252336293,-0.835717022,-0.00625656,0.117231905,-0.016778059,-0.360255539,0.003674701,0.310039312,-0.235897467,0.571325541,-2.786694527
2.894723415,0.512130618,0.262924731,-0.826478302,0.002777804,0.10981936,-0.006892484,-0.360305071,0.00367914,0.310010165,-0.236120358,0.571790874,-2.786520243
2.899720907,0.52067709,0.273703724,-0.813996792,0.018700315,0.100220643,0.009287727,-0.360665381,0.003142448,0.309356838,-0.23621507,0.57224834,-2.786185741
2.90471983,0.520322859,0.274655908,-0.80837971,0.03992309,0.084531628,0.025876246,-0.360784829,0.002964491,0.309140205,-0.236133158,0.572654724,-2.7857306
2.909719467,0.523216128,0.265537143,-0.807589233,0.062710114,0.070610732,0.040935677,-0.360876739,0.002827565,0.308973521,-0.235856801,0.573007941,-2.785179138
2.914720297,0.526020288,0.251050115,-0.810608149,0.078486718,0.054960284,0.054430701,-0.360907227,0.002782163,0.308918267,-0.235408992,0.573297381,-2.784593105
2.919722319,0.535821915,0.234030992,-0.813737869,0.091264211,0.053273633,0.061225738,-0.361387819,0.00341308,0.308441371,-0.2348454,0.573609114,-2.783997059
2.924719334,0.531282425,0.222532928,-0.817654312,0.092900902,0.049605429,0.071897052,-0.361660302,0.003787047,0.308175772,-0.234222353,0.573903441,-2.783382177
2.929717302,0.534728169,0.221365362,-0.819123983,0.096537903,0.046686597,0.079651229,-0.361869961,0.00407479,0.307971388,-0.23356761,0.574213564,-2.782709837
2.934716225,0.529905021,0.208567694,-0.823801219,0.088514507,0.041212462,0.084058598,-0.36193946,0.004170199,0.307903618,-0.232904539,0.57447803,-2.782057285
2.939715862,0.525204003,0.205569804,-0.82782948,0.074060261,0.043108892,0.090269834,-0.362021536,0.004272538,0.307796717,-0.232303187,0.574754834,-2.781402588
2.944716692,0.529757082,0.208753332,-0.825606823,0.063954018,0.040527493,0.096559331,-0.362077594,0.00433564,0.307706058,-0.231751516,0.575032949,-2.780669451
2.949718714,0.525964439,0.202275097,-0.827519417,0.052087169,0.047233824,0.100528039,-0.362120688,0.004384194,0.307636321,-0.231217846,0.575338721,-2.779964924
2.954715967,0.533111572,0.19454594,-0.826352715,0.038977779,0.053787477,0.102547973,-0.362134993,0.004400293,0.307613194,-0.230754301,0.57570225,-2.779268503
2.959719658,0.528689623,0.181307957,-0.83217901,0.026332844,0.060887389,0.099789441,-0.36214599,0.00441268,0.307595402,-0.230315506,0.576073825,-2.77866745
2.96471858,0.534572363,0.175889,-0.834296286,0.012511968,0.068119526,0.097946167,-0.36235553,0.004926568,0.30729726,-0.229959786,0.576500893,-2.778074265
2.969718218,0.539005816,0.171899751,-0.829154789,-0.003194495,0.076822862,0.094855189,-0.362516761,0.005321969,0.307067841,-0.229694009,0.576971471,-2.777511358
2.974719286,0.549803615,0.17812483,-0.821992457,-0.015910024,0.084239483,0.0859657,-0.362570226,0.005453077,0.306991786,-0.229554564,0.577496648,-2.776951075
2.979721308,0.548663497,0.181847364,-0.818919182,-0.027699482,0.091062024,0.080523044,-0.362611353,0.005553956,0.306933254,-0.229505897,0.57803303,-2.776440859
2.984718323,0.550644219,0.185047925,-0.816579044,-0.034986883,0.093209222,0.074652992,-0.362742066,0.005767154,0.307381421,-0.229509175,0.578584552,-2.775940418
2.989716291,0.551968873,0.195483208,-0.812715769,-0.038219266,0.092289306,0.067604408,-0.362961024,0.006112949,0.308199078,-0.229582623,0.579124451,-2.77543211
2.994714975,0.543108582,0.196710184,-0.811596572,-0.037728421,0.092512704,0.061785288,-0.363033623,0.006227609,0.30847019,-0.229667008,0.579633594,-2.774981737
2.999714851,0.540004313,0.194608629,-0.81279242,-0.036296021,0.095278732,0.065009154,-0.363089472,0.006315831,0.308678776,-0.229719609,0.580164909,-2.774517536
3.004715681,0.543610513,0.197756261,-0.80928725,-0.033877533,0.092042483,0.06416367,-0.363107979,0.006345084,0.308747947,-0.229766771,0.580684125,-2.774036884
3.009717941,0.539464355,0.204403564,-0.808032095,-0.031175949,0.093303032,0.067744799,-0.363651633,0.0066323,0.307071596,-0.229806408,0.581203938,-2.773522139
3.014715195,0.544559717,0.201048285,-0.807445765,-0.02482591,0.090897724,0.06738735,-0.363831908,0.006727535,0.306515753,-0.229804248,0.581720948,-2.773016691
3.019712925,0.543395877,0.198828205,-0.811787426,-0.024606626,0.089646183,0.067336231,-0.363970637,0.006800813,0.30608806,-0.229791597,0.582221091,-2.772521973
3.024711609,0.547161937,0.19477427,-0.812326252,-0.022487838,0.090747267,0.068815097,-0.364016622,0.00682511,0.305946261,-0.229760811,0.582741678,-2.772042036
3.029711723,0.544355631,0.196557045,-0.814482868,-0.020746773,0.093198396,0.06917724,-0.364356816,0.007110078,0.30651778,-0.229721859,0.583259463,-2.771548748
3.034712553,0.537438691,0.197861761,-0.813739598,-0.022338318,0.097820438,0.073288649,-0.364545047,0.007270459,0.306875736,-0.229681611,0.583803177,-2.77103281
3.039714575,0.538023591,0.203757554,-0.81367892,-0.025013436,0.10516087,0.081799269,-0.364689887,0.00739386,0.307151139,-0.229655623,0.584390759,-2.770464659
3.04471159,0.540337443,0.203878507,-0.815256357,-0.025262505,0.107090868,0.088270091,-0.364737898,0.007434778,0.307242453,-0.229604483,0.584995508,-2.769859076
3.049709558,0.534025729,0.19978942,-0.822402179,-0.033169366,0.115976714,0.096782871,-0.364801526,0.007488906,0.306570739,-0.229554817,0.585631967,-2.769260406
3.054708242,0.527879119,0.200099513,-0.828882277,-0.054021433,0.130650774,0.106120147,-0.364849538,0.007529689,0.305599749,-0.229606181,0.586340487,-2.76866293
3.059708118,0.521732092,0.199085146,-0.843569517,-0.078196794,0.147374839,0.112429991,-0.364886492,0.007561069,0.304852664,-0.229762107,0.587126791,-2.768077135
3.064708948,0.520868063,0.191938624,-0.84671545,-0.105180509,0.167561635,0.1160587,-0.364898741,0.007571474,0.304604948,-0.230043113,0.588004112,-2.767522573
3.069710493,0.521623909,0.194103166,-0.846602559,-0.125777394,0.186122164,0.119419351,-0.364908159,0.007579479,0.304414332,-0.230438977,0.588973701,-2.766960621
3.074707747,0.519094825,0.195013031,-0.851516187,-0.144921616,0.208987325,0.124836169,-0.365360439,0.007493974,0.304893374,-0.230917886,0.59006393,-2.766408205
3.079705238,0.518464684,0.178469539,-0.856972992,-0.174957857,0.23826839,0.128653735,-0.365708411,0.007428184,0.30526194,-0.231518194,0.59129101,-2.765951872
3.084704161,0.511375725,0.205946058,-0.858977199,-0.206418991,0.271208793,0.135300204,-0.365823805,0.007406369,0.305384159,-0.232361928,0.592688799,-2.765424252
3.089704037,0.507092416,0.211749628,-0.850305617,-0.230541483,0.305267364,0.146508306,-0.365912586,0.007389584,0.305478215,-0.233318985,0.594236255,-2.76484704
3.094711304,0.517360628,0.208130762,-0.845414042,-0.258860946,0.339784265,0.159983143,-0.366365641,0.007442715,0.304719716,-0.234385788,0.596004903,-2.764254093
3.099713802,0.512365758,0.221876383,-0.835953772,-0.272444814,0.383513153,0.174849287,-0.367142588,0.007542948,0.303337663,-0.235537663,0.597990036,-2.763585091
3.104711771,0.509881437,0.231522977,-0.841352999,-0.273740739,0.437280089,0.183621466,-0.367400229,0.007576184,0.302879393,-0.236708298,0.600248992,-2.762920141
3.109709501,0.495077103,0.221373618,-0.865519404,-0.288848937,0.493470311,0.192469418,-0.367598444,0.007601756,0.302526772,-0.237941265,0.602736473,-2.762421846
3.114708424,0.486656874,0.208041295,-0.884858966,-0.303077221,0.562002301,0.204785958,-0.367664158,0.007610236,0.302409858,-0.239206627,0.605552852,-2.762012005
3.1197083,0.482697785,0.204492182,-0.904715955,-0.321577489,0.633834839,0.209785551,-0.368506759,0.007555753,0.301371038,-0.240600258,0.608704567,-2.761751413
3.124709368,0.477268994,0.217322782,-0.915344477,-0.333979636,0.723639965,0.21227096,-0.368786156,0.007537688,0.301026583,-0.242164254,0.612271369,-2.761600256
3.12971139,0.468281984,0.237900436,-0.926994443,-0.332902551,0.828697562,0.226079702,-0.36900115,0.007523788,0.300761521,-0.243802875,0.616338074,-2.761486053
3.134708405,0.457812369,0.231383786,-0.941402435,-0.329743981,0.950548291,0.242003277,-0.369072407,0.007519179,0.300673664,-0.245427847,0.621009707,-2.761539221
3.139706373,0.464836717,0.211773247,-0.955134988,-0.34070617,1.08217597,0.252729207,-0.37091139,0.007267779,0.297545284,-0.247139379,0.626316249,-2.761850119
3.144705296,0.480294943,0.178129926,-0.961311996,-0.354254514,1.219157338,0.252649128,-0.371962667,0.007123088,0.295750558,-0.248981252,0.632317543,-2.76247406
3.149704933,0.495565712,0.149772838,-0.972201705,-0.379157156,1.360101819,0.248685122,-0.372771561,0.007011757,0.294369638,-0.251042157,0.639010847,-2.763421297
3.154705763,0.510491431,0.129062712,-0.978512406,-0.398988456,1.50402379,0.229615405,-0.373039782,0.006974842,0.293911755,-0.253393859,0.646385491,-2.764769554
3.159707546,0.511888266,0.10672681,-0.983397424,-0.420190841,1.658675909,0.208763003,-0.374857277,0.007019616,0.291857988,-0.256044447,0.654462397,-2.766636848
3.164704561,0.503454328,0.108599894,-0.987550974,-0.449508995,1.81105423,0.190684304,-0.377084583,0.007108254,0.289461255,-0.259103715,0.663229525,-2.76890564
3.169702768,0.496662915,0.118492611,-0.987647951,-0.492866129,1.964161754,0.178625777,-0.378798336,0.007176456,0.287617147,-0.26265204,0.672672749,-2.77152133
3.174701214,0.494749367,0.134050041,-0.988882422,-0.53002423,2.113607645,0.177655593,-0.379366577,0.00719907,0.287005663,-0.266628683,0.682813764,-2.774397373
3.179701328,0.489511877,0.142673701,-0.984539628,-0.567010701,2.26712513,0.181541651,-0.379803807,0.00721647,0.286535174,-0.271007895,0.693667054,-2.777582645
3.18470192,0.485239863,0.158152714,-0.979067266,-0.609429002,2.427099943,0.187761232,-0.38451007,0.006583975,0.279261947,-0.275862694,0.705275774,-2.781146526
3.189703941,0.481659919,0.173959836,-0.981438041,-0.651765585,2.595230818,0.198910698,-0.388131231,0.006097312,0.273665637,-0.281220496,0.717660367,-2.785033941
3.194700718,0.465563476,0.192328423,-0.977689922,-0.689557791,2.768279314,0.222393811,-0.389331937,0.005935944,0.271810025,-0.287014008,0.730858862,-2.789173365
3.199698687,0.447882533,0.214359045,-0.977821231,-0.726660967,2.95767045,0.252354264,-0.390255809,0.005811782,0.270382255,-0.293296158,0.744933963,-2.79359889
3.204697609,0.424793541,0.238679782,-0.984178007,-0.761982381,3.153353453,0.297987878,-0.393687904,0.005436648,0.264695078,-0.300008178,0.759940386,-2.798391342
3.209697485,0.398273587,0.253338635,-0.987366319,-0.792922914,3.365056753,0.350491971,-0.399489313,0.004810317,0.255047262,-0.307126939,0.775952697,-2.803498745
3.214698553,0.378422588,0.276753098,-0.995392144,-0.83106631,3.602158308,0.414723873,-0.401412934,0.004602638,0.251848221,-0.31474039,0.793095112,-2.808888197
3.219700575,0.354969501,0.295723408,-1.025039196,-0.865864813,3.875213146,0.504848957,-0.402893007,0.004442843,0.249386787,-0.322854549,0.811599135,-2.814636469
3.224703312,0.332989752,0.337203234,-1.035957575,-0.878330946,4.168948174,0.605923116,-0.403383791,0.004389857,0.248570621,-0.33134678,0.831517398,-2.820667267
3.229700804,0.27279374,0.374432653,-1.040340662,-0.851601481,4.496124268,0.741208434,-0.413124949,0.00397406,0.231532097,-0.34005177,0.853119135,-2.827073097
3.234699726,0.234968975,0.402943701,-1.046104431,-0.815679848,4.850754261,0.901409328,-0.416354954,0.003836189,0.225882441,-0.3487764,0.876531959,-2.833605051
3.239699602,0.232524201,0.418911338,-1.069059253,-0.827967942,5.250230789,1.06143415,-0.4188402,0.003730107,0.221535414,-0.358001053,0.902024508,-2.840581894
3.244700432,0.210803509,0.474126756,-1.090278983,-0.857095242,5.68179369,1.237246633,-0.419664264,0.003694932,0.220094025,-0.368072927,0.929712176,-2.848049402
3.249702215,0.166047961,0.533250451,-1.110093474,-0.854326546,6.149719715,1.445151806,-0.428009599,0.005391778,0.202171728,-0.378860652,0.959793687,-2.856292486
3.254698992,0.163694412,0.567068577,-1.122672915,-0.829993248,6.644565582,1.668211102,-0.432684928,0.006381006,0.192068562,-0.390321732,0.992481232,-2.865282774
3.259696722,0.163124174,0.681267679,-1.107029676,-0.766525924,7.193477631,1.908026695,-0.436282277,0.00714215,0.18429485,-0.402970701,1.028050423,-2.87523818
3.264695644,0.243657112,0.785620093,-1.09127593,-0.632353187,7.744878769,2.186397552,-0.437475085,0.007394531,0.181717232,-0.416502595,1.066676497,-2.886274576
3.269695282,0.372693539,0.820664883,-1.098281384,-0.501209438,8.224473953,2.480349779,-0.443010598,0.010512333,0.164423034,-0.430562228,1.108017564,-2.898594141
3.274696112,0.598801851,0.832017064,-1.074781537,-0.476961344,8.556098938,2.769594431,-0.449502498,0.014494296,0.143249169,-0.445941538,1.15162456,-2.912102699
3.279697895,1.07319355,0.77497524,-1.11227119,-0.457205415,8.643959999,2.972635031,-0.454497606,0.017558146,0.126957327,-0.462064564,1.19591856,-2.926461935
3.284695148,1.709276557,0.685868382,-1.231118202,-0.489438117,8.66535759,3.046127081,-0.45615387,0.018574061,0.121555261,-0.480926961,1.240369558,-2.943981171
3.289692879,2.346493721,0.645474434,-1.367057681,-0.601270258,8.668406487,3.077269077,-0.457428277,0.019355739,0.117398739,-0.505129397,1.284677267,-2.966708183
3.294691801,2.861807346,0.730462432,-1.357222199,-0.628558874,8.41374588,3.17284894,-0.463003933,0.030644026,0.082205385,-0.534790635,1.327960968,-2.994258881
3.299691439,3.065182209,0.81093061,-1.264533043,-0.409812063,7.927584171,3.335945606,-0.467294008,0.039329596,0.055126488,-0.565077782,1.368990064,-3.02297473
3.304692507,2.949825764,0.913699865,-1.154238701,-0.024190433,7.46254158,3.437479734,-0.468716532,0.042209569,0.046147641,-0.597703457,1.407923818,-3.055483341
3.309694529,2.71329689,0.958140194,-1.207894087,0.367873847,7.083763123,3.382256746,-0.469811052,0.04442551,0.03923903,-0.641713619,1.444509029,-3.101461411
3.314691305,2.604174614,0.905363977,-1.403296232,0.641587675,6.704127312,3.158540964,-0.468590319,0.053011831,0.017749753,-0.714039028,1.478019238,3.104902744
3.319689274,2.35622406,0.872167647,-1.51912725,0.79159373,6.353914738,3.01876545,-0.466049731,0.067557573,-0.018197481,-0.849374235,1.50850606,2.964116335
3.324687958,2.205399513,0.928896725,-1.661553144,0.957754135,5.973404884,2.949633837,-0.465207309,0.072380669,-0.030116901,-1.164594173,1.534511805,2.642655373
3.329687834,2.193585634,0.895083606,-1.883690119,1.060186267,5.497323036,2.847067595,-0.464559108,0.076091707,-0.039288085,-2.014058113,1.548149943,1.785752535
3.334688425,2.062148809,0.620858371,-2.094255447,0.930114686,4.776337147,2.70230031,-0.464344203,0.077322222,-0.042329077,-2.877362251,1.540095568,0.914245903
3.339690447,1.828794718,0.228245348,-2.331076145,0.450961798,3.803011894,2.450328112,-0.452191323,0.094761133,-0.078282125,3.054101944,1.526308179,0.555275261
3.344687462,0.992196143,-0.114174046,-2.440809011,-0.52123487,2.659475803,2.201943159,-0.448161632,0.100543544,-0.090203471,2.862962723,1.51593554,0.361077279
3.349685192,0.371967435,0.017950151,-2.311383247,-1.409235477,1.74847436,2.094933033,-0.445061088,0.104992718,-0.099376142,2.714850187,1.508488774,0.215953082
3.354684114,0.631371975,0.375332803,-2.139261961,-1.734757066,1.02481246,2.083755255,-0.444032997,0.106467977,-0.102417633,2.584047318,1.502804279,0.091241822
3.359689951,1.092799783,0.72969842,-2.144325256,-1.714900017,0.329055578,1.889119267,-0.433914423,0.117268786,-0.118167743,2.459779024,1.500047326,-0.026814548
3.364691019,1.068655014,0.980896711,-2.079218388,-1.673376799,-0.278728396,1.639025211,-0.428251177,0.123241931,-0.126708493,2.336703539,1.499753714,-0.143131867
3.369693279,0.662978053,1.031118631,-1.859125376,-1.460645318,-0.774823964,1.476264,-0.42389369,0.127837852,-0.133280039,2.200982332,1.50018239,-0.272668272
3.374690294,0.262440264,1.023961425,-1.58059597,-1.062393785,-1.153116465,1.305244803,-0.422448814,0.129361778,-0.135459036,2.056625605,1.500713229,-0.412731528
3.379688263,-0.00275499,0.971777737,-1.374956012,-0.682982326,-1.379843831,1.13618052,-0.41814971,0.13552694,-0.137089208,1.909169674,1.500703931,-0.557477295
3.384686947,-0.120986946,0.903236508,-1.235412478,-0.376422495,-1.511076689,0.954314053,-0.413510054,0.142605707,-0.137582928,1.763778329,1.50009799,-0.701616645
3.389686823,-0.16305688,0.798739195,-1.157837629,-0.137125731,-1.588491917,0.753362119,-0.409940153,0.148052335,-0.137962803,1.622079372,1.498884916,-0.843383312
3.394687653,-0.178571597,0.679550529,-1.109945297,0.026887786,-1.642663956,0.522954047,-0.408756435,0.149858341,-0.138088778,1.484769225,1.497267127,-0.981820881
3.399689436,-0.205143571,0.557374477,-1.069852114,0.113536648,-1.685455918,0.266874611,-0.407845646,0.151247934,-0.138185695,1.351107955,1.495364666,-1.117235422
3.404686451,-0.210357025,0.447223485,-1.024747968,0.143396303,-1.759576201,0.011842158,-0.4062545,0.155124143,-0.134554029,1.217620134,1.4931463,-1.252729654
3.409683943,-0.215456501,0.387766689,-0.990922391,0.116540924,-1.826430202,-0.196321964,-0.405030191,0.15810664,-0.131759718,1.084173441,1.49030745,-1.388112545
3.414682865,-0.200042725,0.324397743,-0.980088413,0.059378035,-1.852911711,-0.381099403,-0.404624254,0.15909557,-0.130833179,0.956046581,1.486765981,-1.51800096
3.419682741,-0.139300108,0.277438045,-0.98127073,-0.017486002,-1.928943515,-0.549738407,-0.404311895,0.159856498,-0.130120263,0.83036536,1.482270598,-1.645198226
3.424683809,-0.059288893,0.237290651,-0.985700667,-0.093598641,-2.065026522,-0.699552059,-0.40443939,0.159907266,-0.12712799,0.707541347,1.476402283,-1.7692343
3.429685593,0.009210565,0.214454666,-0.977032304,-0.1501863,-2.235746384,-0.832156062,-0.404771149,0.159742534,-0.12203902,0.590186059,1.468928456,-1.887593031
3.434682608,0.058552705,0.220789939,-0.953500986,-0.186488032,-2.418070078,-0.924700677,-0.40488115,0.159687921,-0.120351613,0.482479513,1.459694743,-1.996065617
3.439680338,0.100647271,0.232398614,-0.937539041,-0.19192034,-2.609223127,-0.988691092,-0.404965818,0.1596459,-0.119053274,0.386830747,1.448651552,-2.092427492
3.44467926,0.128181919,0.241299897,-0.927276254,-0.154410258,-2.814623117,-1.037806392,-0.404993892,0.159631968,-0.118622765,0.303815186,1.435788512,-2.176365137
3.449678898,0.160193041,0.24398534,-0.919533372,-0.091640562,-3.013368607,-1.073970318,-0.408805907,0.154227555,-0.110115714,0.233277485,1.421249747,-2.2481668
3.454679728,0.204385549,0.23292321,-0.91868937,-0.019700998,-3.213264465,-1.106700063,-0.410069883,0.152435541,-0.107294932,0.174033403,1.405175209,-2.309103489
3.459681749,0.249939442,0.209685951,-0.919885039,0.050981488,-3.416493177,-1.142908216,-0.411042422,0.151056722,-0.105124541,0.124360539,1.387639165,-2.360918045
3.464679241,0.291353375,0.182796136,-0.918143809,0.111537524,-3.621972084,-1.180319667,-0.411364913,0.150599539,-0.104404882,0.082710415,1.368740082,-2.405093193
3.469676733,0.329906613,0.15029189,-0.91834408,0.150788888,-3.820353746,-1.222397685,-0.415811002,0.145384312,-0.093935631,0.047669452,1.348586917,-2.442933321
3.474675655,0.368784457,0.114230976,-0.929309189,0.194683403,-4.012149334,-1.286743999,-0.418324053,0.142451569,-0.088010609,0.017686956,1.32726562,-2.476065874
3.479675293,0.417580694,0.109479368,-0.913213313,0.170908377,-4.182765484,-1.324187279,-0.420257658,0.140195012,-0.083451703,-0.008179328,1.304990292,-2.504892349
3.484676361,0.442032397,0.099578284,-0.908897579,0.146221563,-4.351759911,-1.369882822,-0.420898795,0.13944678,-0.081940062,-0.030599121,1.281721473,-2.530174017
3.489678383,0.479414761,0.107521966,-0.905215859,0.139170021,-4.499323368,-1.414737344,-0.423630416,0.135349572,-0.07263869,-0.050254639,1.257661462,-2.552591324
3.49468112,0.52801013,0.121969186,-0.893259108,0.158725113,-4.660432816,-1.456956387,-0.426793247,0.130439952,-0.061347947,-0.067400604,1.232726097,-2.57252264
3.499679089,0.572619617,0.146907955,-0.886377573,0.199487433,-4.811889172,-1.48332572,-0.429226816,0.126662329,-0.052660484,-0.082130268,1.207031131,-2.590139151
3.504677534,0.610830307,0.151041672,-0.882283032,0.249383509,-4.968809605,-1.509531617,-0.430033743,0.125409737,-0.049779885,-0.094666414,1.180510044,-2.605824471
3.509677649,0.639450729,0.155090496,-0.868905842,0.303676128,-5.121593475,-1.526419401,-0.430654615,0.124445952,-0.04756346,-0.105199851,1.153236985,-2.619715452
3.51467824,0.660387635,0.146435738,-0.852678776,0.352367133,-5.259819031,-1.53753221,-0.434093982,0.116910487,-0.030757016,-0.113928072,1.125316858,-2.631989241
3.5196805,0.675343096,0.140592813,-0.838879824,0.388137698,-5.38270092,-1.548795819,-0.436740339,0.11111246,-0.017825598,-0.12125662,1.09682703,-2.643021822
3.524677515,0.692372024,0.135217339,-0.826075792,0.408328414,-5.485512257,-1.557536364,-0.437617809,0.109189942,-0.013537786,-0.127425224,1.067887545,-2.652974844
3.529675484,0.705794513,0.130070165,-0.81632179,0.423036367,-5.567110062,-1.565000057,-0.43829298,0.107710697,-0.010238606,-0.132646948,1.038603425,-2.662032127
3.534674406,0.712623596,0.128795415,-0.796389699,0.455085367,-5.636954308,-1.589135647,-0.438686222,0.103078827,0.001874478,-0.137106061,1.008994937,-2.67054534
3.539674282,0.73665911,0.130489528,-0.804663241,0.407719165,-5.680683136,-1.571734548,-0.439160049,0.095327333,0.022336742,-0.14105311,0.979310989,-2.67806673
3.544675112,0.758834302,0.115919776,-0.813340783,0.362160504,-5.719848633,-1.576095819,-0.439317167,0.092757083,0.029121641,-0.144605607,0.949457586,-2.685069084
3.549677134,0.791738033,0.114109181,-0.828596532,0.299569219,-5.758014202,-1.583392739,-0.439438075,0.090779454,0.034342162,-0.148044065,0.919462919,-2.691648006
3.554674149,0.837372065,0.116907969,-0.852565527,0.221149445,-5.79443121,-1.592678189,-0.439478159,0.090123713,0.036073186,-0.151451349,0.889351249,-2.697768211
3.559672594,0.884851158,0.113040112,-0.882142723,0.128532216,-5.829994678,-1.608388782,-0.43693307,0.080359645,0.064863853,-0.154984936,0.859113336,-2.703542471
3.564671516,0.931428015,0.111929119,-0.91726476,0.021277608,-5.862482071,-1.630376816,-0.436089188,0.077122062,0.07441029,-0.15876554,0.828748405,-2.709060669
3.569671154,0.982915878,0.12371172,-0.958777428,-0.093176916,-5.895555973,-1.657519102,-0.435439855,0.074630961,0.081755623,-0.162911326,0.798267126,-2.714370012
3.574672222,1.04027319,0.140810162,-0.997942507,-0.208606422,-5.935547352,-1.690603375,-0.435224533,0.07380496,0.084191203,-0.167431325,0.767629921,-2.719471693
3.579673767,1.099031687,0.160805926,-1.026962161,-0.317280829,-5.977041721,-1.730077982,-0.429635853,0.066791669,0.106315963,-0.172340542,0.736856699,-2.72428298
3.584671021,1.154888868,0.19323425,-1.042892218,-0.411258936,-6.019412518,-1.776367664,-0.426440805,0.062887996,0.118663222,-0.177607685,0.705932856,-2.728887081
3.589668751,1.201010466,0.220881701,-1.05327642,-0.475698471,-6.053959846,-1.8417449,-0.423982441,0.059884392,0.128163606,-0.18314451,0.674882054,-2.733439445
3.594667673,1.24721837,0.246735096,-1.062500834,-0.519740462,-6.076963902,-1.926533103,-0.423167288,0.058888454,0.131313756,-0.18890436,0.643754959,-2.738058567
3.599667549,1.290498614,0.268661946,-1.076064825,-0.540905356,-6.082024574,-2.035917044,-0.417782754,0.053980321,0.145568207,-0.194840387,0.612600625,-2.742868185
3.604668379,1.343730569,0.280635476,-1.096831799,-0.533184171,-6.074122906,-2.165202856,-0.411200106,0.048176274,0.162224665,-0.200836465,0.581466198,-2.74801445
3.609670401,1.409511566,0.303705215,-1.141553879,-0.51319319,-6.059233189,-2.326536655,-0.406135201,0.043710455,0.175040677,-0.20693624,0.550363958,-2.753715992
3.614667416,1.462659121,0.317192197,-1.17869699,-0.449706852,-6.042509079,-2.483325958,-0.404455781,0.042229675,0.179290235,-0.21281518,0.519277513,-2.759925365
3.619665384,1.536662579,0.32280305,-1.229029417,-0.385329515,-6.022406101,-2.642785549,-0.403163582,0.041090317,0.182559967,-0.218406826,0.488250941,-2.766626358
3.624664307,1.610002756,0.334478319,-1.278848767,-0.298100173,-6.018990517,-2.80855298,-0.391490906,0.032318957,0.201384187,-0.223629579,0.457183868,-2.773808956
3.629670382,1.704612374,0.34379524,-1.322643638,-0.195075318,-6.023193836,-2.973036528,-0.382509589,0.025569992,0.215868145,-0.228318065,0.426077962,-2.78145647
3.634671926,1.821096778,0.367348671,-1.353516221,-0.069121137,-6.038642883,-3.132020473,-0.379531533,0.023332164,0.220670745,-0.232367933,0.394935369,-2.7894907
3.639674187,1.952288151,0.4058339,-1.364620686,0.081746668,-6.067633152,-3.27120924,-0.377240121,0.021610307,0.224366024,-0.23559761,0.363736957,-2.797691584
3.64467144,2.099082947,0.452356666,-1.343129873,0.252462178,-6.093301773,-3.378105164,-0.368783057,0.015558518,0.236087933,-0.237865239,0.332592845,-2.805843353
3.649669409,2.271487236,0.483363807,-1.288411379,0.441825449,-6.109053612,-3.448093414,-0.354492813,0.005360079,0.255720884,-0.238994032,0.301691473,-2.813794851
3.654668093,2.4585042,0.484674692,-1.211533785,0.629498005,-6.10850668,-3.466570616,-0.349754423,0.00197847,0.262230784,-0.238871053,0.27120629,-2.821425676
3.65966773,2.629689932,0.440448254,-1.103585124,0.797364593,-6.092664719,-3.409505844,-0.346108586,-0.000623449,0.26723972,-0.237484768,0.241296649,-2.8285532
3.664668322,2.78021121,0.414137781,-0.93360275,0.881987154,-6.0428195,-3.273785114,-0.344899654,-0.001486195,0.268900603,-0.23534666,0.212206289,-2.834649086
3.669670343,2.838000059,0.389567882,-0.722188115,0.894412756,-5.941606522,-3.073337555,-0.322248936,-0.014196012,0.291636109,-0.232655406,0.184063062,-2.839783669
3.674667358,2.805016756,0.355414212,-0.502044857,0.795985878,-5.756195545,-2.806442738,-0.314738393,-0.018410347,0.299174756,-0.230301008,0.157253265,-2.84368372
3.679665089,2.705219507,0.307877719,-0.259658366,0.664171159,-5.467081547,-2.507650852,-0.308959514,-0.021652991,0.304975241,-0.228291661,0.132173285,-2.846525669
3.684664011,2.60622716,0.251211911,-0.034268755,0.493370533,-5.08739233,-2.169288874,-0.307043344,-0.02272819,0.306898564,-0.226853743,0.109329216,-2.84823513
3.689663887,2.558622122,0.157112554,0.132835597,0.235409021,-4.669389725,-1.799327016,-0.28692618,-0.028577996,0.320998698,-0.226408929,0.088998497,-2.848716974
3.694664955,2.555453062,-0.020790655,0.250632197,-0.146901503,-4.246650696,-1.421950698,-0.275642484,-0.031760518,0.328796953,-0.227462411,0.071202524,-2.848284721
3.699667215,2.616806984,-0.288146019,0.333699614,-0.691418946,-3.841261864,-1.074862838,-0.266960472,-0.034209251,0.334797174,-0.230798542,0.055938322,-2.847344637
3.704664469,2.754360199,-0.544632375,0.400888264,-1.405205369,-3.496943235,-0.793858051,-0.264081657,-0.035021205,0.336786747,-0.237378627,0.042918205,-2.845967293
3.709662437,2.943114996,-0.703639209,0.489184052,-2.195873976,-3.238223553,-0.605395257,-0.252952129,-0.037968036,0.343091607,-0.247864127,0.031657547,-2.84396553
3.71466136,3.102762699,-0.693341672,0.640455902,-2.890078545,-2.999774218,-0.479003578,-0.240272462,-0.041286733,0.349996299,-0.262050927,0.02191546,-2.840878725
3.719661474,3.146137238,-0.590826631,0.820707977,-3.332345247,-2.769744635,-0.398648709,-0.230516329,-0.043840244,0.35530898,-0.278642893,0.013397923,-2.836778402
