Time,inertial-6253.76535:scaledAccelX,inertial-6253.76535:scaledAccelY,inertial-6253.76535:scaledAccelZ,inertial-6253.76535:scaledGyroX,inertial-6253.76535:scaledGyroY,inertial-6253.76535:scaledGyroZ,inertial-6253.76535:scaledMagX,inertial-6253.76535:scaledMagY,inertial-6253.76535:scaledMagZ,inertial-6253.76535:roll,inertial-6253.76535:pitch,inertial-6253.76535:yaw
0,0.494001955,-0.151105613,-0.858727217,0.00281933,-0.004571382,0.005116012,-0.378536731,0.086039096,0.301408321,0.182551384,0.506761968,-2.962736368
0.005002752,0.492692292,-0.151282489,-0.856922388,0.003533798,-0.007185151,0.005322322,-0.378755301,0.086013384,0.302210569,0.18257314,0.506733119,-2.962709427
0.010000896,0.490655661,-0.149046019,-0.857349098,0.003225953,-0.004674721,0.005753098,-0.37882778,0.086004861,0.302476585,0.182577178,0.50671494,-2.962672949
0.014999808,0.49080047,-0.148474306,-0.857036531,0.001536939,-0.005580472,0.005253414,-0.378883541,0.085998304,0.302681237,0.1825798,0.506692171,-2.962641239
0.02,0.492438197,-0.14984268,-0.860049546,0.002977805,-0.006264246,0.005226442,-0.378929943,0.085940175,0.302887738,0.182582468,0.50666362,-2.962614298
0.02500096,0.490818411,-0.148869112,-0.860896945,0.001004045,-0.005196688,0.007383605,-0.378993869,0.085838862,0.303186804,0.182593703,0.506645143,-2.962567329
0.030003199,0.490565956,-0.147392318,-0.859905779,0.001640723,-0.004862949,0.005775155,-0.379015058,0.085805275,0.303285986,0.182591185,0.506622612,-2.962533474
0.035000578,0.491904169,-0.148358658,-0.858967781,0.002464869,-0.00443487,0.00570532,-0.37903136,0.085779428,0.30336231,0.182602361,0.506611288,-2.962494135
0.039998721,0.48975572,-0.1498705,-0.859838486,0.003915479,-0.003299136,0.003849646,-0.379036754,0.08577086,0.303387612,0.182614446,0.506595194,-2.96247983
0.044997633,0.492213219,-0.149357185,-0.858953655,0.003591085,-0.004007209,0.005869574,-0.379104048,0.085561633,0.303281933,0.182625979,0.50658381,-2.962445498
0.049997825,0.491998851,-0.149037451,-0.857267201,0.002303778,-0.004069904,0.006122049,-0.37912634,0.085492253,0.303246886,0.18263185,0.506576657,-2.962417603
0.054998785,0.49178502,-0.148450539,-0.857314825,0.003586245,-0.003963682,0.002865885,-0.379143506,0.08543887,0.303219914,0.182634115,0.506566048,-2.962397575
0.060001023,0.491824865,-0.147508964,-0.858734131,0.002452997,-0.003812548,0.003857603,-0.379149199,0.085421167,0.303210974,0.182638243,0.506558657,-2.962365627
0.064998403,0.491427362,-0.148009434,-0.857964635,0.0035329,-0.002699119,0.004776398,-0.378707081,0.085795552,0.302077621,0.182643145,0.506552637,-2.962327719
0.069996543,0.490963101,-0.149226919,-0.860922873,0.00249281,-0.001960475,0.004503309,-0.378450006,0.086015694,0.301423043,0.182651386,0.506545186,-2.962295771
0.074995458,0.490239888,-0.149856046,-0.861593008,0.003681215,-0.002713281,0.004890482,-0.378252208,0.086185083,0.300919414,0.182670265,0.506536543,-2.962257147
0.079995133,0.490694702,-0.151229739,-0.861313462,0.003043883,-0.003798386,0.006060572,-0.378186613,0.086241253,0.300752431,0.182683393,0.50651896,-2.962219238
0.084996097,0.491930515,-0.150281385,-0.859484851,0.003966879,-0.002255399,0.005250295,-0.378220975,0.08617536,0.30114916,0.182699397,0.50651741,-2.962183714
0.089998081,0.492411673,-0.149349064,-0.860060096,0.00429355,-0.003086264,0.005006826,-0.378317952,0.086043492,0.301810354,0.182707995,0.506513417,-2.962146997
0.094995201,0.492290884,-0.150748074,-0.859116077,0.003059303,-0.003973581,0.006505718,-0.378392577,0.085942023,0.30231908,0.18272154,0.506508529,-2.962116718
0.099993087,0.492784679,-0.148227111,-0.85892266,0.002459564,-0.004008888,0.007480036,-0.378417313,0.085908383,0.302487761,0.18273662,0.506498218,-2.962069273
0.104992256,0.492718637,-0.147521466,-0.859856546,0.00217203,-0.002908117,0.004037533,-0.378436357,0.085882492,0.30261755,0.18273814,0.506485522,-2.962036848
0.109992191,0.492812663,-0.147877112,-0.85811919,0.002590572,-0.003729291,0.005634525,-0.378591269,0.085873269,0.302276164,0.182744637,0.506474674,-2.962001324
0.114993155,0.492969036,-0.149183065,-0.858544469,0.003152421,-0.003272957,0.004552067,-0.378710479,0.085866168,0.302013516,0.182746738,0.506472111,-2.961973667
0.11999514,0.491767526,-0.149065241,-0.85823822,0.003741491,-0.003186813,0.005744686,-0.378749996,0.085863806,0.301926404,0.182763442,0.506461978,-2.96193409
0.124992512,0.491265744,-0.148591608,-0.85880667,0.003931706,-0.003998945,0.005044876,-0.378780425,0.085861996,0.301859409,0.182774812,0.50645721,-2.96189785
0.129990399,0.49171412,-0.148633435,-0.858874142,0.003707987,-0.003507878,0.005072732,-0.378734201,0.085833929,0.302111328,0.182793126,0.506445229,-2.961862803
0.134989575,0.490185022,-0.148948312,-0.858870089,0.004009433,-0.003239908,0.006643267,-0.378641665,0.085784577,0.302582324,0.1828105,0.506437302,-2.961827278
0.139995396,0.49031207,-0.14894399,-0.859777331,0.004424776,-0.004780279,0.005477135,-0.378610998,0.085768208,0.302738518,0.182829276,0.506424665,-2.961788893
0.144996613,0.491860718,-0.149682641,-0.859459281,0.00401415,-0.001219515,0.005374747,-0.378587395,0.085755616,0.30285868,0.182845116,0.506413639,-2.96176362
0.149998844,0.49252823,-0.149871007,-0.859085917,0.003100313,-0.003831878,0.005122922,-0.378579557,0.085751444,0.302898526,0.182854801,0.506403506,-2.961732149
0.154995963,0.493697554,-0.150766388,-0.860057652,0.00414485,-0.004047077,0.005775105,-0.379103601,0.08595065,0.30177927,0.182880893,0.506382585,-2.961693048
0.159993857,0.49418959,-0.150346741,-0.86182946,0.002623504,-0.002495593,0.006020584,-0.379277349,0.0860167,0.301408142,0.182888106,0.506384194,-2.961658955
0.164992765,0.493986338,-0.150031462,-0.858987331,0.003302542,-0.003126051,0.006111747,-0.379411042,0.08606752,0.301122576,0.182904974,0.506373823,-2.961623669
0.1699927,0.492831796,-0.150816932,-0.858365893,0.003667732,-0.003150974,0.005979962,-0.379455388,0.086084373,0.301027894,0.182919413,0.506366134,-2.961590767
0.174993664,0.492115885,-0.149763376,-0.858595967,0.001903487,-0.003406893,0.005195379,-0.378788978,0.085980341,0.300749153,0.182922661,0.506353259,-2.961554289
0.179995641,0.490411609,-0.147804856,-0.859080434,0.004072094,-0.003416818,0.004801853,-0.378394663,0.085916892,0.300605774,0.182936564,0.506341994,-2.961513758
0.184992775,0.492046982,-0.149638489,-0.858582199,0.00445306,-0.003924792,0.006152564,-0.378091276,0.085868068,0.300495446,0.182956904,0.506336927,-2.96147275
0.189990655,0.491310775,-0.149609819,-0.858719647,0.002449967,-0.004650004,0.006892823,-0.377990663,0.085851878,0.300458878,0.182965606,0.506316006,-2.961439371
0.194989562,0.491779029,-0.149563938,-0.85854888,0.002853303,-0.002857711,0.007681927,-0.378143549,0.085965864,0.301148504,0.18299149,0.506308734,-2.96138525
0.199989498,0.491642833,-0.149296775,-0.858759999,0.003763162,-0.003807343,0.005597493,-0.378426462,0.086131163,0.302101016,0.183005109,0.506292522,-2.961348534
0.204990461,0.491656303,-0.149794757,-0.85976392,0.004626771,-0.003207654,0.00648203,-0.378644168,0.086258344,0.302833885,0.183028862,0.506284475,-2.961308956
0.209992453,0.492168278,-0.150624201,-0.859779119,0.004001034,-0.003394347,0.005764381,-0.37871635,0.086300522,0.303076893,0.183046833,0.50626862,-2.961274385
0.214989573,0.49145934,-0.149813741,-0.8599599,0.000994868,-0.005263285,0.005811517,-0.378771871,0.086332969,0.303263873,0.183043525,0.506247342,-2.961238861
0.219987705,0.492487669,-0.149505213,-0.859919667,0.002802097,-0.004053548,0.00619336,-0.378838301,0.08619301,0.303425342,0.183063671,0.506234229,-2.961204529
0.224986881,0.491313607,-0.150201097,-0.860450923,0.001444077,-0.005835828,0.00638419,-0.378889441,0.08608532,0.303549588,0.183065832,0.506208062,-2.961177588
0.22998707,0.493444771,-0.150479808,-0.859464407,0.004443251,-0.004711281,0.006122134,-0.378906399,0.086049609,0.303590775,0.183090121,0.506195605,-2.961140871
0.234988034,0.495477051,-0.149420246,-0.859062672,0.003470185,-0.005862688,0.005860734,-0.378919423,0.086022139,0.303622454,0.18310228,0.506182253,-2.961103439
0.239990011,0.493464768,-0.147960678,-0.859350324,0.003553704,-0.005646842,0.006846657,-0.378923625,0.086067781,0.303302437,0.183115289,0.506158471,-2.961059093
0.24498713,0.491879225,-0.148369178,-0.858509481,0.003940577,-0.005497437,0.005604816,-0.378926754,0.086158253,0.302722037,0.183128521,0.506138921,-2.961024523
0.249985024,0.491818666,-0.148114666,-0.858139575,0.006239387,-0.005792398,0.006831826,-0.378927797,0.086188249,0.302529573,0.183153391,0.506113708,-2.960982323
0.254983932,0.491477311,-0.149320543,-0.858462214,0.005804766,-0.006800507,0.005013712,-0.378928602,0.086211331,0.302381516,0.183169901,0.506088197,-2.960953951
0.259983867,0.488953978,-0.152900741,-0.858585775,0.00489378,-0.006049279,0.005532319,-0.37892887,0.086218983,0.302332401,0.183197066,0.506056428,-2.960938215
0.264984846,0.49167338,-0.151802644,-0.859363258,0.004332048,-0.006323393,0.003649992,-0.378135443,0.086280592,0.302664548,0.183218256,0.506036162,-2.960918188
0.26998657,0.492974311,-0.147881165,-0.859548688,0.004318479,-0.007841172,0.007655556,-0.377872348,0.086301021,0.302774668,0.183231279,0.506006896,-2.960868835
0.274989575,0.491018862,-0.147686452,-0.856943369,0.004133455,-0.007569185,0.006423821,-0.377669901,0.086316735,0.302859426,0.183241308,0.505981326,-2.960824251
0.279987723,0.489302009,-0.149156272,-0.857711434,0.004924984,-0.005337195,0.005508878,-0.377602786,0.086321943,0.302887499,0.183259219,0.505958498,-2.960790157
0.284986883,0.49023965,-0.150361106,-0.860605776,0.004585687,-0.0061861,0.005324328,-0.377948016,0.086277507,0.302336454,0.183278397,0.505932093,-2.960758209
0.289986819,0.49206847,-0.15095827,-0.860114157,0.004866988,-0.005227413,0.005958434,-0.378160685,0.086250782,0.302012026,0.183303371,0.505909324,-2.960725546
0.294988036,0.490819097,-0.150344178,-0.859393835,0.003503065,-0.004122673,0.006032765,-0.37832436,0.086230226,0.301762432,0.183316603,0.505898178,-2.960685968
0.299990028,0.489952564,-0.148997441,-0.859129369,0.003738139,-0.005367066,0.00832676,-0.3783786,0.086223409,0.301679671,0.183334991,0.505875707,-2.960635424
0.304987401,0.490101278,-0.150782242,-0.859722853,0.002495714,-0.004552517,0.006269551,-0.378421307,0.0861938,0.302111119,0.183345839,0.505858064,-2.960604429
0.30998528,0.492510498,-0.150163218,-0.860465944,0.002165246,-0.004840123,0.006680681,-0.378436446,0.086159423,0.302753478,0.183358803,0.50583899,-2.960561275
0.314984441,0.492712766,-0.149961546,-0.858356774,0.003939098,-0.00545138,0.005455571,-0.378448099,0.086132966,0.30324772,0.183376119,0.505823314,-2.960535765
0.319984376,0.493015945,-0.149282902,-0.858496249,0.003850027,-0.00404442,0.00552182,-0.378451973,0.086124197,0.303411603,0.18338567,0.505812585,-2.96049571
0.324985355,0.491960198,-0.151277855,-0.858591497,0.001892701,-0.004071311,0.006200501,-0.378454953,0.086117446,0.303537697,0.183393896,0.505800843,-2.960467339
0.329987586,0.491621137,-0.151230708,-0.859146833,0.000959778,-0.003601532,0.005116542,-0.378658056,0.08627297,0.303726882,0.18340221,0.505793095,-2.960439444
0.33498469,0.490178168,-0.150518551,-0.860618353,0.00271878,-0.004582852,0.006845115,-0.37881434,0.086392641,0.303872406,0.183419153,0.505771101,-2.960394621
0.339982837,0.49083373,-0.149701521,-0.860960603,0.003665519,-0.003351189,0.005829552,-0.378866136,0.086432315,0.303920686,0.183425188,0.505762279,-2.960362196
0.34498176,0.490042001,-0.149769485,-0.859954238,0.00241114,-0.005164501,0.006254139,-0.378906012,0.086462848,0.30395779,0.183433637,0.505741298,-2.960327625
0.349981964,0.490507185,-0.149230927,-0.860826075,0.004481573,-0.003276453,0.005754987,-0.378919095,0.086500093,0.303777367,0.18345125,0.505732119,-2.960286617
0.354982913,0.490867317,-0.14957656,-0.858889699,0.004754607,-0.003315189,0.006101785,-0.378929019,0.086556174,0.30344364,0.183467999,0.505718827,-2.960246086
0.359984905,0.491254389,-0.149535745,-0.858872831,0.004417321,-0.003177533,0.006927373,-0.378932327,0.086574771,0.303332984,0.183491513,0.505710661,-2.960197926
0.364982009,0.492197782,-0.149525702,-0.858177185,0.005529641,-0.003729435,0.008235648,-0.37893486,0.086589076,0.303247839,0.18352069,0.505693138,-2.960143328
0.369980156,0.491381764,-0.149037525,-0.857149661,0.002476059,-0.004748438,0.007716471,-0.378935695,0.086593822,0.303219616,0.183532059,0.505678833,-2.96009922
0.374979079,0.491373479,-0.149219617,-0.859441698,0.003991334,-0.002756319,0.006374258,-0.378339946,0.086780436,0.302283645,0.183547705,0.505672932,-2.96005106
0.379979014,0.488554776,-0.150632769,-0.858919501,0.003525353,-0.004620789,0.008918597,-0.378142416,0.086842313,0.301973283,0.183568805,0.505644619,-2.960005045
0.384979963,0.488541543,-0.150450394,-0.859888256,0.003925385,-0.00181102,0.007014058,-0.377990425,0.086889923,0.301734507,0.183588549,0.505642533,-2.959955692
0.389982194,0.49042362,-0.149015576,-0.860549867,0.002858882,-0.002972507,0.008201622,-0.377940029,0.08690571,0.301655322,0.183603883,0.505626738,-2.95989275
0.394979328,0.490678936,-0.147532165,-0.859771788,0.002837901,-0.00193066,0.007393339,-0.378394276,0.086374275,0.302287847,0.18361412,0.505624652,-2.959850311
0.399977714,0.488452405,-0.148502707,-0.860887527,0.005297101,-0.000867986,0.005646189,-0.378666908,0.086063549,0.302669197,0.183643192,0.505620897,-2.959811926
0.404976904,0.490651488,-0.149181947,-0.858745337,0.00581126,-0.000362074,0.008367122,-0.378876686,0.085824467,0.302962631,0.183674529,0.505621433,-2.959758282
0.409982979,0.491864145,-0.15212442,-0.858981252,0.004688825,0.00045767,0.007522899,-0.378946215,0.085745193,0.303059936,0.183706433,0.505625904,-2.959728241
0.414984196,0.492911041,-0.15250732,-0.857725859,0.00401404,-0.000161673,0.008990818,-0.378975004,0.085915953,0.303269148,0.183743194,0.50562948,-2.959680557
0.419986188,0.492344111,-0.152191132,-0.858229339,0.004525376,3.94E-05,0.00953976,-0.378959626,0.086206272,0.303473979,0.183778077,0.505630672,-2.959624529
0.424983561,0.491266072,-0.150756747,-0.858916759,0.004740673,-0.001578625,0.009258018,-0.378947794,0.086429656,0.303631604,0.183804587,0.50562346,-2.959568977
0.42998144,0.49108693,-0.15016979,-0.859578669,0.00415166,-0.001122845,0.007375689,-0.378943861,0.086503729,0.303683877,0.183824882,0.50562793,-2.959522963
0.434980601,0.491764784,-0.150364831,-0.858763516,0.003999161,-8.26E-05,0.009252902,-0.378940821,0.086560719,0.30372411,0.183855593,0.505636394,-2.959463835
0.439980537,0.492031068,-0.150460437,-0.859144747,0.003493314,-0.000601764,0.006697544,-0.37878716,0.086372845,0.303688377,0.18387273,0.505640507,-2.95942378
0.444982022,0.490381956,-0.149165481,-0.858444691,0.005881088,-0.000335257,0.005487849,-0.378668934,0.086228296,0.303660899,0.183901295,0.505647898,-2.959388733
0.449984014,0.490598828,-0.148938715,-0.859241009,0.004090169,0.000695753,0.008964701,-0.378629744,0.086180359,0.30365178,0.183921933,0.505654752,-2.959328651
0.454981387,0.490816087,-0.149538755,-0.859312475,0.004347956,-5.45E-05,0.007992891,-0.378599554,0.086143479,0.303644806,0.183944628,0.505654335,-2.959285259
0.459979266,0.489619792,-0.147625282,-0.858426273,0.005395395,-0.001012149,0.008196608,-0.378391862,0.086184673,0.303583056,0.183974355,0.505650461,-2.95922637
0.464978427,0.491421819,-0.149981886,-0.859622419,0.004784657,5.66E-05,0.009199821,-0.378032148,0.086270384,0.30347544,0.184005842,0.50565356,-2.959174633
0.469978362,0.491654873,-0.149004206,-0.859945297,0.005418308,-0.000472827,0.009044004,-0.377912879,0.086298801,0.303439766,0.184038326,0.505654812,-2.959121227
0.474979579,0.493181288,-0.147418454,-0.857006013,0.005840234,-0.000214204,0.010119665,-0.377821118,0.086320668,0.303412288,0.18406409,0.505663455,-2.959050417
0.479981571,0.490329593,-0.151123345,-0.860298634,0.005418044,-0.001213806,0.009231417,-0.377790689,0.086327925,0.303403199,0.184101284,0.50565958,-2.959011078
0.484978676,0.49029851,-0.153620675,-0.85964638,0.005674718,0.001958026,0.008437214,-0.378630549,0.086418934,0.303540647,0.184147298,0.505676448,-2.958973169
0.489976585,0.493198127,-0.150582731,-0.86029017,0.006063676,0.000141984,0.007584607,-0.378909022,0.086449109,0.303586215,0.184174091,0.505686402,-2.958929777
0.494975477,0.493468732,-0.150263786,-0.858340979,0.005500449,-0.000267959,0.008054561,-0.3791233,0.086472325,0.303621292,0.184206307,0.50569123,-2.958880424
0.499975413,0.490241081,-0.152854532,-0.857191384,0.005307798,-0.001960746,0.007545192,-0.379194349,0.086480029,0.303632945,0.184236884,0.505682707,-2.95885396
0.504976153,0.49063769,-0.152174771,-0.857597411,0.005301791,-0.001902699,0.007873869,-0.378994435,0.086173333,0.303350002,0.184275746,0.505677104,-2.958818436
0.509978116,0.489666134,-0.148290962,-0.857133031,0.00483807,-0.002995023,0.007344434,-0.378865153,0.085994273,0.303183973,0.18428959,0.505668759,-2.958784103
0.514974952,0.489363074,-0.152208582,-0.859644711,0.003980413,-0.002217671,0.008263764,-0.378765672,0.085856505,0.30305621,0.184317857,0.505659819,-2.958748817
0.519973099,0.488671482,-0.153229222,-0.858591676,0.003551136,-0.000596257,0.008743672,-0.378732711,0.085810825,0.303013861,0.184346959,0.505652726,-2.958716154
0.524971783,0.492673904,-0.150505498,-0.860188723,0.003539456,0.001188777,0.006206874,-0.378768206,0.086066082,0.303034127,0.184358895,0.505664647,-2.958678007
0.529971719,0.492082119,-0.147516415,-0.859392226,0.004943807,-0.000822438,0.006218444,-0.378841341,0.086443558,0.303094178,0.184377894,0.505671263,-2.958618641
0.534972429,0.48963815,-0.147192553,-0.862248302,0.004852376,-0.000722696,0.009354549,-0.378897607,0.086734004,0.303140372,0.184399873,0.505665898,-2.958554268
0.539974391,0.489201814,-0.147837415,-0.860737979,0.006069518,-0.000334724,0.007823402,-0.378916293,0.086830311,0.30315569,0.184426472,0.505663872,-2.958499432
0.544977129,0.491321266,-0.148366094,-0.859516621,0.006523995,-0.000418951,0.00675658,-0.378930658,0.086904407,0.303167492,0.184458911,0.505674481,-2.95844388
0.549975038,0.493461251,-0.148371071,-0.859371722,0.005863827,-0.000141159,0.007560174,-0.378782541,0.086818621,0.302540362,0.184490085,0.505678475,-2.958385944
0.55497396,0.493476361,-0.151944786,-0.858098745,0.006192349,0.001504282,0.008492148,-0.378668576,0.086752616,0.302057803,0.184528008,0.505696476,-2.958341599
0.559973896,0.492555082,-0.15222618,-0.858051896,0.006871279,-0.000861582,0.008525363,-0.378630787,0.086730726,0.301897794,0.184572265,0.505695045,-2.958296537
0.564974844,0.49200955,-0.152838781,-0.857886314,0.005303874,-0.000806958,0.008427923,-0.37860173,0.086713888,0.301774681,0.184604064,0.505697072,-2.958250761
0.569976568,0.492724627,-0.152037859,-0.858939528,0.003764759,-0.001655077,0.006337882,-0.378535271,0.086734325,0.301540017,0.184617668,0.505702436,-2.958214521
0.574973702,0.491447508,-0.152627036,-0.857733905,0.005288313,-0.002321423,0.00615671,-0.378426701,0.086776368,0.301163465,0.184645221,0.505695701,-2.958180904
0.579971313,0.492461115,-0.153044835,-0.858031869,0.005311281,-0.002271329,0.006698586,-0.3783907,0.086790308,0.301038623,0.184676006,0.505696893,-2.958149672
0.584970236,0.492270201,-0.154690787,-0.856755197,0.003414041,-0.002852779,0.007138164,-0.378363013,0.08680103,0.30094254,0.184696585,0.505690634,-2.958117247
0.589969933,0.493198425,-0.156987771,-0.855792642,0.001582319,-0.004796435,0.007393384,-0.378353834,0.086804591,0.300910681,0.184719577,0.505676746,-2.958097696
0.594970882,0.494785339,-0.157745093,-0.856194973,-0.000637414,-0.0055942,0.005171048,-0.378742695,0.086679868,0.300895303,0.184718207,0.505662382,-2.958097935
0.599972844,0.49405545,-0.159627005,-0.855027974,-0.004548871,-0.007254364,0.005715115,-0.37887165,0.08663851,0.300890207,0.184709072,0.505636215,-2.958098173
0.604969978,0.495021701,-0.14941451,-0.856135845,-0.006593572,-0.008976843,0.002947215,-0.378970861,0.086606689,0.300886273,0.184645861,0.505610943,-2.9580791
0.609967887,0.493411392,-0.157174245,-0.85743165,-0.007826649,-0.011054196,0.002714625,-0.379003763,0.086596139,0.300884962,0.184602007,0.505564272,-2.958101273
0.61496681,0.494665504,-0.168412268,-0.854845285,-0.01080936,-0.010205627,0.00291606,-0.378879219,0.08639054,0.301851541,0.184571534,0.505524516,-2.958162308
0.619966745,0.500123739,-0.157149017,-0.856687367,-0.015011776,-0.013042182,-0.002068005,-0.378800869,0.086273506,0.302411437,0.184469193,0.505489767,-2.958204269
0.624967694,0.492325246,-0.155726507,-0.857651114,-0.018215615,-0.01726779,-0.004925072,-0.378740549,0.086183451,0.302842259,0.184340999,0.505420864,-2.95827198
0.629969656,0.495203495,-0.156158552,-0.856849551,-0.021189526,-0.015058414,-0.004660488,-0.378720552,0.086153589,0.302985102,0.184202716,0.50536871,-2.958333492
0.634966791,0.494556785,-0.152001485,-0.858105898,-0.023959856,-0.018401025,-0.005781948,-0.378790319,0.086215384,0.302710831,0.184036851,0.505293727,-2.958382845
0.6399647,0.490843356,-0.152855784,-0.85997653,-0.025002411,-0.020764131,-0.008215723,-0.378899336,0.086321354,0.302232474,0.183861792,0.505209804,-2.958455324
0.644963861,0.496004403,-0.156929851,-0.859206498,-0.025896925,-0.021130133,-0.009307151,-0.3789832,0.086402893,0.301864415,0.183692217,0.505137444,-2.958549023
0.649964273,0.49330762,-0.155940622,-0.85737133,-0.028717989,-0.022317342,-0.012588978,-0.379011005,0.086429931,0.301742375,0.183498606,0.50505209,-2.958658218
0.654964983,0.494748622,-0.155273438,-0.860261858,-0.031853657,-0.024096832,-0.016384102,-0.379032433,0.086450733,0.301648468,0.183269277,0.504968166,-2.958790779
0.659967005,0.491496295,-0.148983344,-0.857738912,-0.03384684,-0.024697293,-0.015158286,-0.378990859,0.086509287,0.30180943,0.183021337,0.504873574,-2.958887339
0.664963841,0.489525646,-0.147008717,-0.859852433,-0.033717174,-0.025083305,-0.014030162,-0.378958851,0.086554341,0.301933289,0.182769492,0.504773259,-2.958972454
0.669961751,0.485821992,-0.145468831,-0.85700196,-0.033440426,-0.024847841,-0.012986727,-0.378948241,0.086569287,0.301974356,0.182538152,0.504668534,-2.95904851
0.674960375,0.489597887,-0.150046438,-0.860054553,-0.034118429,-0.025081761,-0.012144674,-0.378940076,0.086580783,0.302005947,0.182313189,0.504571617,-2.959142447
0.679966211,0.49009645,-0.15290387,-0.857241213,-0.032386944,-0.025480464,-0.012062556,-0.37882334,0.086442269,0.302483171,0.182095334,0.504477084,-2.959247112
0.68496716,0.491260946,-0.158380464,-0.858291268,-0.034930084,-0.027228514,-0.014455941,-0.378618151,0.086191781,0.303322345,0.181869492,0.504372716,-2.959387779
0.68996942,0.496091008,-0.160608947,-0.859225154,-0.038522355,-0.028086599,-0.01447864,-0.378550142,0.086108729,0.30360058,0.18163006,0.504266679,-2.959534407
0.694966793,0.493760914,-0.15990214,-0.858074665,-0.042474512,-0.02780005,-0.017558688,-0.378497779,0.086044818,0.303814679,0.181352213,0.504164338,-2.959689617
0.699964643,0.495081037,-0.15935874,-0.859288096,-0.04688805,-0.031182149,-0.015989568,-0.378480434,0.086023629,0.303885669,0.18105872,0.504042327,-2.959834814
0.704963565,0.492042392,-0.155019984,-0.85969764,-0.05238314,-0.031707931,-0.018602284,-0.378393352,0.085659318,0.30297789,0.180720106,0.503915012,-2.959992647
0.7099635,0.491747707,-0.151629418,-0.861324668,-0.054142483,-0.031677272,-0.017742762,-0.378364474,0.085538521,0.302676886,0.180370286,0.503797889,-2.960130692
0.714964211,0.491247267,-0.148700774,-0.860387027,-0.053407647,-0.029472351,-0.019159766,-0.378342241,0.085445575,0.302445292,0.180015758,0.503684282,-2.960267067
0.719966233,0.491560519,-0.147362009,-0.856961012,-0.053197812,-0.031396132,-0.016498893,-0.37833488,0.08541476,0.302368462,0.179675519,0.50355649,-2.960386753
0.724963307,0.489443362,-0.146909058,-0.858014464,-0.05355411,-0.032453112,-0.016091404,-0.378178716,0.085191362,0.303034872,0.179333508,0.503422081,-2.960510492
0.729961216,0.487702489,-0.148092613,-0.859359384,-0.054314375,-0.03223668,-0.017121626,-0.378089666,0.085067876,0.303435355,0.178990781,0.503292441,-2.960644484
0.734961152,0.487499982,-0.146695197,-0.859584272,-0.056786664,-0.03213802,-0.013768055,-0.378021151,0.084972858,0.303743511,0.178634599,0.503151536,-2.960743427
0.739961088,0.48667714,-0.144770265,-0.861846089,-0.054845158,-0.031146541,-0.0140271,-0.377998441,0.08494135,0.303845674,0.178284436,0.50302422,-2.960844755
0.744962037,0.486117721,-0.140069515,-0.863791585,-0.052849378,-0.029272238,-0.012974213,-0.377980351,0.084832475,0.304145157,0.177937061,0.502898157,-2.960926294
0.749964058,0.487051874,-0.1358473,-0.865479827,-0.049310558,-0.027730808,-0.011818315,-0.377973735,0.084711023,0.304467201,0.177606747,0.502780914,-2.960987329
0.754961431,0.486029893,-0.136957437,-0.865399122,-0.045689166,-0.025959326,-0.008982142,-0.377968669,0.084617585,0.304714978,0.177305877,0.50266993,-2.96103096
0.75995928,0.48606509,-0.137613475,-0.86711657,-0.045402542,-0.023895018,-0.006869602,-0.377967,0.084586598,0.304797143,0.177024141,0.502561033,-2.961058855
0.764958203,0.484775782,-0.13785632,-0.866023421,-0.040492017,-0.022853037,-0.00509861,-0.377965689,0.084562756,0.304860383,0.176770106,0.5024575,-2.96108675
0.7699579,0.486214042,-0.135144979,-0.866813898,-0.039401598,-0.021117529,-0.003715523,-0.378057629,0.08419282,0.304015875,0.176515087,0.502362013,-2.961097717
0.774958849,0.487331778,-0.137654141,-0.866549432,-0.036376547,-0.019583922,-0.003006041,-0.378128409,0.08390817,0.303366035,0.17629154,0.502276182,-2.961112738
0.779961109,0.488423765,-0.13945365,-0.864770412,-0.033284962,-0.018546293,-0.000387009,-0.378151864,0.083813794,0.303150564,0.17609024,0.502201438,-2.961117744
0.784958482,0.489284486,-0.138616055,-0.865461111,-0.031358331,-0.016451187,9.64E-05,-0.378169924,0.083741173,0.302984804,0.175890997,0.502126992,-2.961112261
0.789956331,0.487597704,-0.140270293,-0.866148293,-0.0316195,-0.015442768,0.002337416,-0.378148228,0.083691187,0.303314447,0.175714582,0.502057493,-2.961099863
0.794955254,0.489508212,-0.13855572,-0.864188969,-0.030236755,-0.013626549,0.002880247,-0.378103584,0.083626516,0.303957045,0.175542563,0.502001345,-2.961080551
0.799954951,0.487336665,-0.140814945,-0.865778446,-0.027328096,-0.013158509,0.002054223,-0.378088772,0.083605073,0.304170102,0.175386786,0.501947105,-2.961070538
0.8049559,0.487696648,-0.141135246,-0.861717701,-0.025863297,-0.012608133,0.003303079,-0.378077358,0.083588578,0.304334044,0.1752363,0.501895666,-2.961055279
0.809957623,0.48875922,-0.140649766,-0.86296773,-0.026571967,-0.011451207,0.002933247,-0.378073573,0.083583109,0.304388404,0.175084129,0.501855254,-2.961036205
0.814960659,0.487321764,-0.138204604,-0.863165796,-0.024056414,-0.011686275,0.004599433,-0.377934963,0.083501697,0.303656518,0.174934298,0.501803815,-2.961003542
0.819958508,0.49099797,-0.129896462,-0.86142087,0.003766086,-0.015652644,-0.000690771,-0.377889007,0.083474696,0.303413868,0.1748849,0.501746595,-2.960970879
0.82495743,0.484882653,-0.144212365,-0.86416322,-0.005803837,-0.011685944,0.002083314,-0.377853632,0.083453923,0.303227156,0.174885139,0.501693666,-2.961002827
0.829957366,0.486131489,-0.143258661,-0.861326575,-0.012526972,-0.013235164,0.001394323,-0.37784192,0.083447039,0.303165227,0.174793288,0.501630723,-2.961002588
0.834958076,0.487060994,-0.139963403,-0.862450898,-0.017010536,-0.01092535,0.002213287,-0.377531797,0.083139218,0.304034978,0.174674571,0.501590431,-2.960987329
0.839960039,0.485286206,-0.138286203,-0.864194095,-0.020019677,-0.011252472,0.000290541,-0.377354473,0.082962289,0.30455038,0.174543589,0.501546204,-2.960977793
0.844956934,0.485134155,-0.132965252,-0.863709271,-0.020041227,-0.009878311,0.00034397,-0.377218008,0.082826152,0.304946929,0.174402073,0.501501381,-2.960963011
0.849954844,0.480183214,-0.132352546,-0.867800295,-0.019190921,-0.008400768,0.000417998,-0.377172768,0.082781009,0.305078417,0.174263224,0.501458645,-2.960940123
0.854953468,0.478985965,-0.135373846,-0.864304483,-0.015626309,-0.002613084,0.001278903,-0.377310485,0.082923099,0.305208445,0.174162939,0.501443863,-2.960914612
0.859953403,0.484801441,-0.132052705,-0.865094125,-0.014121562,-0.002242534,0.002993234,-0.377530098,0.083148524,0.305280656,0.174060658,0.501442015,-2.960861683
0.864954114,0.485375911,-0.13458468,-0.863714218,-0.009581755,-0.000121796,0.002681524,-0.377699077,0.083321974,0.305336177,0.173993707,0.50145334,-2.960823536
0.869956613,0.486902565,-0.140534908,-0.862825453,-0.010166796,0.000911063,0.002297941,-0.377755105,0.083379492,0.305354595,0.173930511,0.501462519,-2.96080327
0.874954224,0.487652093,-0.146085039,-0.863090754,-0.011288826,-0.000102064,0.000428291,-0.3777982,0.083423741,0.305368781,0.173867747,0.501473784,-2.960809231
0.879952133,0.488439202,-0.146150723,-0.863138735,-0.011437164,-0.000568027,0.000845091,-0.377707005,0.083175115,0.304599822,0.17380257,0.501481414,-2.960822821
0.884951055,0.486762136,-0.142586634,-0.862859666,-0.011809792,-0.001047166,0.000690172,-0.37763682,0.082983814,0.304008156,0.173728928,0.501483858,-2.960820913
0.889950991,0.486759543,-0.141980112,-0.864341557,-0.013826464,-0.001039899,0.001196792,-0.377613574,0.08292038,0.303811967,0.17363894,0.501487911,-2.960820913
0.894951701,0.486745149,-0.138655096,-0.862319469,-0.0144492,-0.000391794,0.000875372,-0.377595663,0.082871579,0.303661048,0.173549399,0.501491547,-2.96079874
0.899953425,0.486712903,-0.135886237,-0.862698913,-0.01074868,-0.000198949,0.003863813,-0.377505302,0.082828134,0.303967059,0.173478439,0.501507401,-2.960752487
0.904950261,0.488596469,-0.136937156,-0.863072991,-0.011013146,0.002411942,0.005759532,-0.37735042,0.082767144,0.304562539,0.173415259,0.501529038,-2.960704803
0.909947932,0.488803238,-0.13671276,-0.862856269,-0.008085071,0.000206653,0.005989311,-0.377299041,0.082746923,0.304759979,0.173363924,0.501537561,-2.960660458
0.914946795,0.488142163,-0.134524539,-0.86410743,-0.009269754,0.000633495,0.008286012,-0.377259523,0.082731359,0.304911911,0.173319519,0.501545429,-2.960582972
0.91994673,0.488995552,-0.13408564,-0.86620611,-0.005792107,-0.000448655,0.007962323,-0.37724641,0.082726203,0.304962277,0.173277095,0.501547694,-2.960517168
0.924947739,0.488016009,-0.133952186,-0.863355935,-0.005551384,0.000525082,0.012870746,-0.377500385,0.082787886,0.304233491,0.173257396,0.501555443,-2.96042037
0.929949462,0.488131255,-0.134519726,-0.862994969,-0.00377595,0.001431356,0.013798328,-0.377584606,0.082808338,0.303991824,0.173240736,0.501563728,-2.960316181
0.934946537,0.487719357,-0.136549681,-0.865805387,-0.003699667,0.001398486,0.014916804,-0.377649397,0.082824081,0.303805888,0.173248008,0.50156939,-2.960202217
0.939944446,0.487488538,-0.136420816,-0.867035568,-0.003168849,0.001661354,0.01680167,-0.377670854,0.082829297,0.303744227,0.173251852,0.501573443,-2.960092306
0.944943368,0.485210031,-0.138977751,-0.867366135,-0.002795445,0.003725443,0.017064419,-0.37763679,0.082781494,0.303696394,0.173260689,0.501580298,-2.95998764
0.949949443,0.487354547,-0.136175469,-0.865995049,-0.002496604,0.004457676,0.015760554,-0.377612978,0.082752816,0.30368045,0.173264682,0.501593649,-2.959872007
0.954950631,0.487916321,-0.136680037,-0.867367744,-0.00293292,0.00552196,0.015792513,-0.37759465,0.082730748,0.303668171,0.1732665,0.501617193,-2.95976615
0.959952652,0.487561256,-0.136444747,-0.866687715,-0.003714192,0.005136905,0.015586104,-0.37758857,0.082723439,0.303664088,0.173277125,0.50163871,-2.959649563
0.964949787,0.486115187,-0.13750048,-0.865935206,-0.001847396,0.006560559,0.015746752,-0.377528578,0.082721233,0.304154694,0.173276559,0.501665592,-2.959550142
0.969947636,0.484273821,-0.137747496,-0.865791321,-0.001150737,0.008060911,0.015347693,-0.37745291,0.08272396,0.304815233,0.173301563,0.501695752,-2.959450006
0.974946558,0.487789541,-0.137252465,-0.867675841,-0.000758462,0.009719542,0.013105555,-0.377394706,0.082726061,0.305323482,0.173307464,0.501744926,-2.959357262
0.979946494,0.487220645,-0.135355458,-0.866571963,0.000378772,0.012031929,0.013931459,-0.377375394,0.082726754,0.305491984,0.173324972,0.501800478,-2.959244013
0.984947205,0.487146884,-0.135085613,-0.866023958,0.000136249,0.012353791,0.014712507,-0.377360553,0.082727291,0.305621654,0.173340902,0.501861095,-2.959130287
0.989949167,0.488845676,-0.13904357,-0.865074277,0.001182267,0.012487777,0.016476599,-0.377705336,0.082735553,0.305816561,0.173373938,0.501917958,-2.959026098
0.994946063,0.487408549,-0.140521526,-0.863925695,-0.000186733,0.011086956,0.015174659,-0.377970606,0.082741909,0.305966556,0.17339924,0.501969397,-2.958929777
0.999943912,0.485532761,-0.14381212,-0.865917146,-0.001359594,0.008813399,0.017476464,-0.378058553,0.082744017,0.306016296,0.173430458,0.502003551,-2.95883584
1.004942894,0.488055795,-0.143684968,-0.868867457,-0.002118845,0.009531247,0.018979374,-0.378126234,0.082745641,0.306054562,0.173453346,0.502040744,-2.958738327
1.00994277,0.484234571,-0.140122727,-0.869314611,-0.002643709,0.0085183,0.021524942,-0.378175288,0.082768574,0.305297762,0.173477843,0.502062619,-2.958607912
1.01494348,0.48091507,-0.134597495,-0.871772408,-0.000732256,0.012016203,0.021425417,-0.37823993,0.082808852,0.303937405,0.173499659,0.502102613,-2.958460331
1.019945502,0.473780096,-0.126615837,-0.872035205,0.001915112,0.016545981,0.025340959,-0.378261358,0.082822211,0.303486317,0.173540786,0.502141118,-2.95825243
1.024942279,0.468238235,-0.120981053,-0.874233067,0.007691277,0.025327409,0.026077416,-0.378277838,0.082832485,0.30313924,0.173602596,0.502218604,-2.958023787
1.029940248,0.463859677,-0.117240816,-0.875847816,0.018628241,0.03776519,0.026702458,-0.378283292,0.082835898,0.303024143,0.173722923,0.502359152,-2.957771778
1.03493917,0.45952329,-0.113347977,-0.877769291,0.031009577,0.0519167,0.02863553,-0.377960324,0.082910866,0.304150671,0.173918605,0.502558291,-2.957478285
1.039939046,0.45909518,-0.111956932,-0.878610253,0.042660933,0.066002481,0.032213971,-0.377853215,0.082935721,0.304524213,0.174178287,0.502833605,-2.957145214
1.044939995,0.462866426,-0.109370574,-0.878509641,0.05804114,0.080135114,0.034178443,-0.377770841,0.082954846,0.304811627,0.174523085,0.503174543,-2.956789017
1.049942255,0.459572971,-0.117238469,-0.879469633,0.070809305,0.092533924,0.035860445,-0.377743512,0.082961187,0.304906934,0.174962044,0.503575146,-2.956450224
1.054939389,0.463206351,-0.127129555,-0.88026166,0.081174977,0.103525557,0.036462501,-0.377824754,0.083170094,0.304834664,0.17547518,0.504026592,-2.956109047
1.059937239,0.466103107,-0.138226062,-0.878052354,0.08892478,0.115641817,0.035449903,-0.377876967,0.083289854,0.304774702,0.176055104,0.504539132,-2.955800295
1.064936161,0.464614898,-0.152598679,-0.880377352,0.093842618,0.127110034,0.03567332,-0.377917171,0.083381996,0.304728568,0.176691577,0.505097806,-2.955530643
1.069935918,0.468469441,-0.158537686,-0.879249275,0.093655981,0.133776858,0.03221105,-0.377930492,0.08341255,0.304713249,0.177320436,0.505692303,-2.95528245
1.074936867,0.476634562,-0.163927123,-0.882488608,0.092017867,0.14033246,0.022768959,-0.377915025,0.083664551,0.304478467,0.177924275,0.506344259,-2.955081224
1.079938531,0.477370143,-0.176352173,-0.883363247,0.087447017,0.143137708,0.015896635,-0.377883971,0.083978511,0.304175735,0.178512514,0.507001817,-2.954972744
1.084941864,0.462447703,-0.195114642,-0.892027557,0.071050242,0.152330592,0.013221279,-0.377860069,0.084220082,0.3039428,0.179050416,0.507674992,-2.954942942
1.089939952,0.475584835,-0.17796047,-0.899698794,0.067633212,0.157747284,0.01028975,-0.377852142,0.08430019,0.303865552,0.179499805,0.508405805,-2.954815149
1.094938874,0.480405569,-0.170235246,-0.899454951,0.066414088,0.164040104,0.009511391,-0.377846032,0.084361821,0.303806156,0.179954678,0.509161055,-2.954671621
1.099938512,0.479478776,-0.170292318,-0.901486397,0.061484795,0.167355463,0.009004311,-0.378692806,0.08469142,0.302443922,0.180372849,0.509934783,-2.954525232
1.104939461,0.475435853,-0.170153365,-0.906824768,0.055164937,0.181542292,0.010319902,-0.379344314,0.084945031,0.301395774,0.180771038,0.510761917,-2.9543612
1.109941483,0.455964953,-0.178625017,-0.91633743,0.032513354,0.206975639,0.009285616,-0.379560322,0.085029118,0.301048249,0.181079909,0.511672437,-2.95420289
1.114938617,0.448034585,-0.194211558,-0.938874245,-0.007909398,0.248583034,-0.002676007,-0.379726559,0.085093819,0.300780863,0.181200325,0.512780905,-2.954140902
1.119936228,0.448392808,-0.234633923,-0.9663589,-0.08254575,0.298162311,-0.014417562,-0.379809082,0.085030183,0.300803632,0.180999294,0.514112234,-2.954238892
1.12493515,0.413933545,-0.309052736,-0.998562932,-0.217916235,0.383846968,-0.039178867,-0.379900336,0.084895186,0.300933868,0.180196613,0.515818655,-2.954654932
1.129935384,0.410889477,-0.286506087,-0.997313142,-0.337434202,0.472635031,-0.066861793,-0.379930586,0.084850423,0.300977051,0.178640828,0.518004537,-2.955034733
1.134936333,0.404803842,-0.256455183,-0.976017356,-0.382032961,0.565614402,-0.103309646,-0.379953861,0.084815979,0.301010311,0.176791638,0.520694613,-2.955394506
1.139938354,0.402495056,-0.267644942,-1.022369862,-0.446458131,0.656968772,-0.127711087,-0.37996158,0.084804565,0.301021338,0.174672276,0.523809969,-2.955948353
1.144935369,0.370530099,-0.211538658,-1.020315289,-0.454934299,0.785302699,-0.179104015,-0.381608009,0.084126756,0.298303157,0.172238916,0.527538061,-2.956395864
1.149933338,0.322938323,-0.17927286,-1.041766405,-0.427704185,0.953511894,-0.236618519,-0.382153958,0.083902009,0.297401845,0.169874907,0.532103479,-2.956978559
1.154932022,0.242150053,-0.180124164,-1.059331059,-0.406540722,1.16633606,-0.292949647,-0.382573992,0.083729081,0.296708375,0.167578161,0.537611127,-2.957843781
1.159931898,0.194287091,-0.189558893,-1.080285788,-0.405809164,1.447085619,-0.350707859,-0.382713288,0.083671741,0.29647842,0.165241182,0.544522285,-2.958780289
1.164932609,0.211757958,-0.14717637,-1.085293889,-0.394348532,1.71181035,-0.404570609,-0.384032726,0.081643984,0.293684989,0.162822589,0.55283761,-2.959649324
1.16993463,0.202892989,-0.087460756,-1.112360716,-0.366606355,2.019521713,-0.441168606,-0.384770215,0.080480762,0.292111278,0.160454795,0.562643528,-2.960323811
1.174931765,0.163677737,-0.058174241,-1.1459378,-0.343197376,2.35903883,-0.47393626,-0.385337651,0.079585738,0.290900409,0.158192798,0.57409966,-2.960828066
1.179930091,0.239791751,-0.018567454,-1.150295138,-0.316145867,2.672503948,-0.481673479,-0.385525793,0.079288967,0.290498883,0.156097546,0.587216735,-2.960896492
1.184929013,0.38436079,-0.068735451,-1.275299788,-0.310819626,2.887969971,-0.468812734,-0.388191968,0.077858016,0.28599146,0.15432252,0.601477802,-2.960865974
1.189929008,0.427591801,-0.119157381,-1.250764251,-0.362933666,2.995112896,-0.43565613,-0.391618609,0.076170839,0.280263156,0.152486727,0.616122961,-2.960742474
1.194929719,0.44806239,-0.117036693,-1.188224196,-0.387729466,3.081754446,-0.437260509,-0.394255161,0.07487268,0.275855631,0.15052183,0.631227612,-2.960535049
1.199931622,0.52279824,-0.116900012,-1.176661015,-0.398068279,3.135840178,-0.425086856,-0.395129383,0.074442238,0.274394155,0.148567572,0.646668434,-2.960245132
1.204928517,0.730916619,-0.098065592,-1.228817225,-0.364610225,3.13549304,-0.389358193,-0.395802051,0.074111037,0.273269653,0.146868095,0.66228193,-2.959560871
1.209926367,0.841407657,-0.123757772,-1.3621099,-0.320259511,3.017715216,-0.367236584,-0.402649224,0.071597382,0.262983471,0.145452559,0.677193463,-2.958976746
1.214925289,0.712343633,-0.122762814,-1.299545884,-0.321214825,2.88662529,-0.291589648,-0.407917678,0.069663294,0.255068928,0.144225761,0.691052318,-2.958209038
1.219931364,0.597559154,0.007942455,-1.136885405,-0.213974312,2.851734638,-0.230918109,-0.409664601,0.069021985,0.252444625,0.143556938,0.704803824,-2.956611872
1.224932551,0.615076065,0.095647901,-1.130115986,-0.052213237,2.834298134,-0.232023224,-0.411008716,0.06852854,0.250425398,0.143556282,0.71861285,-2.954834461
1.229934573,0.614099264,0.079565987,-1.183440924,0.140999958,2.756596088,-0.218313307,-0.414877474,0.067190655,0.243595228,0.144615948,0.731868744,-2.95328021
1.234931707,0.474303335,0.019102875,-1.259607553,0.315660655,2.619655132,-0.15136613,-0.421315432,0.064973868,0.2321105,0.146926463,0.744044662,-2.951675892
1.239929557,0.390289068,0.01525241,-1.32676065,0.54618305,2.400457382,-0.055037022,-0.423450112,0.064238824,0.228302389,0.150739372,0.754807472,-2.949523926
1.244928479,0.511415839,-0.035190366,-1.462384701,0.817046404,2.121611357,0.023635186,-0.425092638,0.063673258,0.2253723,0.156268284,0.764075577,-2.947134972
1.249928236,0.644557953,-0.27013123,-1.578541756,0.919913948,1.806136012,0.144390807,-0.425637275,0.063485727,0.224400729,0.163331941,0.771615982,-2.944763422
1.254929185,0.611854315,-0.448892027,-1.694409251,0.827185452,1.445218563,0.275259823,-0.431780934,0.06311506,0.208971456,0.17054294,0.776973128,-2.942230463
1.259931087,0.412669718,-0.514776051,-1.666152835,0.663080812,1.057601333,0.373343021,-0.433818042,0.062992156,0.203855395,0.177077904,0.780013919,-2.93961525
1.264928222,0.161122158,-0.551471353,-1.533890247,0.473577499,0.725143015,0.445931375,-0.435385466,0.062897585,0.199918941,0.182800025,0.781206369,-2.937088966
1.26992619,-0.023530236,-0.540106714,-1.405616283,0.293977648,0.467625558,0.495296627,-0.435905188,0.062866226,0.198613688,0.187609613,0.781059265,-2.934575796
1.274925351,-0.139120698,-0.510515392,-1.324990153,0.13810502,0.27852726,0.534073472,-0.437666416,0.064855114,0.192433134,0.191598386,0.779980242,-2.931959629
1.279925227,-0.209208116,-0.469049871,-1.276587367,0.023047598,0.138555318,0.574171782,-0.438587278,0.066012718,0.189102903,0.194996312,0.778199673,-2.929191828
1.284926176,-0.242804214,-0.408834577,-1.238803983,-0.032960337,0.023269543,0.616048813,-0.439295799,0.066903412,0.186540529,0.198102176,0.775854588,-2.926152229
1.289927959,-0.246349126,-0.3606987,-1.220209837,-0.040869877,-0.08606793,0.657568514,-0.43953076,0.067198753,0.185690895,0.201165855,0.772981048,-2.922901154
1.294925094,-0.22156699,-0.337010294,-1.220066667,-0.00489711,-0.214943498,0.697869956,-0.439332187,0.068742812,0.184574991,0.204446897,0.769459844,-2.919499874
1.299922943,-0.198981568,-0.347245306,-1.22342205,0.045212224,-0.359430552,0.735005856,-0.438883841,0.070582673,0.183738962,0.208026454,0.765194058,-2.916098356
1.304921865,-0.181599125,-0.365206569,-1.218975067,0.08481364,-0.515531957,0.768145323,-0.438538879,0.071998313,0.183095679,0.211819693,0.760120511,-2.912773132
1.309921503,-0.173745617,-0.387299776,-1.207335234,0.105499655,-0.671429038,0.791411638,-0.438424498,0.072467722,0.182882383,0.215634331,0.754273891,-2.909638166
1.31492281,-0.179757982,-0.404363722,-1.18345964,0.10699147,-0.824160635,0.808952928,-0.438336492,0.072828889,0.182718262,0.219357207,0.747671366,-2.906694889
1.319924712,-0.183862761,-0.413188428,-1.157396913,0.090119436,-0.963356256,0.818227291,-0.435769141,0.076431945,0.185237601,0.222837105,0.740402758,-2.903925419
1.324921608,-0.179158449,-0.406313568,-1.126708508,0.063814506,-1.089109898,0.822311282,-0.433793724,0.079204261,0.187176034,0.225984469,0.732573211,-2.901345968
1.329919457,-0.17072919,-0.390515983,-1.098897099,0.040036745,-1.200145006,0.817149162,-0.433138728,0.080123506,0.187818795,0.228772879,0.724259496,-2.898996353
1.33491838,-0.157883167,-0.359981507,-1.076986074,0.031440072,-1.298664093,0.807994962,-0.432634741,0.080830798,0.188313365,0.231267959,0.715539455,-2.896818638
1.339918375,-0.13820298,-0.326928526,-1.059062362,0.04435261,-1.383462191,0.79152745,-0.430096716,0.083263904,0.190743089,0.233550996,0.706496894,-2.894780636
1.344919086,-0.11677672,-0.29514581,-1.052093506,0.076791778,-1.455681324,0.771578729,-0.42574653,0.087359123,0.194903642,0.235740468,0.69718045,-2.892935753
1.349920988,-0.087318197,-0.272113711,-1.049831748,0.124218129,-1.522768617,0.752393782,-0.424304098,0.088717021,0.196283191,0.237943664,0.687611341,-2.89128685
1.354923725,-0.054537013,-0.257805467,-1.052144051,0.180100709,-1.587974668,0.738239646,-0.423194259,0.089761831,0.197344676,0.240240961,0.677804172,-2.889825106
1.359921694,-0.020920817,-0.246723354,-1.048587799,0.225268126,-1.653930902,0.733230472,-0.422826231,0.090108268,0.197696641,0.242621988,0.667744577,-2.888455391
1.364920855,0.020285115,-0.238370761,-1.052727222,0.268349379,-1.721188426,0.728101075,-0.415352136,0.096115604,0.205417722,0.245061114,0.657418251,-2.887161493
1.369920731,0.054611858,-0.233542219,-1.061128974,0.30831182,-1.786120176,0.722479224,-0.412873864,0.098107524,0.207977891,0.24756071,0.646839261,-2.886008739
1.374921679,0.085362375,-0.232784882,-1.06195724,0.335027903,-1.851016402,0.72269249,-0.410966992,0.099640168,0.20994775,0.250090569,0.635987997,-2.884977818
1.379923701,0.1189133,-0.231807142,-1.076281667,0.354737163,-1.912557483,0.719244063,-0.410334706,0.100148365,0.210600927,0.252596796,0.624887466,-2.884064913
1.384920597,0.159258232,-0.235268459,-1.081583023,0.358376265,-1.978843689,0.715292513,-0.40449065,0.105164818,0.216610953,0.254997671,0.613549769,-2.883207083
1.389918447,0.198722661,-0.239381209,-1.089839458,0.345825464,-2.051552534,0.704849005,-0.401227117,0.107972756,0.21996659,0.257193476,0.601925373,-2.882542133
1.394917369,0.230738059,-0.243530184,-1.087104082,0.317673147,-2.127417803,0.689896584,-0.398716033,0.110133268,0.222548544,0.259094775,0.590008557,-2.882107258
1.399917364,0.247086689,-0.253910482,-1.07532835,0.271738291,-2.195595741,0.673977613,-0.397883385,0.110849649,0.223404676,0.260654509,0.577832222,-2.881922722
1.404918551,0.263174444,-0.263264775,-1.065454483,0.221578494,-2.258410215,0.652941227,-0.393438905,0.113969803,0.228798792,0.261837959,0.565445781,-2.881925344
1.409920812,0.281567752,-0.276674092,-1.05421257,0.160368547,-2.316264629,0.628661096,-0.388129443,0.117594898,0.235362515,0.262606204,0.552859902,-2.882156372
1.414918661,0.31746605,-0.296266198,-1.047367811,0.086309567,-2.380331278,0.59900564,-0.38404417,0.120384157,0.240412861,0.262894273,0.540083885,-2.882684946
1.419916511,0.360341728,-0.314174742,-1.03838408,0.00461621,-2.445842981,0.567227542,-0.382689565,0.12130902,0.242087454,0.262661904,0.527126372,-2.883499861
1.424915433,0.398700774,-0.318580508,-1.027623415,-0.082496732,-2.520132303,0.536556304,-0.381647289,0.122020647,0.243375942,0.261873156,0.513935149,-2.884541035
1.42991519,0.431699008,-0.306065381,-1.011942029,-0.168607429,-2.595458746,0.506891966,-0.373694271,0.126193389,0.251017511,0.260513008,0.500492752,-2.885702133
1.434916139,0.459579319,-0.279716581,-0.992482901,-0.237711608,-2.664635181,0.470013201,-0.36757496,0.129404023,0.256897181,0.258643091,0.486846089,-2.887046814
1.439917803,0.478673548,-0.248106197,-0.969146013,-0.277533531,-2.728160381,0.428042978,-0.365545928,0.130468607,0.25884676,0.256433934,0.473029047,-2.888569355
1.444914937,0.491265088,-0.216312766,-0.942131341,-0.283885777,-2.771544695,0.374368757,-0.363984734,0.131287739,0.2603468,0.254050285,0.459134102,-2.890324593
1.449912548,0.50058341,-0.190006003,-0.923302889,-0.261259228,-2.801634312,0.312446892,-0.358602136,0.133322448,0.264935821,0.251663983,0.445235431,-2.892269373
1.454911709,0.508411348,-0.165404528,-0.899436474,-0.214484632,-2.815209866,0.241861254,-0.349541366,0.136670768,0.272604048,0.249384508,0.431418717,-2.894478321
1.459911704,0.526733577,-0.148684278,-0.882441282,-0.15546605,-2.814344406,0.167522058,-0.346536994,0.137781009,0.275146663,0.247281894,0.417777747,-2.89697957
1.464912653,0.548966408,-0.131686673,-0.869276285,-0.085245386,-2.810576439,0.096225426,-0.344225347,0.138635278,0.277103066,0.245423824,0.404306471,-2.899749041
1.469914675,0.560192406,-0.120506182,-0.857884765,-0.008773678,-2.798544407,0.032853257,-0.343458861,0.138918534,0.277751774,0.243889719,0.391006082,-2.902723074
1.47491169,0.571749449,-0.120935887,-0.853562474,0.068160772,-2.779768229,-0.027525041,-0.331465185,0.141584337,0.28913036,0.242707476,0.377918571,-2.905907393
1.479909658,0.587805271,-0.142078027,-0.860727012,0.133578867,-2.74776268,-0.083309606,-0.327488303,0.142468259,0.292903304,0.241859525,0.365096509,-2.909352779
1.484908819,0.618985891,-0.1659123,-0.869780898,0.173514009,-2.722891092,-0.130185559,-0.32442838,0.143148392,0.295806319,0.241221815,0.352503598,-2.913012505
1.489914894,0.658334613,-0.183487639,-0.88564229,0.192420408,-2.702247381,-0.166750818,-0.323413759,0.143373907,0.296768904,0.240694493,0.340142459,-2.916801929
1.494915843,0.690446556,-0.190609694,-0.895021319,0.194654688,-2.691929579,-0.190846786,-0.313342124,0.144759536,0.305012524,0.240190685,0.327904671,-2.920617104
1.499918103,0.719751239,-0.194676116,-0.900040865,0.187380135,-2.687613726,-0.205582902,-0.307703495,0.145518944,0.309602588,0.239682361,0.315758258,-2.924452305
1.504915237,0.750994861,-0.208033204,-0.901498437,0.174181014,-2.688969135,-0.21576649,-0.303364933,0.146103248,0.313134313,0.239176422,0.303676009,-2.928328276
1.509913325,0.783698916,-0.23844637,-0.905036688,0.147669792,-2.690477133,-0.216378227,-0.301926345,0.146296993,0.314305365,0.238649294,0.291659117,-2.932259321
1.514912248,0.816352069,-0.261537939,-0.907521427,0.100138903,-2.698939085,-0.200215831,-0.296138406,0.147256166,0.318900049,0.237986043,0.2796354,-2.936109543
1.519912243,0.842634559,-0.263235778,-0.905376852,0.039861456,-2.718012333,-0.163074076,-0.289498866,0.148391113,0.324148178,0.237103626,0.26753211,-2.939723969
1.524912953,0.851837397,-0.246643797,-0.889395535,-0.010640752,-2.728156328,-0.106345087,-0.284390181,0.14926438,0.328186274,0.236064479,0.25534308,-2.942960024
1.529914856,0.841819406,-0.22665906,-0.862642527,-0.045453731,-2.72218895,-0.039663583,-0.282696247,0.14955394,0.329525232,0.234978542,0.243109897,-2.945768833
1.534911752,0.819150507,-0.210760981,-0.832222879,-0.072481081,-2.693467379,0.028962541,-0.281392872,0.149776742,0.330555469,0.233902961,0.230934083,-2.948151588
1.539909601,0.801471114,-0.199191615,-0.797227859,-0.093574353,-2.645356894,0.089627646,-0.271959722,0.150697932,0.336812258,0.232844815,0.218950406,-2.95012331
1.544908524,0.789874971,-0.185200602,-0.768171549,-0.111108668,-2.578961849,0.143397301,-0.264701515,0.15140672,0.341626465,0.231792793,0.207255408,-2.951717138
1.549908757,0.790614784,-0.171355784,-0.747855484,-0.129427835,-2.503188848,0.18887274,-0.262294829,0.151641741,0.343222767,0.230738491,0.195906475,-2.952939272
1.554909706,0.799111247,-0.164026648,-0.726389587,-0.151874378,-2.423813581,0.228535697,-0.260443062,0.151822567,0.34445101,0.229655087,0.184951827,-2.953828096
1.559911728,0.818847537,-0.167629302,-0.710421205,-0.181481183,-2.340314865,0.256679118,-0.254464149,0.152446672,0.348348945,0.228482679,0.174432516,-2.95447731
1.564908743,0.832007229,-0.165840596,-0.698380589,-0.217670932,-2.262127399,0.276643187,-0.24443908,0.153497308,0.3548778,0.227182209,0.164306417,-2.954903126
1.569906473,0.830611885,-0.16234909,-0.676091313,-0.254944384,-2.184670448,0.290712416,-0.241114959,0.153845698,0.35704264,0.225728542,0.154550463,-2.955164433
1.574905396,0.823413312,-0.153227791,-0.648186505,-0.290105641,-2.103652954,0.298111498,-0.238557264,0.15411374,0.358708352,0.224124342,0.145185843,-2.955274343
1.579905033,0.808297813,-0.144569129,-0.622671008,-0.318709135,-2.011763334,0.30439806,-0.23770918,0.154202625,0.359260648,0.222404137,0.13625887,-2.9552176
1.584905982,0.786152005,-0.135221124,-0.59970367,-0.332361311,-1.913346529,0.307760388,-0.2262187,0.155468687,0.365637034,0.220645025,0.127783254,-2.95498848
1.589907765,0.76656276,-0.12941049,-0.577596188,-0.33367756,-1.801950812,0.310257614,-0.222408667,0.155888483,0.3677513,0.218913108,0.119838946,-2.954621553
1.59490478,0.755409777,-0.120442897,-0.563557923,-0.326324135,-1.689535737,0.309675843,-0.219477117,0.156211495,0.36937812,0.217232108,0.112453707,-2.954100132
1.599902987,0.749472201,-0.108574547,-0.548487544,-0.305559009,-1.575514674,0.306522369,-0.21850507,0.156318605,0.369917542,0.215666726,0.105633102,-2.953412533
1.60490191,0.733506918,-0.099763907,-0.534765244,-0.273717582,-1.464181304,0.307172209,-0.210491166,0.156953529,0.373719096,0.214280263,0.099325635,-2.952565432
1.609901786,0.710666478,-0.096381463,-0.526901126,-0.239659548,-1.355785966,0.301794648,-0.206035927,0.15730077,0.375817627,0.213080198,0.093529373,-2.951625586
1.614902735,0.686551154,-0.094355725,-0.518014491,-0.203640714,-1.246612549,0.291318089,-0.20260793,0.157567963,0.377432317,0.212069064,0.088238336,-2.950627327
1.619904518,0.662858367,-0.093859032,-0.508941174,-0.174941584,-1.14256382,0.276646882,-0.201471269,0.15765655,0.377967715,0.211204067,0.08344017,-2.949611187
1.624907494,0.642381132,-0.093933702,-0.508181751,-0.145243511,-1.040397763,0.26063481,-0.197374344,0.157963857,0.379716396,0.210491359,0.0791291,-2.948572636
1.629905462,0.621784806,-0.091655798,-0.506900191,-0.124491043,-0.94363302,0.238440156,-0.192766502,0.158306882,0.38164416,0.209879026,0.075286336,-2.947523355
1.634904623,0.603122413,-0.088478774,-0.512936771,-0.105747685,-0.852199435,0.21453841,-0.189221084,0.158570826,0.383127451,0.209339753,0.071882837,-2.946499109
1.639904499,0.587630093,-0.081487186,-0.523827374,-0.08842209,-0.762516916,0.185352847,-0.188045487,0.158658341,0.383619279,0.208860382,0.068919778,-2.945491791
1.644906282,0.569551647,-0.066780828,-0.541267633,-0.063684799,-0.674906611,0.158381522,-0.187140942,0.158725664,0.383997709,0.208469599,0.066396028,-2.944463015
1.649908185,0.558411658,-0.049032886,-0.56060034,-0.030992666,-0.588654339,0.133636519,-0.18256703,0.159546375,0.385870695,0.208212405,0.064297952,-2.943357468
1.654905319,0.551187694,-0.036628265,-0.580273628,0.010168752,-0.513932824,0.110670045,-0.179047719,0.160177842,0.387311816,0.20814155,0.062585101,-2.942229033
1.659903288,0.551684916,-0.031309128,-0.596801639,0.052880049,-0.450544864,0.090880752,-0.177880779,0.160387233,0.387789667,0.208276436,0.06118466,-2.941110373
1.664901853,0.553510189,-0.016753187,-0.611229539,0.09429086,-0.398303598,0.068336464,-0.176982895,0.160548344,0.388157338,0.208586633,0.060069777,-2.939971209
1.669901848,0.546702623,-0.057110779,-0.624138474,0.124010287,-0.360929191,0.048863374,-0.175306827,0.16118668,0.388823152,0.209113941,0.059136767,-2.939048767
1.674902558,0.522166431,-0.038842995,-0.599368155,0.121665664,-0.307629734,0.032020561,-0.172623456,0.162269264,0.389885426,0.209595367,0.058405399,-2.938103437
1.679904461,0.53831017,-0.008399446,-0.61312753,0.12204209,-0.247294649,0.010343364,-0.171733707,0.162628233,0.390237659,0.209964067,0.058085214,-2.937012911
1.684901595,0.564774334,-0.001738581,-0.608219385,0.130057216,-0.208565205,-0.016386036,-0.171049103,0.162904426,0.390508652,0.210393503,0.058006141,-2.935990572
1.689899564,0.58647877,0.001217506,-0.595583856,0.119638659,-0.168783903,-0.04659465,-0.170822099,0.162996009,0.390598536,0.210766569,0.058183525,-2.93506813
1.694898486,0.614542603,0.028490443,-0.579285383,0.09283004,-0.125881121,-0.074255273,-0.169552416,0.165342405,0.390620619,0.210935041,0.05865363,-2.934070587
1.699898362,0.644355774,0.071535327,-0.557796538,0.070133947,-0.076938145,-0.097614832,-0.169131413,0.166120425,0.390627921,0.210906565,0.059439577,-2.932936907
1.704899311,0.676338494,0.117071554,-0.53457588,0.052727252,-0.023155265,-0.124250576,-0.168807492,0.166719049,0.390633553,0.210720748,0.060575578,-2.931687355
1.709901333,0.717829585,0.159663215,-0.503592908,0.038000323,0.040746998,-0.152821958,-0.168700084,0.166917533,0.390635431,0.210401326,0.062135138,-2.930327415
1.714898467,0.756925344,0.199299559,-0.468196213,0.025943158,0.109584019,-0.183599338,-0.168130726,0.167780131,0.391442329,0.209975272,0.0641414,-2.928871632
1.719896555,0.793587506,0.237019688,-0.434906393,0.015849581,0.189367861,-0.211380407,-0.167821482,0.168241814,0.391909182,0.20943515,0.066637941,-2.927312851
1.724895477,0.560950577,0.168094963,-0.491028488,-0.073766001,0.35240376,-0.294057608,-0.167583555,0.168597043,0.392268419,0.208687738,0.069511689,-2.926287651
1.729895473,0.28441757,-0.131174579,-0.259869933,-0.778553724,1.074781418,-0.357965112,-0.167504653,0.168714836,0.392387539,0.20459497,0.075161442,-2.927682638
1.734896183,1.480268717,0.848011971,0.422207177,-0.29396987,1.713422179,-0.830373406,-0.168098941,0.169104367,0.392213613,0.200923875,0.088562451,-2.92365098
1.739898086,-0.131393701,0.536548316,0.245714262,-0.221552864,2.020853519,-1.072614074,-0.168956503,0.169534951,0.391888142,0.199480429,0.099205717,-2.925551653
1.74489522,-0.666743636,0.447869897,0.314689577,-0.435447961,2.460504055,-1.297737598,-0.169616342,0.169866264,0.391637743,0.196065113,0.111090846,-2.92856288
1.749893069,0.007604659,0.421474099,-0.384908795,-0.465041131,2.950678825,-1.48890388,-0.169835135,0.169976115,0.391554713,0.192165807,0.127745152,-2.930440664
1.754891992,0.433541685,0.120050855,-1.026408195,-0.505827367,3.139189243,-1.720176935,-0.170003474,0.17006065,0.391490817,0.188417703,0.145790145,-2.933957815
1.759897828,0.180313721,-0.280078262,-1.347915173,-0.157261461,3.154727697,-1.78497684,-0.177756518,0.168079272,0.389124602,0.186747402,0.16291827,-2.940043926
1.764898777,0.23145996,-0.341177583,-1.654453874,0.306738734,3.14847517,-1.468061805,-0.183721974,0.166554734,0.387303978,0.188053176,0.179572836,-2.944093227
1.769900799,0.351524144,-0.372315764,-1.856971264,0.68678987,3.03199625,-1.280707955,-0.185699999,0.166049227,0.386700302,0.191260338,0.195717975,-2.946576834
1.774897933,0.380630463,-0.700710475,-1.645142436,0.682027698,2.914162874,-1.126933813,-0.187221959,0.165660277,0.386235803,0.195084736,0.210853353,-2.950278521
1.779895782,0.61990726,-0.797449946,-1.254024029,0.735846162,3.011152267,-1.151876926,-0.195234984,0.164204434,0.383108705,0.199122876,0.227343813,-2.954279184
1.784894705,0.721994877,-0.96038276,-1.095281839,0.635283351,3.125498295,-1.126964569,-0.208992615,0.161742598,0.377696395,0.2032125,0.244651616,-2.958752155
1.789894938,0.841086209,-1.040246725,-1.052497029,0.27142486,3.176754475,-1.074419379,-0.213554382,0.160926297,0.375901759,0.205402389,0.262210995,-2.96286869
1.794895887,1.126302004,-1.107936263,-1.140874982,-0.171880454,3.187203646,-0.97345823,-0.217064336,0.160298213,0.374520928,0.205326214,0.280095249,-2.966517687
1.799897909,1.538428903,-0.984261811,-1.333906531,-0.518887162,3.047782898,-0.808153272,-0.218228176,0.160089955,0.374063045,0.203328639,0.297833741,-2.968272686
1.804894924,1.644932508,-0.975951612,-1.505546093,-0.783008099,2.730606794,-0.659482419,-0.235869855,0.159901008,0.364966124,0.200234264,0.313508123,-2.969649553
1.809892893,1.608289361,-0.819398284,-1.486041069,-1.063501596,2.396259069,-0.504583061,-0.241719499,0.159838364,0.361949772,0.195535198,0.327174246,-2.970115662
1.814891815,1.409935117,-0.528806984,-1.361302614,-1.205723643,2.126119852,-0.398096651,-0.24622041,0.159790158,0.359628856,0.18971242,0.339122653,-2.969461679
1.819891691,1.071858168,-0.162947059,-1.311435938,-1.213736176,1.937872529,-0.341576725,-0.247712821,0.159774169,0.358859301,0.183310911,0.349597573,-2.967642546
1.824892402,0.854662716,0.129116058,-1.24143517,-1.149193048,1.846622467,-0.30908373,-0.259328455,0.156611145,0.353181154,0.176900923,0.359391242,-2.965190172
1.829894662,0.743432522,0.449721754,-1.257266045,-0.984999895,1.76277113,-0.357347339,-0.265770137,0.154782698,0.35003984,0.170640498,0.368769437,-2.961951971
1.834892035,0.697419405,0.648070157,-1.232230902,-0.794655263,1.641366243,-0.437522382,-0.270726591,0.153375834,0.347622812,0.164822429,0.37751919,-2.958866358
1.839890122,0.669451594,0.795627713,-1.189955592,-0.548887312,1.554013014,-0.526815474,-0.27237004,0.152909338,0.346821368,0.159852728,0.385981679,-2.955932379
1.844889045,0.539074838,0.678615212,-1.062758803,-0.32160151,1.473712444,-0.595985234,-0.277426183,0.150584921,0.344348788,0.156176656,0.393840969,-2.954341888
1.84988904,0.43558833,0.424431711,-0.941554725,-0.152496338,1.447081089,-0.58700639,-0.282926142,0.1478322,0.34165743,0.153883159,0.401470661,-2.95393014
1.85488975,0.496861756,0.174996287,-0.937576711,-0.01609103,1.456746101,-0.48504737,-0.287157983,0.145714164,0.339586616,0.152929232,0.409222364,-2.953744173
1.859891653,0.593871355,-0.081232727,-0.950436592,0.040160179,1.411150336,-0.351409405,-0.288561195,0.145011872,0.33889997,0.152960464,0.41675359,-2.953568459
1.864888549,0.621339083,-0.242955402,-0.931169748,0.070365973,1.333721042,-0.216877967,-0.289640844,0.144471496,0.338371634,0.153622806,0.423751354,-2.9532938
1.869886518,0.61386466,-0.266194463,-0.917864144,0.090682648,1.275053144,-0.07506346,-0.295147806,0.142222196,0.334543943,0.154663146,0.430315971,-2.95230794
1.874885917,0.610954344,-0.202413142,-0.887846768,0.077906668,1.222370028,0.011227334,-0.299385041,0.140491515,0.331598818,0.155659035,0.436576575,-2.950533152
1.879886031,0.588538527,-0.082130149,-0.932140887,0.084280118,1.168547511,0.029350311,-0.300790042,0.139917642,0.330622256,0.156437755,0.442507118,-2.948352814
1.884887099,0.587458074,0.084910542,-0.968237996,0.129094854,1.101464629,-0.00718924,-0.301871091,0.139476091,0.32987085,0.156964809,0.448093861,-2.945818901
1.889894962,0.618281066,0.120431706,-1.024217963,0.185325101,1.016543269,-0.064929515,-0.30485779,0.13935779,0.327170789,0.157557622,0.453359693,-2.943586111
1.894897938,0.543482244,-0.024867564,-0.973334134,0.253841281,0.94363451,-0.087622225,-0.30981347,0.139295205,0.322614998,0.158804953,0.45809406,-2.942378759
1.899895787,0.570652723,-0.168146476,-0.986742795,0.285019368,0.902853727,-0.057923343,-0.31145668,0.139274448,0.321104378,0.160585389,0.462687045,-2.941435575
1.90489471,0.546887517,-0.294177681,-0.98526895,0.293477952,0.849942088,-0.025617043,-0.312721014,0.139258489,0.319942057,0.162646949,0.466905057,-2.940777779
1.909894347,0.568840325,-0.274559885,-0.98983562,0.309050411,0.773906708,-0.007564251,-0.313140243,0.139253199,0.319556653,0.164726377,0.470757574,-2.939861298
1.914895415,0.57977438,-0.251727998,-0.992259979,0.308807045,0.72018218,0.001489412,-0.317245632,0.140042692,0.316815794,0.166745797,0.474351436,-2.938857555
1.919897556,0.550377607,-0.255413592,-0.96245724,0.310395628,0.640534699,0.009219349,-0.318606913,0.140304476,0.315906972,0.168728665,0.477489442,-2.93793273
1.924894929,0.544137895,-0.173486054,-0.909015119,0.310040593,0.630259395,0.017804304,-0.319654316,0.14050591,0.31520772,0.170656055,0.480639696,-2.936662197
1.929892898,0.550197244,-0.166647881,-0.954939783,0.291042984,0.577254295,-0.001717265,-0.320001632,0.140572697,0.314975858,0.172286287,0.483579159,-2.93548274
1.934892058,0.562680423,-0.230670318,-0.946706712,0.248659477,0.544055402,0.037694719,-0.322568744,0.141411439,0.312654763,0.174060091,0.486236215,-2.934496641
1.939891934,0.590921938,-0.207429215,-0.919994414,0.213700697,0.45749402,0.008073434,-0.323989064,0.141884372,0.311354905,0.175381869,0.48859331,-2.933444977
1.944892883,0.500514388,-0.247434989,-0.899559677,0.176808834,0.452901304,-0.010352395,-0.325081915,0.142248258,0.310354769,0.17661275,0.490792274,-2.932909489
1.949894667,0.535769939,-0.263188213,-0.919057488,0.128318563,0.418222159,-0.008166467,-0.325444281,0.142368928,0.310023129,0.177571565,0.492885292,-2.932324648
1.954891801,0.531571269,-0.202917889,-0.906486809,0.105937622,0.399154603,-0.002098601,-0.32666105,0.142847523,0.308929592,0.178322673,0.494876117,-2.931470156
1.95988965,0.517824471,-0.129367933,-0.91145736,0.09069825,0.384500325,0.004031954,-0.32801035,0.1433952,0.307721555,0.178863436,0.496778876,-2.93030262
1.964888811,0.527428627,-0.142604887,-0.929730773,0.078971632,0.360517561,-0.015105684,-0.329048544,0.14381659,0.30679208,0.179310545,0.498586893,-2.929355621
1.969888806,0.55658257,-0.231253117,-0.908767819,0.046756767,0.344825119,-0.029275715,-0.329392821,0.143956318,0.306483865,0.179795995,0.500371397,-2.928879976
1.974889755,0.638571501,-0.314560413,-0.895401776,-0.018548476,0.306578726,-0.043355569,-0.329657674,0.14406383,0.306246728,0.180016562,0.502120435,-2.928739309
1.979891658,0.643615901,-0.34012568,-0.864167869,-0.102415264,0.270183414,-0.054486066,-0.330793709,0.144412056,0.30478102,0.179798812,0.503684521,-2.928747416
1.984888554,0.616502762,-0.284172118,-0.889686346,-0.169669613,0.23463051,-0.063427083,-0.33166784,0.144680008,0.30365327,0.179033682,0.505012333,-2.928625107
1.989886522,0.529446781,-0.186280683,-0.88888377,-0.191359237,0.218325734,-0.071058504,-0.331957698,0.144768849,0.30327934,0.177943364,0.506119192,-2.928253889
1.994885087,0.474642128,-0.09475676,-0.907403886,-0.160567626,0.221311763,-0.071228296,-0.332180709,0.144837216,0.302991599,0.176868409,0.507208467,-2.927623272
1.999885082,0.463062704,-0.033726752,-0.900964499,-0.093704008,0.229992568,-0.063292295,-0.332789093,0.144691989,0.302358657,0.176095888,0.50834316,-2.926746607
2.004886627,0.475983918,-0.018359289,-0.891355395,-0.026099307,0.233311146,-0.046156049,-0.333797604,0.144410476,0.301328123,0.17574054,0.509522021,-2.925739288
2.009888411,0.500609338,-0.040647596,-0.868027866,0.026950497,0.233230889,-0.022652728,-0.334132016,0.144317135,0.300986439,0.175785407,0.510722458,-2.924679041
2.014885664,0.52928412,-0.08082734,-0.854854822,0.058892101,0.219828755,-0.000955108,-0.334389269,0.144245312,0.300723523,0.176120177,0.511884034,-2.92364192
2.019883871,0.535124242,-0.125940233,-0.843903303,0.070986487,0.197968468,0.01109173,-0.334474593,0.1442215,0.300636351,0.17660749,0.512922823,-2.922721624
2.024888515,0.533343136,-0.153211206,-0.848837376,0.073335901,0.178898662,0.012370632,-0.335456282,0.143665209,0.298920602,0.17712383,0.513846755,-2.921906471
2.029888868,0.523280263,-0.171035573,-0.859728038,0.07493522,0.152459398,0.016366087,-0.335781813,0.143480763,0.298351705,0.177661628,0.514590383,-2.921186686
2.034889698,0.506471157,-0.175861314,-0.862887263,0.080344088,0.141083941,0.014437878,-0.336032271,0.143338844,0.297913969,0.178215832,0.515274704,-2.920492887
2.03989172,0.497840226,-0.167842984,-0.87002635,0.083246842,0.125601634,0.015702771,-0.336115301,0.143291771,0.297768831,0.178749353,0.515855908,-2.919779062
2.044888735,0.497457534,-0.14777194,-0.871246815,0.0957416,0.117969319,0.018096413,-0.336778343,0.143413961,0.297037691,0.179320142,0.516397893,-2.918972492
2.049886942,0.493735939,-0.147873417,-0.868330181,0.103371821,0.118376583,0.019931938,-0.337146461,0.143493682,0.296641946,0.179940566,0.51695627,-2.91816926
2.054886341,0.502991736,-0.153034508,-0.864275694,0.106209986,0.110592842,0.018248521,-0.337429732,0.143555015,0.296337485,0.180579439,0.517490268,-2.917391777
2.059886217,0.504677713,-0.171224788,-0.858388543,0.101224385,0.108252861,0.015843803,-0.337523639,0.143575355,0.296236515,0.181216508,0.518018305,-2.916716814
2.064887285,0.506917238,-0.180340707,-0.853574038,0.091097191,0.106195658,0.017296541,-0.337653697,0.143706113,0.295993686,0.181831405,0.518531621,-2.916043282
2.069889069,0.504939795,-0.189928532,-0.848252594,0.07308127,0.105608821,0.01474471,-0.337755144,0.143865541,0.295746654,0.182356894,0.519044995,-2.915446043
2.074886084,0.490492314,-0.180587798,-0.848001301,0.059826311,0.116528995,0.008794829,-0.337833226,0.143988207,0.295556605,0.182780057,0.519596219,-2.914829016
2.079883814,0.493625402,-0.154827774,-0.862485409,0.051128164,0.123890586,0.01015105,-0.337859094,0.144028887,0.295493573,0.183091059,0.520198107,-2.914081573
2.084882736,0.486833066,-0.136040822,-0.857121468,0.049988173,0.12811105,0.013218829,-0.337879002,0.144060194,0.295445085,0.183390722,0.520787835,-2.913275242
2.089882374,0.486547589,-0.112700023,-0.858748734,0.05381465,0.137335449,0.020511588,-0.338389218,0.144338042,0.295823038,0.183699012,0.521440208,-2.912316322
2.094883442,0.488959283,-0.1061517,-0.849429488,0.061540954,0.142621443,0.027294707,-0.338781834,0.144551829,0.296113849,0.184069335,0.522115827,-2.911307096
2.099885225,0.49445489,-0.109807901,-0.851278305,0.066056438,0.142750248,0.038944233,-0.33891201,0.144622728,0.296210259,0.184507445,0.522786856,-2.910250664
2.104882479,0.494802535,-0.118728958,-0.84187907,0.06688714,0.149352625,0.046297427,-0.339012176,0.144677266,0.296284467,0.184982613,0.523484886,-2.909165621
2.109880209,0.490894765,-0.141194552,-0.84137553,0.066727094,0.160343066,0.063657567,-0.339358091,0.144925132,0.295515299,0.185568437,0.524212301,-2.908072472
2.114879131,0.495994121,-0.140274987,-0.845369697,0.07147447,0.159144625,0.080072291,-0.339940429,0.145348221,0.294120848,0.186223537,0.524921775,-2.906843662
2.119879007,0.499948025,-0.147679895,-0.842980921,0.072115757,0.162183747,0.090659991,-0.340133548,0.145488501,0.293658495,0.186920151,0.525639117,-2.905589342
2.124879837,0.49976784,-0.147145674,-0.844781041,0.068700247,0.167938843,0.104017526,-0.340282112,0.14559643,0.293302715,0.187629983,0.526377201,-2.904249191
2.129881859,0.489752293,-0.143463269,-0.844850898,0.074761339,0.171644732,0.117076777,-0.340331376,0.145632222,0.293184757,0.188389704,0.527087748,-2.902821541
2.134878874,0.501971126,-0.135894835,-0.84909904,0.068355829,0.182140201,0.122179233,-0.340707034,0.146266758,0.292257398,0.189132169,0.527892828,-2.901285648
2.139876842,0.505322278,-0.142829731,-0.846468151,0.072585583,0.178182989,0.130213156,-0.340831578,0.146477148,0.291949898,0.189934239,0.52865541,-2.899769783
2.144876003,0.508976161,-0.14590016,-0.846449316,0.075949296,0.177355975,0.140393361,-0.340927422,0.146639034,0.291713297,0.190793157,0.529408753,-2.898180485
2.149875879,0.517324507,-0.139701188,-0.845632374,0.074530728,0.175008178,0.135306895,-0.340959221,0.146692723,0.291634858,0.191619307,0.530147016,-2.896607399
2.154876709,0.521496296,-0.15074423,-0.843578517,0.073344976,0.170339167,0.124972977,-0.341186732,0.147089019,0.291041911,0.192415982,0.53089869,-2.895143509
2.159884453,0.518472731,-0.160783902,-0.838415146,0.075049311,0.164183795,0.126220271,-0.341312438,0.147308275,0.290713489,0.193229869,0.53160423,-2.89373374
2.164887667,0.516690731,-0.16386719,-0.838364899,0.071776338,0.161217004,0.130234674,-0.341409147,0.147476971,0.290460825,0.194058016,0.532288671,-2.892266273
2.169885635,0.53121829,-0.159927145,-0.836473227,0.060879476,0.159641862,0.122874513,-0.341441214,0.14753291,0.290377051,0.194795936,0.532998562,-2.890830994
2.174884558,0.526194811,-0.168766737,-0.837228954,0.059222467,0.157635063,0.118761398,-0.341611356,0.147921741,0.289926618,0.195530161,0.533684552,-2.889476776
2.179884434,0.526098788,-0.1731475,-0.834002078,0.051737722,0.153737172,0.113793232,-0.341814458,0.148399368,0.289388061,0.196228266,0.534345925,-2.888169289
2.184885502,0.532086253,-0.170517549,-0.836575508,0.038554922,0.153506726,0.111276306,-0.341970742,0.148766875,0.288973659,0.196813896,0.535037816,-2.886841297
2.189887762,0.528169632,-0.15743956,-0.834446371,0.039227251,0.145951658,0.107907832,-0.342022538,0.148888737,0.288836241,0.197392538,0.535668433,-2.8855021
2.194884777,0.527959347,-0.154677421,-0.836418629,0.035709564,0.150568917,0.10298948,-0.342062414,0.148982495,0.288730502,0.197911307,0.536341667,-2.884172201
2.199882984,0.523372591,-0.150431171,-0.841530919,0.031083809,0.141367093,0.104151465,-0.342580497,0.149527818,0.288263738,0.198421851,0.536947012,-2.882827044
2.204881907,0.518953204,-0.143063396,-0.840697408,0.038093049,0.13937965,0.108871236,-0.342979163,0.14994742,0.28790459,0.198966756,0.537529528,-2.881444216
2.209881783,0.511071742,-0.142851695,-0.843941689,0.039585181,0.137026727,0.119163513,-0.343111366,0.150086552,0.28778553,0.199531943,0.53808552,-2.880009651
2.214882851,0.510893524,-0.13100861,-0.843755484,0.040072788,0.136835232,0.131481871,-0.343213052,0.150193602,0.287693888,0.200140283,0.538613379,-2.878443241
2.219884872,0.516660154,-0.134163544,-0.845726967,0.044606697,0.136613771,0.142930299,-0.343730778,0.15043883,0.287478089,0.200790018,0.53915149,-2.876841068
2.224881649,0.523548186,-0.140741825,-0.843532801,0.048057809,0.130959049,0.161571711,-0.344618529,0.150839567,0.287124604,0.201548055,0.539647818,-2.875147343
2.229879618,0.52399981,-0.148558944,-0.840958714,0.046321996,0.122880593,0.170689538,-0.344912887,0.150972441,0.287007362,0.202315331,0.540089607,-2.873440504
2.234878778,0.52722019,-0.150565326,-0.83185029,0.043778598,0.117792845,0.18260923,-0.345139414,0.151074678,0.28691718,0.203113392,0.540510416,-2.871670246
2.239878654,0.51902318,-0.161846787,-0.82971251,0.044084713,0.113035336,0.193071336,-0.345214516,0.151108578,0.286887258,0.20395413,0.540872991,-2.869912863
2.244879723,0.513532996,-0.170909613,-0.832772076,0.040200818,0.116157666,0.206078693,-0.34468472,0.151927039,0.286071897,0.20483768,0.541232109,-2.868102551
2.249881268,0.510901093,-0.163372546,-0.836911142,0.029068053,0.125718936,0.218524203,-0.344509065,0.152198419,0.28580156,0.205676109,0.541627169,-2.866153002
2.254878521,0.504404902,-0.157019943,-0.842814386,0.032101072,0.134735763,0.233126372,-0.344373912,0.152407244,0.285593539,0.206578046,0.542024791,-2.864106417
2.259876013,0.488382876,-0.164916947,-0.842951,0.030251946,0.151570901,0.239813522,-0.344329089,0.152476475,0.285524577,0.207501039,0.542475879,-2.862066507
2.264874935,0.482018799,-0.181109339,-0.849568307,0.033971064,0.164617956,0.245029613,-0.344153106,0.153184459,0.285074025,0.208530754,0.542976618,-2.860030413
2.269874573,0.482141405,-0.190964624,-0.849087954,0.021807088,0.18291606,0.245535627,-0.344059736,0.153581232,0.284826308,0.209498927,0.543560922,-2.857997179
2.274875879,0.497490942,-0.199201822,-0.848898768,0.009990973,0.196384743,0.248700932,-0.343987912,0.153886512,0.284635693,0.210440367,0.544237494,-2.855947733
2.279877901,0.491175622,-0.195974454,-0.862615705,-0.004102645,0.211089849,0.2514956,-0.3439641,0.153987736,0.284572482,0.211306274,0.544958413,-2.853830099
2.284874916,0.494181126,-0.211479157,-0.862709999,-0.023268398,0.229796275,0.249134466,-0.344265193,0.154675633,0.284248233,0.212119386,0.545764804,-2.851764917
2.289872885,0.498033166,-0.213561699,-0.861815572,-0.046506856,0.244855031,0.243603408,-0.344687134,0.15551886,0.28386277,0.212790683,0.546653867,-2.849705219
2.294878006,0.509908438,-0.21109274,-0.860899746,-0.069846906,0.266576618,0.229376614,-0.345011771,0.156167656,0.283566207,0.213322878,0.547692776,-2.847671747
2.299877882,0.502534628,-0.213732481,-0.862648427,-0.09157607,0.288104415,0.219068334,-0.345119417,0.156382784,0.283467859,0.21373494,0.548819184,-2.845714569
2.30487895,0.499581099,-0.206715077,-0.865270913,-0.10658887,0.312021375,0.213581458,-0.345202267,0.156548306,0.283392221,0.21406211,0.550070643,-2.843715668
2.309880733,0.486990422,-0.189339772,-0.875135481,-0.126143157,0.336363375,0.204617396,-0.345438302,0.157267317,0.283266842,0.214248657,0.551423669,-2.841677666
2.314877748,0.482578576,-0.171040788,-0.878617585,-0.132064104,0.365947276,0.201300561,-0.345619917,0.157820538,0.283170342,0.214359865,0.55291456,-2.839589119
2.319875956,0.482253671,-0.16688405,-0.880346894,-0.120218568,0.399193347,0.194411397,-0.345680118,0.158003986,0.283138335,0.214580327,0.554573298,-2.837459087
2.32487464,0.497220129,-0.191708311,-0.883165777,-0.139098048,0.434455842,0.172623351,-0.34572649,0.15814513,0.283113748,0.214690819,0.556457341,-2.83551383
2.329874754,0.506848812,-0.214383736,-0.867106974,-0.15262723,0.464475095,0.157188833,-0.346168756,0.158426687,0.282616377,0.214771509,0.558505297,-2.833698034
2.334875345,0.529588997,-0.228630647,-0.8648265,-0.181573182,0.488095969,0.126459703,-0.346940696,0.158880681,0.281739026,0.214630738,0.560747385,-2.832032681
2.339877367,0.537130773,-0.232337385,-0.851408958,-0.210385218,0.510304332,0.09861587,-0.347196639,0.159031227,0.281448126,0.214290798,0.56313175,-2.830510139
2.344874144,0.538521647,-0.23418498,-0.848272622,-0.240340844,0.534080446,0.066542342,-0.347393572,0.159147054,0.281224281,0.213713139,0.565675378,-2.829139471
2.349872351,0.535202861,-0.22435838,-0.851183534,-0.260243595,0.560819209,0.029266438,-0.347458899,0.159185469,0.281150073,0.212925434,0.568373919,-2.827931166
2.354871035,0.532887876,-0.218469068,-0.85354507,-0.279838532,0.591861069,-0.007120708,-0.348760724,0.159019008,0.279189616,0.211939752,0.571251571,-2.826889515
2.359871387,0.530680478,-0.217839763,-0.861174524,-0.300881505,0.618883491,-0.037166573,-0.349192381,0.158963799,0.278539598,0.210775942,0.574282944,-2.826002121
2.364872932,0.524094641,-0.200820684,-0.86199671,-0.31739369,0.654432774,-0.066820607,-0.349524528,0.158921331,0.278039426,0.209415272,0.577501535,-2.825181723
2.369874954,0.521911979,-0.18899399,-0.861449838,-0.329025656,0.694615602,-0.090782844,-0.349634647,0.15890725,0.277873576,0.207921848,0.580938339,-2.824429512
2.374871969,0.505772471,-0.189623401,-0.863652229,-0.329987854,0.733324826,-0.110273436,-0.350803316,0.158386961,0.275352299,0.206422314,0.584551692,-2.823778391
2.379869938,0.50146383,-0.183828428,-0.878568232,-0.326999784,0.787098944,-0.131622031,-0.351459056,0.158088371,0.273923993,0.204883978,0.588437021,-2.823195696
2.38486886,0.495587766,-0.183391914,-0.881725073,-0.325340509,0.848347902,-0.157177657,-0.35196358,0.157858625,0.272825003,0.20331794,0.592643619,-2.82267952
2.389868736,0.499786764,-0.188791394,-0.894899547,-0.335441262,0.909090459,-0.174507603,-0.35213086,0.15778245,0.27246058,0.201690063,0.597147405,-2.822234392
2.394869566,0.497819185,-0.179016054,-0.898958981,-0.347528666,0.976177156,-0.189115494,-0.353411168,0.157134295,0.271604449,0.199967533,0.601984382,-2.821786165
2.399871349,0.502673924,-0.167328492,-0.906066954,-0.355289787,1.052447915,-0.209999636,-0.354996949,0.156324878,0.270740002,0.198142543,0.607209086,-2.82135129
2.404868364,0.499105543,-0.155692726,-0.917043686,-0.350567132,1.136903286,-0.22790952,-0.356217086,0.155702099,0.270074844,0.196317047,0.612854719,-2.820905685
2.409866571,0.492961019,-0.145633578,-0.920274198,-0.328582227,1.227776051,-0.246718243,-0.356621653,0.155495584,0.269854307,0.194585681,0.618951857,-2.8204391
2.414865732,0.497593135,-0.160158753,-0.924582362,-0.301764101,1.330425382,-0.269720882,-0.356932968,0.155336693,0.269684613,0.193025514,0.625564814,-2.820078135
2.419865608,0.515685439,-0.192556053,-0.94907409,-0.288343847,1.437038064,-0.306524962,-0.359700769,0.153879374,0.266113698,0.191544205,0.632745445,-2.81997633
2.424866676,0.510747313,-0.221267879,-0.938381553,-0.314381927,1.525726557,-0.336743295,-0.361830413,0.152758062,0.263366103,0.189912602,0.640335798,-2.820082903
2.42987442,0.507916808,-0.196210086,-0.945424676,-0.337720096,1.643863797,-0.378047615,-0.362536579,0.152386263,0.262455046,0.187976718,0.648559809,-2.820194006
2.434877634,0.524035692,-0.171789989,-0.950327337,-0.344275713,1.755354643,-0.418050498,-0.363079906,0.152100191,0.261754066,0.185875759,0.657366514,-2.820369482
2.439875841,0.516617715,-0.182562545,-0.93146199,-0.34670645,1.900148511,-0.472676635,-0.365363359,0.150982618,0.258934945,0.183703631,0.666949868,-2.820841312
2.444874763,0.523344398,-0.215207979,-0.957967758,-0.369933128,2.030812025,-0.527092099,-0.369247079,0.149088591,0.254150301,0.181327462,0.677174866,-2.821681976
2.44987464,0.520427465,-0.227252692,-0.97049135,-0.401490867,2.16491127,-0.581681132,-0.370534837,0.148460582,0.252563804,0.178642243,0.688063025,-2.822796106
2.454876184,0.514071167,-0.204701826,-0.987164855,-0.418006361,2.314702511,-0.644613206,-0.371525705,0.147977367,0.251343101,0.175640121,0.699704289,-2.824088335
2.459878206,0.478477657,-0.21794188,-0.976533651,-0.44681108,2.489997625,-0.711886108,-0.371854246,0.147817135,0.250938326,0.172307,0.712203622,-2.825851679
2.46487546,0.476336449,-0.229472011,-1.00180614,-0.483642995,2.678663969,-0.785301268,-0.377934337,0.144406036,0.240870818,0.168585122,0.725667059,-2.828039408
2.469873428,0.478317231,-0.243118495,-1.017047524,-0.52395308,2.87292099,-0.85651511,-0.379950374,0.143274978,0.237532631,0.16442129,0.740113378,-2.830632687
2.474872351,0.490037858,-0.210498184,-1.06360054,-0.547780812,3.0736413,-0.913212717,-0.381501585,0.142404705,0.234964117,0.159845695,0.755535424,-2.833372355
2.479872227,0.441976607,-0.213349238,-1.018306851,-0.578736007,3.301249027,-0.98513931,-0.382015944,0.142116144,0.234112442,0.154818788,0.772055984,-2.836573601
2.484873056,0.414171964,-0.228786662,-1.056896329,-0.604591191,3.57054925,-1.047852635,-0.388570696,0.138070405,0.224954754,0.149437919,0.789925992,-2.840305805
2.48987484,0.403777838,-0.213537037,-1.053918362,-0.564351022,3.835485935,-1.091250896,-0.392268211,0.135782734,0.219814286,0.144055188,0.809070528,-2.844191551
2.494871855,0.351563185,-0.17898716,-1.051481843,-0.478598803,4.126307487,-1.132680058,-0.39511317,0.134022534,0.215859056,0.138880402,0.829553306,-2.848240376
2.4998703,0.363592952,-0.168002769,-1.108967543,-0.41397512,4.454501152,-1.159138441,-0.396056503,0.133438885,0.214547575,0.133859932,0.851642132,-2.852412462
2.504869223,0.391020268,-0.079446033,-1.177322268,-0.333748192,4.772108555,-1.184543014,-0.400914192,0.130222499,0.205347851,0.128817245,0.875211596,-2.856562853
2.509869099,0.334565997,-0.009100241,-1.121132016,-0.265586466,5.156572819,-1.249636531,-0.406691402,0.126365468,0.194038004,0.123526059,0.90069139,-2.861091852
2.514869928,0.303364009,-0.027996458,-1.143598914,-0.215830013,5.596238136,-1.299114466,-0.411136568,0.123397745,0.18533583,0.118153088,0.928391218,-2.866179943
2.519872189,0.365922928,-0.046875745,-1.184458137,-0.162115559,5.96758461,-1.286580324,-0.412610501,0.122413702,0.182450369,0.113075018,0.957818508,-2.871233702
2.524869442,0.492457807,0.103800789,-1.257520556,-0.009698105,6.318256378,-1.275687933,-0.413744599,0.121656552,0.180230185,0.10828127,0.989005029,-2.875857353
2.529867172,0.595306933,0.106722839,-1.348877192,0.033625066,6.615179062,-1.26434648,-0.422276706,0.116345018,0.159377635,0.103202797,1.021513104,-2.881023645
2.534866095,0.698596835,0.125697389,-1.302723885,0.154199183,6.84474802,-1.191784382,-0.428841561,0.112258151,0.143333003,0.099131644,1.055032849,-2.885641575
2.539867163,0.896824598,0.075503141,-1.436825156,0.186250135,7.058740616,-1.160218596,-0.431018353,0.110903025,0.138012901,0.095258892,1.089648843,-2.890357018
2.544867992,1.247166038,0.026257697,-1.461658359,0.227103412,7.068012238,-1.078872085,-0.432693243,0.109860346,0.133919448,0.091656655,1.124193072,-2.894973993
2.549870253,1.297354341,0.097285382,-1.260095477,0.34146437,7.201426029,-0.992393196,-0.436795115,0.106702656,0.1175154,0.0891039,1.159558892,-2.898633003
2.554867506,1.597093582,0.018557705,-1.592010975,0.341520786,7.10549593,-0.915687978,-0.443537265,0.101429708,0.08967898,0.086872846,1.194191098,-2.90257597
2.559865236,1.91696763,-0.007156885,-1.60086298,0.36337927,6.789731026,-0.748236001,-0.445772856,0.099681295,0.080448948,0.086100303,1.226732492,-2.904900789
2.564870358,2.070371151,0.039346397,-1.64234376,0.441935152,6.494489193,-0.619606495,-0.447492987,0.098336011,0.073347069,0.087044366,1.257795811,-2.905620813
2.569870234,1.991440773,0.153529853,-1.50981915,0.495019972,6.221730232,-0.573168516,-0.448063344,0.097889945,0.070992224,0.087506726,1.287384748,-2.906561375
2.574871302,1.754517674,0.231676504,-1.34991312,0.624527633,6.099542618,-0.551326096,-0.451315105,0.092593916,0.031273156,0.088235497,1.316535592,-2.907662392
2.579873323,1.823358774,0.171804264,-1.442870975,0.743261933,5.967778683,-0.62228924,-0.452393323,0.090837851,0.018103065,0.088174812,1.345069647,-2.91067791
2.584870577,1.740627527,0.036814541,-1.537528634,0.793464839,5.574990749,-0.623046875,-0.453222901,0.089486681,0.007969573,0.087492704,1.371006012,-2.915435314
2.589868784,1.482893467,0.088203669,-1.242284298,0.849409163,5.364024162,-0.545863092,-0.453498006,0.089038655,0.0046095,0.088365316,1.396198511,-2.918189287
2.594867945,1.126392365,-0.043301683,-1.175803423,0.860800982,5.188083172,-0.496263474,-0.451357812,0.085680306,-0.022482838,0.091468856,1.420694709,-2.919611216
2.599867821,0.743181109,-0.262325823,-1.058267713,0.794858754,4.846219063,-0.37705332,-0.450066179,0.083821014,-0.037530467,0.101404466,1.443290114,-2.914784431
2.604868889,0.483370185,-0.651364565,-1.188518405,0.383856177,4.382198334,-0.225716099,-0.449072361,0.082390413,-0.049108595,0.123601168,1.463088036,-2.897307396
2.609870911,0.398623228,-1.005892277,-1.391176581,-0.22973001,3.625914812,-0.037978142,-0.448742837,0.081916057,-0.052947685,0.159864157,1.478162169,-2.863744974
2.614867926,0.671658456,-1.146969438,-1.182154417,-0.777053356,2.98521328,0.396410286,-0.445376396,0.079803422,-0.066883668,0.228911474,1.48959446,-2.7949121
2.619865894,1.748620629,-0.974108279,-1.427589655,-1.397192836,2.637212515,0.753268182,-0.441121161,0.077340595,-0.082578838,0.330907613,1.498571157,-2.68880558
2.624864817,2.222343206,-0.721934795,-2.063612938,-1.708358049,1.834038258,0.991235256,-0.437847048,0.075445615,-0.094655201,0.431533903,1.501558423,-2.581688643
2.629864931,1.366024613,-0.4927558,-1.812246442,-1.854562044,0.990257442,1.197724819,-0.436761409,0.07481727,-0.098659493,0.516616821,1.499595165,-2.488922358
2.634865999,0.573751748,-0.315706402,-1.302178264,-2.006123781,0.580114305,1.361724377,-0.43592608,0.074333809,-0.101740532,0.596092045,1.496183038,-2.400198936
2.639868021,0.278386831,-0.10846433,-1.05068779,-1.965195417,0.315478474,1.475945234,-0.431539774,0.078031905,-0.111551113,0.664058685,1.49154532,-2.322333336
2.644865036,0.243598536,0.002677381,-0.951185822,-1.720009446,0.102887668,1.536508203,-0.42816484,0.080877341,-0.119099684,0.718728304,1.485778928,-2.258876801
2.649863005,0.256429255,-0.002651139,-0.932030737,-1.455431342,-0.08756265,1.54745698,-0.427045763,0.081820831,-0.121602647,0.760694385,1.479042649,-2.209787607
2.654861927,0.223248363,-0.030304946,-0.872953594,-1.269116044,-0.233049646,1.499203444,-0.426184744,0.082546793,-0.12352851,0.791161776,1.471851587,-2.173290491
2.659861803,0.157145664,-0.048741274,-0.792063653,-1.145038366,-0.322573632,1.415489078,-0.424322277,0.087547906,-0.124471627,0.813040912,1.464699626,-2.145889759
2.664862394,0.09331888,-0.053680412,-0.730084658,-1.028219223,-0.392239481,1.301439524,-0.421294659,0.096209437,-0.125505209,0.82746315,1.457777977,-2.126515627
2.669864893,0.036994137,-0.051301222,-0.68092525,-0.911736429,-0.468852192,1.167204618,-0.420290768,0.099081434,-0.125847936,0.834687591,1.45113349,-2.114979506
2.674862623,0.011613687,-0.057477064,-0.668406963,-0.803327739,-0.559715807,1.022373676,-0.419518322,0.101291239,-0.126111642,0.834963322,1.444719315,-2.111039877
2.679861069,0.015856426,-0.067915,-0.665015221,-0.705169618,-0.663452446,0.872655272,-0.419262201,0.102023967,-0.126199082,0.828712821,1.438476563,-2.114176989
2.684859991,0.047528677,-0.074417517,-0.67956382,-0.608183742,-0.786768496,0.720442772,-0.418135494,0.111637704,-0.124778815,0.816283882,1.432369947,-2.123979568
2.689859867,0.076204143,-0.079182535,-0.68808645,-0.501080394,-0.927927852,0.568368912,-0.417761892,0.114825435,-0.124307871,0.798050046,1.426282167,-2.140218258
2.694860697,0.101476207,-0.086931527,-0.695069253,-0.383749336,-1.080328822,0.422753751,-0.417474419,0.117278181,-0.123945512,0.774805069,1.420101166,-2.162184954
2.699868917,0.120121777,-0.101341903,-0.701349497,-0.262748063,-1.24630034,0.289810359,-0.417379111,0.118091464,-0.123825364,0.747289538,1.413675785,-2.1891675
2.704871893,0.14106518,-0.121234201,-0.707583189,-0.144328296,-1.421406984,0.168219298,-0.418409467,0.122268781,-0.121331237,0.716385365,1.406857252,-2.220218658
2.709869862,0.167987257,-0.148447111,-0.716355979,-0.028411636,-1.609965563,0.066432886,-0.419024229,0.124532737,-0.119909942,0.682943761,1.399443746,-2.25457263
2.714868784,0.200709864,-0.179059491,-0.725076735,0.07739912,-1.802927136,-0.017887078,-0.419497252,0.126274705,-0.118816346,0.647996545,1.391295075,-2.291134119
2.719869137,0.230861023,-0.209798038,-0.735709012,0.172966123,-1.999363184,-0.08415962,-0.419654101,0.126852304,-0.118453734,0.61245656,1.382289886,-2.328946114
2.724871397,0.257197648,-0.244216219,-0.744851172,0.260286957,-2.189967632,-0.131716475,-0.421232462,0.127751634,-0.115677372,0.577342868,1.372355103,-2.366936922
2.729873419,0.285339683,-0.280097306,-0.759611189,0.328656793,-2.383401394,-0.160652652,-0.423225671,0.128508553,-0.112238474,0.543312788,1.361404538,-2.404358387
2.734870434,0.315800816,-0.312959373,-0.763129354,0.38395828,-2.573772192,-0.174245864,-0.424759328,0.129090935,-0.109592475,0.511034369,1.349404693,-2.440442085
2.739868402,0.349167168,-0.340878338,-0.765957892,0.422474444,-2.76298666,-0.167760983,-0.425267845,0.129284039,-0.10871511,0.480946034,1.3363235,-2.474635124
2.744867325,0.378716946,-0.369610965,-0.76384151,0.445304424,-2.950111628,-0.151356667,-0.42565915,0.129432634,-0.108040035,0.453176051,1.32216239,-2.506746054
2.749866962,0.395488203,-0.39505142,-0.758957922,0.448389679,-3.127525091,-0.122239925,-0.429836154,0.128511146,-0.100077786,0.427967012,1.306949615,-2.536417007
2.754868031,0.411354989,-0.41464141,-0.757807493,0.439555496,-3.295403957,-0.080911323,-0.433050096,0.127802134,-0.093951374,0.405292928,1.290734172,-2.563579321
2.759869814,0.427703023,-0.421292692,-0.753774166,0.425526679,-3.450915813,-0.031356748,-0.434115767,0.127567023,-0.091919973,0.385064065,1.273590803,-2.588219166
2.764866829,0.444550931,-0.416386247,-0.747631788,0.418711036,-3.591879368,0.026228813,-0.434935719,0.127386123,-0.090356946,0.367272377,1.255619764,-2.610347509
2.769865036,0.458517641,-0.408028275,-0.735842943,0.420972556,-3.720844269,0.087295845,-0.437962353,0.126655817,-0.083619587,0.351755738,1.236881971,-2.630164385
2.774864197,0.474912316,-0.399662733,-0.731993914,0.433769912,-3.839813471,0.154857278,-0.443076611,0.1254161,-0.072147176,0.338463902,1.217439771,-2.647771597
2.779864073,0.493144214,-0.391023487,-0.732985675,0.457085937,-3.94107461,0.227374226,-0.444772393,0.125005037,-0.06834314,0.32730794,1.197379112,-2.66330266
2.784865141,0.522095859,-0.385090083,-0.733116269,0.484007686,-4.034350395,0.307790071,-0.446077198,0.124688745,-0.065416202,0.318158507,1.176746964,-2.676891327
2.789866924,0.553620994,-0.380136997,-0.735034108,0.514447749,-4.128043652,0.389657825,-0.446509838,0.12458387,-0.064445682,0.310801268,1.155568004,-2.688756227
2.794863939,0.582993984,-0.372173995,-0.734247625,0.544173479,-4.219436169,0.47789523,-0.453042418,0.123571835,-0.045427371,0.305078328,1.133837461,-2.699040413
2.79986167,0.609715521,-0.36907652,-0.736530304,0.573286057,-4.309242249,0.562530577,-0.45520851,0.123236261,-0.039121259,0.30076474,1.111590147,-2.707978964
2.804860592,0.632176757,-0.373347163,-0.742606938,0.592006087,-4.407851219,0.647726834,-0.456875175,0.122978061,-0.034269135,0.297634184,1.08876276,-2.715795517
2.809861183,0.668989062,-0.377158493,-0.746672213,0.595489979,-4.49380064,0.729943097,-0.4574278,0.122892447,-0.032660265,0.295481086,1.065453053,-2.722579718
2.814862013,0.706730127,-0.389431566,-0.758367121,0.584405243,-4.587246895,0.803125799,-0.46119982,0.123648793,-0.015149295,0.294045031,1.041645169,-2.728544712
2.819864035,0.728209078,-0.402541429,-0.756976247,0.552547514,-4.676688671,0.875547886,-0.463278711,0.124103047,-0.005316178,0.293098271,1.017347813,-2.733839512
2.824861288,0.741389215,-0.412436724,-0.756878138,0.503903508,-4.76416254,0.941246092,-0.464878321,0.124452561,0.002249738,0.292459249,0.992589533,-2.738561392
2.829859018,0.754968643,-0.415434778,-0.755935192,0.435677379,-4.846988678,1.005124092,-0.465408683,0.124568455,0.004758452,0.291944444,0.967407942,-2.74275589
2.834863901,0.767945945,-0.406738043,-0.75074029,0.351577669,-4.920327663,1.062871218,-0.466599256,0.125786722,0.018072397,0.291387022,0.941862464,-2.746447563
2.839863777,0.777561069,-0.389411777,-0.744479775,0.267740577,-4.980008602,1.104326963,-0.467783064,0.12732926,0.033966281,0.290653527,0.916052103,-2.749752522
2.844864845,0.788064241,-0.362751216,-0.743342757,0.190935194,-5.02593565,1.131311536,-0.468693942,0.128516153,0.046195541,0.289667726,0.890060544,-2.752795219
2.849867344,0.798716784,-0.328821152,-0.751690447,0.129673541,-5.053453445,1.139448166,-0.468995959,0.128909692,0.050250534,0.288422287,0.864001691,-2.755662918
2.854864597,0.812270582,-0.289300829,-0.759936512,0.095211424,-5.069487095,1.132685304,-0.469228357,0.129212499,0.053370573,0.286975324,0.837953866,-2.758413792
2.859863043,0.826077282,-0.250971407,-0.775481761,0.087604292,-5.073318005,1.109959483,-0.467556119,0.132215962,0.075396575,0.285423398,0.811990857,-2.761073828
2.864861965,0.840482533,-0.223955706,-0.796871781,0.104718849,-5.07201767,1.07258451,-0.466269463,0.134526923,0.09234409,0.283851117,0.786135554,-2.763822556
2.869861841,0.861246288,-0.215089202,-0.824342608,0.138711125,-5.064843178,1.025408626,-0.465842813,0.135293186,0.097963564,0.282372892,0.760442197,-2.766723633
2.874862909,0.886428475,-0.221659094,-0.852921844,0.178291768,-5.053404331,0.97430867,-0.465514541,0.13588278,0.102287367,0.281043172,0.734915376,-2.769806385
2.879864693,0.922090411,-0.239827737,-0.88740927,0.211636275,-5.044135094,0.917884588,-0.462481141,0.13742739,0.115360096,0.279804111,0.709577978,-2.77308321
2.884861708,0.959554732,-0.255536795,-0.922120154,0.233592942,-5.041928768,0.865674853,-0.457190007,0.139980033,0.137187555,0.278617978,0.684373379,-2.776549578
2.889859438,0.996154487,-0.271899909,-0.953570545,0.241888449,-5.045734882,0.809844732,-0.455435544,0.140826434,0.144425124,0.277406514,0.659282207,-2.780231714
2.894858122,1.033070207,-0.286585152,-0.988123715,0.241214603,-5.05325985,0.752596736,-0.454085618,0.141477689,0.149993956,0.276123106,0.634307742,-2.784147263
2.899858236,1.068358541,-0.309807897,-1.024203897,0.233423829,-5.061284542,0.689438224,-0.453638017,0.141693637,0.151840478,0.274756461,0.609436631,-2.788316488
2.904859066,1.109408617,-0.327270567,-1.064889073,0.220156312,-5.069870472,0.623705745,-0.441872358,0.144660801,0.180733085,0.273260146,0.584685683,-2.792706966
2.909861088,1.156826377,-0.336211473,-1.111103654,0.202120557,-5.085066795,0.563233018,-0.437971085,0.14564465,0.190313324,0.271629602,0.560029984,-2.797309637
2.914858341,1.211289287,-0.340216517,-1.15702486,0.188669577,-5.104925156,0.503695786,-0.434969336,0.146401674,0.197684675,0.269883454,0.535449564,-2.80207324
2.919856071,1.266499996,-0.33784917,-1.202212572,0.180429757,-5.134290695,0.452864826,-0.433973998,0.146652684,0.200128868,0.268080443,0.510885715,-2.806959629
2.924854994,1.332815886,-0.325074643,-1.244271159,0.187294841,-5.169442177,0.403458416,-0.421652585,0.147823438,0.222057745,0.266295165,0.486349136,-2.811865807
2.929854631,1.399996877,-0.299719423,-1.285321474,0.216939285,-5.213863373,0.358551681,-0.414707571,0.148453563,0.234289929,0.264638454,0.461787373,-2.816788673
2.9348557,1.467097282,-0.263522714,-1.326982975,0.27445671,-5.267426968,0.325072438,-0.409363866,0.148938388,0.243701771,0.263264388,0.437150985,-2.821669817
2.939857721,1.525078416,-0.213903278,-1.357243419,0.360698462,-5.322900772,0.312664002,-0.407591999,0.149099156,0.246822566,0.262375295,0.412394166,-2.826347589
2.944854736,1.577643156,-0.158337966,-1.37309885,0.466374844,-5.376885414,0.323705941,-0.397763163,0.14955996,0.259694546,0.262091666,0.387508869,-2.830691099
2.949852705,1.633344412,-0.110136434,-1.354594231,0.584712565,-5.425684452,0.346871376,-0.385967523,0.150052696,0.274521261,0.262521088,0.36252737,-2.834669352
2.954851866,1.686565518,-0.103447542,-1.310818434,0.706773579,-5.454986572,0.377305061,-0.376891553,0.150431842,0.285929441,0.263803542,0.337550282,-2.838447094
2.959851742,1.728628755,-0.140734836,-1.277938366,0.782582283,-5.460088253,0.429375499,-0.373882145,0.150557563,0.289712161,0.265793443,0.312649429,-2.842030048
2.964852571,1.750877619,-0.14488323,-1.219015598,0.765284896,-5.438522339,0.509987712,-0.371566623,0.150654286,0.292622715,0.267923653,0.287878335,-2.845128059
2.969860554,1.755435467,-0.157533735,-1.143459678,0.67913264,-5.364990234,0.599627316,-0.353410393,0.152586743,0.309978336,0.269879699,0.26349014,-2.847665787
2.974863529,1.756193399,-0.151875064,-1.054801941,0.522960126,-5.254332542,0.693324804,-0.339440376,0.154073641,0.32333231,0.271288574,0.23962079,-2.849593639
2.979861736,1.758573651,-0.120939054,-0.941002846,0.315905511,-5.092062473,0.79132241,-0.334808201,0.154566675,0.32776022,0.271847576,0.21653378,-2.850742102
2.984860659,1.771558285,-0.066648833,-0.830723524,0.089593932,-4.888004303,0.878473639,-0.331244051,0.154946029,0.331167221,0.271420926,0.194457546,-2.851010323
2.989860773,1.800180912,-0.014451602,-0.706161261,-0.152670875,-4.64851141,0.945975602,-0.31869179,0.15685752,0.339890689,0.269912124,0.173610836,-2.850354671
2.994861841,1.816787958,0.036480553,-0.571611464,-0.384028494,-4.403856277,1.007280588,-0.297536403,0.160133913,0.354281306,0.267366886,0.15395391,-2.848898649
2.999864101,1.856045604,0.052708052,-0.431417227,-0.624095619,-4.13705492,1.042486906,-0.290521652,0.161220297,0.359052956,0.263768226,0.135698587,-2.846843719
3.004861116,1.892727613,0.036618393,-0.305353194,-0.869778216,-3.880603075,1.077944279,-0.285124302,0.162056193,0.362724453,0.259131551,0.118738562,-2.84431076
3.009859085,1.930574536,0.024684966,-0.182618678,-1.141940713,-3.636576414,1.106593847,-0.283334643,0.162333369,0.363941848,0.253232926,0.103021964,-2.841213226
3.014858007,1.96489656,0.011256036,-0.059818558,-1.416386724,-3.41210103,1.135145783,-0.255895793,0.163922399,0.377929926,0.24606286,0.088434651,-2.837598801
3.019857883,1.985644221,0.031803206,0.069170326,-1.674437881,-3.195549726,1.155285835,-0.246797577,0.164449275,0.382568091,0.23761937,0.074915446,-2.83341074
3.024858952,2.004557371,0.102025799,0.195536986,-1.875433207,-2.964551687,1.164827108,-0.23979713,0.164854676,0.38613686,0.228105739,0.062587783,-2.828490019
3.029861212,2.012267351,0.210928217,0.317661971,-1.985552788,-2.717325449,1.140372515,-0.237475917,0.164989099,0.387320191,0.217922643,0.051539995,-2.822820187
3.034858227,2.000910521,0.320852071,0.443312675,-1.989687085,-2.420726061,1.075757265,-0.219803691,0.162152514,0.394781202,0.207639188,0.042062744,-2.816652536
3.039856195,1.964956164,0.427302152,0.554434121,-1.893713355,-2.073943853,0.982220113,-0.210012823,0.160484433,0.398876071,0.197726488,0.03436897,-2.81010437
3.044855118,1.955713868,0.525810361,0.615440369,-1.716641903,-1.687496424,0.869462073,-0.202479422,0.159200966,0.402026802,0.188610747,0.028770609,-2.803191662
3.049854994,1.956633925,0.630712748,0.672871768,-1.461120605,-1.290125251,0.722964346,-0.199981496,0.158775404,0.403071523,0.180634975,0.025279699,-2.796092749
3.054855824,1.940434217,0.698039949,0.679085255,-1.162729979,-0.877274454,0.539016545,-0.191737503,0.155577824,0.406424224,0.174069837,0.024043171,-2.789207458
3.059857607,1.925074577,0.784234405,0.66686672,-0.83967942,-0.475387216,0.344851255,-0.182628855,0.151623338,0.410106182,0.168986112,0.024916824,-2.78247261
3.06485486,0.853542984,0.793601632,0.549002111,-0.623169601,0.289325267,0.05517064,-0.175620377,0.148580626,0.412939221,0.165059626,0.027563306,-2.777952909
3.069852591,1.728598118,0.969940424,0.867651641,-0.45884192,1.526551247,-0.146815285,-0.173296496,0.147571728,0.41387862,0.1613231,0.038765699,-2.771877289
3.074851513,2.13454318,1.254235744,0.916715384,0.111224294,2.169385672,-0.598542631,-0.171508431,0.146795452,0.414601386,0.159641743,0.055521183,-2.764412642
3.079851627,1.244285226,1.358562112,1.475788355,0.735830665,2.721493483,-0.961993814,-0.166983023,0.143321544,0.416108191,0.162173599,0.071588442,-2.760902405
3.084852934,0.964853406,0.95572257,1.358292818,0.818663359,3.452161312,-1.284451127,-0.163501024,0.140648618,0.417267561,0.165065229,0.09191294,-2.760495663
3.089854956,0.876874328,0.570893764,0.597629786,0.587909043,3.977030039,-1.562296867,-0.162346467,0.139762327,0.417651981,0.167055905,0.114969343,-2.761768579
3.094852209,0.643457353,0.163230419,-0.295347691,0.21920751,4.281432152,-1.902693391,-0.161458105,0.139080375,0.417947799,0.166835502,0.138940126,-2.766165018
3.099849939,0.472732157,-0.229372188,-1.314053416,-0.197409123,4.283685684,-2.007588625,-0.166763917,0.138819382,0.415103585,0.164430901,0.16225557,-2.772671223
3.104855061,0.405389726,-0.240316302,-1.598134041,0.485868752,4.28809166,-1.929963231,-0.176509246,0.138583288,0.409940004,0.165544122,0.184961945,-2.778377533
3.109854937,0.135509014,-0.259358466,-2.338065386,1.201150894,4.266694069,-1.767323732,-0.179740608,0.138505012,0.408227861,0.171229705,0.206952989,-2.783014774
3.114856005,-0.181265652,-0.796439886,-2.102438211,1.444384575,4.054986954,-1.579085231,-0.182226926,0.138444781,0.406910479,0.178409338,0.226659596,-2.790341854
3.119858027,0.534925818,-0.866713345,-1.489141583,1.85661304,4.21886158,-1.493944526,-0.183051333,0.138424814,0.406473666,0.188424498,0.249353915,-2.795312405
3.124854803,0.776551127,-1.306808949,-1.216860771,1.821772099,4.275914192,-1.458315611,-0.206156313,0.135833189,0.394959867,0.199301541,0.272572249,-2.801645517
3.12985301,1.008795857,-1.679748535,-0.870974839,0.99574703,4.459546089,-1.30142808,-0.213817477,0.134973854,0.3911421,0.206193045,0.296829402,-2.808398485
3.134851933,1.628854275,-1.626630425,-1.034165382,0.122768119,4.488152504,-1.247423768,-0.219712228,0.134312674,0.388204604,0.208199039,0.322554678,-2.8126688
3.139851809,2.074414492,-1.614490747,-1.248168707,-0.536049485,4.163572788,-1.047331095,-0.221666828,0.134093434,0.387230575,0.206941038,0.346592844,-2.815891504
3.1448524,2.399939775,-1.255650997,-1.519389868,-0.860410094,3.705500126,-0.690928102,-0.23872216,0.135189936,0.375392526,0.203879446,0.36796695,-2.815835953
3.149854422,2.48007226,-0.732626617,-1.823276281,-0.947347462,3.197507381,-0.305210352,-0.248225614,0.135866597,0.368723363,0.200112313,0.386275709,-2.811956406
3.154851437,2.387770891,-0.123052381,-1.854889989,-0.907390118,2.700488091,-0.042253032,-0.255537897,0.136387244,0.363591909,0.19592537,0.401623726,-2.805119038
3.159849405,1.942358017,0.509959221,-1.679284692,-0.762322068,2.236806154,-0.054826334,-0.257962495,0.136559874,0.361890405,0.191278711,0.41410014,-2.797424316
3.164848328,1.181211948,0.894034386,-1.370011449,-0.546623051,1.978384137,-0.215078413,-0.266870886,0.134793505,0.355983615,0.186707914,0.424463749,-2.791433811
3.169849157,0.702039063,1.052789569,-1.132398605,-0.259645015,1.904430509,-0.402453959,-0.276926696,0.132292673,0.349388868,0.183095872,0.434355766,-2.78683567
3.174849987,0.609027028,0.838987768,-1.106853843,-0.013099287,1.82583034,-0.554032445,-0.284663975,0.130368456,0.344314665,0.180815905,0.444046855,-2.784388065
3.179852009,0.638770461,0.38143605,-1.080062032,0.196936727,1.698369741,-0.602939546,-0.287229508,0.129730418,0.342632145,0.180347145,0.453120261,-2.784002542
3.184849262,0.755818963,-0.164134562,-1.034659266,0.308343828,1.557283401,-0.506787717,-0.289203495,0.1292395,0.341337562,0.181680098,0.461550146,-2.785036325
3.189847231,0.686183333,-0.522764564,-0.886203051,0.347263396,1.434452653,-0.336717963,-0.296353728,0.127079517,0.336845458,0.184227332,0.469063103,-2.786522627
3.194846153,0.715758801,-0.470354974,-0.870142579,0.309731126,1.333251476,-0.184675172,-0.301855356,0.125417575,0.333389103,0.18664521,0.476056367,-2.786591768
3.199846029,0.859129786,-0.264159352,-0.967702806,0.235811934,1.140251279,-0.142413884,-0.303679585,0.124866508,0.332243055,0.188027889,0.482256293,-2.78546977
3.204847097,0.893410802,-0.155760244,-1.016463518,0.207297876,0.916619122,-0.153265074,-0.305083215,0.124442488,0.331361234,0.188933015,0.487264305,-2.784430027
3.209849119,0.904026985,-0.229304522,-1.022670627,0.1529392,0.69460392,-0.126481712,-0.3081747,0.124074854,0.329143077,0.189721212,0.491139948,-2.783919573
3.214846134,0.733593225,-0.323563844,-0.9373492,0.119644538,0.563341379,-0.047784455,-0.313208759,0.123562418,0.325489104,0.190758318,0.494045854,-2.783761263
3.219844341,0.55547142,-0.267440885,-0.896587849,0.096055336,0.539321423,0.006687426,-0.314877957,0.1233925,0.32427752,0.191730827,0.49663195,-2.783220291
3.224843264,0.515457034,-0.172978222,-0.955250502,0.088339649,0.507551849,0.002406179,-0.316162288,0.123261765,0.323345304,0.192334875,0.499063313,-2.78239584
3.22984314,0.540082037,-0.116395868,-1.013995409,0.107546322,0.458175451,-0.007447261,-0.316588163,0.123218417,0.323036194,0.192896336,0.501266539,-2.781514168
3.234844208,0.617087483,-0.1669209,-0.981095731,0.086603105,0.392726064,0.012076758,-0.320293128,0.123494342,0.31996569,0.193535641,0.503267407,-2.780676365
3.239851952,0.520324349,-0.233535588,-0.881114125,0.078080952,0.391471535,0.020798337,-0.32152164,0.123585835,0.318947554,0.194361404,0.505148351,-2.78026557
3.244854927,0.532704175,-0.242837504,-0.915666938,0.037472721,0.379941612,0.040582452,-0.32246688,0.123656236,0.31816417,0.194958866,0.507005513,-2.779686451
3.249853134,0.564653039,-0.22562927,-0.879909575,0.015827499,0.334122181,0.044097092,-0.322780311,0.123679578,0.317904443,0.195417911,0.50865674,-2.778973103
3.254852057,0.596581101,-0.205189094,-0.872570097,-0.018782977,0.300784647,0.033423714,-0.323921263,0.124059848,0.316507697,0.19561033,0.510247409,-2.778262854
3.259851933,0.51385659,-0.274335146,-0.856959999,-0.06857045,0.271382451,0.041274197,-0.324522227,0.124275595,0.315748364,0.195712939,0.511481524,-2.777980804
3.264853239,0.599828362,-0.247116536,-0.910790503,-0.112652875,0.2326307,0.081658646,-0.32498464,0.124441586,0.315164119,0.195601031,0.51266402,-2.777204514
3.269855261,0.473917156,-0.171521708,-0.852387249,-0.108397119,0.241308644,0.060544457,-0.325137973,0.124496631,0.314970404,0.195278823,0.513697386,-2.77645278
3.274852276,0.449274451,-0.170497,-0.915417731,-0.10701061,0.261176735,0.082041211,-0.325624108,0.124600612,0.31447041,0.19507651,0.514792025,-2.775633574
3.279850245,0.422192693,-0.129963741,-0.885834813,-0.066327468,0.297775328,0.10990458,-0.326156586,0.124697231,0.313950747,0.195144981,0.516021609,-2.774465322
3.284848928,0.439235002,-0.103000022,-0.903182149,-0.029740274,0.329686105,0.135753363,-0.326566279,0.124771565,0.313550919,0.195452943,0.517437637,-2.772985458
3.289848804,0.509906411,-0.145777002,-0.889300942,-0.012571912,0.331253678,0.157213241,-0.326702148,0.124796219,0.313418359,0.196002513,0.518918693,-2.771469355
3.294849634,0.526170075,-0.200736821,-0.870475411,-0.013768915,0.336382508,0.165832937,-0.326806664,0.124815188,0.313316345,0.196663842,0.52044028,-2.77011323
3.299852133,0.543246865,-0.196359634,-0.88408035,-0.021631928,0.322443098,0.151713535,-0.327737033,0.124830879,0.312428445,0.197211191,0.521907032,-2.768776894
3.304849625,0.540124476,-0.178070128,-0.889644563,-0.017604077,0.303413808,0.139592484,-0.328452915,0.124842957,0.311745256,0.197671086,0.523282766,-2.767485619
3.309847593,0.555189371,-0.162526727,-0.896738052,-0.01422269,0.271570146,0.124889396,-0.32869029,0.124846958,0.311518729,0.198060453,0.52452004,-2.766237974
3.314846516,0.574108481,-0.177908137,-0.884002924,-0.012203296,0.23290807,0.102031305,-0.328872949,0.124850042,0.311344445,0.198422641,0.525627732,-2.765187263
3.319846392,0.585011244,-0.211997479,-0.86806345,-0.019485516,0.189465314,0.078293197,-0.329357833,0.125022277,0.310165823,0.198742241,0.526555121,-2.764466286
3.32484746,0.591922104,-0.251283824,-0.858987689,-0.054573119,0.149801031,0.051037401,-0.330159962,0.1253279,0.308125615,0.198856503,0.527317643,-2.764084578
3.329849482,0.585656703,-0.261424839,-0.866861761,-0.094774865,0.114712328,0.007407579,-0.330425948,0.125429243,0.307449102,0.198598132,0.527926385,-2.764029026
3.334846735,0.566240489,-0.249248028,-0.86858058,-0.128488913,0.091519512,-0.023453994,-0.3306306,0.125507221,0.306928575,0.198032573,0.528432012,-2.764142752
3.339844942,0.542660773,-0.220465049,-0.872502863,-0.151325524,0.080754243,-0.046584059,-0.33069846,0.125533074,0.30675599,0.197208285,0.528877497,-2.764325142
3.344843864,0.533167779,-0.17958039,-0.876319349,-0.159882441,0.071292222,-0.060673382,-0.331283063,0.125763044,0.306309521,0.196251065,0.529295444,-2.764425278
3.349844217,0.512057185,-0.16221948,-0.867499709,-0.16430524,0.067239627,-0.067992032,-0.331476927,0.125839293,0.306161463,0.195228025,0.529672325,-2.764566422
3.354845285,0.501090229,-0.153129429,-0.866656005,-0.157566324,0.074227788,-0.06089779,-0.331626087,0.125897944,0.306047559,0.194264874,0.530068517,-2.764645576
3.359847307,0.493440747,-0.1334728,-0.867119551,-0.135070682,0.075602666,-0.049710326,-0.331675529,0.125917405,0.306009769,0.193409264,0.530464232,-2.764581203
3.364844561,0.478202522,-0.106318057,-0.859516621,-0.106962137,0.0879509,-0.03080749,-0.331755608,0.125325263,0.306230456,0.19273518,0.53087312,-2.764317989
3.369842529,0.481103778,-0.096712977,-0.861569405,-0.074488916,0.08791966,-0.012264651,-0.331792563,0.124978684,0.30636543,0.192267746,0.531288624,-2.763916731
3.374847412,0.489511013,-0.102667563,-0.850538254,-0.051916268,0.089556634,0.011929011,-0.331820995,0.12471202,0.306469321,0.192017823,0.531697333,-2.763410807
3.379847527,0.502610207,-0.113424443,-0.848163366,-0.04696719,0.093000278,0.022198852,-0.331830442,0.124623604,0.306503743,0.191823006,0.532136679,-2.762830496
3.384848356,0.509357333,-0.131492764,-0.844773471,-0.041914381,0.090157472,0.0287163,-0.332088411,0.124353565,0.306015074,0.191723362,0.532556295,-2.762304544
3.389850378,0.506131947,-0.154317096,-0.838941455,-0.05269881,0.095582835,0.025612365,-0.332426786,0.124060325,0.305333555,0.19157663,0.53300947,-2.761918783
3.394847393,0.514618516,-0.167747572,-0.840963423,-0.069613442,0.105163135,0.01973249,-0.332687169,0.123834692,0.304809153,0.191364184,0.533524215,-2.761559725
3.399845362,0.516452432,-0.177886307,-0.843255162,-0.082348116,0.105895519,0.016199144,-0.332773507,0.123759881,0.304635286,0.191085145,0.534042597,-2.761273384
3.404844284,0.505246222,-0.160699636,-0.846378088,-0.093696564,0.114193723,0.014577507,-0.332839936,0.123702317,0.304501504,0.190683365,0.534580827,-2.760910988
3.40984416,0.496952355,-0.142642766,-0.852903724,-0.094050966,0.119368345,0.010694931,-0.333066225,0.123848066,0.305379033,0.19024691,0.535138845,-2.76051569
3.414845228,0.487473667,-0.131262586,-0.849806726,-0.092160761,0.135294393,0.009313562,-0.33324036,0.123960219,0.306054235,0.189838633,0.535756052,-2.760082245
3.41984725,0.497501254,-0.139134735,-0.853329122,-0.091837652,0.150621533,0.003720938,-0.333298087,0.123997405,0.30627811,0.189433709,0.536482692,-2.759691238
3.424844265,0.505290985,-0.149579614,-0.850514293,-0.089434914,0.156423196,-0.003483427,-0.333342522,0.124026015,0.306450367,0.189046517,0.537250757,-2.759375334
3.429842234,0.514118731,-0.170849115,-0.848195553,-0.095861681,0.16017589,-0.013666571,-0.333576739,0.123602904,0.306104273,0.188650325,0.538063109,-2.759194851
3.434841156,0.529973269,-0.165777847,-0.842140257,-0.111798167,0.155960262,-0.027200129,-0.333978891,0.122839935,0.305430293,0.188089192,0.538890719,-2.759014845
3.439841032,0.528306365,-0.178347707,-0.844429612,-0.127401039,0.147181675,-0.035513479,-0.334112227,0.122586943,0.305206835,0.187458843,0.539657414,-2.758996725
3.444842339,0.521254361,-0.182674944,-0.841228306,-0.139557645,0.136246592,-0.039916284,-0.334214836,0.122392289,0.305034876,0.186757669,0.540357769,-2.759025574
3.449844122,0.521864057,-0.171040639,-0.841406286,-0.153505787,0.134913236,-0.045429643,-0.334248841,0.122327745,0.304977834,0.185937852,0.541073263,-2.759025812
3.454841375,0.517822981,-0.153605685,-0.842783689,-0.155050501,0.13216123,-0.050126646,-0.334934622,0.122021757,0.305078387,0.18505694,0.541766524,-2.7590065
3.459839344,0.520585358,-0.139483929,-0.838860452,-0.145356819,0.128532797,-0.051339708,-0.335162014,0.121920303,0.305111706,0.184209198,0.542456567,-2.758944988
3.46483779,0.517542303,-0.11984992,-0.830597758,-0.130341828,0.130501106,-0.044480674,-0.335336983,0.121842235,0.305137366,0.183436185,0.543156862,-2.758765221
3.469837904,0.522884905,-0.12177103,-0.835847318,-0.123236828,0.125495329,-0.038975883,-0.335395008,0.121816352,0.30514586,0.182710633,0.543839395,-2.758583069
3.474838495,0.518865287,-0.125424474,-0.829007447,-0.119540259,0.120339707,-0.031186504,-0.335431218,0.121332087,0.304431349,0.182055637,0.54446888,-2.758374929
3.479840517,0.521187186,-0.132737473,-0.828323185,-0.119445443,0.115131311,-0.019098904,-0.335441142,0.121056609,0.304015994,0.181432098,0.545074522,-2.758137703
3.484837294,0.522265792,-0.128508389,-0.829772234,-0.118747637,0.106070042,-0.013366441,-0.335448772,0.12084464,0.303696394,0.18082267,0.545615017,-2.757851601
3.489835739,0.518167853,-0.127825886,-0.832316816,-0.121848509,0.104233436,-0.006479547,-0.335451305,0.120774359,0.303590447,0.180196345,0.546136737,-2.757534504
3.494834661,0.518336058,-0.130788192,-0.839817584,-0.118982621,0.09853594,0.001486498,-0.335902125,0.120438732,0.303355873,0.179622784,0.546619356,-2.757208586
3.499834538,0.508514881,-0.128963411,-0.842171073,-0.114689425,0.097952627,0.014878219,-0.336504221,0.120043539,0.303123772,0.179104984,0.54706043,-2.756821394
3.504835606,0.506192565,-0.124081105,-0.846279085,-0.106007688,0.094775036,0.026294267,-0.336967498,0.119739465,0.302945167,0.178676501,0.547468901,-2.756357908
3.509843826,0.504942119,-0.121247634,-0.847622156,-0.101846196,0.095216773,0.037994806,-0.337121129,0.119638637,0.302885979,0.178275615,0.547879517,-2.755821466
3.514846802,0.504710257,-0.117909573,-0.841179729,-0.094421208,0.09866593,0.049458437,-0.337239325,0.119561054,0.302840441,0.177950248,0.548299253,-2.755199671
3.51984477,0.505008578,-0.125494838,-0.841233552,-0.089291766,0.102645323,0.061804313,-0.337719202,0.119128317,0.301870286,0.177707851,0.548730314,-2.754545927
3.524843693,0.503954887,-0.130895644,-0.844609141,-0.081443347,0.106480561,0.075288586,-0.338088453,0.118795343,0.301123828,0.177572131,0.549158216,-2.753834486
3.529843569,0.510024965,-0.136916101,-0.844398081,-0.081754312,0.106683679,0.08093033,-0.338210881,0.11868494,0.300876319,0.177430362,0.549601018,-2.753105164
3.534844875,0.51975286,-0.144423768,-0.843320131,-0.078670055,0.104428545,0.088102542,-0.338305086,0.118599996,0.300685883,0.177366987,0.550026476,-2.752346754
3.539846897,0.521959007,-0.147003561,-0.842632413,-0.079701878,0.102456279,0.094327033,-0.338253319,0.11865934,0.300895035,0.177295625,0.550452471,-2.751544952
3.544844151,0.519532681,-0.15026404,-0.839394391,-0.083378851,0.099966161,0.099853858,-0.33812952,0.118793488,0.301331311,0.177235201,0.55084157,-2.75074482
3.549841881,0.52259928,-0.145236656,-0.842809856,-0.08352799,0.0988518,0.105998963,-0.338088483,0.118837968,0.301475972,0.177182153,0.551236033,-2.749870062
3.554841042,0.518041372,-0.141329214,-0.841943443,-0.079768419,0.098403476,0.112863734,-0.338056922,0.118872195,0.301587284,0.17716144,0.551616311,-2.74896121
3.559840918,0.514501452,-0.13546738,-0.839841366,-0.078549966,0.102721773,0.123778537,-0.338046432,0.118883543,0.301624179,0.17717725,0.552000403,-2.74796629
3.564841986,0.505382776,-0.128863648,-0.840582311,-0.071183115,0.104530849,0.138235763,-0.337836802,0.118944243,0.300361514,0.177270755,0.552364767,-2.74685955
3.569844007,0.49508369,-0.130509257,-0.841776133,-0.07573095,0.118554607,0.154068291,-0.337767303,0.118964374,0.299942851,0.177377462,0.55276984,-2.745690823
3.574841261,0.497741491,-0.130348057,-0.845271647,-0.073557764,0.13090153,0.16951026,-0.337713808,0.118979856,0.299620718,0.177558601,0.553227425,-2.744405746
3.57983923,0.490456939,-0.130648404,-0.852389216,-0.076240137,0.145325184,0.187006831,-0.337696075,0.118984997,0.299513906,0.17779991,0.55372113,-2.743035793
3.584838629,0.484225571,-0.132168397,-0.857110381,-0.075199984,0.168157175,0.20211269,-0.338381171,0.119051546,0.299250931,0.178091168,0.554307282,-2.741568565
3.589838505,0.476356059,-0.140332133,-0.868111014,-0.079162411,0.188829571,0.217965424,-0.338781238,0.119089097,0.299118996,0.178451076,0.554949939,-2.740037441
3.594839573,0.467426151,-0.147548348,-0.873375297,-0.083341785,0.210889831,0.232748851,-0.339089066,0.119117998,0.299017489,0.178825602,0.555678606,-2.738439083
3.599841595,0.471362948,-0.154338032,-0.876704514,-0.089173153,0.241700798,0.239383042,-0.339191139,0.119127579,0.298983842,0.179269537,0.556546748,-2.736774206
3.60483861,0.478883475,-0.169822514,-0.880651295,-0.11224521,0.269851089,0.240651354,-0.339358985,0.119481415,0.298763305,0.179610044,0.55757618,-2.735126495
3.609836578,0.491370231,-0.185407743,-0.880558014,-0.138040289,0.295415461,0.232406229,-0.339504719,0.119948104,0.298493922,0.179836527,0.558746219,-2.733537197
3.614835262,0.497956574,-0.191976205,-0.878339708,-0.168358594,0.326319367,0.209840596,-0.339616835,0.120307192,0.298286647,0.179868996,0.560101807,-2.732061386
3.619835138,0.499299675,-0.197648689,-0.871401012,-0.196443498,0.352528185,0.188991934,-0.339654028,0.12042626,0.298217922,0.179736853,0.561598599,-2.730701447
3.624836445,0.50119555,-0.19519414,-0.875242114,-0.228779405,0.377240866,0.17023778,-0.339682639,0.120517872,0.298165053,0.179383591,0.563223004,-2.729426622
3.629838228,0.499554932,-0.185115442,-0.877807558,-0.24388884,0.41277203,0.14343743,-0.340444863,0.120867871,0.298158497,0.178855836,0.565056682,-2.728225946
3.634835482,0.48919034,-0.198712185,-0.889358759,-0.270333648,0.45435816,0.109058812,-0.341031373,0.121137172,0.29815346,0.178163558,0.567095041,-2.727273464
3.63983345,0.483637035,-0.213330954,-0.897161126,-0.296936095,0.494155705,0.080209732,-0.341225863,0.121226467,0.298151791,0.177284226,0.569339097,-2.726519585
3.644838095,0.480724722,-0.191981748,-0.897189558,-0.334705234,0.537562251,0.05674351,-0.3413755,0.121295176,0.29815051,0.1761242,0.571798682,-2.72575593
3.649838448,0.484574646,-0.18400304,-0.911168098,-0.367643476,0.595103323,0.019833684,-0.341846198,0.12117549,0.297472596,0.17469117,0.574600697,-2.725130558
3.654839039,0.490458935,-0.221946776,-0.902754962,-0.417684674,0.64331007,-0.0208463,-0.342634201,0.120939352,0.29626596,0.172987059,0.577651143,-2.724883795
3.659841061,0.493594617,-0.179114372,-0.89535439,-0.428616643,0.698840976,-0.063373357,-0.342895478,0.120861053,0.295865864,0.171016663,0.581064284,-2.724613905
3.664838076,0.47858569,-0.185289323,-0.909848392,-0.425808847,0.760907531,-0.119924352,-0.343096524,0.120800808,0.295558035,0.168969274,0.584759593,-2.724709034
3.669836283,0.503579676,-0.219118357,-0.909638047,-0.460902721,0.819118857,-0.161340773,-0.343163192,0.120780833,0.295455962,0.166713968,0.588819683,-2.725122452
3.674835205,0.512978613,-0.212765321,-0.909504294,-0.507090986,0.878820539,-0.20700559,-0.344839036,0.119141504,0.29169634,0.164047763,0.59322679,-2.725713253
3.67983532,0.510554135,-0.18488808,-0.908340931,-0.531965911,0.938196957,-0.247004256,-0.345394701,0.118597932,0.290449739,0.161084846,0.597923815,-2.7263906
3.684836388,0.495676577,-0.146948323,-0.902658403,-0.52775687,1.020927906,-0.28952387,-0.345822245,0.118179686,0.289490581,0.157960385,0.603063881,-2.727139473
3.689838409,0.492673367,-0.170752585,-0.914863408,-0.527204216,1.114539385,-0.334448904,-0.345964015,0.118041009,0.2891725,0.154848263,0.60868156,-2.728245735
3.694835424,0.510049641,-0.202280879,-0.934983432,-0.559532821,1.191806436,-0.358688146,-0.348534405,0.116125591,0.286139935,0.151559591,0.61469698,-2.729605198
3.699833393,0.502534628,-0.162595004,-0.939895928,-0.584959686,1.280132532,-0.390096515,-0.349995762,0.11504291,0.284444511,0.147925705,0.621137738,-2.730940819
3.704832315,0.48633191,-0.12105982,-0.924515605,-0.568929076,1.376515985,-0.422231913,-0.351120174,0.114209853,0.283140033,0.144230738,0.628054738,-2.73225975
3.70983243,0.47622478,-0.149576321,-0.942673862,-0.556975663,1.492628336,-0.452441603,-0.351493001,0.11393363,0.282707483,0.140627623,0.635540545,-2.733909845
3.714833498,0.493347824,-0.169135064,-0.95365268,-0.573167861,1.598243594,-0.478248358,-0.353822201,0.112269849,0.280423909,0.136906624,0.643556535,-2.735742569
3.719835758,0.49615255,-0.153230518,-0.954053462,-0.594677627,1.710824966,-0.505098462,-0.356653988,0.110254742,0.277699649,0.132934675,0.652128398,-2.737664223
3.724833012,0.519985199,-0.101469532,-0.958859026,-0.572814047,1.831307054,-0.525463998,-0.358832836,0.108704254,0.275603503,0.128878295,0.661332309,-2.739444017
3.72983098,0.495009571,-0.100993551,-0.923877299,-0.547828913,1.995265007,-0.57146728,-0.359555274,0.108190142,0.274908453,0.124885634,0.671383381,-2.741437674
3.734829903,0.516078353,-0.172331199,-0.957661092,-0.584870756,2.143690348,-0.616818905,-0.360111177,0.107794575,0.27437371,0.120704539,0.682173371,-2.744034052
