Time,inertial-6253.76535:scaledAccelX,inertial-6253.76535:scaledAccelY,inertial-6253.76535:scaledAccelZ,inertial-6253.76535:scaledGyroX,inertial-6253.76535:scaledGyroY,inertial-6253.76535:scaledGyroZ,inertial-6253.76535:scaledMagX,inertial-6253.76535:scaledMagY,inertial-6253.76535:scaledMagZ,inertial-6253.76535:roll,inertial-6253.76535:pitch,inertial-6253.76535:yaw
0,0.172054678,0.687388182,-0.707450211,0.013956609,-0.005155838,-0.0002304,0.231254429,-0.261873066,0.231668323,-0.75849086,0.177283973,0.111977346
0.004999424,0.166956514,0.682702065,-0.705364108,0.016581168,-0.008798552,-0.000518417,0.231334403,-0.261726797,0.231664479,-0.758409977,0.177232176,0.111970007
0.009999872,0.169775352,0.68476975,-0.71153903,0.015023955,-0.005274319,-0.000337043,0.231384799,-0.261641204,0.231649607,-0.758351684,0.177213594,0.111957774
0.015001344,0.16697295,0.684362769,-0.708110809,0.015026946,-0.005451575,-0.000771302,0.231423572,-0.261575311,0.231638163,-0.758296967,0.177173719,0.111941844
0.019997695,0.166848689,0.686276555,-0.708894849,0.014618255,-0.006245838,0.000188743,0.231436431,-0.261553466,0.231634364,-0.758238792,0.177137345,0.11192964
0.024995329,0.16849874,0.685688436,-0.709860325,0.013627728,-0.005450935,0.000498235,0.231446728,-0.261593044,0.231777981,-0.75818342,0.177109152,0.111915454
0.029993728,0.166894644,0.684786558,-0.709858894,0.013384169,-0.003246504,-0.00096943,0.231450558,-0.26166302,0.231973395,-0.758131742,0.177076474,0.111893699
0.034993153,0.168547168,0.687440634,-0.710030377,0.014732806,-0.005077064,0.001075169,0.231453493,-0.261716843,0.232123747,-0.758073628,0.177050471,0.111886054
0.039993599,0.168547675,0.685397863,-0.710799098,0.014070055,-0.003694846,0.001875063,0.231454462,-0.261734694,0.232173607,-0.758012533,0.177034482,0.111878306
0.044995073,0.168490931,0.683097541,-0.710181057,0.014975866,-0.004116138,0.002578526,0.231455207,-0.261748433,0.232211962,-0.757943273,0.177023262,0.11188104
0.049991425,0.168917716,0.683829546,-0.710636437,0.012369299,-0.002903006,0.002397195,0.231353983,-0.261547387,0.232275695,-0.75789845,0.177012444,0.111873738
0.054988801,0.169505283,0.683519185,-0.710450113,0.01202055,-0.002228033,0.001608826,0.231276095,-0.261392683,0.232324734,-0.757846832,0.176993683,0.111857004
0.059987199,0.170234084,0.684058964,-0.710207641,0.009524688,-0.002522601,0.002086565,0.231250271,-0.261341363,0.232341006,-0.757813692,0.176980972,0.111846372
0.064986624,0.169043615,0.685403526,-0.711435854,0.01110595,-0.003619395,0.002183585,0.231230393,-0.261301875,0.232353523,-0.757768273,0.176962137,0.111831635
0.069987074,0.170480117,0.684524536,-0.710320473,0.010465099,-0.005009842,0.00451213,0.231334046,-0.261175573,0.232354239,-0.757724345,0.17695123,0.111838423
0.074988797,0.171278134,0.683822751,-0.71107924,0.009957822,-0.004043628,0.0039225,0.231525272,-0.260963857,0.232351333,-0.75767976,0.17693527,0.111837432
0.079985663,0.171988904,0.683462858,-0.712288558,0.009877441,-0.005044331,0.002555038,0.231588691,-0.260893673,0.232350364,-0.757642984,0.176917642,0.111840166
0.084983043,0.17010273,0.683624327,-0.711718798,0.006448585,-0.004069289,0.003259867,0.231637478,-0.260839701,0.232349634,-0.757613957,0.176902592,0.111832984
0.089987583,0.171098322,0.685206413,-0.710764408,0.005322092,-0.003087223,0.000834714,0.231653661,-0.26082179,0.232349381,-0.757605016,0.176883191,0.111814275
0.094987266,0.170183346,0.682874441,-0.710311055,0.004246869,-0.005911202,0.001325862,0.231474712,-0.261142373,0.232288435,-0.757591248,0.176857337,0.111811586
0.099987715,0.172437161,0.682914495,-0.71003747,0.002251045,-0.004185541,0.001274167,0.231415376,-0.261248678,0.232268229,-0.757586896,0.176843792,0.111809902
0.104989186,0.170122832,0.684110641,-0.711033583,0.001620935,-0.005074476,0.002097648,0.231369719,-0.261330485,0.232252672,-0.757587671,0.176823691,0.111804776
0.109985791,0.168550074,0.686068296,-0.710972726,0.001880408,-0.005103241,0.00208195,0.231354579,-0.261357605,0.232247502,-0.757592559,0.17680338,0.111795403
0.114983171,0.168675497,0.686534941,-0.709673822,0.000980592,-0.004719096,0.001997252,0.231243432,-0.261276364,0.232090145,-0.757604241,0.176781744,0.111781791
0.119981565,0.169522434,0.685697436,-0.709515333,-0.002450067,-0.003743914,0.003150752,0.231181964,-0.261224151,0.232000008,-0.75763607,0.176766232,0.111772701
0.124980994,0.166610152,0.684553266,-0.710582912,-0.003136056,-0.004346929,0.003408205,0.231134668,-0.261184007,0.231930643,-0.757654548,0.176748425,0.111773469
0.129981697,0.166863278,0.687517285,-0.710333109,-0.003375091,-0.003291483,0.005112824,0.231118977,-0.261170685,0.231907651,-0.757687211,0.176745668,0.111770838
0.134983167,0.1670793,0.686347783,-0.708148181,-0.002741795,-0.002036538,0.006026348,0.231164873,-0.261305779,0.23189047,-0.757715344,0.176738977,0.111763716
0.13997978,0.169263765,0.684864521,-0.711261332,-0.002759705,-0.001286843,0.004358225,0.231238529,-0.26149711,0.231885299,-0.757738233,0.176743686,0.111759216
0.144977152,0.168900833,0.683305681,-0.71326369,-0.004573631,-0.003394027,0.004305822,0.231295198,-0.261644363,0.23188132,-0.757771373,0.176733881,0.111765444
0.149975806,0.171086758,0.6848557,-0.711807311,-0.007090253,-0.001786624,0.003884877,0.231313989,-0.26169318,0.231880009,-0.757818103,0.176732197,0.111755677
0.154975235,0.169643566,0.685155094,-0.710673809,-0.006715462,-0.001207287,0.003692,0.231328443,-0.26173076,0.231878996,-0.757864356,0.176727355,0.111749262
0.159975678,0.169450685,0.686888635,-0.709516287,-0.008483804,-0.003637644,0.002644926,0.231481552,-0.261796385,0.231927767,-0.757921815,0.176710099,0.111741543
0.164977148,0.168673515,0.68738544,-0.710124433,-0.009025181,-0.001148951,0.003195943,0.231599361,-0.26184687,0.231965289,-0.757980406,0.176708475,0.111733809
0.169973761,0.167736769,0.685635388,-0.707574844,-0.008368324,-0.001834771,0.002349343,0.231638432,-0.261863619,0.231977731,-0.758039117,0.176696956,0.111718662
0.174971133,0.167548299,0.686580777,-0.707198739,-0.006858424,-0.001028463,0.005360494,0.231668487,-0.261876523,0.231987312,-0.75808692,0.17669414,0.111705266
0.179969534,0.169091493,0.68757695,-0.707678676,-0.007570582,-0.002284189,0.004298229,0.231593013,-0.26176402,0.231961638,-0.758141756,0.176688775,0.111692205
0.18496947,0.169187069,0.686920881,-0.706413686,-0.006110708,-0.001461202,0.003407694,0.231448546,-0.261559397,0.231912732,-0.758185863,0.176681727,0.111678936
0.189969927,0.168209597,0.686534643,-0.707628548,-0.005732829,-0.000356634,0.004128227,0.231400654,-0.261491567,0.23189652,-0.758234739,0.176680967,0.111665368
0.194971398,0.167744145,0.686923146,-0.709077239,-0.004277907,-0.002397856,0.004233536,0.231363803,-0.261439383,0.231884032,-0.75826627,0.176670685,0.111654483
0.199967742,0.167622581,0.684735894,-0.708854258,-0.005418597,-0.001457022,0.005849263,0.231351569,-0.261422068,0.23187989,-0.758306623,0.17667377,0.111654595
0.204965115,0.168468237,0.685569227,-0.708053648,-0.005012461,-0.002188826,0.00596348,0.231407046,-0.261343747,0.23173812,-0.758347094,0.176671818,0.111654475
0.209963262,0.166697666,0.687242091,-0.708146095,-0.004490165,-0.00063409,0.006823228,0.231425449,-0.26131776,0.231691122,-0.758386016,0.17667985,0.111649178
0.214962691,0.167276487,0.687370658,-0.709329963,-0.002924906,-0.000608006,0.007617977,0.231439605,-0.261297792,0.231654957,-0.75841707,0.176687121,0.111646585
0.21996288,0.167700082,0.68682313,-0.708756804,-0.003516999,-0.001917705,0.009149976,0.231444299,-0.261291176,0.231642962,-0.758445382,0.176706105,0.111653626
0.22497049,0.168909535,0.685986638,-0.706255257,-0.003247484,0.000580469,0.007725349,0.231498301,-0.261339247,0.231479183,-0.758476794,0.176720902,0.111642033
0.229972988,0.16916424,0.686010897,-0.707543433,-0.003725773,-0.000900675,0.007906347,0.23152867,-0.261368334,0.231386632,-0.758514404,0.176735356,0.111639999
0.234970629,0.169213474,0.685730755,-0.709362745,-0.003081682,-0.000166068,0.008874366,0.231552035,-0.261390716,0.231315419,-0.758540034,0.176754251,0.111645363
0.23996903,0.168314293,0.68425101,-0.70809269,-0.002826734,-0.001514215,0.009185428,0.231559783,-0.261398166,0.231291801,-0.758561552,0.176761702,0.111657105
0.244968444,0.168400139,0.684910834,-0.70888114,-0.003369886,0.000749649,0.008519972,0.231651813,-0.261577785,0.231361493,-0.758587241,0.176792189,0.111657448
0.249968901,0.170427844,0.685474575,-0.708709598,-0.001830774,-3.39E-05,0.008564164,0.23176913,-0.261812747,0.231473193,-0.758611858,0.176803797,0.111656569
0.254970372,0.16993317,0.686639369,-0.708988607,-0.001455723,-0.001549176,0.008976747,0.231859401,-0.261993527,0.231559142,-0.758624554,0.176818013,0.111666307
0.259966969,0.169095069,0.685310781,-0.709175289,-0.001013194,0.000335566,0.007918879,0.231889337,-0.26205346,0.231587633,-0.758644164,0.176833808,0.111670949
0.26496461,0.169670224,0.685764194,-0.708482444,0.000214849,-0.00116274,0.006289846,0.231912345,-0.262099564,0.231609568,-0.758657217,0.176838189,0.111667663
0.269962996,0.168192074,0.686154246,-0.708468139,-0.00077176,-0.00142282,0.007026237,0.231819645,-0.262009919,0.231771752,-0.758676112,0.176848829,0.111665346
0.274962425,0.168294191,0.685640156,-0.708600223,-0.000533107,-0.000549063,0.008179898,0.231748328,-0.261940956,0.231896549,-0.758685589,0.17686148,0.111671984
0.279962867,0.167692944,0.686744809,-0.707923174,0.000954,-0.000118554,0.007668082,0.231724679,-0.261918098,0.23193793,-0.758693337,0.176873505,0.111664921
0.284964085,0.170057029,0.686576664,-0.708095968,0.000431662,0.000177272,0.007038593,0.231706485,-0.261900514,0.231969774,-0.758697867,0.176887438,0.111662157
0.289960444,0.170866117,0.685831666,-0.707382083,0.000364564,0.000316071,0.006434925,0.231644511,-0.261866093,0.231835172,-0.758711755,0.176902711,0.111660071
0.294957817,0.169840544,0.685863912,-0.709313989,0.000523125,-0.000712287,0.008927568,0.231540278,-0.26181069,0.231584847,-0.758717,0.176926851,0.11166922
0.299956232,0.169731125,0.685986698,-0.708974659,0.0006522,-0.000794288,0.00845757,0.231505722,-0.261792332,0.231501848,-0.75873512,0.176944599,0.111674465
0.304955393,0.169811785,0.685878158,-0.709903479,-0.001100298,0.000831041,0.007335079,0.231479123,-0.261778206,0.231437966,-0.758749604,0.176956668,0.111673042
0.309955835,0.169331729,0.684552848,-0.708589733,-0.000135809,-0.001894201,0.007487946,0.231470302,-0.261773527,0.231416792,-0.758763075,0.176971644,0.111677952
0.314957321,0.168283701,0.686000526,-0.709461033,-0.000283562,-1.46E-05,0.007954075,0.231395811,-0.261632383,0.231536835,-0.758772612,0.176983967,0.111678705
0.319954187,0.169482172,0.68608439,-0.70937264,-0.001216823,-1.51E-05,0.008422937,0.23137112,-0.261585563,0.231576636,-0.758787751,0.177008674,0.111677632
0.324951559,0.169942886,0.68644619,-0.708915293,0.000890434,-0.001116037,0.009031601,0.231352106,-0.261549532,0.231607258,-0.758790612,0.177020878,0.111680076
0.329949945,0.170072526,0.684481859,-0.706672013,0.000540457,-0.000396899,0.008207717,0.231345803,-0.261537582,0.231617421,-0.758798957,0.177032858,0.111677989
0.334949374,0.169558227,0.686550736,-0.707827389,0.002648026,0.000545776,0.008005626,0.231537089,-0.261432469,0.231414765,-0.758797526,0.177054688,0.111677945
0.339949816,0.171389714,0.685280919,-0.709192872,0.002164474,-0.001243109,0.006611448,0.231649056,-0.261373907,0.231295496,-0.758796215,0.177062422,0.111677408
0.344951302,0.171810076,0.68395108,-0.708683789,0.002907364,0.000276257,0.00494438,0.2317352,-0.261328846,0.23120372,-0.758798003,0.177061647,0.111671194
0.3499479,0.170679167,0.685010731,-0.708665013,0.004303995,-0.002093736,0.006603428,0.23176375,-0.261313885,0.231173292,-0.758785188,0.177073449,0.111678191
0.354945272,0.170212373,0.683519006,-0.709346831,0.002341327,-0.001728174,0.005658011,0.231701106,-0.261270821,0.231267899,-0.758781791,0.177073807,0.111676872
0.359950066,0.169419676,0.687350273,-0.707202911,0.00307054,-0.002222863,0.007373326,0.231594995,-0.261224747,0.231418282,-0.758790612,0.177080452,0.111671351
0.364949763,0.170854181,0.685125411,-0.710001588,0.002585166,-0.000207728,0.007174081,0.231513351,-0.261189312,0.231534004,-0.758784652,0.177096725,0.111668982
0.369950205,0.171077833,0.686242998,-0.708414018,0.00390267,-0.002349983,0.004393886,0.231486276,-0.26117757,0.231572375,-0.758775592,0.177097097,0.111658074
0.37495169,0.170107529,0.685717583,-0.708971858,0.005316247,-0.002405613,0.005057145,0.231465459,-0.26116851,0.231601894,-0.758766234,0.177091897,0.111653782
0.379948288,0.170181111,0.686097562,-0.70958817,0.005460116,-0.002581978,0.005700268,0.231608704,-0.261321723,0.231507748,-0.75874871,0.177099466,0.111652412
0.384945929,0.169962943,0.686034739,-0.709599376,0.006728832,-0.002124731,0.006755867,0.231718913,-0.261439592,0.231435299,-0.758730471,0.177093834,0.111657582
0.389944315,0.170351103,0.685522795,-0.708557844,0.005527251,-0.001213276,0.006374202,0.231755465,-0.261478692,0.231411278,-0.758715808,0.177096963,0.111657202
0.394943744,0.169425443,0.685874522,-0.707647443,0.005695536,-0.001312731,0.006400045,0.231783584,-0.261508763,0.231392801,-0.75870347,0.177105993,0.111647688
0.399944186,0.168359369,0.684627771,-0.708446383,0.004371799,-0.001833657,0.00690155,0.231597155,-0.261542469,0.231536657,-0.75869453,0.177108049,0.111653209
0.40494591,0.170898169,0.684259951,-0.710105896,0.004622501,-0.003131221,0.005137911,0.23125577,-0.261592388,0.231799006,-0.758676589,0.177109569,0.111660138
0.409942538,0.170102507,0.684465587,-0.70866257,0.005422029,-0.004174853,0.005253058,0.231142581,-0.261608928,0.231885999,-0.758661151,0.17710717,0.111664347
0.414940149,0.169173375,0.68342334,-0.70949626,0.005330964,-0.002665957,0.005275798,0.231055483,-0.261621684,0.231952935,-0.758642435,0.177105427,0.111667454
0.419938564,0.168582574,0.684509158,-0.710795462,0.00544217,-0.001537263,0.007168185,0.231026605,-0.261625886,0.231975138,-0.758620441,0.177110493,0.111673273
0.424937993,0.169972599,0.685669541,-0.708546102,0.005192012,-0.002348356,0.005748192,0.231203705,-0.261836112,0.231922403,-0.758608997,0.177111179,0.111671723
0.429938436,0.171268314,0.685036063,-0.709639609,0.005371751,-0.002845859,0.004130641,0.231262431,-0.261905819,0.231904924,-0.758589923,0.177111059,0.111669689
0.434940159,0.170273378,0.685030878,-0.710289061,0.004896517,-0.000793499,0.005333835,0.231307611,-0.261959434,0.231891468,-0.758574069,0.177113429,0.111668937
0.439936757,0.169242576,0.685740232,-0.710300863,0.005832063,-0.002745286,0.005753967,0.231322601,-0.261977226,0.231887013,-0.758557439,0.177116513,0.111676119
0.444934398,0.16807875,0.685351491,-0.709740281,0.002183753,0.000600758,0.005809704,0.231434628,-0.262096316,0.231677264,-0.758562922,0.17712234,0.111671232
0.449932814,0.168552294,0.685397565,-0.707983732,0.003992148,-0.000895299,0.006926171,0.231496632,-0.262161881,0.231556639,-0.758551419,0.177134961,0.111668639
0.454932213,0.168319836,0.686310291,-0.707695842,0.001929114,-0.001604922,0.007371766,0.231544331,-0.262212336,0.23146385,-0.758554816,0.177139148,0.111676134
0.459932685,0.169389963,0.684220791,-0.708765984,0.00351913,-0.000562689,0.008102347,0.231560156,-0.262229055,0.231433079,-0.758546233,0.177153096,0.111686148
0.46493414,0.170904651,0.684465706,-0.70701313,0.004141442,0.000114441,0.008037283,0.231822729,-0.262132466,0.231286556,-0.758537233,0.177170634,0.111688375
0.469930738,0.171787336,0.68606931,-0.708700955,0.003520824,-0.00034765,0.007436648,0.232162297,-0.261990041,0.231114104,-0.758535624,0.177185625,0.111687429
0.474928379,0.170977637,0.684514582,-0.708448768,0.003956026,-0.001115117,0.007908275,0.232423574,-0.261880428,0.230981424,-0.758526325,0.177200675,0.111692414
0.479927033,0.169361949,0.685760975,-0.708251715,0.003841637,-7.91E-05,0.00780555,0.232510194,-0.261844099,0.230937421,-0.758522868,0.177219316,0.111690193
0.484926462,0.169153735,0.684492707,-0.708926201,0.004265944,0.000622725,0.007464791,0.232576862,-0.261816144,0.230903566,-0.758507252,0.17723082,0.111693062
0.489926904,0.169058248,0.685372412,-0.707774997,0.003147147,-0.000597221,0.00686709,0.231909096,-0.261840582,0.231317267,-0.758512199,0.177248821,0.111689053
0.494934529,0.168582797,0.683806479,-0.706790626,0.004548789,0.000391064,0.010638274,0.231395304,-0.261859387,0.231635571,-0.758500099,0.177276373,0.11170201
0.499937266,0.169929892,0.685070932,-0.708730102,0.004280261,0.000467663,0.009262358,0.231224924,-0.261865616,0.231741115,-0.758485019,0.177296966,0.111704186
0.504934907,0.169265628,0.684502125,-0.709078312,0.003445749,-0.00048269,0.008623751,0.231093839,-0.261870414,0.231822327,-0.758478642,0.177308947,0.111712061
0.509933293,0.170490563,0.684095204,-0.709112287,0.004734057,0.000588236,0.009480788,0.230824873,-0.261751741,0.231910631,-0.758461058,0.177339181,0.111714661
0.514932752,0.170921296,0.684953272,-0.708960593,0.003111951,-0.000765948,0.010711668,0.230389908,-0.261538833,0.232040629,-0.758460164,0.177361712,0.111717172
0.519933164,0.170745492,0.684331477,-0.710904956,0.002528943,-0.000273717,0.009460879,0.230245665,-0.261468232,0.232083738,-0.758448839,0.177388027,0.111724742
0.524934649,0.173475012,0.683184028,-0.708924532,0.002781317,-0.000188026,0.009690105,0.230134681,-0.261413902,0.232116908,-0.758440912,0.177417293,0.111728951
0.529931247,0.171693251,0.682907045,-0.708625257,0.003830426,0.000309833,0.008605805,0.23009789,-0.261395901,0.232127905,-0.758427978,0.177435726,0.111734666
0.53492862,0.171732754,0.682917297,-0.708382308,0.002171264,-0.001358855,0.00755035,0.230661944,-0.261533439,0.231580272,-0.75843358,0.177445009,0.11173787
0.539927065,0.170154721,0.685149133,-0.70812279,0.003148621,-0.002385798,0.008274854,0.230848968,-0.261579037,0.231398687,-0.758429766,0.177456155,0.111745216
0.544926465,0.169882104,0.685955226,-0.708287299,0.003019769,-0.000205133,0.009747531,0.230992869,-0.261614144,0.231258973,-0.758419514,0.177475348,0.111754701
0.549926639,0.16733858,0.68552798,-0.708121359,0.003639923,-0.001229071,0.008078231,0.231040597,-0.261625797,0.231212646,-0.75841397,0.177482739,0.111761294
0.554928124,0.169180349,0.686518908,-0.708519757,0.00519423,-0.002199391,0.009496118,0.231030911,-0.261837006,0.231180206,-0.758393645,0.17749463,0.11177855
0.559924483,0.169528127,0.685072541,-0.70836401,0.004593107,-0.001966874,0.009008984,0.231016219,-0.261957079,0.231170237,-0.758388877,0.177504018,0.111789942
0.564921856,0.169658974,0.687597275,-0.709511817,0.006112912,-0.001777562,0.010188098,0.231004909,-0.262049466,0.231162563,-0.758365512,0.17752488,0.111800961
0.569920242,0.169128031,0.687618196,-0.709427595,0.00754749,-0.001475539,0.009145794,0.231001154,-0.262080103,0.231160015,-0.758339286,0.177536786,0.111811794
0.574919701,0.16774103,0.687083364,-0.709462464,0.005086671,0.000264543,0.008574137,0.231190875,-0.261904448,0.231268793,-0.758327246,0.17754814,0.111819066
0.579920113,0.170133457,0.685848475,-0.709271014,0.007555831,-0.001513686,0.010970328,0.23144801,-0.261645287,0.231416523,-0.758299708,0.177572608,0.111835979
0.584921598,0.171489686,0.68456918,-0.710362494,0.004255867,-0.000293973,0.009093631,0.231645852,-0.26144591,0.231530204,-0.758281708,0.177592069,0.111844346
0.589918196,0.172003612,0.683885992,-0.708826423,0.004978823,0.001270505,0.010493984,0.231711447,-0.261379778,0.231567889,-0.758266687,0.177622616,0.111851797
0.594915569,0.170401782,0.684187949,-0.711303413,0.004367891,0.000663613,0.009702394,0.231761932,-0.261328936,0.231596887,-0.758253455,0.177653,0.111859448
0.599913955,0.169944882,0.686112881,-0.710109174,0.004503018,0.001519409,0.009381405,0.23158595,-0.261661559,0.231871158,-0.758241892,0.177683085,0.111861035
0.604913414,0.169524148,0.685785532,-0.710276902,0.004044334,-0.000195428,0.009788532,0.231450543,-0.261917472,0.232082188,-0.758230746,0.177704081,0.111871012
0.609913886,0.170000851,0.684544384,-0.708012998,0.004287642,0.000538959,0.010625092,0.231405646,-0.262002319,0.232152164,-0.758221626,0.177727893,0.111878477
0.614915609,0.170984641,0.685528636,-0.708644092,0.002442052,0.001530868,0.011545882,0.23137109,-0.262067586,0.232206002,-0.758219123,0.177758276,0.111885525
0.619912207,0.172407299,0.684999406,-0.708478689,0.002618152,-0.000276583,0.010240708,0.2312738,-0.261916131,0.232048452,-0.758213103,0.177789837,0.111889653
0.624909818,0.170799881,0.684865177,-0.707897425,0.003203231,0.000886838,0.011016369,0.231112167,-0.261624515,0.231749877,-0.758208573,0.177819088,0.111896284
0.629914343,0.16892533,0.68554461,-0.70881176,0.004234336,0.001196821,0.010621149,0.231058568,-0.261527807,0.231650874,-0.758198023,0.177841172,0.11190217
0.634913802,0.169778585,0.683974624,-0.708028972,0.005421042,-0.00118547,0.009158511,0.231017321,-0.26145339,0.231574699,-0.758175969,0.177855432,0.111913733
0.639914215,0.171416923,0.683998525,-0.709047794,0.004922104,6.01E-05,0.010887876,0.231003657,-0.261428714,0.231549457,-0.758162141,0.177889287,0.111925602
0.6449157,0.169166535,0.683835924,-0.709620774,0.006087652,-0.001214923,0.010814179,0.231254891,-0.261414826,0.231524989,-0.758135021,0.177907541,0.11194358
0.649912298,0.170929983,0.684579492,-0.709813297,0.00529673,-0.000643148,0.009116889,0.231338203,-0.261410207,0.231516883,-0.758118153,0.177931622,0.111950845
0.65490967,0.171073809,0.682507217,-0.710177004,0.006506287,-0.000111973,0.010438057,0.231402293,-0.26140666,0.231510639,-0.758090496,0.177956045,0.111961991
0.659908116,0.171077147,0.683968902,-0.711047411,0.005601642,0.000110117,0.012066213,0.231423542,-0.261405498,0.231508568,-0.758076549,0.177984819,0.11197453
0.664907515,0.172359511,0.684325755,-0.710946023,0.005248183,-0.001090555,0.010857405,0.23163873,-0.261511415,0.231350154,-0.758048534,0.178007334,0.111992739
0.669908226,0.171871588,0.684331417,-0.709148705,0.005356383,-4.75E-05,0.009747457,0.23175928,-0.261572987,0.23125881,-0.758032203,0.17802915,0.112003505
0.674909711,0.171138406,0.684021175,-0.709877431,0.005542428,-0.00090047,0.008618415,0.231852025,-0.261620343,0.231188536,-0.758011222,0.178046569,0.11201185
0.679906309,0.171992928,0.683557153,-0.708764911,0.004676145,-0.000512105,0.009480683,0.231882781,-0.261636049,0.23116523,-0.757998884,0.178068221,0.112021729
0.684903681,0.171347648,0.684596419,-0.708095014,0.004369598,-0.001844698,0.008739983,0.231709644,-0.261613339,0.231384203,-0.75798893,0.178081781,0.112035878
0.689902842,0.170008212,0.684529841,-0.708471477,0.003437549,-0.001069634,0.007881886,0.231453776,-0.261570752,0.231695697,-0.757980585,0.178088143,0.11203263
0.694902301,0.169225544,0.683386326,-0.70800209,0.003854307,-0.000774871,0.009800869,0.231256887,-0.261537969,0.231935367,-0.757965565,0.178106323,0.112038411
0.699902713,0.17035675,0.683981717,-0.709789693,0.00292046,0.000437271,0.009212223,0.231191605,-0.261527091,0.23201485,-0.757956147,0.178129807,0.112042263
0.704904199,0.169971332,0.68364346,-0.708396196,0.004845061,-0.001747006,0.00969113,0.231141374,-0.261518747,0.232075989,-0.757939577,0.17814967,0.112057664
0.709901035,0.170361623,0.684618711,-0.709620416,0.004104449,-0.000787705,0.010452666,0.230978265,-0.261565804,0.231894121,-0.75793314,0.178171009,0.112071455
0.714898407,0.170714393,0.684658468,-0.711340725,0.004647997,-0.002013195,0.010616134,0.230852768,-0.261602014,0.231754184,-0.757914066,0.17818442,0.112090893
0.719896853,0.169699937,0.683815718,-0.708769262,0.004064273,0.000927739,0.009784656,0.230811149,-0.261614025,0.231707782,-0.757904887,0.178215444,0.112095602
0.724896252,0.171546027,0.684214473,-0.710155368,0.004989679,0.000539646,0.009223098,0.230779126,-0.261623263,0.231672078,-0.757889569,0.178242162,0.11210677
0.729896724,0.171753436,0.684972763,-0.709666729,0.0028435,0.001931171,0.010242643,0.230907381,-0.261543274,0.231569052,-0.757883608,0.178276807,0.112113453
0.734898448,0.172413751,0.685566604,-0.709530532,0.003386765,0.001087071,0.009822642,0.231146455,-0.261397749,0.231397569,-0.757881522,0.178307936,0.112113297
0.739895046,0.170896068,0.686029315,-0.709248662,0.003591686,0.001062321,0.009273346,0.231225729,-0.261349499,0.231340706,-0.757875085,0.178328186,0.112113498
0.744893193,0.170111299,0.685127735,-0.709768474,0.002253351,0.001385629,0.010811324,0.231286719,-0.261312395,0.231296957,-0.757875085,0.178363115,0.112120762
0.749891579,0.170369238,0.683289766,-0.70951432,0.00184624,0.001079238,0.011911086,0.231306955,-0.261300057,0.231282443,-0.757868767,0.178395331,0.11213655
0.754890978,0.171509847,0.684266627,-0.71030736,0.0026995,0.000272693,0.010630595,0.230809599,-0.262023747,0.231221274,-0.75786221,0.1784233,0.112158895
0.75989145,0.169614837,0.684585929,-0.708967566,0.003060868,0.00090214,0.009165349,0.230644688,-0.262263685,0.231200993,-0.757857203,0.178445116,0.112173222
0.764899313,0.173129395,0.685209811,-0.70798111,0.00187372,0.000440302,0.011347971,0.230517805,-0.262448341,0.231185377,-0.757858753,0.178484127,0.112188406
0.76990205,0.171406507,0.684916019,-0.709494352,0.003757194,0.001338089,0.01123203,0.230475724,-0.262509555,0.231180206,-0.757851124,0.178517148,0.112200975
0.77489996,0.173621505,0.68470782,-0.709756851,0.002793253,-0.00028207,0.008973031,0.231030449,-0.262361526,0.231522337,-0.757844567,0.178541481,0.112208612
0.779898345,0.172268629,0.685002863,-0.710997164,0.002253311,0.000207835,0.008682592,0.231359661,-0.262264192,0.231721416,-0.757839262,0.178560719,0.112217166
0.784897804,0.17345503,0.68381381,-0.710867047,0.003457979,0.000363105,0.00869735,0.231612965,-0.262189299,0.2318746,-0.757835031,0.178584725,0.112221345
0.789898515,0.171690628,0.683327794,-0.709262848,0.002590724,-0.001398556,0.009803638,0.231696963,-0.262164474,0.231925398,-0.757830203,0.178609163,0.112236738
0.794900239,0.170846105,0.682737887,-0.708498418,0.002558986,-0.001597488,0.008518326,0.231509,-0.26205501,0.231851637,-0.757825136,0.17862393,0.11224588
0.799896836,0.170852497,0.682584286,-0.707759917,0.004454718,0.000914247,0.008987607,0.231191993,-0.261927605,0.231713384,-0.757807136,0.178649783,0.112250105
0.804894209,0.1721178,0.683751583,-0.709351361,0.003612776,0.000107007,0.0088125,0.230948061,-0.261829555,0.231607005,-0.757801175,0.178672373,0.112259254
0.809892595,0.173307404,0.686311007,-0.708997309,0.004240389,-0.000371812,0.008426047,0.230867192,-0.261797071,0.231571734,-0.757797599,0.178692579,0.11225874
0.814892054,0.171644181,0.684927702,-0.710034609,0.00290028,-0.002262856,0.009653336,0.230804965,-0.261772037,0.231544599,-0.757790387,0.178707063,0.112275429
0.819892466,0.170669794,0.685090542,-0.709199965,0.003483618,-0.000969312,0.009041588,0.230784178,-0.261811733,0.231844485,-0.75778687,0.178726777,0.112276889
0.824893951,0.174215272,0.685034454,-0.708236516,0.003255207,-0.00207805,0.008223422,0.230768189,-0.261842281,0.232075244,-0.757778943,0.178740025,0.112282902
0.829890788,0.173290327,0.684301615,-0.70768857,0.004949771,-0.000928593,0.007829305,0.230762884,-0.261852413,0.232151747,-0.757768571,0.178758651,0.112282574
0.83488822,0.171886891,0.683589399,-0.707271218,0.004622713,3.64E-05,0.008584409,0.230758801,-0.261860222,0.232210621,-0.757760823,0.178779051,0.112282328
0.839886844,0.172757223,0.684412062,-0.708796561,0.005348874,-0.000208353,0.006690064,0.230813071,-0.261835307,0.232199565,-0.757739723,0.178792238,0.112277135
0.844886243,0.170806944,0.683791757,-0.71051687,0.003688887,-0.001894262,0.007565034,0.230911046,-0.261788309,0.232160121,-0.757729948,0.178802297,0.112288646
0.849886715,0.171961635,0.683781326,-0.711926699,0.004997573,-0.003031905,0.007375166,0.230943531,-0.261772722,0.232147053,-0.75770843,0.178807884,0.112301134
0.854888678,0.17414555,0.684880733,-0.710682452,0.003368506,-0.002373203,0.00805996,0.230968535,-0.261760741,0.232136995,-0.757702887,0.178817749,0.112309679
0.85988605,0.170626864,0.68348527,-0.708544433,0.002631436,-0.001180612,0.005835025,0.23097682,-0.261756748,0.232133657,-0.757702231,0.178818405,0.112307049
0.864883482,0.171494037,0.684077501,-0.708832145,0.001504467,-0.003787418,0.00711601,0.23137641,-0.261698782,0.231576532,-0.757698178,0.178823113,0.112323813
0.869882107,0.171971411,0.683204532,-0.711301804,0.002498397,-0.003408907,0.006286543,0.231508896,-0.26167956,0.231391802,-0.757696688,0.17882739,0.112334438
0.874881566,0.172594368,0.681895375,-0.709493756,0.002826454,-0.001652023,0.00715789,0.231610849,-0.261664778,0.23124966,-0.757686436,0.17883341,0.112345517
0.879882216,0.171620458,0.683211029,-0.710701287,0.003521722,-0.001949718,0.006283542,0.231644645,-0.26165989,0.231202528,-0.757671058,0.178835794,0.112352818
0.884883702,0.171098143,0.68538332,-0.708587527,0.003767777,-0.002749467,0.004956455,0.231230438,-0.26189968,0.231383145,-0.757667243,0.178837895,0.112350605
0.8898803,0.172227904,0.686625779,-0.709889233,0.004797432,-0.00229807,0.006081623,0.230984151,-0.262039453,0.231496692,-0.757656753,0.178841174,0.112355776
0.89487797,0.172116369,0.686187625,-0.70957315,0.004055959,-0.002370895,0.005186301,0.230794653,-0.262147009,0.231584072,-0.757650018,0.17883487,0.112356201
0.899882257,0.171799153,0.686368406,-0.708852947,0.004029447,-0.003280507,0.005477422,0.230731815,-0.262182653,0.23161304,-0.757647038,0.178830191,0.112358674
0.904881895,0.170170248,0.686216772,-0.708209991,0.004653953,-0.002577508,0.005404848,0.230683699,-0.262238413,0.231693998,-0.757632971,0.17882818,0.112356164
0.909882367,0.171036676,0.684782326,-0.708283901,0.006188911,-0.004102922,0.004810462,0.230667993,-0.262285441,0.231780022,-0.757610261,0.178819284,0.112360038
0.91488409,0.172247872,0.684556663,-0.708890796,0.007039949,-0.003846903,0.004606562,0.230655894,-0.262321651,0.231846213,-0.757587194,0.178809017,0.112364598
0.919880986,0.171203226,0.684532821,-0.710728824,0.007206459,-0.003264559,0.002719288,0.230651885,-0.262333661,0.231868163,-0.757564902,0.17879656,0.112366252
0.924878597,0.171579599,0.68473953,-0.709437311,0.007161723,-0.00477845,0.005080734,0.230648816,-0.2623429,0.231885046,-0.757531881,0.178789213,0.112374887
0.929876983,0.172175065,0.684908926,-0.710973024,0.007007366,-0.003530817,0.002624417,0.230694339,-0.262192607,0.232093573,-0.757515907,0.178770721,0.112365708
0.934876442,0.1729545,0.684031248,-0.709859192,0.005418904,-0.005383739,0.002288562,0.230729356,-0.262076974,0.232253999,-0.75749898,0.178749844,0.112366095
0.939876854,0.172893062,0.685527623,-0.709662199,0.005925337,-0.005714924,0.00230611,0.230740964,-0.262038618,0.232307196,-0.757487893,0.178723305,0.112366684
0.944878578,0.17109704,0.68437022,-0.708181262,0.004503646,-0.005077187,0.001897161,0.23074989,-0.262009114,0.232348129,-0.757475376,0.178703889,0.112355568
0.949875176,0.169458807,0.685837328,-0.707278252,0.007116988,-0.004526392,0.001843735,0.230779693,-0.261913598,0.232331023,-0.757459521,0.178678453,0.112343885
0.954872847,0.169150651,0.684652567,-0.707667351,0.006581066,-0.004036909,0.002013525,0.230829775,-0.26175341,0.232286856,-0.757448435,0.178658858,0.112328634
0.959871233,0.168083146,0.685107827,-0.708257854,0.006905746,-0.003244837,0.002996544,0.230846375,-0.261700302,0.232272208,-0.757431924,0.178643808,0.112315632
0.96487093,0.168795288,0.685194433,-0.709665239,0.006630819,-0.003929246,0.002580517,0.230859146,-0.261659443,0.232260942,-0.757408321,0.178621888,0.112308748
0.969871342,0.168141752,0.684553802,-0.70816654,0.00734431,-0.002110766,0.002853727,0.230863392,-0.261645883,0.232257202,-0.75738585,0.178610608,0.112301067
0.974872828,0.170406088,0.685911179,-0.708654463,0.006167096,-0.00151324,0.006768177,0.230998084,-0.261639833,0.232046962,-0.75736928,0.178618163,0.112304114
0.979869425,0.170059234,0.685949624,-0.710171938,0.008120848,-0.002564395,0.005910973,0.231042743,-0.261637837,0.231977254,-0.757341504,0.178613976,0.112301156
0.984866798,0.171586901,0.686245799,-0.710318148,0.006966105,-0.002197029,0.007658051,0.23107712,-0.261636287,0.23192361,-0.757324755,0.178622961,0.112300754
0.989865482,0.170510039,0.685633242,-0.710460305,0.006029465,-0.000573521,0.006571663,0.231088504,-0.26163578,0.231905818,-0.757307172,0.17863369,0.112300359
0.994864881,0.170770988,0.685906231,-0.708427787,0.004870641,-0.00210099,0.007080983,0.23104845,-0.261684328,0.231996417,-0.757295787,0.17864044,0.112302415
0.999865353,0.172218025,0.685809851,-0.70876205,0.004896829,-0.001194421,0.006309695,0.231023103,-0.261712521,0.232052252,-0.757287145,0.178647697,0.11230275
1.004866838,0.171435326,0.683781981,-0.709569395,0.003827454,-0.000664636,0.008750821,0.231003582,-0.261734217,0.232095227,-0.757280111,0.17867206,0.112309217
1.009863377,0.172384933,0.684583604,-0.708605051,0.005104346,-0.00190898,0.006818498,0.230997115,-0.2617414,0.232109472,-0.757265925,0.178673372,0.11230927
1.014861107,0.171962366,0.683024287,-0.711012959,0.004032068,-0.000952198,0.007395227,0.230963841,-0.261827856,0.232676387,-0.757260144,0.178684756,0.11231079
1.019859672,0.173168644,0.682013631,-0.7111938,0.004375574,-0.002350374,0.006300602,0.230924293,-0.261938155,0.233424991,-0.757238686,0.178692117,0.112310968
1.024859428,0.173147529,0.68058157,-0.710863352,0.003968551,-0.001422701,0.005853393,0.23089385,-0.262023032,0.234000981,-0.75722754,0.178699121,0.112311237
1.029860139,0.175193727,0.682961166,-0.709799707,0.003269121,-0.004819605,0.004939653,0.230883747,-0.262051165,0.234191984,-0.757222533,0.178691581,0.112303212
1.034867764,0.173070461,0.68299067,-0.709594667,0.00220176,-0.003299735,0.003592316,0.230875984,-0.262072831,0.234338939,-0.757220089,0.178681225,0.11228735
1.039870739,0.174483925,0.680423319,-0.709928393,0.001380721,-0.005744422,0.001161331,0.230871856,-0.261784106,0.233407915,-0.75722146,0.178657636,0.112283401
1.044868588,0.176488459,0.680310726,-0.711109221,0.002273333,-0.007259711,0.000322639,0.230868682,-0.26156193,0.232691556,-0.75720793,0.178631917,0.112291105
1.049867272,0.174764097,0.681257188,-0.711105704,0.001135732,-0.008063719,-0.001334373,0.230867624,-0.261488259,0.232454032,-0.757213593,0.178594828,0.112287
1.05486691,0.174203649,0.681353807,-0.712071955,0.000346576,-0.00834179,-0.003211498,0.23086682,-0.261431605,0.232271269,-0.757220864,0.178547174,0.112277828
1.059867382,0.173531383,0.681260049,-0.710505247,0.000241959,-0.010089082,-0.005530426,0.23092337,-0.261471868,0.232181042,-0.757224858,0.178487763,0.112264805
1.064869165,0.173660889,0.683703601,-0.709753335,0.000247583,-0.009491949,-0.007181679,0.231024325,-0.261562526,0.232081681,-0.757236123,0.178419128,0.112242892
1.069865704,0.173721626,0.684789777,-0.710084438,0.001970951,-0.012602961,-0.008825555,0.231057808,-0.261592597,0.232048735,-0.757243752,0.178339303,0.112223238
1.074863315,0.172389388,0.684472501,-0.708749473,0.00240507,-0.008561323,-0.008349082,0.231083572,-0.261615723,0.232023388,-0.75724566,0.178269044,0.112193793
1.079861999,0.173887193,0.683970928,-0.709309459,0.002731076,-0.012183297,-0.009320114,0.23109211,-0.261623383,0.232014984,-0.757246137,0.178186134,0.112174578
1.084861398,0.171940997,0.685772359,-0.710631847,0.001697989,-0.010888522,-0.009814962,0.231296316,-0.261701882,0.231868923,-0.757252872,0.178100944,0.112152763
1.08986187,0.171771124,0.685162246,-0.708440006,0.00314348,-0.013428479,-0.01106329,0.231364027,-0.261727899,0.231820494,-0.757251024,0.178003907,0.11213088
1.094863653,0.171792388,0.684527278,-0.70949614,0.004750993,-0.011021573,-0.010080328,0.231416121,-0.261747897,0.231783226,-0.75724256,0.17791836,0.112105094
1.099860191,0.17027387,0.68664676,-0.710351169,0.00260272,-0.011205897,-0.010364954,0.231433392,-0.261754543,0.231770873,-0.757241666,0.17782627,0.112079896
1.104857802,0.17059803,0.687904358,-0.709958553,0.004705587,-0.010072228,-0.008125174,0.231250554,-0.261807114,0.231714323,-0.757239819,0.177748561,0.112047911
1.109856248,0.170561135,0.686937451,-0.709122121,0.002889179,-0.010922045,-0.008208144,0.231141403,-0.26183629,0.23168394,-0.757246315,0.177670509,0.112026572
1.114855886,0.167451933,0.685977697,-0.708448231,0.003720272,-0.008794084,-0.004146408,0.23105742,-0.261858732,0.23166056,-0.75724113,0.177603349,0.112016357
1.119856358,0.167731225,0.687917829,-0.709411025,0.003967525,-0.010709969,-0.003009643,0.23102957,-0.261866182,0.231652811,-0.757238388,0.177539349,0.11200314
1.124858141,0.168794021,0.686344266,-0.708680391,0.004617281,-0.008697126,-0.002472117,0.231006205,-0.261782974,0.231908515,-0.757234633,0.177485228,0.111992441
1.129854679,0.169403166,0.687860191,-0.708471477,0.004046845,-0.010207488,-0.001300914,0.23099649,-0.261665672,0.232257172,-0.757224441,0.177429557,0.11198476
1.134852409,0.170028597,0.686036766,-0.709345162,0.004412977,-0.009802965,-0.000160536,0.230989024,-0.261575431,0.232525453,-0.757217765,0.177388296,0.111985765
1.139850736,0.17503123,0.682144463,-0.712255239,0.004224747,-0.009296679,-0.002627079,0.23098655,-0.261545509,0.232614398,-0.757204711,0.177347645,0.111983716
1.144850373,0.177304983,0.677879274,-0.712578416,0.002743599,-0.010903567,-0.004015906,0.230984628,-0.261522502,0.232682839,-0.757191241,0.177293271,0.111992724
1.149850845,0.175766826,0.678683579,-0.713346481,0.001450216,-0.012016338,-0.007365823,0.230935037,-0.261466384,0.232346207,-0.757187724,0.177218884,0.111989759
1.15485239,0.173951373,0.679659605,-0.711054027,-0.000334282,-0.012965372,-0.009354272,0.23089689,-0.2614232,0.232087195,-0.757202983,0.17712906,0.111980215
1.159849167,0.173967749,0.68063575,-0.709632516,-0.002526333,-0.013257029,-0.009403489,0.230884239,-0.261408865,0.23200132,-0.757224679,0.177046746,0.111965172
1.164846539,0.174186751,0.680509865,-0.711016715,-0.003981877,-0.013308746,-0.013345974,0.230874509,-0.261397868,0.231935233,-0.757258415,0.176940769,0.111929551
1.169851184,0.172619402,0.679150522,-0.713842332,-0.006070371,-0.01535829,-0.014860527,0.230983943,-0.261454076,0.231911808,-0.757288814,0.176830709,0.111916028
1.174850821,0.170224667,0.683503628,-0.709122121,-0.005118484,-0.01551698,-0.016976271,0.231182069,-0.261557877,0.231892258,-0.757336199,0.176698402,0.11187654
1.179851532,0.171160221,0.683084667,-0.707996666,-0.003527555,-0.015420024,-0.019619277,0.231247768,-0.261592299,0.231885776,-0.757379413,0.176571339,0.111823469
1.184852958,0.171142966,0.682119966,-0.709646344,-0.006812858,-0.01582483,-0.019372173,0.231298327,-0.261618793,0.231880784,-0.757431149,0.176436797,0.111789629
1.189849854,0.168758705,0.684085846,-0.709337234,-0.006239793,-0.017323591,-0.021260705,0.231315091,-0.261627555,0.23187913,-0.757480383,0.176285997,0.111743994
1.194847941,0.166976199,0.686118245,-0.709350288,-0.006890354,-0.016445801,-0.019121215,0.231393054,-0.26163432,0.232013166,-0.757530808,0.176144272,0.111703567
1.199846625,0.168842524,0.686124504,-0.709631741,-0.006293079,-0.017507153,-0.019880334,0.231418908,-0.261636585,0.232057616,-0.757587492,0.176000923,0.111656919
1.204846025,0.167925715,0.684954047,-0.709384739,-0.007091735,-0.016353246,-0.019011449,0.231438786,-0.261638314,0.232091814,-0.757636905,0.175860435,0.111614741
1.209846735,0.167151719,0.686392367,-0.709896624,-0.008122537,-0.017349059,-0.017710295,0.231445372,-0.26163888,0.232103154,-0.757696986,0.175724879,0.111577086
1.21484828,0.167334735,0.689692974,-0.707684934,-0.005924879,-0.013941681,-0.017419862,0.23159492,-0.261389077,0.232003465,-0.757753611,0.175602436,0.111520238
1.219845176,0.167204231,0.689898014,-0.710351408,-0.005941314,-0.015635563,-0.01616835,0.231680244,-0.261244327,0.231943578,-0.757810414,0.175476119,0.111480698
1.224842548,0.167359218,0.690550625,-0.708636999,-0.003515745,-0.015850931,-0.013426298,0.231745899,-0.261132956,0.231897503,-0.757845461,0.175359547,0.111448593
1.229841113,0.164835975,0.692762315,-0.706016004,-0.003573629,-0.016388692,-0.011032109,0.231767669,-0.26109603,0.231882229,-0.757892251,0.175245896,0.11141672
1.234840631,0.163964495,0.693350673,-0.703303635,0.000153379,-0.014824325,-0.009267591,0.231953278,-0.261129379,0.231780335,-0.757921219,0.175139546,0.11137706
1.239840984,0.161635622,0.691575408,-0.710175037,0.000662019,-0.013880573,-0.004554639,0.232185081,-0.261202693,0.231655642,-0.757932603,0.175055772,0.11137557
1.244842768,0.161716178,0.688494325,-0.709608853,-8.66E-05,-0.012561617,-0.002246719,0.232363433,-0.261259079,0.231559724,-0.757942021,0.174995884,0.111382164
1.249839306,0.16374059,0.691029787,-0.70783627,0.000663672,-0.009674614,0.00112647,0.232422575,-0.261277765,0.23152791,-0.757954657,0.174946249,0.111374594
1.254837036,0.160503849,0.692400813,-0.708231509,0.002504175,-0.007804452,0.002434012,0.232468084,-0.261292189,0.231503442,-0.757963002,0.174902543,0.11137072
1.259835362,0.161705002,0.693284392,-0.709582627,0.003864107,-0.008425753,0.005818652,0.231990576,-0.261286974,0.231556177,-0.757962108,0.174877733,0.111387789
1.264834762,0.161911726,0.692392826,-0.708748102,0.005273609,-0.004269637,0.010816853,0.231623173,-0.261282951,0.231596753,-0.757951379,0.174879476,0.111405022
1.269835234,0.159809828,0.690906346,-0.708582401,0.005620016,-0.003259056,0.011976006,0.231501341,-0.261281639,0.231610209,-0.757938802,0.174884453,0.111429259
1.274837017,0.161597654,0.689724922,-0.707520783,0.006560604,-0.003128177,0.015811875,0.231407598,-0.261280596,0.231620565,-0.75792098,0.174908593,0.111460038
1.279833555,0.163970456,0.687877357,-0.708523095,0.004143048,-0.001252877,0.016119696,0.231627226,-0.261199385,0.231530651,-0.757905841,0.174944371,0.111490257
1.284831524,0.165905818,0.684213698,-0.709159255,0.00138117,-0.001176314,0.016349139,0.232049748,-0.261055082,0.231367096,-0.757899284,0.174981073,0.11153058
1.289830446,0.170996949,0.678178966,-0.716520071,-0.003341841,0.001590832,0.014996358,0.232189849,-0.26100722,0.231312856,-0.757909417,0.175036609,0.111569308
1.294830084,0.171594277,0.677434325,-0.71604985,-0.006610116,0.000114508,0.013578065,0.232297644,-0.260970384,0.231271118,-0.757929921,0.175080955,0.111607395
1.299830556,0.167855188,0.684471846,-0.710482419,-0.005883208,0.00030205,0.011468624,0.232333392,-0.260958195,0.23125729,-0.757975698,0.175111562,0.111616902
1.304838419,0.163504735,0.688493609,-0.70514971,-0.004337776,-0.000178906,0.014438498,0.232036516,-0.261209428,0.231597349,-0.758014798,0.175138518,0.111629263
1.309841156,0.162749931,0.688762963,-0.70576781,-0.002904487,0.00080886,0.013361589,0.231938079,-0.261292726,0.231710106,-0.758043408,0.175168157,0.1116319
1.314839005,0.164097533,0.685322285,-0.709571958,-0.001413842,0.000402026,0.013759945,0.231862336,-0.261356801,0.231796876,-0.758052468,0.175202772,0.111660898
1.319837451,0.169025078,0.682479024,-0.711113632,-0.000409291,-0.00097421,0.013299943,0.231837228,-0.26137805,0.231825635,-0.758056343,0.175237626,0.111686528
1.32483685,0.170273498,0.679736555,-0.710376918,-0.001405815,-0.001425608,0.013021676,0.231866017,-0.261294723,0.231742933,-0.758061707,0.175274223,0.111717731
1.329837561,0.172068715,0.678499877,-0.7129426,-0.003217726,-0.00187397,0.012032016,0.231887475,-0.26124239,0.231689557,-0.758071542,0.175307751,0.111754633
1.334838986,0.172593877,0.681197226,-0.713352799,-0.003692731,-0.002202415,0.011353497,0.23190397,-0.261202157,0.23164849,-0.758084953,0.175333411,0.111783244
1.339835882,0.174337044,0.68239361,-0.714582741,-0.007572835,-0.003080453,0.012957936,0.231909454,-0.261188805,0.23163487,-0.758126318,0.175362483,0.111824758
1.344833493,0.173438326,0.68342787,-0.711754978,-0.007698402,-0.005908671,0.011114185,0.232054055,-0.26121062,0.231563658,-0.758173287,0.175373554,0.111860044
1.349832177,0.169038966,0.686048329,-0.71192497,-0.00837413,-0.007549149,0.012813447,0.232243568,-0.261250198,0.231478795,-0.758216321,0.175382882,0.111897886
1.354831576,0.1680042,0.690819442,-0.709290862,-0.009993738,-0.006042575,0.013615591,0.23238939,-0.261280656,0.231413513,-0.758285522,0.175399169,0.111932814
1.359832287,0.166828677,0.689882636,-0.706046879,-0.008929278,-0.0060193,0.01599369,0.232437745,-0.261290759,0.231391862,-0.758333445,0.1754134,0.111967862
1.364833832,0.168780938,0.688635528,-0.704887271,-0.005294676,-0.00637167,0.015832078,0.232474953,-0.261298537,0.231375203,-0.758369505,0.175439626,0.112011082
1.369830608,0.171454385,0.690794408,-0.705067933,-0.001430342,-0.007475047,0.019380415,0.232441187,-0.261455864,0.231012613,-0.758384883,0.175477564,0.112063304
1.374828339,0.171734154,0.688645303,-0.707279205,0.000497067,-0.007833054,0.018129347,0.232415199,-0.261576921,0.230733618,-0.758384109,0.175504312,0.112127185
1.379826903,0.170570865,0.690062463,-0.705126703,0.002651159,-0.005838375,0.020252977,0.232406586,-0.261617064,0.230641097,-0.758378327,0.175545841,0.112182774
1.384826422,0.166317433,0.690572858,-0.70720309,0.005505339,-0.007058942,0.019600181,0.232399955,-0.26164794,0.230569929,-0.758357048,0.175571933,0.112251155
1.389827013,0.164264038,0.690278232,-0.708223999,0.007480337,-0.007288209,0.023204666,0.232397988,-0.261714011,0.230751231,-0.758319438,0.175608948,0.11232686
1.394828796,0.165811896,0.688378811,-0.707933307,0.009337174,-0.006330763,0.022708349,0.232396722,-0.26182133,0.231097922,-0.75827378,0.175646931,0.112405449
1.399825692,0.168433875,0.685648382,-0.709845781,0.011178941,-0.008129933,0.024210066,0.232396305,-0.261856914,0.231212884,-0.75820905,0.175692901,0.112492912
1.404823303,0.170202032,0.683510363,-0.7113657,0.0109495,-0.007746095,0.023223976,0.232395992,-0.261884272,0.231301337,-0.758146048,0.175738394,0.112584569
1.409821749,0.170026615,0.682651401,-0.712357163,0.00952048,-0.0094792,0.022787526,0.232395887,-0.261893332,0.231330678,-0.758088231,0.175767362,0.11268831
1.414821386,0.172159597,0.680105984,-0.711488664,0.008223673,-0.008586557,0.021229493,0.232133672,-0.261829644,0.231152669,-0.75803566,0.175808087,0.11277806
1.419821858,0.1733879,0.678667426,-0.713927329,0.004535271,-0.013103249,0.020222781,0.232046723,-0.261808515,0.231093645,-0.757994413,0.175822288,0.112886854
1.424823284,0.173757538,0.684252024,-0.710060596,0.003947964,-0.01210309,0.018148107,0.231979817,-0.261792272,0.231048241,-0.75797379,0.175842434,0.112966456
1.429819942,0.167298794,0.689034224,-0.707593203,0.004956611,-0.012748366,0.016748428,0.231957644,-0.261786878,0.231033176,-0.757955432,0.175832003,0.113032132
1.434817553,0.162159547,0.692066908,-0.707705617,0.005799867,-0.012536835,0.019318147,0.231841236,-0.261729538,0.231074303,-0.757935166,0.175835371,0.113102689
1.439822078,0.161723897,0.689484537,-0.709518254,0.007071828,-0.010642096,0.020263385,0.231778055,-0.261697382,0.231100991,-0.757897377,0.175841242,0.113185845
1.444821715,0.166783065,0.688141584,-0.711640477,0.008253647,-0.008987075,0.023656037,0.231729433,-0.261672616,0.231121525,-0.757844627,0.175875232,0.113280483
1.449822187,0.17113784,0.688869894,-0.708032191,0.00991577,-0.009734725,0.021930452,0.23171331,-0.26166442,0.23112832,-0.757800221,0.175912589,0.113351777
1.454823971,0.167546391,0.689865708,-0.705654263,0.013986487,-0.010558842,0.022045566,0.231755778,-0.261600673,0.231219396,-0.757739723,0.175935,0.113429017
1.459820509,0.167039767,0.687867403,-0.709275723,0.013279619,-0.010639858,0.0228734,0.231825203,-0.261521637,0.231336147,-0.757670701,0.175963759,0.113516651
1.46481812,0.164429158,0.68475008,-0.711588681,0.010599649,-0.010660982,0.025189973,0.231878623,-0.261460811,0.231425986,-0.757611811,0.175993562,0.113625459
1.469816566,0.168129951,0.682990015,-0.713663459,0.009540265,-0.009092549,0.028146451,0.231896341,-0.261440665,0.231455773,-0.757544816,0.17604959,0.113742217
1.474816203,0.169537932,0.685896277,-0.708956003,0.010046061,-0.010274945,0.028844247,0.231909961,-0.261425138,0.231478691,-0.757494926,0.176100954,0.113851324
1.479816914,0.174650595,0.68707782,-0.708777189,0.007284129,-0.008030824,0.02922952,0.23186709,-0.261522055,0.231334195,-0.757460713,0.176169008,0.113945298
1.484818697,0.173574105,0.686672986,-0.707294166,0.009359133,-0.007842975,0.029283147,0.231834099,-0.26159665,0.231223017,-0.757413149,0.176234722,0.11404781
1.489815354,0.171671957,0.686143994,-0.707863867,0.01080911,-0.009556943,0.028232116,0.231823161,-0.261621386,0.231186152,-0.757348657,0.176291898,0.114153944
1.494812727,0.172866166,0.686822355,-0.70793283,0.013381178,-0.009890625,0.026997076,0.231814742,-0.261640429,0.23115778,-0.757283151,0.176346228,0.114248604
1.499811292,0.175891072,0.692027867,-0.705594957,0.017983522,-0.008977114,0.025724038,0.23195307,-0.261736244,0.231117472,-0.757207632,0.176401004,0.114325501
1.50481081,0.172882959,0.692532063,-0.701732218,0.021692179,-0.009263428,0.024726061,0.232202202,-0.261900485,0.2310552,-0.757107317,0.176450282,0.114394531
1.509811401,0.171302438,0.691575527,-0.703083456,0.027129617,-0.010296023,0.025823984,0.232284814,-0.261954963,0.231034547,-0.756975114,0.176496446,0.11447534
1.514812946,0.167766288,0.691073477,-0.705743909,0.03306533,-0.01049197,0.02663601,0.232348368,-0.261996865,0.231018648,-0.756809592,0.176529884,0.114571959
1.519809842,0.166474923,0.691057146,-0.703334391,0.03860512,-0.009951362,0.026521221,0.232369438,-0.262010753,0.231013373,-0.756610155,0.176574752,0.11466036
1.524807215,0.164268732,0.692602336,-0.702101052,0.044613466,-0.008877462,0.028249364,0.231666967,-0.262140036,0.231297791,-0.756400585,0.176613718,0.114742994
1.529805779,0.16382876,0.696095586,-0.700517058,0.054513492,-0.00906251,0.028962256,0.231434032,-0.262182921,0.2313921,-0.756137073,0.176660895,0.114816569
1.534805536,0.16399157,0.696063757,-0.70094347,0.06148627,-0.011299079,0.030032694,0.231254816,-0.262215912,0.231464669,-0.755844593,0.17670317,0.114909515
1.539806247,0.16275315,0.688076496,-0.706439316,0.065640412,-0.009622803,0.032358114,0.23119539,-0.26222682,0.231488734,-0.755503237,0.176752836,0.115028501
1.544807673,0.167767689,0.682166219,-0.714318573,0.065277718,-0.010099414,0.032271966,0.23119621,-0.262081891,0.231710166,-0.755156696,0.176813677,0.115170367
1.54980433,0.172382116,0.682151198,-0.713757038,0.066471353,-0.010071233,0.030360246,0.231207997,-0.261995882,0.231833786,-0.754804313,0.176880077,0.11530374
1.554801702,0.166715205,0.684319913,-0.710328043,0.066779532,-0.009417377,0.030245693,0.231217071,-0.261929721,0.231928915,-0.754465938,0.176928014,0.115410231
1.559800267,0.166068166,0.680713713,-0.714427471,0.065824091,-0.008596474,0.030823248,0.231220081,-0.261907786,0.231960461,-0.75412178,0.176989585,0.115526676
1.564799786,0.173100322,0.676187277,-0.714807093,0.06512101,-0.010625167,0.029367398,0.231557339,-0.261840224,0.231919289,-0.753768921,0.17704685,0.115661711
1.569806576,0.17106773,0.680218518,-0.710651159,0.06506405,-0.011138442,0.026640533,0.232006907,-0.261766702,0.231839627,-0.753440559,0.177087247,0.115765542
1.574808359,0.169771001,0.674689114,-0.71505022,0.063923478,-0.011274586,0.029087186,0.232352838,-0.261710137,0.231778324,-0.753100276,0.177135289,0.115891658
1.579805136,0.175981671,0.666194379,-0.718895972,0.063808374,-0.013433789,0.028041545,0.232467532,-0.261691391,0.231758013,-0.752736926,0.177187175,0.116057895
1.584803104,0.179086357,0.671754301,-0.714872003,0.059693873,-0.013453915,0.022126134,0.232555792,-0.261676967,0.231742382,-0.752423525,0.177220806,0.116176754
1.589801431,0.176236674,0.678007364,-0.711823642,0.06125205,-0.013673268,0.020465853,0.231943011,-0.261556804,0.231902525,-0.752115607,0.177237004,0.116262197
1.594801188,0.172063753,0.677789927,-0.71346885,0.062340189,-0.014930774,0.019022066,0.231471509,-0.261464328,0.232025743,-0.751791477,0.17722553,0.116358653
1.59980166,0.169208467,0.680082798,-0.715688765,0.062899537,-0.016407792,0.01585841,0.231315166,-0.261433661,0.232066602,-0.751471996,0.177211985,0.116450794
1.604803324,0.168587655,0.685483038,-0.712007046,0.062019542,-0.015311161,0.015176141,0.231194869,-0.261410087,0.232098043,-0.751169145,0.177195683,0.116517797
1.609799981,0.164304793,0.687548518,-0.712153375,0.063877918,-0.012321436,0.016177718,0.231181413,-0.261315167,0.232223704,-0.750863075,0.177176431,0.116582654
1.614797592,0.165105969,0.688117385,-0.711979449,0.065038517,-0.011686249,0.017400337,0.231197789,-0.261154085,0.232436925,-0.750542939,0.177180767,0.116648592
1.619795918,0.158181518,0.694075823,-0.709632635,0.071467072,-0.010738393,0.019375227,0.231203228,-0.26110068,0.232507616,-0.750208676,0.177172467,0.11670465
1.624795675,0.156141371,0.693435669,-0.710611761,0.074284896,-0.007296324,0.023576718,0.231207401,-0.261059612,0.232562006,-0.749863029,0.177199528,0.116760671
1.629796147,0.163175836,0.687145472,-0.713558018,0.073517404,-0.005833621,0.025501661,0.231208786,-0.261045963,0.232580051,-0.749492109,0.177248344,0.116844282
1.63479805,0.165177941,0.685751796,-0.714901209,0.075685285,-0.004152196,0.028572092,0.231274903,-0.261035502,0.232729241,-0.749110937,0.177317902,0.116933919
1.639794946,0.165823221,0.678008258,-0.716533482,0.074716143,-0.002246264,0.027696662,0.231296837,-0.261032045,0.232778713,-0.748731971,0.177392498,0.117022827
1.644792557,0.16983667,0.674077809,-0.718865991,0.07302139,-0.001698432,0.024521554,0.231313705,-0.261029392,0.232816771,-0.748356342,0.177461773,0.117108986
1.649791002,0.16714175,0.675676465,-0.718059659,0.068936676,-0.000918066,0.023755042,0.231319293,-0.261028498,0.232829392,-0.74801296,0.177519128,0.117178403
1.65479064,0.163771912,0.677735746,-0.716912627,0.067787431,0.000560554,0.022133121,0.231272072,-0.260922432,0.233147249,-0.747678041,0.177574739,0.11723306
1.65979135,0.161748037,0.679347813,-0.718877196,0.06566117,0.002639194,0.021620119,0.23124367,-0.260861188,0.233328894,-0.747356534,0.177625746,0.11728701
1.664792776,0.156986818,0.677067757,-0.718786716,0.063915581,0.002154405,0.025215447,0.23122181,-0.260814071,0.233468652,-0.747027934,0.177680597,0.117354728
1.669789672,0.154235333,0.684065521,-0.715701401,0.065275282,0.00506285,0.027849006,0.231214568,-0.260798424,0.233514994,-0.74671638,0.177759588,0.117400669
1.674787045,0.154974952,0.686290324,-0.712289393,0.066022001,0.007114658,0.031361651,0.231404334,-0.260788888,0.23369281,-0.746400356,0.17785646,0.117453866
1.679785728,0.158328101,0.683582366,-0.716780186,0.066264525,0.00723538,0.034511171,0.231664255,-0.260788202,0.233895108,-0.746070147,0.177971035,0.117522627
1.684785128,0.162662119,0.680427015,-0.720863581,0.064990692,0.009216656,0.039221298,0.231864244,-0.260787636,0.234050766,-0.745740592,0.178114697,0.117614597
1.689785838,0.167563394,0.677909315,-0.723353267,0.064242803,0.010351541,0.040465865,0.231930554,-0.260787457,0.234102383,-0.745407581,0.178280026,0.117710508
1.694787383,0.171082944,0.680613399,-0.723222733,0.062998533,0.013739239,0.040042896,0.23198159,-0.260787338,0.234142095,-0.74509573,0.178453475,0.117782272
1.69978416,0.173548654,0.682348609,-0.722396195,0.063018739,0.014370054,0.0408388,0.231407136,-0.260774434,0.23432079,-0.744781315,0.178633839,0.117853656
1.704787731,0.178750321,0.683338106,-0.720836282,0.06518051,0.013009839,0.038555048,0.230965137,-0.260764509,0.234458268,-0.744462192,0.178810641,0.117918104
1.709786415,0.182411119,0.682747424,-0.722200453,0.065104999,0.013524036,0.035998598,0.23081857,-0.260761201,0.23450385,-0.744138122,0.178983063,0.117959119
1.714785814,0.186622828,0.681913078,-0.722833574,0.068031199,0.012499347,0.031729385,0.230705798,-0.260758668,0.234538928,-0.743804276,0.179146141,0.118009865
1.719786525,0.191138148,0.678056419,-0.722465813,0.071068734,0.010334918,0.024573497,0.230583057,-0.260641336,0.234492525,-0.743454099,0.179288074,0.118031822
1.724788189,0.193544284,0.67826432,-0.721338868,0.073248394,0.010272461,0.020166952,0.230402336,-0.260433286,0.234398156,-0.743100166,0.179419786,0.118040115
1.729785085,0.194065765,0.677837372,-0.720693171,0.075937949,0.007843448,0.013929179,0.230342403,-0.260364294,0.234366864,-0.742734551,0.179513767,0.118029214
1.734782696,0.191958338,0.673362792,-0.721778154,0.080712907,0.007286667,0.009645326,0.230296299,-0.260311216,0.234342784,-0.742338777,0.179583758,0.118017033
1.73978138,0.187854916,0.66860342,-0.7228387,0.082956322,-0.001102467,0.004563734,0.23028101,-0.260293633,0.234334797,-0.741928816,0.1795948,0.118027523
1.744780779,0.183887452,0.664474308,-0.725122631,0.08272884,-0.000835419,0.004528522,0.230530024,-0.26028201,0.234665036,-0.741507173,0.179623872,0.118038774
1.749781251,0.17541118,0.662501693,-0.727900445,0.079167835,-0.004233489,0.000234105,0.230612606,-0.260278165,0.234774545,-0.741096258,0.179594979,0.118058607
1.754783034,0.163499027,0.66394192,-0.725289643,0.07631062,-0.005691605,0.00467874,0.230676144,-0.260275185,0.234858811,-0.740711868,0.17955862,0.118102297
1.759779572,0.15948981,0.663780093,-0.726729453,0.071281731,-0.003519983,0.009167306,0.230697215,-0.260274202,0.234886751,-0.740346313,0.179542288,0.118146263
1.764777184,0.160293907,0.661928833,-0.727842808,0.062988482,-0.001800294,0.015607838,0.230758965,-0.260068357,0.235213384,-0.740015268,0.179565564,0.11821717
1.769775867,0.151258439,0.659915388,-0.733655214,0.054054234,-0.002496824,0.026091993,0.230790719,-0.259949356,0.23539719,-0.739719331,0.179595798,0.118340179
1.774775505,0.153919399,0.661474764,-0.734337866,0.042859007,-0.000235038,0.036733981,0.230815142,-0.259857804,0.235538617,-0.739472806,0.179682806,0.118492015
1.779776216,0.151952446,0.669197142,-0.739866972,0.029493367,-8.52E-05,0.054575562,0.230823249,-0.259827435,0.235585511,-0.739291191,0.179828838,0.118697755
1.784777999,0.128234327,0.681317806,-0.755171776,-0.005382427,-0.023884457,0.102219388,0.230660632,-0.25974232,0.235711724,-0.739221156,0.179994494,0.119160876
1.789774537,0.100994997,0.673238039,-0.769225657,-0.061168544,-0.095010102,0.196056917,0.230436444,-0.25965184,0.235844448,-0.739335895,0.180147111,0.120337911
1.794772267,0.09858457,0.669317424,-0.730447531,-0.084166765,-0.108445793,0.276564389,0.230263948,-0.259582251,0.235946581,-0.739525259,0.180554017,0.121852532
1.799770832,0.09694615,0.696553707,-0.750208616,-0.124360077,-0.11514321,0.349684924,0.230206743,-0.259559155,0.235980451,-0.739867926,0.181206271,0.12350899
1.804770827,0.059652638,0.678691566,-0.790754676,-0.207996055,-0.186800346,0.494451821,0.23016274,-0.259541392,0.236006513,-0.740410507,0.18196936,0.12616457
1.809771299,0.044756282,0.68109858,-0.748838603,-0.295121342,-0.212635353,0.645397723,0.229617551,-0.260288507,0.235879824,-0.741361916,0.183157116,0.129464403
1.814772964,0.032551363,0.717274427,-0.739332676,-0.375796556,-0.206126556,0.772215962,0.229198053,-0.260863334,0.23578234,-0.74269563,0.184821025,0.133076265
1.819769859,0.030295109,0.755098939,-0.768364012,-0.467407107,-0.214560926,0.862797201,0.229058951,-0.26105395,0.23575002,-0.744394302,0.186726883,0.137017995
1.82476747,0.039432496,0.758390188,-0.792165875,-0.59709543,-0.203437805,0.934137225,0.228951931,-0.261200607,0.23572515,-0.746687531,0.188882917,0.141250446
1.829766154,0.03836425,0.732301474,-0.843052268,-0.743233323,-0.186861619,1.026085496,0.228346795,-0.262286663,0.234630764,-0.749568284,0.19147867,0.145850345
1.834765792,0.01624381,0.686537921,-0.890336215,-0.914131641,-0.131372288,1.075610161,0.227305189,-0.264171273,0.232690454,-0.753127694,0.194325343,0.15060319
1.839772463,0.093755625,0.564864635,-0.960519612,-1.170590758,-0.044091895,1.214972734,0.22695981,-0.264796168,0.232047081,-0.757758975,0.198180407,0.155773461
1.844774127,0.066957191,0.676648021,-0.972019851,-1.257156491,0.079996362,1.470199585,0.226694047,-0.265276998,0.23155205,-0.762947142,0.203435734,0.161335602
1.849771023,0.048474588,0.86187011,-0.884252489,-1.211391926,0.157308996,1.711997986,0.226605937,-0.265436441,0.231387913,-0.76788342,0.209742635,0.167027444
1.854768634,0.086221829,0.973503768,-0.841488123,-1.269738555,0.206582502,1.930099964,0.222762927,-0.27091831,0.227776408,-0.773090065,0.217076927,0.173123419
1.859767318,0.108934656,1.087479234,-0.834130943,-1.2628901,0.20928444,2.178380966,0.221488655,-0.272736013,0.226578891,-0.778254271,0.225259751,0.180007383
1.864766717,0.04429343,1.189437628,-0.774701178,-1.189942598,0.236528143,2.372836828,0.220508188,-0.274134576,0.225657493,-0.782885432,0.234072626,0.18726857
1.869767427,0.033401102,1.270973682,-0.749309123,-1.114395618,0.338443607,2.509060144,0.220183074,-0.27459833,0.225351974,-0.787171066,0.243754283,0.194399774
1.874769211,-0.043927342,1.257042885,-0.778361499,-1.06061542,0.45425415,2.609793186,0.214998826,-0.280627131,0.222193629,-0.791069031,0.254067034,0.201585665
1.879765987,-0.118691579,1.252771497,-0.817592204,-0.9398036,0.548735499,2.665834427,0.212058872,-0.284029692,0.220423013,-0.794253588,0.264755607,0.20870629
1.884763598,-0.183465853,1.385034204,-0.868844748,-0.785413802,0.62889415,2.656843901,0.209796771,-0.286647737,0.219060645,-0.796777844,0.275518358,0.215403691
1.889762282,-0.207180142,1.610868216,-1.009230375,-0.513466239,0.661522985,2.539698839,0.209046707,-0.287515819,0.218608916,-0.798104465,0.285763085,0.221359864
1.894761682,-0.299558163,1.814294457,-1.12220192,-0.158378124,0.60081166,2.295977831,0.203292474,-0.291695327,0.217701316,-0.797768474,0.294518113,0.226622492
1.899762392,-0.466031253,1.853461623,-1.164496779,0.192846909,0.531143308,1.991788149,0.196163923,-0.296622247,0.216835648,-0.795814216,0.301505625,0.231174439
1.904764175,-0.680914998,1.693139315,-1.149659157,0.485640854,0.463264376,1.696938634,0.190678999,-0.300413191,0.216169581,-0.792416334,0.30686307,0.235239789
1.909761071,-0.899537444,1.413876176,-1.096029758,0.679625869,0.404448539,1.464639664,0.188860297,-0.301670194,0.215948716,-0.787949085,0.310978442,0.239170864
1.914758682,-1.088203907,1.119319797,-1.028081536,0.741393149,0.362628937,1.295593619,0.187460929,-0.302637368,0.215778798,-0.783115804,0.314209491,0.243075982
1.919757366,-1.23978591,0.875286937,-0.976758778,0.692229271,0.319544584,1.182426333,0.178860843,-0.305689692,0.216579542,-0.778450489,0.316789806,0.247168243
1.924757004,-1.345705032,0.69955498,-0.95206368,0.559682548,0.266400307,1.109238505,0.172243685,-0.308038235,0.217195675,-0.774380386,0.318854213,0.251483381
1.929757476,-1.426254749,0.616208255,-0.953973949,0.4038378,0.182134777,1.056097984,0.170049563,-0.308816969,0.21739997,-0.771011412,0.320350409,0.256109446
1.93475914,-1.491607428,0.603896201,-0.949892938,0.252034426,0.082683653,0.995344341,0.168361336,-0.309416145,0.217557162,-0.768377602,0.321138501,0.260944843
1.939755797,-1.531960964,0.632418215,-0.975515425,0.139265046,-0.041568726,0.907811105,0.164640322,-0.309687555,0.218809679,-0.766265869,0.321082294,0.265929252
1.944753408,-1.549607158,0.666249752,-0.998647332,0.070804335,-0.200350896,0.786547542,0.15858075,-0.309969902,0.220987186,-0.764446676,0.319951653,0.271044493
1.949752092,-1.561148167,0.669042528,-1.023663402,0.027419977,-0.37521255,0.641041219,0.156571507,-0.310063511,0.221709207,-0.762771428,0.317631781,0.276292264
1.95475173,-1.563812852,0.647909224,-1.038978338,-0.003007288,-0.564954579,0.472876698,0.155025542,-0.310135543,0.222264752,-0.761166692,0.314006656,0.28168875
1.95975244,-1.562162042,0.607205331,-1.049491048,-0.04366798,-0.749612331,0.302398354,0.154512912,-0.310159415,0.22244896,-0.759721518,0.30913347,0.287177742
1.964754224,-1.553973556,0.564364314,-1.052616358,-0.091296397,-0.925051689,0.136078715,0.149276435,-0.310021013,0.222204953,-0.758487046,0.303071856,0.292761266
1.969751,-1.537717104,0.53454417,-1.051063299,-0.139112547,-1.090000987,-0.01787143,0.147540107,-0.309975088,0.222124055,-0.757492244,0.295938134,0.298385531
1.97475481,-1.519679189,0.517775714,-1.040919065,-0.177620858,-1.22707355,-0.159274802,0.146204129,-0.309939802,0.222061783,-0.756745517,0.28787452,0.303948224
1.979753494,-1.501151681,0.513779342,-1.019193172,-0.189175501,-1.344665289,-0.290539086,0.145761147,-0.309928089,0.222041145,-0.756120503,0.278995186,0.309394836
1.984753132,-1.478026032,0.502326608,-0.99492842,-0.184462205,-1.424533367,-0.407252431,0.144080728,-0.308891356,0.220497936,-0.755559325,0.269487828,0.314645529
1.989753842,-1.450133085,0.49607107,-0.987014592,-0.168270677,-1.475713849,-0.511529088,0.143192053,-0.308293283,0.219608292,-0.754995584,0.259526879,0.319649726
1.994755864,-1.409753442,0.494998425,-0.986568749,-0.152429104,-1.508463264,-0.611362219,0.142508283,-0.307833105,0.218923762,-0.754445136,0.249190167,0.324376881
1.99975276,-1.359127522,0.486196548,-0.999373913,-0.148877501,-1.527871728,-0.70381546,0.142281562,-0.307680517,0.218696788,-0.753957331,0.238588974,0.328810096
2.00475049,-1.295547128,0.493207306,-1.022798061,-0.152335301,-1.548855186,-0.797889054,0.142934769,-0.30652383,0.217181027,-0.7535761,0.22769317,0.332958281
2.009749174,-1.231149316,0.509049118,-1.046450973,-0.165664598,-1.564825296,-0.894830525,0.143985972,-0.305092335,0.215326041,-0.753356338,0.216521561,0.336766094
2.014748573,-1.173383951,0.534563303,-1.069731116,-0.183843881,-1.573779345,-0.992012024,0.144794807,-0.303990871,0.213898763,-0.75334394,0.205067083,0.340198278
2.019749403,-1.099737287,0.58376205,-1.090923667,-0.198476315,-1.567214131,-1.099359393,0.145062998,-0.303625643,0.213425502,-0.753556013,0.193400472,0.34311378
2.024751186,-1.041205287,0.647158325,-1.110331297,-0.197599724,-1.576994777,-1.207171321,0.145269349,-0.303344637,0.213061363,-0.753887653,0.181402907,0.345559776
2.029748201,-0.948174,0.711971223,-1.127663851,-0.194532707,-1.572000742,-1.333076,0.14781788,-0.300579607,0.210344017,-0.754382789,0.169191509,0.347338706
2.034745693,-0.867881179,0.765682817,-1.13722682,-0.172728106,-1.569525242,-1.459617376,0.149778813,-0.298452109,0.208253205,-0.754889846,0.156674653,0.348536372
2.039744139,-0.792684019,0.809747577,-1.141315222,-0.138366058,-1.559416175,-1.588300228,0.15042901,-0.297746658,0.207559943,-0.755334795,0.14389275,0.349099219
2.044744015,-0.721453965,0.836521268,-1.138665557,-0.10286779,-1.553469539,-1.708751798,0.150929302,-0.297203869,0.207026511,-0.755683362,0.130859002,0.34911561
2.049744606,-0.657119036,0.851880014,-1.125808358,-0.07380569,-1.535167575,-1.819785714,0.153054655,-0.29499492,0.205708772,-0.755955279,0.117643155,0.348565757
2.054746389,-0.594183087,0.850488365,-1.111278057,-0.050699275,-1.511314988,-1.909987926,0.156671286,-0.291243702,0.203541279,-0.75616014,0.104356237,0.347531378
2.059743166,-0.530921757,0.836172581,-1.090268016,-0.041330989,-1.483102441,-1.977528214,0.157870486,-0.289999872,0.202822581,-0.756326795,0.091088206,0.346104443
2.064740896,-0.469637305,0.815633357,-1.071476698,-0.041648071,-1.455394983,-2.011069775,0.158793196,-0.289042801,0.202269599,-0.756485224,0.077951126,0.344426632
2.069739819,-0.411713958,0.809999228,-1.063853383,-0.07030686,-1.434573412,-2.014308214,0.159099147,-0.288725466,0.20208624,-0.756778657,0.065018035,0.342646062
2.074739456,-0.326205283,0.82750833,-1.090402484,-0.135646403,-1.435782194,-2.006160975,0.164499521,-0.28326419,0.200146735,-0.757374465,0.052293956,0.340847492
2.079740047,-0.212638915,0.860018671,-1.130219102,-0.215966061,-1.475574613,-2.003640413,0.166290179,-0.281453341,0.19950363,-0.758355319,0.039653119,0.33913517
2.084741831,-0.100710832,0.899734139,-1.166719079,-0.278218061,-1.552309513,-2.020116568,0.16766797,-0.280060023,0.199008808,-0.759622455,0.02685554,0.337563485
2.089738846,-0.005372044,0.953258991,-1.179610252,-0.321955532,-1.64868784,-2.05728817,0.16812481,-0.279598027,0.198844731,-0.761131287,0.013724481,0.336088419
2.094736338,0.059609551,1.010996819,-1.175557613,-0.345901132,-1.752156377,-2.116791487,0.172512218,-0.275420487,0.197414771,-0.762784779,0.000119573,0.334593356
2.099735022,0.101678997,1.047482729,-1.161813259,-0.343745798,-1.846849322,-2.185028315,0.174965695,-0.273089498,0.196618021,-0.764446437,-0.013984683,0.333091378
2.104734659,0.12317463,1.05449605,-1.128940821,-0.330330878,-1.915856957,-2.258564949,0.176853478,-0.271295965,0.196004972,-0.766055346,-0.028549328,0.331509024
2.109741211,0.137261748,1.051466823,-1.099399686,-0.285076022,-1.966796279,-2.314170361,0.177479431,-0.270701259,0.19580169,-0.767405033,-0.043395028,0.329876542
2.114743233,0.140552506,1.026931167,-1.043037415,-0.23120822,-1.987675905,-2.35474062,0.180422127,-0.268163502,0.194844306,-0.768479645,-0.058434144,0.32813561
2.119740248,0.147833601,0.995644748,-0.993469536,-0.173630118,-1.972920895,-2.382345438,0.183879569,-0.265224427,0.193719149,-0.769238412,-0.073439233,0.326187849
2.12473774,0.15610531,0.951690197,-0.944588602,-0.116344884,-1.934361935,-2.387651443,0.186539844,-0.262962997,0.192853421,-0.769677281,-0.088260822,0.324095368
2.129736423,0.165453494,0.903807163,-0.901155591,-0.064991526,-1.870384812,-2.371855021,0.187421933,-0.262213171,0.192566365,-0.769804478,-0.102741517,0.321832299
2.134736061,0.182536989,0.857548416,-0.868960738,-0.025181867,-1.798875928,-2.336984634,0.188100651,-0.261636227,0.192345485,-0.769669712,-0.116779245,0.319469631
2.139736652,0.213087052,0.821824908,-0.849831879,-0.013194896,-1.722557783,-2.28762126,0.194090873,-0.258159518,0.191454932,-0.769429028,-0.130274817,0.316957653
2.144738197,0.257936925,0.796037197,-0.839741886,-0.015075799,-1.655748725,-2.234844208,0.198699936,-0.255484402,0.190769702,-0.769144833,-0.143242866,0.314401776
2.149734974,0.306949705,0.777338326,-0.81908232,-0.032827143,-1.591883302,-2.181610823,0.200228214,-0.254597396,0.190542489,-0.768948853,-0.155706197,0.311789334
2.154732466,0.350466371,0.765714049,-0.803890049,-0.057920314,-1.531544805,-2.125447989,0.201404124,-0.253914893,0.190367669,-0.768862784,-0.167675555,0.309140265
2.15973115,0.401047826,0.781795084,-0.791671991,-0.079590239,-1.475677133,-2.074009657,0.205150709,-0.251765758,0.189960048,-0.768896461,-0.179160818,0.306372821
2.164730787,0.464261085,0.815421939,-0.785175145,-0.085754991,-1.426561594,-2.026757956,0.211427569,-0.248167843,0.189292848,-0.768988252,-0.190164939,0.303492844
2.169731617,0.553093433,0.875269532,-0.774451494,-0.077209108,-1.385177732,-1.993954778,0.213508859,-0.246974841,0.189071611,-0.769081831,-0.200737461,0.300442338
2.174733639,0.650216579,0.941266358,-0.768011391,-0.044690181,-1.365742087,-1.988721967,0.215110272,-0.246056929,0.18890138,-0.769047439,-0.211050436,0.297196776
2.179730415,0.750668645,0.989568233,-0.74795109,0.001896639,-1.35168469,-2.0061059,0.215641275,-0.245752558,0.188844934,-0.768810332,-0.221215293,0.29369548
2.184728146,0.834292114,1.003806472,-0.724798977,0.063101701,-1.342272401,-2.034081936,0.223979071,-0.241759077,0.188399985,-0.768221319,-0.231315494,0.289932966
2.18972683,0.909740448,0.998962045,-0.694181919,0.121762194,-1.32472074,-2.066733599,0.226743728,-0.240434915,0.188252464,-0.767279506,-0.241349667,0.285928577
2.194726467,0.986184001,0.960152566,-0.665125668,0.164343819,-1.292822838,-2.099085093,0.228870943,-0.239416078,0.188138947,-0.766015708,-0.251253873,0.281651795
2.199727058,1.070910454,0.88415581,-0.63176775,0.180567816,-1.245583296,-2.114927769,0.229576275,-0.239078239,0.188101292,-0.764533281,-0.260923326,0.27716589
2.204728842,1.167191625,0.808282197,-0.58224231,0.172382474,-1.192710757,-2.10775423,0.23613295,-0.235739931,0.18735531,-0.763001025,-0.270227969,0.272474498
2.209725618,1.272339106,0.734684527,-0.516030788,0.14789784,-1.136802197,-2.072670698,0.239795178,-0.233871266,0.186930522,-0.761549234,-0.279060066,0.267680079
2.214723349,1.37773633,0.676624894,-0.428904861,0.119538061,-1.075973988,-2.002588987,0.242613032,-0.232433453,0.186603665,-0.760274649,-0.287276506,0.262874484
2.219722033,1.475121379,0.612333715,-0.333833337,0.094352722,-0.996013224,-1.89804101,0.243547365,-0.231956705,0.186495289,-0.759164512,-0.294718742,0.258139223
2.22472167,1.567958593,0.547742844,-0.238115519,0.071862049,-0.899269402,-1.757650971,0.247978345,-0.229069278,0.185931832,-0.758220315,-0.301200688,0.253526956
2.229722261,1.643334508,0.483412594,-0.1458361,0.045308307,-0.787188351,-1.581587076,0.253190815,-0.225570083,0.185260892,-0.757499814,-0.306578636,0.249132663
2.234724045,1.713320255,0.412827194,-0.066790387,0.008636063,-0.649670601,-1.383031607,0.257201463,-0.222877681,0.184744656,-0.757038057,-0.310687006,0.245001912
2.239721298,1.796072125,0.355285615,-0.006997925,-0.033256769,-0.504188597,-1.159421444,0.258531302,-0.221984938,0.184573486,-0.756870031,-0.313374013,0.241201892
2.244724751,1.892040849,0.312386543,0.040163886,-0.080876276,-0.364573777,-0.930821657,0.259554535,-0.221298024,0.18444179,-0.757067263,-0.314626515,0.237762138
2.249723673,1.981255651,0.265250504,0.072800227,-0.134547397,-0.238731116,-0.696489513,0.264678061,-0.218069702,0.183705851,-0.757650912,-0.314505517,0.23473005
2.254723549,2.060599804,0.23554191,0.101308271,-0.188704491,-0.120351866,-0.455529094,0.268620253,-0.215585709,0.183139592,-0.758680284,-0.313019276,0.232197359
2.259724379,2.123094082,0.225898758,0.116405636,-0.233167276,-0.020712204,-0.198444769,0.269927412,-0.214762077,0.182951838,-0.760112166,-0.31020534,0.23028791
2.264725924,2.198114872,0.251524746,0.139098257,-0.265999943,0.067448191,0.067933396,0.270933181,-0.214128345,0.182807371,-0.762011051,-0.305998504,0.228989422
2.2697227,2.272654772,0.289600641,0.163323358,-0.27598387,0.145533338,0.343457729,0.27212593,-0.213414341,0.18288298,-0.764254212,-0.30042547,0.228363052
2.274720192,2.319495678,0.339309335,0.189803645,-0.25840041,0.217934072,0.627240658,0.273912489,-0.212355465,0.18306604,-0.766718507,-0.293513864,0.228438407
2.279718637,2.340793133,0.400057167,0.229599208,-0.228484809,0.304679036,0.907876253,0.2745049,-0.212004349,0.183126748,-0.769351065,-0.285265982,0.22912991
2.284718275,2.356450319,0.471068382,0.264933288,-0.194500774,0.40859288,1.182571173,0.274960726,-0.211734191,0.183173463,-0.772099078,-0.275616705,0.230321944
2.289718866,2.371025801,0.558056056,0.291759044,-0.152290508,0.52401197,1.443315387,0.275111854,-0.211644605,0.183188945,-0.774871826,-0.264563978,0.231869593
2.294720411,0.383147538,0.609526336,0.683790147,0.548808336,1.51724267,1.645584941,0.273564339,-0.214306951,0.183673888,-0.774802268,-0.253486365,0.231832519
2.299717426,1.211310625,0.273678809,0.839112103,0.553824484,3.378103971,2.158832073,0.273051232,-0.21518974,0.183834687,-0.770186603,-0.23088032,0.224048808
2.304714918,0.806165814,0.514288902,0.453975856,0.391635954,3.90933609,2.103616238,0.272656411,-0.21586898,0.183958411,-0.769249439,-0.206645474,0.216431022
2.30971384,-0.713237405,0.40968433,-0.121450149,0.400956184,4.269736767,1.761649489,0.272525489,-0.216094211,0.183999434,-0.765469074,-0.187225327,0.207048088
2.314713955,-0.962163091,0.584976077,-0.81771791,-0.08801955,4.371922493,2.239893675,0.265910774,-0.220038265,0.191343561,-0.76382339,-0.164927766,0.200673342
2.319714308,-0.861235082,0.974160254,-1.63242507,-0.474260509,4.133923531,2.255102873,0.262105554,-0.222279117,0.195588261,-0.765289783,-0.142643198,0.195256948
2.324716091,-0.99985832,1.410318255,-1.791840315,-0.600636184,3.344133854,2.314020157,0.259177685,-0.224003315,0.198854268,-0.76739043,-0.124120042,0.192755073
2.329712868,-1.323558927,1.754891276,-1.12005198,-0.850865424,3.114424944,2.423962116,0.258206844,-0.224575028,0.199937209,-0.772649825,-0.106995575,0.190407947
2.334710836,-0.8895154,1.961946249,-0.640178978,-0.990632117,3.718122244,2.527799845,0.250247985,-0.227894589,0.205145627,-0.77953124,-0.086034328,0.184713438
2.33970952,0.180113778,1.76227355,-1.026758075,-0.830110073,4.127472401,2.664838552,0.240336537,-0.231899142,0.211284548,-0.784116685,-0.060401112,0.177766338
2.344709396,1.076560616,1.289806128,-1.240003467,-0.568836987,4.021559238,2.928345919,0.232710347,-0.234980375,0.216008022,-0.786414862,-0.033444002,0.173643231
2.349709988,1.548231602,1.298059225,-1.47867775,-0.379627198,3.943974733,3.021384001,0.230181649,-0.236002058,0.217574239,-0.787836015,-0.005737219,0.170222715
2.354711771,2.02451086,1.408643246,-1.946947694,-0.248800576,3.558907986,2.807304859,0.22823599,-0.236788154,0.218779325,-0.78820765,0.020290848,0.167424172
2.359708786,2.531896591,1.537749887,-2.39146018,-0.06362322,2.774734735,2.550415277,0.213535443,-0.243332565,0.224713653,-0.787377238,0.043129046,0.166946784
2.364706278,2.583284616,1.454880238,-2.545627356,0.167813316,1.670732498,2.262105703,0.202224359,-0.248368055,0.229279697,-0.784818113,0.060629722,0.169992045
2.369704962,2.095118761,1.172752261,-2.188170671,0.303435057,0.643058002,2.034304857,0.198473811,-0.25003773,0.230793715,-0.78164196,0.072397642,0.176046863
2.374704361,1.328182578,0.838528812,-1.673919797,0.33387351,-0.022370286,1.840592623,0.195588037,-0.251322418,0.231958658,-0.778378189,0.079831682,0.183704406
2.379711151,0.588656545,0.593171835,-1.079330206,0.276368946,-0.257839978,1.785934806,0.187611908,-0.253961027,0.234344929,-0.775887668,0.085281752,0.191539675
2.384712934,0.126626834,0.599115551,-0.694610894,0.210174873,-0.189094603,1.782303929,0.174377233,-0.25822857,0.238203332,-0.774337649,0.090623349,0.198526964
2.389709711,-0.074239478,0.901309133,-0.522633255,0.238133892,-0.086746298,1.757928133,0.169988871,-0.259643614,0.239482701,-0.773132741,0.096150763,0.204416975
2.394707441,-0.106361493,1.190180302,-0.344631225,0.300758362,0.007384548,1.632334352,0.166612327,-0.260732383,0.240467086,-0.77217406,0.101481311,0.208790064
2.399706125,-0.034977056,1.355935216,-0.250329852,0.41562447,0.22207585,1.497218013,0.165492713,-0.261093408,0.240793481,-0.771077991,0.107285082,0.211557835
2.404705763,0.151308984,1.414800763,-0.427642643,0.653334677,0.360748708,1.314156771,0.15799132,-0.263932467,0.242295265,-0.768553913,0.113283955,0.213249251
2.409706593,0.36300981,1.235208869,-0.625148714,0.915805876,0.324134797,1.167074561,0.155503988,-0.264873862,0.242793247,-0.764110982,0.118874036,0.21523127
2.414708138,0.463372529,1.08619535,-0.850980461,1.113406777,0.219274983,1.006574631,0.153590173,-0.265598178,0.243176416,-0.758196115,0.123647809,0.217593119
2.419705153,0.451777518,0.84297508,-0.969445944,1.191079378,0.074167222,0.879080713,0.152955577,-0.265838355,0.243303448,-0.751551986,0.127194837,0.220561326
2.424702644,0.432875991,0.72832644,-1.010787845,1.158506393,-0.06589143,0.76346755,0.14827545,-0.265970916,0.245897397,-0.744957447,0.129907012,0.223813549
2.429701328,0.33135581,0.654496253,-0.896852851,1.052360535,-0.094222799,0.646665573,0.145686314,-0.26600194,0.24737519,-0.73918587,0.131861791,0.226649046
2.434700966,0.251279056,0.666185558,-0.8305704,0.925251544,-0.070545465,0.532504082,0.143694177,-0.266025811,0.248512253,-0.734276652,0.13348873,0.22879611
2.439701557,0.212857112,0.688938737,-0.830757439,0.820851505,-0.049133364,0.446194351,0.143033609,-0.266033739,0.248889297,-0.729966044,0.134853467,0.230524093
2.444703341,0.219622195,0.731102109,-0.836763442,0.731798708,-0.04945951,0.382428914,0.141197056,-0.265280575,0.250568211,-0.726142406,0.136034146,0.231986895
2.449699879,0.214933097,0.686904252,-0.785000563,0.664188683,-0.048027985,0.329605132,0.139248669,-0.264265239,0.252525389,-0.722726941,0.137028947,0.233231664
2.454697371,0.074879542,0.595183074,-0.73113811,0.607638061,-0.024334308,0.316984594,0.137749523,-0.263484001,0.25403133,-0.719460726,0.137804419,0.234534323
2.459696054,-0.025358401,0.624531984,-0.742122471,0.535689294,0.041647736,0.333589941,0.137252435,-0.263224959,0.254530668,-0.716651797,0.138777986,0.235660106
2.464695692,-0.009902793,0.69081229,-0.752714515,0.486342907,0.071028046,0.354095012,0.136869952,-0.263025641,0.25491485,-0.714175999,0.14002195,0.236655533
2.469696283,0.033246741,0.704678297,-0.734898925,0.466919988,0.09745758,0.358693242,0.135740131,-0.262008637,0.256952405,-0.711835802,0.14140363,0.237527817
2.474698305,0.154506341,0.706252515,-0.750559866,0.465667069,0.125739306,0.360883385,0.134870827,-0.261226118,0.258520156,-0.709485173,0.143107221,0.238285139
2.479695082,0.196412534,0.724288821,-0.766174376,0.503246605,0.11836496,0.344159424,0.134582579,-0.260966659,0.259039968,-0.706890881,0.144829005,0.238976702
2.48469305,0.155419767,0.703240216,-0.733303666,0.521345615,0.124694191,0.313788533,0.13436079,-0.260766983,0.259439945,-0.704244733,0.146276489,0.23957254
2.489691734,0.135382831,0.689027727,-0.745593965,0.527225852,0.150330514,0.277845383,0.133777082,-0.260365963,0.260425001,-0.701573253,0.147720277,0.239956096
2.494691372,0.160684139,0.664919257,-0.790204763,0.523619354,0.162791461,0.246455416,0.132812098,-0.259718835,0.262044907,-0.698880911,0.149146914,0.240253806
2.499691963,0.182475388,0.67212975,-0.768827438,0.510695219,0.159265414,0.219381928,0.132492125,-0.259504259,0.262582034,-0.696318746,0.15050894,0.240446031
2.504694223,0.201578766,0.702647924,-0.740901172,0.504756093,0.170580924,0.193033978,0.132245928,-0.259339124,0.262995303,-0.693900764,0.151882753,0.240353376
2.509691715,0.162495315,0.677428067,-0.737951696,0.502272367,0.190087929,0.174203858,0.132164299,-0.259284377,0.263132334,-0.691477656,0.153148875,0.240203694
2.514695406,0.12490876,0.65957582,-0.768349826,0.5073874,0.205713779,0.165004253,0.130576536,-0.258117408,0.264961869,-0.688965917,0.154418617,0.240055099
2.51969409,0.116047643,0.669827759,-0.764000654,0.502387345,0.233510092,0.159922242,0.130050063,-0.257730454,0.265568495,-0.68652159,0.155748412,0.239786029
2.524693489,0.127696514,0.665416837,-0.777202308,0.474228501,0.254424274,0.146994412,0.12964499,-0.257432729,0.266035259,-0.68421787,0.157172471,0.239424631
2.529694319,0.124291584,0.623826981,-0.798124492,0.437913924,0.279683977,0.143252626,0.129510671,-0.257334024,0.266190022,-0.682071805,0.158658937,0.239026859
2.534695864,0.121640161,0.610737622,-0.8044101,0.399911046,0.286801606,0.150031835,0.12869823,-0.256162286,0.268006355,-0.680088758,0.160175547,0.238702089
2.539692879,0.141629353,0.607939482,-0.817559719,0.355656803,0.293138593,0.171626866,0.128253385,-0.255502611,0.269028604,-0.678303659,0.161840841,0.238448203
2.544690371,0.167559132,0.597047746,-0.817430317,0.329284877,0.281870931,0.192280665,0.127911091,-0.254995048,0.269815177,-0.676641345,0.163559467,0.238316506
2.549689054,0.164267212,0.60340035,-0.798807383,0.306589246,0.248851523,0.229023159,0.127797604,-0.254826754,0.270075977,-0.675040364,0.165241957,0.238438994
2.554688692,0.178220838,0.624034643,-0.783534586,0.291942507,0.229893833,0.25394085,0.127116442,-0.254334092,0.270896941,-0.67355144,0.166957989,0.238637388
2.559689522,0.213128641,0.623313248,-0.78098619,0.289813071,0.199937686,0.264250278,0.126291782,-0.253804505,0.271794617,-0.672062993,0.168647766,0.238939226
2.564691305,0.202048346,0.603714705,-0.774489164,0.277198702,0.172245249,0.286764413,0.12565726,-0.253397048,0.272485316,-0.670558274,0.170231894,0.239472434
2.569688082,0.198352829,0.596989274,-0.792203248,0.277972639,0.154896602,0.311962306,0.125446871,-0.253261954,0.272714347,-0.66897893,0.171860039,0.240192816
2.574685812,0.189105704,0.619941235,-0.774356127,0.246427938,0.143345669,0.319739759,0.125284985,-0.253158003,0.272890568,-0.667649746,0.173428044,0.240925401
2.579684258,0.176309496,0.617093563,-0.799751937,0.213177294,0.142445549,0.323491007,0.124093816,-0.252940267,0.273945421,-0.666419685,0.174988031,0.241689786
2.584684134,0.144331366,0.6106897,-0.809619904,0.169412687,0.144828752,0.333714157,0.123177297,-0.252772719,0.274757057,-0.665406466,0.176512286,0.242542669
2.589684725,0.133489475,0.61461854,-0.804910123,0.13690117,0.182291016,0.349841207,0.122873396,-0.252717167,0.275026172,-0.664566278,0.178230897,0.243316054
2.594686508,0.127399549,0.623840749,-0.818063259,0.084392846,0.213033557,0.367968678,0.122639567,-0.252674431,0.275233269,-0.664017916,0.180133909,0.244064167
2.599683285,0.121398859,0.636453092,-0.815850914,0.032106217,0.234168842,0.391427428,0.12174926,-0.252556145,0.275520831,-0.663725615,0.182174832,0.244852334
2.604681492,0.115610763,0.652537823,-0.806334198,-0.008480664,0.271537423,0.414813161,0.120242387,-0.252359837,0.275963426,-0.663703144,0.184426323,0.245526165
2.609680176,0.123008646,0.664970279,-0.783822775,-0.043779545,0.300884783,0.448773414,0.119742736,-0.252294749,0.276110172,-0.66386658,0.186909318,0.246227801
2.614679813,0.136298373,0.667984307,-0.780237913,-0.066998728,0.343218088,0.480434269,0.119358279,-0.252244681,0.276223093,-0.664143682,0.189684257,0.246876284
2.619680405,0.122065976,0.689739764,-0.760724902,-0.095864341,0.369985431,0.518595397,0.119230807,-0.252228081,0.276260555,-0.664609909,0.192636043,0.247577369
2.624682188,0.118294381,0.692984343,-0.756358147,-0.099067874,0.433591604,0.544578135,0.116915949,-0.252907425,0.277159721,-0.66506803,0.195919544,0.248123765
2.629679203,0.118534066,0.69748497,-0.777012646,-0.125588045,0.463001698,0.591443241,0.116148382,-0.253132671,0.277457863,-0.665648758,0.199476317,0.248825639
2.634676695,0.118389457,0.698069334,-0.774217546,-0.162419051,0.494268328,0.632757008,0.115557797,-0.253305972,0.277687281,-0.666413724,0.20323357,0.249584168
2.639675379,0.122382171,0.694840372,-0.795114338,-0.20349288,0.536824107,0.679601252,0.115361966,-0.253363431,0.277763337,-0.667320311,0.207332611,0.250451028
2.644675255,0.107139438,0.692445695,-0.799054921,-0.230202928,0.631474674,0.719158292,0.112812907,-0.254426926,0.277982801,-0.668398023,0.2118738,0.251147836
2.649682283,0.081689581,0.722426951,-0.82075727,-0.271437138,0.733148158,0.769254327,0.111374199,-0.255031765,0.278095424,-0.669737101,0.216958895,0.251752794
2.654684305,0.030134751,0.727119446,-0.809169829,-0.273086369,0.919298172,0.809386671,0.110267214,-0.255497158,0.27818203,-0.671149135,0.222765565,0.251876652
2.659681559,0.061853878,0.645026863,-0.888557613,-0.333440661,1.113350391,0.888990462,0.109900154,-0.255651504,0.278210759,-0.672725141,0.229737237,0.251888663
2.664679527,0.066961147,0.623883665,-0.941546798,-0.442707479,1.253234386,0.985684335,0.10775318,-0.256369501,0.278188318,-0.674802363,0.237502024,0.252043426
2.669677973,0.067430973,0.654885709,-0.968362629,-0.547981143,1.461911082,1.109048009,0.105161078,-0.257211864,0.278135955,-0.677532017,0.246445119,0.251976609
2.674677849,0.011903841,0.670559049,-0.945976615,-0.65476352,1.711487412,1.221370816,0.103166625,-0.257860065,0.278095692,-0.680913389,0.256581485,0.251458436
2.67967844,0.057960376,0.699597478,-1.013133883,-0.738534451,1.977936745,1.37250793,0.102505304,-0.258074969,0.278082311,-0.684819818,0.268407673,0.25062421
2.684680462,-0.014137892,0.724995971,-0.995988786,-0.775934994,2.218474865,1.512991667,0.101996467,-0.258240312,0.278072059,-0.688928604,0.281379044,0.249540046
2.689677238,-0.060752891,0.666988254,-0.964787126,-0.878081381,2.488645077,1.668845773,0.09585394,-0.260520637,0.277696043,-0.693613112,0.295804918,0.248204723
2.694674969,-0.031716231,0.690681696,-1.053284049,-0.971725702,2.703505993,1.832115412,0.091127686,-0.262275189,0.277406722,-0.698918223,0.311642051,0.246838659
2.699673891,-0.034919318,0.774686396,-1.084285498,-0.972501636,2.816239595,1.951470494,0.089560546,-0.26285696,0.277310789,-0.704107583,0.328094989,0.245453298
2.704673529,-0.059762008,0.718784451,-0.961196423,-1.030370951,2.993292809,2.051785707,0.088354744,-0.263304591,0.277236968,-0.709806442,0.345469654,0.243595436
2.709674358,-0.042570755,0.645611346,-0.946578681,-1.149579525,3.181922436,2.165352345,0.082053721,-0.265300184,0.277348071,-0.716179311,0.364064753,0.241537049
2.714675903,0.012199404,0.614158273,-0.964145243,-1.290193558,3.321362257,2.295903683,0.071238473,-0.268703461,0.277570665,-0.723330736,0.383625507,0.239513338
2.719672918,0.017591013,0.618256211,-0.917775512,-1.409377098,3.469895601,2.427861452,0.067652345,-0.269831896,0.277644455,-0.731240153,0.404103816,0.237207204
2.72467041,0.020199852,0.642020702,-0.907256722,-1.503134966,3.655588627,2.557024717,0.064893059,-0.270700157,0.277701229,-0.739834189,0.425684035,0.234454021
2.729669094,0.026667487,0.652675927,-0.933878779,-1.576864958,3.804403543,2.68485713,0.063978136,-0.270988077,0.277720064,-0.748899937,0.448191524,0.231466457
2.734668732,0.028149806,0.600383103,-0.93048811,-1.699517965,3.898800373,2.814176559,0.045241721,-0.276513457,0.272545308,-0.758586764,0.471401095,0.228620023
2.739669561,0.017158642,0.538021922,-0.893639445,-1.866899729,4.007677078,2.981420517,0.039029084,-0.278345585,0.270829469,-0.769226313,0.495522767,0.225788534
2.744671345,0.029392535,0.533465981,-0.904824436,-1.96584034,4.087208748,3.199165106,0.034248877,-0.279755294,0.269509226,-0.780256391,0.520709813,0.223271385
2.749668121,0.045306668,0.543795228,-0.819107771,-2.033510447,4.188210011,3.356033325,0.032663852,-0.280222744,0.26907149,-0.791832924,0.546732068,0.220403358
2.754665613,0.079676293,0.545276463,-0.823926926,-2.087544203,4.378085613,3.503051043,0.014676068,-0.284424812,0.263296843,-0.804030478,0.57401377,0.216956839
2.759664536,0.190568507,0.589592516,-0.87244606,-2.169350624,4.510741711,3.614252567,0.004562318,-0.286768943,0.260036469,-0.817091584,0.602140248,0.212889999
2.764664412,0.246595666,0.624022126,-0.892855942,-2.270667315,4.635654926,3.708398581,-0.003219526,-0.288572609,0.257527828,-0.83118701,0.630916536,0.208144799
2.769665003,0.246288389,0.659245253,-0.891996622,-2.320521116,4.78883934,3.823291779,-0.005799838,-0.289170682,0.256696016,-0.846204758,0.660468578,0.202410877
2.774666786,0.273333132,0.709113538,-0.908631742,-2.355803013,4.948978901,3.980238199,-0.018732594,-0.29151386,0.251124501,-0.862092733,0.691038609,0.195841402
2.779663801,0.397092104,0.832170248,-1.002477527,-2.340827942,5.058074951,4.201558113,-0.034060143,-0.294189632,0.244304255,-0.878265977,0.722686946,0.188977256
2.78466773,0.650433362,1.107954264,-1.183828712,-2.292788029,5.002666473,4.416591644,-0.045853652,-0.296248466,0.239056528,-0.894229531,0.754830778,0.182423756
2.789666414,0.768580675,1.207983613,-1.222313523,-2.13651824,4.837742805,4.597257614,-0.049764156,-0.296931118,0.237316474,-0.90872407,0.786796391,0.176832691
2.794666052,0.711182714,1.252489686,-1.068220973,-1.999446273,4.826915741,4.782978058,-0.052773021,-0.297456354,0.235977635,-0.9230057,0.819339991,0.170727864
2.799666405,0.864763856,1.612639427,-1.044525146,-1.840426683,4.94634676,4.870236397,-0.075979628,-0.298576176,0.224361613,-0.938324034,0.852438688,0.162351951
2.804668188,1.108193755,1.853226662,-1.201014876,-1.586449504,4.861744404,4.77213335,-0.093835533,-0.299437821,0.215423867,-0.953469157,0.884440541,0.152888075
2.809664965,0.986947179,1.848846912,-1.098295689,-1.326022506,4.742459297,4.747385979,-0.099756211,-0.299723536,0.212460279,-0.967499971,0.915552735,0.143129587
2.814662695,1.032620311,2.086626291,-1.160021782,-1.164538026,4.704830647,4.726441383,-0.104311779,-0.299943358,0.210179999,-0.982164443,0.946203291,0.131899357
2.819661379,1.02241981,2.263729334,-1.259254336,-0.871759653,4.505167007,4.686110973,-0.118606322,-0.29821524,0.202881247,-0.995517313,0.975465894,0.120954812
2.824661255,0.875436783,2.22991395,-1.117590308,-0.544612646,4.436748981,4.744507313,-0.142531618,-0.295064479,0.190649733,-1.007487535,1.004679084,0.109544881
2.829661846,0.886838555,2.351675034,-1.18452847,-0.285290331,4.510324001,4.737850189,-0.150464788,-0.294019759,0.186593994,-1.020278692,1.033908486,0.095975198
2.834663868,0.804535985,2.278983593,-1.22859931,0.045845836,4.473123074,4.733624458,-0.15656884,-0.293215901,0.183473378,-1.032340527,1.062694669,0.081633553
2.839660883,0.689444423,2.260233402,-1.372733235,0.272789866,4.392933846,4.741026878,-0.15859282,-0.292949349,0.182438642,-1.04314363,1.091063023,0.067773193
2.844658375,0.488986433,2.026884556,-1.647550941,0.497059256,4.208760738,4.68118763,-0.187453851,-0.283964306,0.169166788,-1.051781058,1.118471146,0.055911001
2.849657059,0.252227426,1.759962559,-1.577947021,0.6461941,4.031426907,4.54615736,-0.197023615,-0.280985057,0.164766088,-1.059648871,1.144899845,0.044306219
2.854656696,0.207693994,1.68485558,-1.919961214,0.812342405,3.557964563,4.345978737,-0.204386905,-0.278692693,0.161380053,-1.063447714,1.169144988,0.036866967
2.859657526,0.241021037,1.853124857,-2.29127574,0.715247869,2.457157135,4.02999115,-0.206828445,-0.277932584,0.16025731,-1.055356264,1.188364744,0.043410614
2.864659548,0.921739876,2.382532358,-2.336414337,0.270951241,1.581340551,3.32968092,-0.226540893,-0.268079489,0.152285963,-1.045617342,1.201556206,0.053952321
2.869656324,1.808642983,3.295351982,-2.954184055,0.158294111,0.687284112,2.556926727,-0.237490207,-0.262518942,0.147884056,-1.032185316,1.208164692,0.069801919
2.874654055,1.035610676,3.543949127,-2.706774235,0.522656322,-0.423215359,1.746500611,-0.245914951,-0.258240461,0.144497082,-1.009452581,1.207228065,0.092487581
2.8796525,-0.099160582,2.884025812,-1.807864189,0.705505073,-0.958159983,1.058397412,-0.248708442,-0.256821811,0.143374026,-0.987355053,1.203086138,0.112401895
2.884652376,-0.76900804,2.181302547,-1.288221121,0.698305488,-1.026768565,0.619442523,-0.25677669,-0.252299845,0.142469272,-0.96931541,1.198329449,0.12837638
2.889652967,-1.178771257,1.778165579,-1.023930192,0.764474332,-0.885927558,0.3415595,-0.265420526,-0.24734126,0.142128289,-0.954889715,1.193338752,0.140220225
2.894654751,-1.326265335,1.610109687,-0.820057809,0.876887381,-0.595198154,0.125377029,-0.272071391,-0.243525967,0.141865909,-0.945060015,1.188673735,0.146204859
2.899651527,-1.306068301,1.524142504,-0.762310207,0.879773974,-0.227236807,-0.088559255,-0.274276674,-0.242260888,0.141778916,-0.94090873,1.184417844,0.146075889
2.904649258,-1.19020927,1.436022758,-0.810790837,0.810171545,0.054749086,-0.265563935,-0.275973499,-0.241287485,0.14171198,-0.940806091,1.180418968,0.142229542
2.909647942,-1.082414865,1.340120792,-0.886295259,0.721887648,0.225690141,-0.462046146,-0.277482927,-0.24105534,0.146488518,-0.943514228,1.176202059,0.135951802
2.914647579,-1.005937815,1.272930861,-0.972338319,0.623490214,0.285562932,-0.677623272,-0.278644323,-0.240876734,0.15016374,-0.948046267,1.171253085,0.12836501
2.919654608,-0.91896385,1.234230995,-1.066302061,0.512834072,0.2197887,-0.943192959,-0.279029429,-0.240817517,0.151382372,-0.953644395,1.164953589,0.120358028
2.92465663,-0.83420974,1.199063301,-1.152292848,0.388168037,0.049471486,-1.248223424,-0.279325724,-0.240771949,0.152320027,-0.959606588,1.156823516,0.112748995
2.929653645,-0.78528893,1.155741453,-1.208839774,0.294778258,-0.192526564,-1.548087239,-0.278790981,-0.242285833,0.153949246,-0.965038836,1.146710277,0.10630931
2.934651375,-0.743789792,1.120225549,-1.24313426,0.262611926,-0.461193413,-1.821106672,-0.277739465,-0.244996727,0.156535804,-0.969311297,1.134727955,0.101283297
2.939650297,-0.703394532,1.087132692,-1.273205042,0.285463303,-0.757095098,-2.060920238,-0.277390808,-0.245895609,0.15739347,-0.971783817,1.120951891,0.098085463
2.944649935,-0.683917403,1.028979301,-1.26989305,0.354884446,-1.081728816,-2.261195183,-0.277122527,-0.246587232,0.158053383,-0.971948624,1.105530977,0.0970359
2.949651003,-0.679236114,0.925495744,-1.251116872,0.441696942,-1.403470397,-2.410119295,-0.277033567,-0.246816561,0.158272192,-0.96958828,1.088756442,0.098317236
2.954653025,-0.667203188,0.805690944,-1.251437664,0.533300877,-1.728191137,-2.504960775,-0.26987955,-0.253908336,0.16261521,-0.964575052,1.070864201,0.102172114
2.959649801,-0.637249112,0.695981979,-1.254543543,0.618996501,-2.05653286,-2.560843945,-0.267507404,-0.256259829,0.164055273,-0.95702523,1.051967144,0.108559288
2.964647532,-0.584229708,0.604412735,-1.274947882,0.684825957,-2.403101206,-2.594761133,-0.265682191,-0.258069158,0.165163293,-0.947102368,1.032062411,0.117471598
2.969645977,-0.511425555,0.541225791,-1.292028069,0.720131397,-2.768410444,-2.615849257,-0.265076995,-0.258669078,0.165530697,-0.935120761,1.011092544,0.128769755
2.974645853,-0.436770856,0.49755314,-1.305553913,0.726770818,-3.147543669,-2.634652376,-0.255191445,-0.265093178,0.172378749,-0.921522498,0.988944769,0.142108232
2.979646206,-0.358724594,0.475973248,-1.328790307,0.709683418,-3.5370574,-2.661843061,-0.249582618,-0.268698722,0.176274061,-0.906670332,0.965498567,0.157279551
2.984647989,-0.263513386,0.480250597,-1.349873662,0.67126435,-3.935872078,-2.701853275,-0.245266989,-0.271472961,0.179271236,-0.891044378,0.94061625,0.17391789
2.989644527,-0.164256006,0.508859038,-1.357838273,0.627125859,-4.322990894,-2.761015654,-0.243836015,-0.272392839,0.180265039,-0.875088871,0.914223075,0.191536367
2.994642496,-0.065942876,0.567314506,-1.364813924,0.582751751,-4.700195313,-2.855191946,-0.235913575,-0.276206732,0.18691501,-0.859265506,0.88616246,0.209495559
2.99964118,0.021041818,0.614596963,-1.354047537,0.555627763,-5.064879417,-2.964777708,-0.226407975,-0.280603558,0.195054755,-0.843734264,0.856422305,0.227492452
3.004641056,0.088227123,0.662093699,-1.31655848,0.544474125,-5.387605667,-3.080791712,-0.219094068,-0.283986628,0.201317742,-0.828786254,0.825125933,0.245141625
3.009641647,0.127123401,0.6923576,-1.265348673,0.544276953,-5.652051449,-3.20225358,-0.216668904,-0.285108387,0.203394428,-0.814629018,0.792459846,0.262074947
3.014643669,0.150772363,0.704509258,-1.224019885,0.546849072,-5.843368053,-3.320171833,-0.214802921,-0.285971493,0.204992294,-0.801450372,0.758710623,0.278067589
3.019640684,0.196633264,0.702682197,-1.194702148,0.542568386,-5.972668171,-3.434492826,-0.197700605,-0.291248649,0.216512993,-0.789395571,0.724159658,0.292780608
3.024638414,0.25588578,0.700194299,-1.172252059,0.529451966,-6.078822613,-3.551220894,-0.184541538,-0.295309067,0.225377381,-0.778419495,0.68890965,0.306371868
3.029637098,0.300138831,0.692334831,-1.138871312,0.498021871,-6.138819218,-3.65913105,-0.18017824,-0.296655446,0.22831665,-0.768674016,0.653139472,0.318773627
3.034636974,0.324980587,0.683715165,-1.106601715,0.454039663,-6.158598423,-3.750960827,-0.176820979,-0.297691375,0.230578214,-0.760173559,0.617056131,0.330004096
3.039637804,0.357955217,0.677371144,-1.080218792,0.396855861,-6.14384079,-3.828650951,-0.163443148,-0.300580531,0.237363979,-0.752872527,0.580866933,0.339991689
3.044639587,0.384016424,0.689577997,-1.069167376,0.334659725,-6.106149673,-3.889813662,-0.140748382,-0.305377603,0.248688385,-0.746680617,0.544695377,0.348884434
3.049636364,0.410996586,0.710863948,-1.058242321,0.260489047,-6.050287247,-3.947116852,-0.133223221,-0.306968212,0.252443343,-0.741614461,0.508619547,0.356767118
3.054639816,0.45080328,0.739958704,-1.061563849,0.179026231,-5.978331089,-4.002799511,-0.127433121,-0.308192074,0.25533253,-0.737629235,0.472735226,0.363707423
3.059638739,0.48470521,0.754179716,-1.069271803,0.089457311,-5.900550842,-4.0727005,-0.125513241,-0.308597893,0.256290525,-0.734672785,0.436995417,0.369713128
3.064638376,0.502963185,0.742087245,-1.062268376,-0.005176242,-5.802007675,-4.134662628,-0.090161003,-0.314666212,0.2670196,-0.73267436,0.401521474,0.374723792
3.069639206,0.502432406,0.733290136,-1.05431807,-0.114094183,-5.698173523,-4.176897049,-0.078438871,-0.316678345,0.270577133,-0.731629729,0.366385639,0.379044801
3.074640989,0.50562042,0.735621929,-1.058918834,-0.244537741,-5.592325211,-4.196681499,-0.069419488,-0.318226546,0.273314416,-0.731540918,0.331665218,0.382828832
3.079637766,0.518984437,0.749013186,-1.068250537,-0.397104591,-5.477737904,-4.194466114,-0.066428825,-0.318739921,0.274222046,-0.732496917,0.297487319,0.386164129
3.084635496,0.531198382,0.790046453,-1.103283048,-0.553805768,-5.376752377,-4.186227322,-0.037062541,-0.322274894,0.277153939,-0.734418511,0.26380083,0.389044762
3.089633942,0.545926929,0.861746311,-1.134755731,-0.700610101,-5.283373833,-4.179682732,-0.020627879,-0.324224025,0.278678805,-0.737272501,0.23054792,0.391545594
3.094633818,0.581035256,0.952688754,-1.181706786,-0.845285296,-5.180499077,-4.192857742,-0.007982525,-0.325723708,0.279852062,-0.741039395,0.197755352,0.393588245
3.099634409,0.658396125,1.086004257,-1.244142413,-0.969405234,-5.095523357,-4.253705025,-0.003789566,-0.326220989,0.280241102,-0.745663464,0.165266827,0.394982696
3.104636192,0.764335692,1.252106071,-1.316065192,-1.061845183,-5.030148983,-4.380466938,0.014947411,-0.32784313,0.278443784,-0.75097537,0.132787317,0.395467162
3.109632969,0.875809431,1.43557632,-1.396094561,-1.108711004,-4.988823891,-4.571118355,0.036801238,-0.329630882,0.27573359,-0.756729245,0.100023448,0.394874394
3.114630699,0.971026301,1.621721268,-1.447988987,-1.11141479,-4.96712923,-4.817918777,0.053616274,-0.331006438,0.273648262,-0.762669623,0.066686064,0.393136293
3.119629622,1.08241272,1.80456543,-1.509328246,-1.09279716,-4.937255383,-5.108808994,0.059191823,-0.331462562,0.272956818,-0.768653154,0.032698818,0.390101701
3.124629259,1.230879545,1.946307182,-1.597524285,-1.046179652,-4.919309616,-5.4465909,0.06348183,-0.331813484,0.272424787,-0.774386525,-0.002040247,0.385752141
3.12962985,1.391452312,2.056268215,-1.656010389,-0.972358584,-4.893748283,-5.808499813,0.092684925,-0.331566691,0.264612705,-0.779643655,-0.03759145,0.379883468
3.134631634,1.563022375,2.156478882,-1.678779483,-0.878726959,-4.845290184,-6.168116093,0.115154728,-0.331376791,0.258601844,-0.784284592,-0.073831014,0.372465611
3.139628649,1.742780924,2.222139835,-1.667343497,-0.765668988,-4.779043674,-6.506419659,0.122605287,-0.331313819,0.256608754,-0.788108468,-0.110600658,0.363494277
3.144626141,1.922381639,2.279891491,-1.575170517,-0.631953239,-4.675239563,-6.799494267,0.128337994,-0.33126536,0.255075186,-0.791033924,-0.147632942,0.352900445
3.149624825,2.098452806,2.287983179,-1.429314017,-0.480872869,-4.490714073,-7.019507408,0.14753665,-0.327680171,0.248937175,-0.792856455,-0.184384197,0.340522766
3.154624462,2.271931887,2.229440689,-1.255721092,-0.322958589,-4.210541725,-7.162201405,0.179799482,-0.321312666,0.238522038,-0.793365121,-0.220280141,0.326420963
3.15962553,2.495484591,2.05735755,-1.115060329,-0.208041042,-3.830989361,-7.212091446,0.19049722,-0.31920132,0.235068575,-0.792476654,-0.254535258,0.310740471
3.164627552,2.789327383,1.801460147,-0.996550858,-0.158293873,-3.446913719,-7.182750702,0.198728412,-0.317576796,0.23241137,-0.790398836,-0.286790371,0.293816268
3.169624329,3.073564529,1.486339211,-0.856776953,-0.206133634,-3.099575043,-7.031381607,0.201457724,-0.317038149,0.231530294,-0.787706137,-0.316886544,0.27625066
3.174622297,3.270912886,1.267549038,-0.641418874,-0.322683632,-2.836275578,-6.73706007,0.245450273,-0.297232538,0.217321858,-0.785321951,-0.344815254,0.25864315
3.179620981,3.361479759,1.18104279,-0.330072463,-0.418441206,-2.603178501,-6.269937515,0.260037363,-0.290665358,0.212610617,-0.783763289,-0.370258629,0.241756603
3.184620857,3.382887363,1.132112026,-0.008161414,-0.432695031,-2.323212385,-5.642409325,0.271261156,-0.285612375,0.208985642,-0.782766461,-0.392552018,0.226033911
3.189627647,3.406196356,0.990095854,0.244614676,-0.429872155,-2.02848506,-4.888556957,0.27498275,-0.283936888,0.207783669,-0.782245874,-0.411157399,0.212170959
3.194629669,3.465350866,0.672704339,0.348223269,-0.521366119,-1.805963635,-4.038755894,0.302875131,-0.264967561,0.198514968,-0.78256923,-0.426021755,0.201054335
3.199626446,3.571713448,0.189015329,0.284161419,-0.799702168,-1.714619994,-3.15645647,0.318317175,-0.25430268,0.193376929,-0.784846544,-0.437464446,0.193892881
3.204624414,3.679296732,-0.296384603,0.150885686,-1.250052691,-1.753779292,-2.307872772,0.330198765,-0.24609676,0.189423546,-0.79021883,-0.446165651,0.191114798
3.209623098,3.799257994,-0.565485775,0.026221668,-1.762806177,-1.87132287,-1.51893878,0.334138453,-0.243375838,0.188112691,-0.799407184,-0.45240739,0.192393526
3.214622498,3.894712448,-0.475558102,-0.022038471,-2.202738047,-2.001297235,-0.873406887,0.345231652,-0.235162184,0.182413012,-0.812416971,-0.456575423,0.196542025
3.219623089,3.872706652,-0.104953595,0.121506192,-2.46811986,-1.995583892,-0.367796719,0.357039511,-0.226267204,0.175792634,-0.828383088,-0.458865106,0.201987386
3.224624872,3.807253838,0.299479812,0.197590902,-2.22851634,-1.851985574,0.101786636,0.366124868,-0.219423115,0.170698717,-0.84414047,-0.458601028,0.207899287
3.229621649,3.633019686,0.792395353,0.487812281,-1.601637721,-1.530614614,0.521522701,0.369137406,-0.217153743,0.169009671,-0.857642472,-0.455793142,0.213203251
3.234619379,3.433675051,1.174517155,0.809214771,-0.730481327,-0.904693484,0.912456036,0.371455312,-0.215407625,0.167710051,-0.866763651,-0.449522614,0.216493517
3.239618301,3.30369544,1.310256481,0.898202121,0.204293549,-0.15947336,1.265099764,0.377575934,-0.215381116,0.156903327,-0.870213985,-0.439395547,0.217568114
3.244617939,3.229275942,1.237736821,0.799465477,0.999459982,0.450732619,1.637830973,0.382285357,-0.215360716,0.14858827,-0.868637741,-0.425902933,0.21763365
3.249619007,1.889503717,1.120854497,0.932318449,1.807909727,1.382119656,2.037935972,0.383846909,-0.215353951,0.145831168,-0.86286962,-0.410632074,0.216597363
3.25462079,1.129819274,0.732283294,1.334875226,3.328294277,3.985885382,2.319413662,0.385048389,-0.215348735,0.143709749,-0.843916595,-0.387114018,0.204449892
3.259617805,2.927497864,0.617651761,1.546313524,1.897660732,4.690144062,3.65438652,0.384237885,-0.217348143,0.145620659,-0.834846556,-0.350857437,0.195200875
3.264615536,1.273732901,0.940859556,1.38673389,2.980990648,5.09183979,2.721215725,0.38239181,-0.220910013,0.149734467,-0.820268095,-0.321115375,0.181401536
3.26961422,-0.667801023,0.731944799,0.705955863,2.732921362,5.425967216,2.696979761,0.381779701,-0.222091064,0.15109852,-0.803349674,-0.29595688,0.168577597
3.274614096,-1.063032627,1.138859749,-0.325669348,1.383226991,6.237282276,3.296846628,0.381308705,-0.222999811,0.152148068,-0.795138896,-0.262535661,0.15707323
3.279614925,-1.950431824,1.858319521,-1.835963249,1.683172345,6.031556606,3.124326468,0.38115254,-0.223301128,0.15249607,-0.784638464,-0.231804729,0.146489471
3.284616947,-3.043975115,1.358004928,-1.3931427,1.307620645,5.271695137,2.763822556,0.365828633,-0.231881633,0.182449713,-0.775642455,-0.20906277,0.138914689
3.289613962,-2.230185509,0.277354479,0.117766336,0.900349319,6.853397846,3.402300119,0.360747516,-0.234726772,0.192381769,-0.769601703,-0.177658245,0.127506241
3.294611692,0.04906109,-0.831719697,-1.22395277,0.006364789,8.205406189,4.19017601,0.356837928,-0.236915901,0.200023815,-0.765527248,-0.130632579,0.115933843
3.299610376,2.606310844,-1.359889746,-3.385140419,0.054983936,8.478117943,4.998198986,0.355541617,-0.237641782,0.202557772,-0.757450163,-0.075852595,0.111444265
3.304610014,3.420862198,-1.472384095,-3.569181681,0.170668945,7.761414528,6.213891983,0.33554545,-0.246168584,0.226653695,-0.75002718,-0.01956954,0.114807896
3.309610844,4.074674606,-0.660411239,-4.362284184,0.13153109,6.571484089,7.20379734,0.324213803,-0.250967681,0.240123585,-0.74344486,0.03680985,0.126160711
3.314612627,4.758612633,0.890548944,-5.076904297,0.356234729,4.565375328,7.051800728,0.315494865,-0.254660249,0.250487745,-0.736385822,0.084758818,0.142232671
3.319609642,5.519654751,2.994465113,-4.474431992,0.332302123,1.823161721,6.429462433,0.312603831,-0.255884647,0.25392431,-0.732001245,0.120395042,0.160312161
3.324613333,5.392326832,5.946438789,-2.398821354,0.868309975,-0.328018874,4.621875763,0.292431384,-0.264478922,0.265437961,-0.730805337,0.140654296,0.170497
3.329612255,2.869724989,5.455993176,0.384229302,0.768072784,-0.659982979,1.424736261,0.267643899,-0.275045067,0.278199583,-0.734220743,0.143457428,0.165652111
3.334611893,-0.007461846,1.875816464,0.521345139,0.631703377,0.545944452,0.410221577,0.248571604,-0.283174992,0.288018793,-0.7334463,0.144175932,0.160370842
3.339612722,-0.83338505,0.331638068,-0.670976281,0.516379535,1.045767069,0.644784927,0.242247581,-0.285870731,0.291274667,-0.729988575,0.148894042,0.160566702
3.344614744,-0.08580704,0.210486278,-1.439533234,0.594398677,0.714419246,0.925007522,0.237381697,-0.287944913,0.29377982,-0.725313306,0.154648915,0.16367349
3.349611521,0.778597474,0.477098107,-1.028776884,0.771790206,0.113658689,1.12618649,0.223164633,-0.292631477,0.297521591,-0.719840407,0.159888625,0.168629184
3.354609489,1.148507237,1.465109587,-0.518544376,0.693078995,0.138478532,0.722754717,0.212225571,-0.296237469,0.300400615,-0.717783988,0.164408222,0.168328002
3.359608173,0.700691223,0.772452295,-0.86548686,0.607208729,0.139247328,0.361932665,0.208598375,-0.297433138,0.301355243,-0.71468395,0.166635409,0.168494388
3.364608049,0.213789225,-0.012315869,-1.186882854,0.462765366,0.006147085,0.450131029,0.205807507,-0.298353136,0.302089781,-0.71039331,0.167816967,0.172402352
3.369608641,0.028989756,0.555818915,-0.914024115,0.381468505,-0.056802809,0.513208508,0.203227282,-0.298527718,0.303677261,-0.708023369,0.168981075,0.174886659
3.374610901,0.005873741,0.923308492,-0.558846116,0.313226819,0.11191009,0.484497219,0.199568719,-0.298530102,0.306257635,-0.707184851,0.170636967,0.175137058
3.379608393,0.015682977,0.869628489,-0.771220326,0.331988156,0.174605072,0.536380708,0.1983556,-0.298530906,0.30711323,-0.705545485,0.172870457,0.1761242
3.384605885,-0.0834544,0.804252625,-0.771961868,0.341085136,0.205869511,0.596537352,0.197422192,-0.298531532,0.307771534,-0.703643858,0.17511113,0.17761226
3.389604568,0.049167834,0.688244045,-0.752065122,0.302675247,0.271693736,0.603531063,0.197112694,-0.298531741,0.307989836,-0.701959848,0.177962199,0.178876773
3.394604206,0.368512869,0.488767475,-0.909298003,0.231747717,0.253034651,0.552431881,0.194644153,-0.298406363,0.309838623,-0.700130939,0.181213126,0.180564567
3.399605036,0.350326091,0.448096335,-0.922635138,0.135246381,0.230058596,0.446681321,0.193825632,-0.298364788,0.310451657,-0.69887495,0.183768615,0.181964085
3.404606819,0.139137387,0.560589671,-0.821924627,0.068845026,0.235436767,0.376164854,0.193195835,-0.298332781,0.310923338,-0.698371232,0.185634077,0.182662904
3.409603596,0.136775166,0.698540151,-0.741608381,0.046940818,0.260625422,0.388698518,0.19298701,-0.298322171,0.311079741,-0.69823271,0.187760696,0.182950571
3.414601564,0.301683277,0.749997199,-0.71364826,0.076782629,0.272560269,0.413036078,0.19061099,-0.298467308,0.312015682,-0.697984278,0.190372974,0.183157951
3.419600487,0.265138566,0.759268403,-0.728205562,0.136878923,0.222279996,0.41939947,0.189274952,-0.298553377,0.312527865,-0.697245896,0.192708805,0.183696181
3.424600124,0.112505212,0.759075761,-0.683934331,0.189090967,0.23035562,0.416329086,0.188246965,-0.298619628,0.312921941,-0.69635421,0.19468528,0.184149697
3.429600716,0.097616009,0.756490707,-0.709369063,0.23419416,0.236911878,0.410802931,0.187906101,-0.298641562,0.313052624,-0.695199609,0.196741506,0.184591949
3.434602737,0.151649296,0.713785529,-0.750842392,0.262524456,0.241259694,0.41170162,0.186779067,-0.298896551,0.313697964,-0.693796456,0.198904485,0.185153723
3.439599991,0.215958074,0.625543296,-0.793380916,0.269095868,0.243690729,0.418855608,0.185533345,-0.299221188,0.314461321,-0.692194939,0.201218367,0.185971275
3.444597483,0.253897756,0.583474457,-0.825496078,0.243506342,0.233340353,0.433705002,0.184574857,-0.299470961,0.315048665,-0.690607667,0.203635246,0.187010661
3.449596405,0.224699259,0.614741027,-0.779741168,0.205309182,0.205733016,0.431372434,0.184257045,-0.299553782,0.315243423,-0.689386368,0.205794886,0.187965751
3.454596043,0.224973351,0.653880537,-0.745892286,0.200356051,0.183102489,0.434882641,0.184012502,-0.299617499,0.315393269,-0.688245595,0.207917646,0.188845232
3.45960331,0.23795335,0.673355579,-0.714580595,0.217678875,0.157869011,0.446650058,0.181909516,-0.29959017,0.316509515,-0.687054455,0.209965959,0.189793527
3.464605093,0.223809034,0.66396147,-0.738791525,0.242948294,0.118900135,0.4563829,0.180291384,-0.29956916,0.317368388,-0.685564041,0.211876377,0.190993428
3.469602108,0.191560328,0.635785997,-0.774913847,0.228833467,0.093650699,0.481391639,0.179754853,-0.299562186,0.317653179,-0.684039712,0.21368672,0.192533791
3.474599838,0.18783322,0.614668548,-0.7965464,0.196035489,0.098354779,0.499454588,0.179342031,-0.299556822,0.317872286,-0.682653844,0.215588242,0.194179386
3.479598761,0.187366918,0.623873949,-0.790899217,0.148754448,0.10814739,0.518616378,0.17831032,-0.299620539,0.318371654,-0.68155545,0.217596114,0.19583039
3.484598637,0.178259894,0.647058845,-0.778936446,0.103605911,0.119208373,0.539639056,0.176611707,-0.299735814,0.319187313,-0.68072015,0.219706476,0.197428957
3.489599228,0.134321526,0.689303935,-0.753296435,0.092326447,0.139446646,0.554633498,0.176048487,-0.299774021,0.319457769,-0.680015564,0.221825391,0.198948681
3.49460125,0.138321131,0.683234453,-0.768254757,0.064742468,0.150160387,0.577931881,0.175615102,-0.299803436,0.319665879,-0.67935282,0.224094123,0.20052585
3.499598026,0.128613845,0.692088902,-0.770172656,0.015263477,0.145764992,0.623274684,0.17547141,-0.299813211,0.319734871,-0.678961277,0.226449281,0.202353075
3.504595995,0.112316646,0.718001485,-0.751512945,-0.005344273,0.180116609,0.661729813,0.172556251,-0.300633937,0.320944309,-0.678694606,0.229033336,0.20414485
3.509594679,0.117041066,0.703286886,-0.757235169,0.003923229,0.280320048,0.6732952,0.171589643,-0.300906062,0.321345329,-0.678407252,0.232061774,0.20565255
3.514594316,0.143142283,0.662986934,-0.805390894,-0.015999809,0.358631462,0.685292244,0.170845896,-0.301115453,0.321653873,-0.67810452,0.235525578,0.207073122
3.519594908,0.1100927,0.69813031,-0.794424534,-0.048555154,0.420115024,0.713226557,0.170599282,-0.301184893,0.321756184,-0.6781196,0.239178255,0.208398953
3.524596691,0.11299897,0.69630599,-0.786262751,-0.078923389,0.518782198,0.722400963,0.168253958,-0.302057266,0.322194397,-0.678326011,0.24328275,0.209367603
3.529593706,0.113732368,0.667596996,-0.8489362,-0.112480976,0.630470157,0.750238121,0.166942894,-0.302549183,0.322428674,-0.678657711,0.247901231,0.210278347
3.534591436,0.137303948,0.610713661,-0.866613925,-0.149203897,0.784326077,0.777248025,0.165934116,-0.302927673,0.322608948,-0.67912674,0.253242701,0.210909039
3.53959012,0.184548631,0.544714332,-0.934376597,-0.260132492,0.914169729,0.830510855,0.165599629,-0.30305317,0.322668731,-0.680069447,0.259386569,0.211520225
3.544589996,0.166375846,0.572778285,-0.939685822,-0.358409584,1.027815104,0.905864477,0.163088709,-0.303942323,0.322796643,-0.681639194,0.266097784,0.212118641
3.549590826,0.117335059,0.61051476,-0.902957857,-0.419069618,1.210995436,0.956305206,0.15998365,-0.305036396,0.322921693,-0.683642924,0.273594916,0.212112978
3.554592609,0.130201548,0.642383635,-0.947129726,-0.479800045,1.391217709,1.02665627,0.157594517,-0.305878222,0.323017925,-0.686100543,0.282057613,0.211750224
3.559589386,0.073331438,0.653051317,-0.925531983,-0.50256747,1.538792133,1.101423144,0.156802326,-0.306157351,0.323049843,-0.688658535,0.291152537,0.211232945
3.564587116,0.08564385,0.623058379,-0.919092417,-0.571036994,1.722838163,1.192600489,0.156192794,-0.306372106,0.3230744,-0.691624761,0.301336199,0.210439339
3.569585562,0.117198296,0.604347289,-0.985778809,-0.648319125,1.853949666,1.27103281,0.150260255,-0.308615685,0.32347542,-0.694959521,0.312293112,0.209704742
3.574585438,0.104430296,0.589587986,-0.953601539,-0.710321307,1.97577858,1.366451859,0.145695552,-0.310341984,0.323783994,-0.698658228,0.323913634,0.208909228
3.579586029,0.101134464,0.63835001,-0.966272712,-0.750861526,2.1063416,1.430539966,0.144181997,-0.310914397,0.323886305,-0.702651501,0.336242795,0.207743883
3.584587812,0.083905898,0.601914227,-0.939637303,-0.833743751,2.230649233,1.513548851,0.143017411,-0.311354816,0.323965043,-0.707120299,0.349234879,0.206483126
3.589584827,0.10414888,0.601986647,-0.929728925,-0.928015828,2.3459723,1.608016133,0.137515515,-0.313536286,0.324113607,-0.712141037,0.363016248,0.205144092
3.594588757,0.109376028,0.651633978,-0.924124658,-1.000491977,2.427786589,1.692323685,0.128109366,-0.317272902,0.324351728,-0.7176193,0.377344936,0.203707501
3.599587679,0.097594187,0.667114913,-0.879400074,-1.071931362,2.515031338,1.7722404,0.124990463,-0.318511903,0.324430704,-0.723550797,0.392171919,0.202057332
3.604587317,0.097476773,0.660344183,-0.841235697,-1.165983796,2.616214991,1.869006753,0.122590676,-0.31946519,0.324491441,-0.730052352,0.407693714,0.200264871
3.609587908,0.118266851,0.647763371,-0.830832899,-1.238698363,2.695217371,2.000492811,0.121794946,-0.319781274,0.324511588,-0.736878455,0.42398262,0.198642015
3.614589691,0.152912199,0.668815255,-0.81650269,-1.28737843,2.754310846,2.133947611,0.105760574,-0.325484067,0.322566777,-0.743907571,0.440957934,0.197210014
3.619586706,0.161491677,0.666630089,-0.799830437,-1.341121793,2.810664892,2.239754677,0.100443885,-0.327374995,0.321921915,-0.751158595,0.45846194,0.195834845
3.624584436,0.148301929,0.606682479,-0.758164465,-1.407913446,2.902542591,2.337373495,0.096353047,-0.328829944,0.321425736,-0.758806884,0.476604462,0.19437851
3.629583597,0.150923416,0.556532741,-0.738059342,-1.467250347,3.033899546,2.453834772,0.094996601,-0.329312384,0.321261197,-0.766812205,0.495681435,0.192742541
3.634583235,0.183276668,0.562730491,-0.766030014,-1.536190391,3.172725916,2.555770397,0.079750694,-0.334465206,0.31838131,-0.775344014,0.515617251,0.190879986
3.639584064,0.200727716,0.587098479,-0.79180944,-1.595484972,3.302055597,2.651510477,0.071181059,-0.337356985,0.316745073,-0.784367561,0.536295593,0.188684955
3.644586086,0.189366132,0.637815952,-0.788536429,-1.636754513,3.442109346,2.723721743,0.06458731,-0.339582026,0.315486103,-0.7939744,0.557556987,0.185845986
3.649583101,0.176008731,0.611386716,-0.734434426,-1.684355617,3.618814468,2.807893038,0.062400948,-0.340319812,0.315068632,-0.804391623,0.5796839,0.182099417
3.654580832,0.198792025,0.60791862,-0.765573144,-1.767624974,3.799325705,2.961485624,0.051008474,-0.343696982,0.312049568,-0.815316737,0.603070736,0.178139403
3.659579277,0.258826584,0.685237467,-0.826651096,-1.842982888,3.948542595,3.114859819,0.037439205,-0.347649843,0.308328003,-0.827055037,0.627439141,0.173780918
3.664579153,0.270691574,0.697666347,-0.882924259,-1.926570654,4.054764748,3.257376194,0.02699857,-0.350691348,0.305464506,-0.839371979,0.652500689,0.169282988
3.669579744,0.273370713,0.727295458,-0.8849141,-1.981655955,4.181183338,3.432700872,0.023536652,-0.351699859,0.304515034,-0.852301896,0.678514242,0.164374009
3.674581766,0.320490092,0.836570084,-0.919164479,-2.002671957,4.333800316,3.635592461,0.020872943,-0.352475822,0.30378446,-0.865806937,0.705692291,0.158839911
3.679578543,0.453992426,1.04690814,-1.007358551,-1.960906029,4.45697403,3.839024305,-0.000168176,-0.356730878,0.29621917,-0.879620254,0.733876348,0.152864039
3.684576511,0.46405521,1.209345818,-1.031595349,-1.768534184,4.509745598,4.005790234,-0.016357888,-0.360004842,0.29039821,-0.892768621,0.762513161,0.146434397
3.689575195,0.385590136,1.238739014,-0.951903224,-1.579635739,4.654017925,4.209398746,-0.021726089,-0.361090451,0.288468093,-0.905640483,0.792189538,0.139113203
3.694575071,0.353442639,1.215132356,-0.95494777,-1.430828929,4.858082294,4.461246967,-0.025856556,-0.361925751,0.286982983,-0.91841948,0.823440731,0.131069317
3.699575901,0.545758009,1.373044133,-1.082517028,-1.365394831,4.973188877,4.678244114,-0.040810909,-0.363345921,0.281222552,-0.9315328,0.85583818,0.122537181
3.704577684,0.581135154,1.350779057,-1.109094977,-1.329610109,4.971597672,4.839831352,-0.066053592,-0.365594596,0.271463513,-0.944619536,0.888538361,0.114183232
3.709574938,0.482924223,1.298621297,-1.101242304,-1.404275775,5.048677444,5.063112736,-0.074423589,-0.36634022,0.268227577,-0.958617806,0.922208846,0.105405279
3.714572906,0.611139655,1.496961355,-1.23591125,-1.537481785,5.064775944,5.262393475,-0.080863729,-0.366913915,0.265737772,-0.973918498,0.956459284,0.09625107
3.719571352,0.739505947,1.753151178,-1.313653231,-1.569614291,4.967503548,5.387423992,-0.082999162,-0.367104143,0.264912188,-0.989869773,0.990384102,0.086782411
3.724571228,0.667299747,1.844810009,-1.186442018,-1.412771583,4.897512913,5.5279603,-0.120700531,-0.363391638,0.24888584,-1.005584359,1.024365902,0.076567709
3.729578018,0.668222845,1.944189668,-1.12418592,-1.30832684,5.014549255,5.648737907,-0.133201584,-0.362160623,0.243571803,-1.023079515,1.059093118,0.063616082
3.73458004,0.957531154,2.206071854,-1.352148652,-1.2398839,5.094801426,5.640329838,-0.142820299,-0.361213446,0.239483029,-1.043026686,1.09351325,0.047961619
3.739577055,1.118483782,2.411248684,-1.563241601,-1.113705635,4.9810009,5.564217091,-0.146009684,-0.360899389,0.238127261,-1.063963652,1.126495957,0.030960221
3.744574785,1.132174969,2.593869925,-1.689871669,-0.986743689,4.781498432,5.550210476,-0.176293775,-0.353491634,0.223513886,-1.084580541,1.158391118,0.013904738
3.749573708,1.126121759,2.905179262,-1.81356585,-0.812267423,4.550453663,5.428708553,-0.193222046,-0.349262089,0.215310395,-1.105911374,1.188333035,-0.004574082
3.754573345,0.945007563,2.92717123,-1.956693411,-0.350536197,4.26857233,5.294651031,-0.206247181,-0.346007735,0.208998352,-1.124504089,1.216560483,-0.022194725
