Time,inertial-6253.76535:scaledAccelX,inertial-6253.76535:scaledAccelY,inertial-6253.76535:scaledAccelZ,inertial-6253.76535:scaledGyroX,inertial-6253.76535:scaledGyroY,inertial-6253.76535:scaledGyroZ,inertial-6253.76535:scaledMagX,inertial-6253.76535:scaledMagY,inertial-6253.76535:scaledMagZ,inertial-6253.76535:roll,inertial-6253.76535:pitch,inertial-6253.76535:yaw
0,0.308902919,0.686009645,-0.657787323,0.004334667,-0.000688382,0.006097304,-0.169867977,-0.4100537,-0.036408685,-0.79485333,0.320603549,1.830059886
0.004998144,0.307652384,0.686932385,-0.658624172,0.004951937,-0.001105564,0.006776807,-0.169668332,-0.410258621,-0.035917152,-0.794834375,0.320612073,1.830068231
0.009997056,0.309092253,0.688013613,-0.658108115,0.004073591,-0.000209469,0.006747106,-0.169602126,-0.41032657,-0.035754167,-0.794829845,0.320623606,1.830072761
0.014996992,0.310213715,0.686860263,-0.659434855,0.004106682,-0.00133674,0.006244926,-0.169551179,-0.410378844,-0.035628762,-0.79481554,0.320630997,1.83007443
0.019997953,0.309753358,0.68801856,-0.659295201,0.006527001,-0.000367852,0.006957786,-0.169534281,-0.410396159,-0.03558718,-0.794790983,0.320645303,1.830082655
0.025000192,0.309138358,0.687058091,-0.659313202,0.004566579,-0.000243873,0.0087233,-0.169669881,-0.410458773,-0.035696968,-0.794778585,0.320661217,1.830091
0.029997312,0.307570249,0.688285828,-0.658654094,0.005203599,-0.000152116,0.008158037,-0.169751614,-0.410491735,-0.035768457,-0.794760048,0.320673019,1.830101013
0.034995455,0.307469785,0.688963115,-0.657879233,0.005998985,0.001083357,0.008130857,-0.169814497,-0.410517126,-0.035823464,-0.794751585,0.320688009,1.830107689
0.039994366,0.307572007,0.688170552,-0.658732653,0.005391411,0.001087407,0.009880338,-0.169835359,-0.410525531,-0.035841703,-0.794728577,0.320713758,1.830124021
0.044994559,0.306496769,0.687994182,-0.657763124,0.005765694,0.000582858,0.010702784,-0.169594884,-0.410596967,-0.036107402,-0.794710398,0.32073921,1.830140948
0.049995519,0.307100624,0.687628329,-0.656135321,0.006614679,0.00251056,0.009658339,-0.169256464,-0.410686135,-0.036449283,-0.794687867,0.320769668,1.830141544
0.054997504,0.307816684,0.686969876,-0.658008337,0.004881041,0.003745919,0.011964123,-0.168996096,-0.41075477,-0.036712337,-0.794677138,0.320816875,1.830145597
0.060000513,0.307760566,0.686089277,-0.658786952,0.004931045,0.002300149,0.010285682,-0.168909758,-0.410777539,-0.036799561,-0.794662416,0.320846915,1.830146194
0.064998657,0.309237987,0.686914861,-0.657061338,0.005387924,0.002548983,0.009837132,-0.168843329,-0.410795033,-0.036866672,-0.794651747,0.320877135,1.830147743
0.069997571,0.309790909,0.687020123,-0.657642841,0.005331131,0.002038276,0.011030861,-0.168924212,-0.410594612,-0.036792446,-0.794643998,0.320914358,1.83014822
0.074997507,0.308513224,0.686632574,-0.657399833,0.006279607,0.003817405,0.010467263,-0.16898644,-0.410440385,-0.03673533,-0.794625878,0.320954382,1.83015275
0.079998463,0.309422046,0.68630445,-0.658094406,0.0067134,0.001453728,0.011547939,-0.169007078,-0.410389245,-0.03671639,-0.794601917,0.320993781,1.830164909
0.085000448,0.30796209,0.686818719,-0.659035265,0.005895664,0.002475113,0.011442723,-0.169022962,-0.410349905,-0.036701821,-0.794581056,0.32103014,1.830172062
0.089997567,0.307491601,0.686421812,-0.659020066,0.004975009,0.001106469,0.011785152,-0.169311479,-0.410359234,-0.036581267,-0.794566154,0.321064055,1.830186009
0.094995454,0.309696764,0.687910676,-0.659476161,0.005236485,-0.00017325,0.011736804,-0.169819891,-0.410389066,-0.036371499,-0.794543684,0.321096361,1.830211997
0.099994369,0.310478032,0.686684012,-0.658676207,0.005421823,0.001709138,0.010432837,-0.169988468,-0.41039893,-0.036301944,-0.794523597,0.321131408,1.830220699
0.104994304,0.31252557,0.685943723,-0.657095015,0.007621025,0.001196529,0.009162804,-0.170118183,-0.41040653,-0.036248427,-0.794502378,0.321168542,1.830219507
0.109995261,0.314029276,0.685640275,-0.656846046,0.006110456,-0.001354714,0.008935791,-0.170161188,-0.410409063,-0.036230683,-0.794473827,0.321197987,1.830231905
0.114997245,0.312529355,0.685429096,-0.658273458,0.004369781,-0.000559615,0.007085572,-0.169865191,-0.410280526,-0.036031917,-0.794458628,0.321211547,1.830229998
0.119994365,0.311238348,0.684916258,-0.658527493,0.004170354,-0.001089922,0.007339942,-0.169767052,-0.410237908,-0.035966009,-0.794436216,0.321228921,1.830232739
0.124992259,0.312232763,0.684522808,-0.658634484,0.005096897,-0.001248488,0.006394895,-0.169691533,-0.410205096,-0.035915297,-0.79442364,0.321244717,1.830233216
0.129991427,0.310749561,0.685358584,-0.657321095,0.007145467,-0.00168328,0.005396474,-0.169666499,-0.410194218,-0.035898484,-0.794395804,0.321241736,1.830233574
0.134991363,0.310499132,0.686421812,-0.65690285,0.00564234,-0.001940523,0.004258594,-0.169449851,-0.41008535,-0.035600062,-0.794382393,0.321238369,1.830234408
0.13999258,0.310048133,0.686524391,-0.659631252,0.005890053,-0.003431399,0.004010072,-0.169329181,-0.410024375,-0.035430465,-0.794365406,0.321227133,1.83023119
0.14499481,0.310182691,0.685273707,-0.658566654,0.007139604,-0.003509513,0.003827141,-0.169236332,-0.409977496,-0.035299972,-0.79433918,0.321219653,1.830227613
0.14999193,0.308265269,0.685028076,-0.658965766,0.006392541,-0.003432557,0.001581576,-0.169205546,-0.409961939,-0.035256702,-0.794310868,0.321196914,1.83022666
0.154990077,0.305990458,0.685767353,-0.65801549,0.004731898,-0.003065591,0.004016978,-0.169295534,-0.409919113,-0.035249043,-0.794301867,0.321184218,1.830234051
0.159989253,0.305294424,0.688432455,-0.658230543,0.004570848,-0.00251161,0.003762109,-0.169440001,-0.409873843,-0.035272349,-0.794297516,0.321173906,1.83023119
0.164989442,0.307171971,0.688049078,-0.659014523,0.005904207,-0.002281195,0.005779071,-0.169551164,-0.409839004,-0.035290278,-0.794279575,0.321172386,1.830248713
0.169990405,0.308002442,0.688014984,-0.658649266,0.005878923,-0.003509864,0.006833271,-0.169588029,-0.409827441,-0.035296228,-0.794258237,0.321172386,1.830259085
0.174992636,0.308580309,0.686617553,-0.660633683,0.005886021,-7.41E-05,0.006130637,-0.169616386,-0.40981856,-0.035300802,-0.794241071,0.321181685,1.8302598
0.179989755,0.309941679,0.686618209,-0.659193695,0.006042826,-0.000552381,0.007308348,-0.169770703,-0.410070986,-0.035732299,-0.794219613,0.321195573,1.830264926
0.184987903,0.310878962,0.687251568,-0.659281015,0.005980671,-0.001006067,0.007532166,-0.169889435,-0.410265207,-0.036064308,-0.794200897,0.321212113,1.830272079
0.18998681,0.310492814,0.688939393,-0.65749222,0.005648361,1.47E-05,0.004989298,-0.169928819,-0.41032961,-0.036174398,-0.79419136,0.321216464,1.830263615
0.1949929,0.308874339,0.688527524,-0.658179998,0.00628563,-0.001125233,0.00690294,-0.169959113,-0.410379142,-0.0362591,-0.794178247,0.321225405,1.830265999
0.199993849,0.309284478,0.688423812,-0.658409595,0.006231372,-0.000312863,0.007458765,-0.16994065,-0.410424262,-0.036204945,-0.794157624,0.321236402,1.830269575
0.204996094,0.30809018,0.686950207,-0.658944011,0.00659118,-0.000688712,0.006886106,-0.169897616,-0.41048798,-0.036080115,-0.794130504,0.321246743,1.83027792
0.209993213,0.310261667,0.686540544,-0.65753603,0.006345913,-0.001552609,0.007469146,-0.169883341,-0.410509109,-0.036038723,-0.79410392,0.321259737,1.830288649
0.214991361,0.308992505,0.687578499,-0.656906426,0.007738449,-0.001759656,0.008143581,-0.169872358,-0.410525352,-0.036006872,-0.794075131,0.321270525,1.830310345
0.219990268,0.308597952,0.688399673,-0.658391297,0.006651043,-0.001122647,0.007981144,-0.169868723,-0.410530746,-0.03599631,-0.794055343,0.321280599,1.830311537
0.224990457,0.309150219,0.68783462,-0.660005748,0.006871574,-0.001824833,0.0076568,-0.169665858,-0.410606921,-0.03605558,-0.794028699,0.321296066,1.830324173
0.229991421,0.307210207,0.684709847,-0.657805443,0.008556515,-0.00104395,0.00920119,-0.169598609,-0.410632163,-0.036075234,-0.793986917,0.321312904,1.83034277
0.234993413,0.307818294,0.688048184,-0.657462835,0.009809046,0.000278244,0.009685711,-0.169546857,-0.410651624,-0.036090355,-0.793955684,0.321332991,1.830350995
0.239990532,0.311909914,0.687664509,-0.657890379,0.007807369,-0.000377811,0.009362041,-0.169529691,-0.410658062,-0.03609537,-0.793933034,0.321352422,1.83035481
0.244988412,0.309887737,0.686404288,-0.657657862,0.009609072,0.000474619,0.009133779,-0.169568807,-0.410508573,-0.036003143,-0.793896675,0.321375847,1.830360651
0.249987334,0.30925414,0.685199261,-0.660690248,0.009014459,0.000122767,0.009321471,-0.16959472,-0.410420805,-0.035948787,-0.793863773,0.321395516,1.830366492
0.25498727,0.309098423,0.687923789,-0.658575356,0.008348087,0.003655201,0.009658569,-0.169614658,-0.410353273,-0.035906963,-0.793835282,0.32143262,1.8303653
0.259988219,0.308903515,0.688051701,-0.656621277,0.00952368,1.59E-05,0.008728087,-0.169621274,-0.410330862,-0.035893094,-0.793808281,0.321448565,1.830369115
0.264990211,0.310391337,0.686398149,-0.657229424,0.008064817,0.000827013,0.009331381,-0.169711336,-0.410339624,-0.03574302,-0.793777585,0.321475089,1.83038187
0.269987583,0.309070975,0.685325205,-0.657967567,0.006886711,-0.000530445,0.011449458,-0.169826895,-0.410368711,-0.035552688,-0.793758333,0.321504951,1.830402136
0.274985462,0.309641927,0.685602248,-0.658696353,0.006656928,0.000747007,0.008312178,-0.16991581,-0.410391092,-0.035406243,-0.793733478,0.321521342,1.830404043
0.279984385,0.310741454,0.687253654,-0.65819031,0.006296414,-2.99E-05,0.009159915,-0.1699453,-0.410398543,-0.035357684,-0.793714881,0.321548879,1.830406427
0.28498432,0.311215222,0.687047958,-0.658415973,0.005935648,0.001403122,0.007826986,-0.169967979,-0.410404235,-0.035320323,-0.793699324,0.321572959,1.830403805
0.289985269,0.31009075,0.686365426,-0.659027755,0.006408577,0.000857854,0.007667323,-0.169877037,-0.410258174,-0.035601985,-0.793680906,0.321588337,1.830405712
0.294987261,0.309537351,0.685912251,-0.65813148,0.007010799,0.002256993,0.008683985,-0.169807062,-0.410145789,-0.035818707,-0.793659687,0.321619302,1.830407381
0.299984634,0.308710933,0.686074317,-0.658210516,0.005959994,0.000185455,0.009243168,-0.16978386,-0.410108507,-0.035890568,-0.793639183,0.321643531,1.830418587
0.304982513,0.310563684,0.685664594,-0.658931851,0.005614045,-0.001662967,0.008718404,-0.169766009,-0.410079837,-0.035945863,-0.793620944,0.321664631,1.830433965
0.309981704,0.30986315,0.687670052,-0.658675075,0.0064521,0.001094959,0.008406911,-0.169929191,-0.410152674,-0.035850011,-0.793597102,0.321683645,1.83044064
0.314981639,0.310862005,0.6846838,-0.659744263,0.005948449,0.000553682,0.009790782,-0.170225739,-0.41029197,-0.035660803,-0.793568969,0.32171607,1.830454707
0.319982588,0.310235202,0.685149431,-0.657748044,0.004358962,0.001163619,0.008971943,-0.170324057,-0.410338163,-0.035598066,-0.793560863,0.321736991,1.83046174
0.32498458,0.308921993,0.686842918,-0.658882082,0.006628676,-9.72E-05,0.009422095,-0.170399711,-0.410373688,-0.035549793,-0.793533087,0.321758926,1.830483794
0.329987586,0.308964074,0.688325524,-0.659746587,0.007062868,0.00033258,0.007475008,-0.170424804,-0.41038546,-0.035533786,-0.793516099,0.321771324,1.830492496
0.334985971,0.310168445,0.686871767,-0.659472823,0.006638084,0.001381732,0.010056135,-0.170250699,-0.40999347,-0.035594106,-0.79349184,0.321801364,1.830502748
0.339984894,0.31055972,0.685590565,-0.659222722,0.005559573,0.00123953,0.009720875,-0.170192972,-0.409863532,-0.035614107,-0.793472528,0.321832359,1.830513239
0.344985098,0.310657948,0.685221136,-0.659268975,0.006316899,0.000761685,0.010443052,-0.170148551,-0.409763545,-0.035629492,-0.793447495,0.321861506,1.830525517
0.349986047,0.310298622,0.686485589,-0.658146083,0.006794898,0.00176411,0.010952164,-0.170133829,-0.409730375,-0.035634596,-0.793430805,0.321892053,1.830538869
0.354988277,0.311982214,0.686239839,-0.658395708,0.005911576,0.001662239,0.009596206,-0.170121878,-0.409803897,-0.035346948,-0.793411493,0.321920604,1.830538154
0.35998565,0.310561359,0.686205506,-0.658557534,0.005501862,0.00278935,0.00876852,-0.170117751,-0.409852803,-0.035179421,-0.793398738,0.321952134,1.830535054
0.364983797,0.311896235,0.684994757,-0.660176814,0.004864125,0.001143496,0.009413041,-0.170114577,-0.409890413,-0.035050523,-0.793381274,0.3219859,1.830540419
0.369982719,0.312998265,0.685401797,-0.658589303,0.005676105,0.001629338,0.008481057,-0.170113534,-0.4099029,-0.035007779,-0.793359995,0.322017312,1.830540895
0.374982923,0.310878724,0.683852971,-0.659345806,0.006978057,-0.000621777,0.009199798,-0.17005454,-0.410001248,-0.035084978,-0.793334544,0.322037429,1.830551624
0.379983872,0.312925667,0.6839028,-0.658763051,0.004312817,-0.001288463,0.008527784,-0.169976294,-0.410123348,-0.035221592,-0.793318391,0.322057277,1.830556512
0.384986103,0.311021179,0.68475616,-0.656422198,0.003683577,0.0009321,0.006138318,-0.169916108,-0.410217285,-0.035326704,-0.793311298,0.322070837,1.83054328
0.389983237,0.31008172,0.686189592,-0.658793032,0.00456707,-0.001873814,0.006730898,-0.169896141,-0.410248458,-0.035361558,-0.793298602,0.322071373,1.830553055
0.394981384,0.309466153,0.685706496,-0.65866977,0.00441975,-0.001654571,0.005609318,-0.169880792,-0.410272419,-0.035388373,-0.793289661,0.32207793,1.830557108
0.399980545,0.309680492,0.686149538,-0.660373807,0.004472139,-0.00112646,0.00585995,-0.170123801,-0.410328597,-0.035633948,-0.793278813,0.322077751,1.830560446
0.404980481,0.31112358,0.686340809,-0.661593914,0.004681219,-0.000324687,0.007359984,-0.170310766,-0.41037184,-0.035822902,-0.793262959,0.322095305,1.830562115
0.40998143,0.310523897,0.687552214,-0.65983063,0.00453826,0.000865345,0.006648678,-0.170372769,-0.410386175,-0.035885558,-0.793250084,0.322106361,1.830563068
0.414983422,0.311456203,0.686730921,-0.65885973,0.004552294,-0.00018178,0.006651786,-0.170420468,-0.410397202,-0.035933763,-0.793240011,0.322122514,1.830568314
0.419980556,0.311790943,0.686015725,-0.659716666,0.004087912,-0.000627222,0.004690225,-0.170323104,-0.410402536,-0.035896946,-0.793233573,0.322131276,1.830563664
0.424978435,0.309280187,0.685674191,-0.660713077,0.004189332,0.001042777,0.007234832,-0.170133725,-0.410408348,-0.035815232,-0.793224573,0.322143257,1.830562472
0.429977596,0.309867889,0.684582412,-0.660289943,0.003119214,-0.000192398,0.006072217,-0.170070931,-0.410410285,-0.035788134,-0.79321754,0.322155893,1.830564976
0.434977531,0.312811047,0.682365954,-0.660281062,0.002171727,-0.001108079,0.006690335,-0.170022622,-0.410411745,-0.035767283,-0.79321301,0.322169304,1.830559134
0.43997851,0.311565697,0.685272992,-0.659351408,0.002027989,-0.00150693,0.006672582,-0.170006603,-0.410412252,-0.035760369,-0.79321456,0.322172701,1.830561042
0.444980472,0.311576158,0.685620785,-0.659050167,0.002811724,0.000904147,0.005446493,-0.169996113,-0.410342157,-0.035434175,-0.793218493,0.322186649,1.830545306
0.449977607,0.310325772,0.685093403,-0.659104109,0.001322103,-0.000808133,0.005408752,-0.169992641,-0.410318911,-0.035326015,-0.793222547,0.32218641,1.830549121
0.454975486,0.309969574,0.686016798,-0.658050954,0.00397263,-0.001831611,0.005363926,-0.169989973,-0.410301,-0.035242792,-0.793218791,0.322193444,1.830552816
0.459974647,0.311037987,0.685882449,-0.657927036,0.002887761,-0.002090524,0.005287952,-0.169989079,-0.410295069,-0.035215199,-0.793215632,0.322186917,1.830555558
0.464980721,0.310487062,0.686752379,-0.659103155,0.002693144,-0.001357524,0.003333461,-0.170136258,-0.410390615,-0.035335187,-0.79321897,0.322183102,1.830545187
0.469981939,0.308145642,0.688037038,-0.658965766,0.005346309,-0.001617225,0.005119009,-0.170221642,-0.410447091,-0.03540992,-0.793205798,0.322181761,1.830558658
0.474983931,0.307901174,0.685528398,-0.658081174,0.004497675,-0.00208326,0.004620931,-0.170287341,-0.410490543,-0.03546742,-0.793197751,0.322175741,1.830563307
0.479981065,0.309969932,0.68553859,-0.657494843,0.006315287,-0.003405601,0.003327757,-0.170309126,-0.410504967,-0.035486486,-0.793184519,0.322168827,1.830561399
0.484979212,0.309897125,0.685569823,-0.659494281,0.005153511,-0.002263163,0.004232343,-0.170269698,-0.410488009,-0.035475075,-0.793177128,0.322164297,1.830561638
0.489978105,0.311698526,0.68443805,-0.658996999,0.004520973,-0.002575069,0.004923384,-0.17019996,-0.410454094,-0.03544499,-0.7931602,0.322161376,1.83056128
0.49497804,0.31186384,0.684893787,-0.659183323,0.004230241,-0.004753122,0.004573496,-0.170146301,-0.410428017,-0.035421841,-0.793148994,0.322151423,1.830561161
0.499979019,0.31200999,0.68565166,-0.659624457,0.002459835,-0.003035569,0.003899766,-0.170128509,-0.410419375,-0.035414167,-0.793146133,0.322146475,1.830557704
0.504980981,0.310722619,0.685037076,-0.661242783,0.004526475,-0.003333571,0.002865267,-0.170114815,-0.410412729,-0.035408262,-0.79313004,0.322138518,1.83056438
0.509978116,0.310712695,0.686689854,-0.659992278,0.003294065,-0.00301401,0.00288645,-0.170209855,-0.410360843,-0.035743803,-0.793129265,0.322127521,1.830560446
0.514976263,0.308695704,0.686026394,-0.660437703,0.001476027,-0.002932645,0.002918891,-0.170282975,-0.410320908,-0.036001977,-0.793131709,0.322113425,1.830561638
0.519975185,0.310647309,0.686649919,-0.659800708,0.001370544,-0.002142246,0.004603608,-0.170307219,-0.410307676,-0.036087584,-0.793141723,0.322105289,1.830564141
0.524975359,0.310537487,0.684803545,-0.659113884,0.000439907,-0.002630096,0.002818393,-0.170325875,-0.410297483,-0.036153451,-0.793151498,0.322090924,1.830563664
0.529976308,0.309781909,0.685204923,-0.659408927,0.001320352,-0.001315837,0.004393719,-0.17010808,-0.410151839,-0.035933841,-0.793156266,0.322092026,1.830559731
0.534978569,0.31002441,0.685515046,-0.658410609,0.000723327,-0.001712711,0.00372441,-0.169714019,-0.409895897,-0.035520714,-0.793167949,0.322086424,1.830552101
0.539975703,0.30903089,0.685139179,-0.660217464,0.00090583,0.000536559,0.004298721,-0.169583365,-0.40981105,-0.035383727,-0.793175697,0.32209155,1.830544114
0.54497385,0.309795976,0.685018003,-0.660109699,0.00096309,-0.002746786,0.004365345,-0.169482827,-0.409745753,-0.035278328,-0.793177962,0.322082043,1.830544472
0.549972713,0.30960393,0.686095476,-0.659611404,0.001069787,-0.00131042,0.003745713,-0.169449493,-0.409724087,-0.035243381,-0.793188334,0.322082639,1.830541134
0.554972947,0.308815479,0.685353994,-0.659884632,0.001731688,-0.001357641,0.002969828,-0.169687063,-0.40977338,-0.035596594,-0.793194413,0.322064757,1.830536842
0.559973896,0.310724556,0.686384439,-0.658402443,0.001485662,-0.000612809,0.004356026,-0.16976583,-0.409789711,-0.035713714,-0.793205976,0.322070599,1.830531359
0.564975858,0.310040653,0.686866999,-0.659105241,0.002506759,-0.003155115,0.002823437,-0.169826448,-0.409802288,-0.035803828,-0.793204546,0.322055876,1.830539942
0.569972992,0.311586052,0.686392963,-0.658861876,0.001761715,-0.001483046,0.0042592,-0.16984655,-0.40980646,-0.035833709,-0.793216586,0.322062582,1.830528736
0.574970901,0.311074018,0.685313344,-0.658818126,0.000997688,-0.002645143,0.00383737,-0.17001237,-0.409804583,-0.03561179,-0.793214381,0.322058022,1.830531716
0.579969764,0.310793787,0.684504151,-0.658812702,0.001308219,-0.002080259,0.003483023,-0.170104563,-0.409802705,-0.035477601,-0.793221116,0.322052449,1.830528021
0.584969699,0.309089899,0.684611499,-0.658020675,0.001768354,-0.002654604,0.002806302,-0.170175493,-0.409801245,-0.035374351,-0.793223441,0.322045416,1.830529571
0.589970708,0.311158389,0.685207367,-0.659457564,0.002420117,-0.002388239,0.001082095,-0.170199007,-0.409800768,-0.035340115,-0.793225169,0.322032154,1.830518007
0.59497267,0.309024364,0.685866416,-0.658013165,0.000585104,-0.003302523,0.003285854,-0.170189321,-0.409771562,-0.03525966,-0.793233156,0.322027445,1.830532074
0.599975705,0.30791536,0.685210228,-0.660471976,0.00058219,-0.002911377,0.002064136,-0.170158103,-0.409732789,-0.035178408,-0.793242931,0.322008073,1.830527782
0.604973853,0.308229208,0.686389267,-0.659630895,0.001621537,-0.003731525,0.0015347,-0.170134082,-0.409702957,-0.035115894,-0.79324621,0.321981728,1.830530286
0.609973013,0.310679197,0.686862886,-0.660168588,0.002676713,-0.001968092,0.002300126,-0.17012611,-0.409693092,-0.035095166,-0.793242812,0.321980894,1.830527186
0.614972949,0.311112434,0.686865687,-0.658319294,0.003297465,-0.002069909,0.003713065,-0.170119971,-0.409685493,-0.035079215,-0.793239832,0.321977913,1.830518365
0.619974136,0.308257788,0.684481442,-0.658527792,0.002945556,-0.003205326,0.002856616,-0.169864491,-0.409943432,-0.035221126,-0.793242097,0.321964353,1.830516577
0.624976397,0.310830891,0.685756445,-0.659428179,0.00461141,-0.00315616,0.004345049,-0.169667915,-0.410141855,-0.035330318,-0.793231726,0.321956277,1.830518365
0.629973769,0.310921103,0.686107397,-0.659165978,0.003535085,-0.003256123,0.00286949,-0.169602737,-0.410207659,-0.035366524,-0.793226361,0.32195279,1.830506921
0.634971917,0.308694065,0.686055422,-0.659613967,0.003041868,-0.001621498,0.004787752,-0.16955258,-0.410258293,-0.035394385,-0.793226838,0.321945369,1.830511451
0.639971077,0.308036417,0.686736345,-0.658659458,0.002079866,-0.00179384,0.002941251,-0.169734374,-0.410270989,-0.035372324,-0.793235958,0.321933568,1.830509424
0.644971013,0.307858825,0.685286164,-0.658327401,0.002620569,-0.003789108,0.002749712,-0.17007491,-0.410276622,-0.035323698,-0.793235838,0.321909308,1.830513477
0.649971962,0.310406536,0.686410844,-0.659049273,0.001200536,-0.003237193,0.004524101,-0.170187816,-0.410278499,-0.035307575,-0.793239236,0.321905017,1.830519915
0.654974222,0.310876369,0.686052442,-0.659177482,0.003304271,-0.00289959,0.001863438,-0.170274705,-0.410279959,-0.03529517,-0.793241322,0.321895182,1.830510974
0.659971356,0.31060642,0.68694061,-0.660004318,0.001527043,-0.002259613,0.001885164,-0.170303509,-0.410280436,-0.035291057,-0.793248892,0.321885258,1.830504537
0.664969444,0.310439795,0.687673569,-0.658937216,0.000201815,-0.001228722,0.002730859,-0.17038919,-0.410417587,-0.035606749,-0.793266535,0.321880013,1.830500245
0.669968367,0.30900839,0.68814522,-0.658516288,0.002420513,-0.002157638,0.003306023,-0.170417607,-0.410463065,-0.035711426,-0.793266892,0.321871698,1.830502391
0.6749686,0.309662342,0.689350009,-0.659829617,0.002634451,-0.001956354,0.003516204,-0.170439467,-0.410498053,-0.035791967,-0.793272972,0.321866095,1.830508947
0.679969549,0.310526013,0.687447131,-0.659353495,0.003178583,-0.001976623,0.003856552,-0.170446709,-0.410509646,-0.035818674,-0.793267071,0.321866035,1.830510139
0.68497175,0.310352921,0.686006308,-0.65940547,0.003562687,-0.001742274,0.005201115,-0.170105994,-0.410321474,-0.035799775,-0.793263435,0.321872413,1.830517292
0.689968884,0.309387743,0.68497628,-0.658994436,0.001793264,-0.003745317,0.003695159,-0.169907331,-0.410210311,-0.035783749,-0.79327023,0.321864963,1.830516219
0.694967031,0.309210211,0.685694695,-0.658158481,0.001778302,-0.003226383,0.004902582,-0.16975446,-0.410124809,-0.035771418,-0.793267608,0.321861684,1.830520153
0.699966192,0.30939582,0.685263157,-0.657003582,0.004315364,-0.002013691,0.003358886,-0.169703767,-0.410096437,-0.035767328,-0.793265402,0.321863592,1.830512881
0.704966664,0.310197294,0.684828043,-0.65956986,0.002120848,0.000163656,0.004534109,-0.169975817,-0.410125852,-0.035702575,-0.793267727,0.321868986,1.830508351
0.709967852,0.309125841,0.68547374,-0.659272432,0.002899805,-0.00146739,0.005746617,-0.170379668,-0.410187244,-0.035618983,-0.793259978,0.321867138,1.830519319
0.714970112,0.310227543,0.68575269,-0.660217345,0.002631654,-0.000989304,0.005892569,-0.170690402,-0.410234511,-0.035554666,-0.793252707,0.321870923,1.830525875
0.719967484,0.309739232,0.686245084,-0.659770668,0.003949813,-0.001489985,0.006714294,-0.170793444,-0.410250187,-0.035533339,-0.793246508,0.321879953,1.830531836
0.724965632,0.308155209,0.687866867,-0.660322249,0.003785476,-0.001492606,0.007512038,-0.170872703,-0.410262227,-0.035516929,-0.793240368,0.321886271,1.830548882
0.729964554,0.309480786,0.687837183,-0.658209682,0.003489427,0.001619051,0.005602385,-0.170547292,-0.410426438,-0.035613321,-0.793246508,0.321898669,1.830534577
0.734970629,0.309357494,0.687502742,-0.659887314,0.005657118,-0.001187059,0.007788936,-0.170296907,-0.4105528,-0.035687491,-0.793223977,0.321908116,1.830547214
0.739971817,0.311032802,0.687491298,-0.66031909,0.003955253,0.000254098,0.006456465,-0.170213893,-0.410594672,-0.035712086,-0.79321903,0.321917951,1.830544472
0.744973838,0.309766799,0.686317563,-0.659152627,0.004370527,-0.000506186,0.007387769,-0.170150012,-0.410626918,-0.03573101,-0.793209732,0.321936429,1.830556154
0.749970973,0.311642051,0.68658644,-0.659357011,0.004604436,0.001787769,0.007924562,-0.170016035,-0.410638034,-0.035547033,-0.79320085,0.321962118,1.830555677
0.754968822,0.312611073,0.685028255,-0.659107327,0.002892699,-0.000991436,0.009382682,-0.169798881,-0.410647035,-0.035213105,-0.793199062,0.321986794,1.83056438
0.759967983,0.310685009,0.684265673,-0.660354793,0.002664283,0.000516528,0.009194251,-0.169726878,-0.410650015,-0.035102379,-0.793192387,0.322011799,1.830564618
0.764967918,0.309770972,0.685269535,-0.658521414,0.001454936,0.000595008,0.008229626,-0.169671476,-0.41065231,-0.035017185,-0.793199182,0.322027683,1.830562711
0.769969165,0.30819717,0.684956253,-0.658695579,0.001737128,0.002326236,0.00812173,-0.169653103,-0.410653085,-0.034988936,-0.793204904,0.322044492,1.830563545
0.774971128,0.310044408,0.684892535,-0.657626867,0.00233842,0.002777773,0.009053454,-0.170305863,-0.410305858,-0.035279829,-0.793207884,0.322074205,1.83056438
0.7799685,0.311493486,0.687516391,-0.657328904,0.002400075,-0.000345402,0.008644119,-0.170522302,-0.410190731,-0.035376281,-0.793211341,0.322092384,1.830576301
0.784966409,0.309853882,0.688030481,-0.656085253,0.002273056,-0.000762826,0.008431491,-0.170688838,-0.410102159,-0.035450496,-0.793211401,0.322106212,1.830590248
0.78996557,0.309604168,0.687475741,-0.657085478,0.003762973,-0.00054873,0.007794124,-0.170744047,-0.410072774,-0.035475105,-0.793212175,0.322120309,1.830596447
0.794965506,0.309361756,0.687039971,-0.658759475,0.003301807,0.001204742,0.00904136,-0.170533538,-0.410260648,-0.035738617,-0.793203294,0.322143257,1.830607414
0.799966693,0.308972865,0.687464118,-0.658237457,0.003379885,-1.35E-05,0.007770586,-0.170401126,-0.410374999,-0.035886515,-0.793199062,0.322153538,1.830613971
0.804968953,0.309654832,0.684754729,-0.658670247,0.003847243,-0.001171622,0.009381203,-0.170299247,-0.410463005,-0.036000311,-0.793186069,0.322171062,1.830632567
0.809966087,0.311099023,0.684527099,-0.658532977,0.005169962,-0.001298828,0.008552871,-0.170265451,-0.410492182,-0.036038045,-0.793164253,0.322190166,1.830643177
0.814964235,0.31245926,0.684836447,-0.659718215,0.00445608,-0.001427406,0.007593211,-0.170155898,-0.410428882,-0.035987202,-0.793148994,0.322205305,1.830647111
0.819963157,0.311621428,0.683289587,-0.661318839,0.004970956,-0.001667168,0.006493105,-0.170035303,-0.410321414,-0.035889793,-0.793130934,0.322212696,1.830651879
0.824963093,0.310929865,0.683389246,-0.65894258,0.00506909,-0.001089491,0.007026477,-0.169942513,-0.410238743,-0.035814848,-0.793114543,0.322227478,1.830657125
0.829964042,0.310372323,0.683337033,-0.659860432,0.005490802,-3.71E-05,0.00615088,-0.169911742,-0.410211325,-0.035789996,-0.79309833,0.322240889,1.830654502
0.834966242,0.31119889,0.686236918,-0.660494268,0.003907555,-0.000247768,0.006300529,-0.169888064,-0.410190254,-0.035770874,-0.793092132,0.322255075,1.830654263
0.839963377,0.311989129,0.683505356,-0.659438491,0.00374395,0.000135921,0.005795312,-0.169735014,-0.409928769,-0.035431366,-0.793084025,0.32226336,1.830641627
0.844961524,0.310501605,0.684670627,-0.660099387,0.003662078,-0.000399982,0.006747705,-0.169617265,-0.409727544,-0.035170142,-0.793081224,0.322274029,1.830644011
0.849960446,0.31049189,0.684493124,-0.659945071,0.002292983,-0.000445591,0.006570782,-0.169578224,-0.409660846,-0.035083525,-0.793081284,0.322276354,1.830645442
0.85496062,0.309296578,0.68516475,-0.661358416,0.003359162,-0.001662299,0.006312404,-0.169548169,-0.409609526,-0.035016876,-0.793068171,0.322277665,1.83065176
0.859961629,0.308954269,0.684740603,-0.661193013,0.002729473,-0.001722727,0.00770634,-0.169591591,-0.409795076,-0.035156388,-0.793053746,0.322292566,1.830663204
0.86496383,0.310296327,0.685862482,-0.660110712,0.003219373,-0.000511472,0.008534644,-0.169678986,-0.41014269,-0.035427149,-0.793044984,0.322307914,1.830667019
0.869967103,0.311458826,0.685792029,-0.657456219,0.002906317,-0.000794217,0.008474964,-0.169707969,-0.410257936,-0.035516929,-0.793040454,0.322326392,1.830673814
0.874965489,0.311591268,0.686979413,-0.657497108,0.004320707,-0.000862746,0.007965876,-0.169730261,-0.410346627,-0.035586011,-0.793037176,0.322342455,1.830677629
0.87996465,0.310781062,0.686133921,-0.658771336,0.004153475,-0.001406876,0.01024998,-0.169737652,-0.410376012,-0.035608917,-0.793021321,0.32236588,1.830697298
0.884964883,0.311022341,0.687741816,-0.659064889,0.006703083,-0.000883993,0.008989759,-0.169814393,-0.410059482,-0.035629004,-0.79300046,0.322380483,1.830701709
0.889966071,0.310520023,0.685505807,-0.658382773,0.005706832,-0.001088289,0.008850993,-0.169839844,-0.409954518,-0.035635669,-0.792980134,0.322398603,1.830718637
0.894968092,0.310934365,0.686650217,-0.658122659,0.008446956,-0.000851448,0.008274097,-0.169859409,-0.409873754,-0.035640791,-0.792949259,0.32240808,1.830727458
0.899965167,0.310063899,0.687131047,-0.659168184,0.006941407,-0.00198271,0.00992837,-0.169865891,-0.409846991,-0.03564249,-0.792929351,0.322423905,1.830746889
0.904963851,0.31146881,0.685888171,-0.661508858,0.006366579,-0.000193026,0.008166395,-0.170117378,-0.410025418,-0.035685163,-0.792907,0.322435975,1.830749154
0.909963012,0.310254306,0.686536312,-0.659223735,0.0070565,0.000977281,0.008403586,-0.17026177,-0.410133839,-0.035709549,-0.792883873,0.322457135,1.830761909
0.914962947,0.309466153,0.686462224,-0.658295512,0.006135512,-0.000495041,0.007702915,-0.170372874,-0.410217255,-0.035728309,-0.792868078,0.322462261,1.83076942
0.919964135,0.309739828,0.685991764,-0.658290088,0.005223847,-0.001054156,0.008300709,-0.170409709,-0.410244912,-0.035734534,-0.792849541,0.322479695,1.830781221
0.924966156,0.30857712,0.684621215,-0.65943104,0.006226286,0.000323762,0.008673826,-0.170383528,-0.410149992,-0.035549261,-0.792824924,0.322497904,1.830795169
0.929963529,0.311039329,0.682418168,-0.660010576,0.005151719,-0.000349643,0.00924269,-0.17031987,-0.410001367,-0.035296172,-0.792797327,0.322517604,1.830806017
0.934961379,0.311534673,0.684956074,-0.658701599,0.005284343,0.000488928,0.008388978,-0.170270905,-0.409886986,-0.03510144,-0.79278779,0.322536886,1.830805302
0.939960599,0.31174615,0.68461144,-0.660170674,0.003995699,-0.000384608,0.00657223,-0.170254663,-0.409849077,-0.035036869,-0.792778969,0.322549284,1.830810428
0.944960535,0.311330348,0.68474561,-0.659012794,0.003578207,-0.001401116,0.006903156,-0.170242161,-0.409819931,-0.034987185,-0.792761683,0.322558403,1.830816031
0.949961722,0.312480688,0.685917318,-0.659730077,0.004215386,0.000814342,0.008839127,-0.16993542,-0.409972161,-0.035362031,-0.792747319,0.322583914,1.830820322
0.954963684,0.311488539,0.685194016,-0.65814203,0.002878635,-0.000867106,0.008751101,-0.169699401,-0.410089284,-0.035650451,-0.792747319,0.322606325,1.830819607
0.959961116,0.309257656,0.685575187,-0.657145023,0.00527848,8.03E-05,0.006313109,-0.16962114,-0.410128117,-0.035746083,-0.792736232,0.32261014,1.830820918
0.964959204,0.308993161,0.686596155,-0.658226073,0.004562686,0.000286407,0.006741245,-0.169560924,-0.410158008,-0.035819668,-0.792729974,0.322617173,1.830821157
0.969958425,0.309684098,0.686235845,-0.659065545,0.003645752,0.000874429,0.00742475,-0.16971235,-0.410077482,-0.035786781,-0.792724133,0.322641373,1.830826283
0.97495836,0.311743289,0.686280608,-0.659402311,0.004903816,-0.000360558,0.007559315,-0.170002148,-0.40992406,-0.035703558,-0.792704582,0.322654784,1.83083427
0.979959309,0.311475903,0.686565995,-0.659119129,0.005048092,-1.56E-05,0.006487413,-0.170098245,-0.409873217,-0.035675962,-0.792687893,0.322667003,1.830837965
0.98496151,0.311041534,0.686963439,-0.658537328,0.005862042,-0.001024002,0.007948757,-0.170172185,-0.409834087,-0.035654727,-0.792678595,0.322687626,1.830847263
0.989958644,0.310127497,0.684765399,-0.658424079,0.006464675,-0.000412238,0.009885957,-0.170196697,-0.409821123,-0.035647687,-0.792647362,0.322704613,1.830862164
0.994956791,0.310202509,0.685750186,-0.659382224,0.006846991,0.000238837,0.010804098,-0.170149595,-0.409811229,-0.035514891,-0.792622447,0.322730213,1.830878139
0.999955714,0.311010957,0.68498975,-0.660504103,0.006969551,-0.00130856,0.009781864,-0.170133978,-0.40980792,-0.035470858,-0.792598486,0.322747588,1.830888629
1.004961848,0.312027305,0.686203301,-0.659500897,0.007803187,0.001225408,0.01068523,-0.170121968,-0.409805417,-0.03543698,-0.792571187,0.322780728,1.830895185
1.009962797,0.310455263,0.686505377,-0.65991807,0.007320041,2.40E-05,0.008518694,-0.170117989,-0.409804583,-0.035425745,-0.792551577,0.322799146,1.830902457
1.014964938,0.310671121,0.687117815,-0.659763038,0.006982621,0.001923505,0.008123376,-0.170463756,-0.4098472,-0.035313014,-0.792532325,0.322816789,1.830904484
1.019962072,0.310246736,0.684318304,-0.659956038,0.005548158,0.000276117,0.010143698,-0.170664728,-0.409872025,-0.035249878,-0.792512298,0.322839439,1.830923319
1.024960279,0.310749292,0.685521841,-0.660094142,0.00608349,0.001333058,0.009587656,-0.170819372,-0.409891099,-0.0352013,-0.792488575,0.32286191,1.83093977
1.029959202,0.311418593,0.686553419,-0.658357143,0.006362304,0.000587164,0.007239867,-0.170870647,-0.409897447,-0.035185196,-0.792479515,0.322880208,1.830941319
1.034959316,0.309612006,0.68464148,-0.659451723,0.006034082,0.001469794,0.01012102,-0.170569509,-0.409938276,-0.035233989,-0.792458773,0.322907597,1.830949068
1.039960265,0.311857224,0.683815062,-0.658783257,0.00310476,0.001108025,0.010144652,-0.170126215,-0.409988075,-0.035311874,-0.792453051,0.322939098,1.830955982
1.044962525,0.312542915,0.685011268,-0.658300936,0.004606445,-0.001529414,0.007337131,-0.169785127,-0.410026371,-0.035371803,-0.792440772,0.322943956,1.830960274
1.04995966,0.312516868,0.685078084,-0.658470213,0.003820232,-0.003177825,0.008338249,-0.169672027,-0.410039067,-0.035391673,-0.792426586,0.322958767,1.830967665
1.054957509,0.311237276,0.683804989,-0.658451974,0.003720318,0.000195861,0.007367763,-0.169585004,-0.410048842,-0.035406962,-0.792422175,0.322978199,1.830963135
1.059956789,0.311200798,0.684705794,-0.65955621,0.004082516,0.000461088,0.006213126,-0.169956177,-0.409993052,-0.035356518,-0.792404354,0.322996676,1.830963254
1.064957142,0.310521007,0.685105562,-0.659942985,0.005467482,-0.00056815,0.009272016,-0.170241773,-0.409950167,-0.035317708,-0.792382836,0.323016226,1.830983639
1.069958448,0.310674042,0.686411142,-0.659936309,0.005911295,0.000361807,0.007392949,-0.17033647,-0.409935921,-0.035304837,-0.792374194,0.323029608,1.830980301
1.074960589,0.310826629,0.686181188,-0.658542216,0.004243837,0.000278631,0.008461038,-0.170409337,-0.409924954,-0.035294935,-0.792360663,0.323050082,1.830988288
1.079957962,0.309526235,0.685165405,-0.659178257,0.006908871,-0.000273761,0.008296878,-0.170460403,-0.410008192,-0.035372615,-0.792337835,0.323064834,1.830999136
1.084956169,0.308875531,0.68510443,-0.656702936,0.005046097,-0.000366861,0.007592698,-0.170526877,-0.410160035,-0.035514258,-0.792329669,0.323074281,1.83100462
1.08995533,0.310577482,0.685849488,-0.65745914,0.003905074,-0.000698965,0.006682551,-0.170548916,-0.410210371,-0.035561223,-0.79232955,0.323083282,1.831011295
1.094955206,0.310411572,0.685836256,-0.658623576,0.003840127,0.002075532,0.009659328,-0.170565873,-0.410249144,-0.035597358,-0.79232204,0.323110849,1.831017733
1.099956274,0.310052216,0.684971631,-0.65997988,0.003122988,-0.00159085,0.008482806,-0.170571491,-0.410261989,-0.035609342,-0.792310119,0.323122978,1.831034899
1.104958177,0.311142355,0.684006453,-0.661325514,0.004313876,-0.00125507,0.007988416,-0.170577481,-0.410201937,-0.035362013,-0.792292416,0.323130429,1.831036568
1.109955311,0.311699867,0.683560193,-0.659454286,0.004234961,-0.000492975,0.009712197,-0.170579463,-0.410181999,-0.03528,-0.79227829,0.323152542,1.83105135
1.11495316,0.31188795,0.684447408,-0.658165336,0.004690634,-0.000770549,0.006968727,-0.170580983,-0.410166681,-0.035216898,-0.792266667,0.323159873,1.831049204
1.11995244,0.312740743,0.68373996,-0.659897089,0.006034741,-1.64E-05,0.008017546,-0.17058149,-0.410161585,-0.035195973,-0.792244792,0.323178172,1.83105588
1.124952316,0.312271595,0.683783948,-0.659873843,0.002903508,-0.001084831,0.005220892,-0.170536518,-0.409852624,-0.035087392,-0.792251706,0.323182285,1.831049204
1.129953504,0.311545074,0.684697151,-0.658845603,0.003725035,-4.81E-05,0.005854581,-0.170510381,-0.409674674,-0.035028502,-0.792240739,0.323192179,1.831049681
1.134955525,0.31072998,0.684513032,-0.656780779,0.004785196,-0.000526088,0.004562075,-0.170490265,-0.409537762,-0.034983195,-0.792237043,0.323198259,1.831049681
1.139958501,0.310792238,0.686378598,-0.657285571,0.004557478,-0.001164782,0.006771529,-0.170483604,-0.409492373,-0.034968171,-0.79222697,0.323206127,1.831055284
1.144956708,0.310661405,0.686380565,-0.657822907,0.005353439,-0.001122367,0.006865292,-0.170251012,-0.409491956,-0.035098094,-0.79220891,0.323215127,1.831065774
1.14995563,0.311033785,0.684604168,-0.659661114,0.005287393,-0.000104186,0.007776915,-0.16994451,-0.409526646,-0.035283845,-0.792195082,0.323232651,1.831066012
1.154955506,0.31205973,0.684901714,-0.658461809,0.007258547,-0.000320955,0.007855022,-0.169708669,-0.409553349,-0.035426769,-0.792175055,0.323241711,1.831063509
1.159956455,0.309834093,0.686035991,-0.658805013,0.004321436,-0.000867409,0.007666724,-0.169630468,-0.4095622,-0.035474159,-0.792169333,0.323253363,1.831071734
1.164958715,0.310197085,0.684901714,-0.658498943,0.00458677,-0.00169724,0.008934403,-0.169570297,-0.409568995,-0.035510622,-0.792155385,0.32327193,1.831083417
1.16995585,0.309516996,0.682877004,-0.660458803,0.004745717,-0.000504392,0.008900243,-0.170296937,-0.40970847,-0.035409834,-0.792133629,0.323284954,1.831096172
1.174953938,0.311154366,0.683823407,-0.660193384,0.004420709,0.001034926,0.00875567,-0.170856059,-0.409815788,-0.035332281,-0.792128861,0.323304474,1.831100583
1.17995286,0.312600374,0.6826545,-0.658968866,0.003345161,-0.000250625,0.008832052,-0.171041444,-0.409851372,-0.035306565,-0.792115331,0.323324561,1.831116557
1.184953094,0.31113705,0.682935119,-0.659507096,0.004794151,3.83E-05,0.007863772,-0.171184093,-0.409878761,-0.03528678,-0.792096496,0.323343903,1.831120968
1.189954042,0.31150353,0.682438493,-0.65941745,0.004554425,-0.000314232,0.00753068,-0.171173975,-0.409946442,-0.035253182,-0.792083979,0.32335794,1.831129313
1.194956303,0.311961651,0.684176207,-0.659731507,0.005724494,-0.001880763,0.004313244,-0.171108156,-0.410057753,-0.035199989,-0.792070746,0.323359072,1.831127286
1.199953437,0.312368363,0.684851706,-0.66050601,0.004186649,-0.001679215,0.007395651,-0.171086326,-0.410094678,-0.035182349,-0.792056978,0.323362947,1.831141472
1.204951525,0.312174261,0.68411237,-0.660903454,0.005737671,-0.003192453,0.0070442,-0.171069548,-0.41012308,-0.035168778,-0.792036414,0.323371351,1.831157565
1.209950447,0.311958015,0.684355259,-0.66065526,0.005030655,-0.00132465,0.006877302,-0.171063974,-0.410132527,-0.035164278,-0.792026758,0.323379457,1.831160069
1.214950681,0.310282797,0.683969557,-0.659761369,0.00497027,-0.000422518,0.005271711,-0.170928046,-0.410074741,-0.03516411,-0.792015433,0.323382139,1.831162691
1.219951868,0.310404032,0.684299707,-0.658897579,0.003696379,-0.001378322,0.006862246,-0.17088297,-0.410055578,-0.035164054,-0.792005301,0.323392659,1.831165671
1.22495389,0.309592426,0.68534112,-0.658888757,0.003320959,-0.001286526,0.006215233,-0.17084828,-0.410040855,-0.03516401,-0.791999459,0.323393762,1.831178904
1.229951024,0.310812414,0.685735106,-0.659256876,0.005563342,-0.001346069,0.007498887,-0.170836791,-0.410035968,-0.035163995,-0.791984499,0.323405832,1.831186652
1.234948874,0.311984956,0.684227586,-0.659906507,0.004402965,0.000748066,0.006895516,-0.170477718,-0.410042077,-0.035509549,-0.791968584,0.323419183,1.83118546
1.239948034,0.31306383,0.68416363,-0.660198808,0.005987204,0.000568517,0.007194105,-0.170271993,-0.410046548,-0.035709638,-0.791952193,0.323435903,1.831183434
1.244948506,0.313272506,0.684870005,-0.660552204,0.006701398,-4.61E-05,0.006382304,-0.170113683,-0.410049945,-0.035863593,-0.791936159,0.323447555,1.831181526
1.249949932,0.311541796,0.68484658,-0.659713566,0.004740733,-0.001777759,0.006739041,-0.170061201,-0.410051078,-0.035914641,-0.7919209,0.32345289,1.831184745
1.254951954,0.310763657,0.684781373,-0.660345018,0.00388358,-0.001646988,0.006184685,-0.170219943,-0.410045624,-0.035675213,-0.791910887,0.323454261,1.831195831
1.259949327,0.311397135,0.685959458,-0.660221934,0.003966006,-0.001831872,0.005897641,-0.170473367,-0.410037398,-0.035314776,-0.791900754,0.323457032,1.831203103
1.264947176,0.311110556,0.683604956,-0.661216974,0.006114111,-0.001694468,0.00604361,-0.170668349,-0.41003105,-0.035037443,-0.791878223,0.323462665,1.831210136
1.269946337,0.309764624,0.682970941,-0.660348892,0.004885601,-0.002340449,0.007289329,-0.170733005,-0.410028964,-0.034945484,-0.791860819,0.323462665,1.831221104
1.274952412,0.309289306,0.683036029,-0.659451544,0.005137277,-0.001589197,0.005715669,-0.17078276,-0.410027355,-0.03487473,-0.791847169,0.323469281,1.831226707
1.279953957,0.30962047,0.684095085,-0.660424292,0.004618389,-0.000696206,0.006485158,-0.170699045,-0.410030067,-0.034998413,-0.79183799,0.323476374,1.831234217
1.284956217,0.309758693,0.686044037,-0.659507632,0.005336405,-0.00137865,0.006056238,-0.170634627,-0.410032153,-0.035093576,-0.791824698,0.323478639,1.831237555
1.289953589,0.311482042,0.684595227,-0.659701705,0.004798009,0.000182945,0.005431193,-0.170613274,-0.410032839,-0.035125129,-0.791810036,0.323484659,1.831232786
1.294951677,0.310695916,0.68414396,-0.657884479,0.005660315,0.00045666,0.005072393,-0.170596838,-0.410033405,-0.035149407,-0.791800022,0.323488593,1.831234217
1.2999506,0.312265724,0.684715331,-0.660173774,0.005285165,-0.001174877,0.005074363,-0.170450509,-0.409978539,-0.035160817,-0.791790247,0.323493063,1.831231117
1.304950476,0.311709821,0.683920622,-0.659391403,0.004890254,-0.001107216,0.005289217,-0.17019549,-0.409880698,-0.035172995,-0.791778207,0.323495865,1.831234932
1.309951544,0.313429534,0.685149074,-0.659242988,0.00362497,-0.002264286,0.003866793,-0.170110941,-0.409848273,-0.035177033,-0.79177326,0.323491693,1.831229568
1.314953685,0.312394619,0.685875714,-0.657511353,0.003233451,-0.001514863,0.004861311,-0.170045868,-0.409823298,-0.03518014,-0.791775286,0.323492587,1.831220508
1.319950819,0.313363284,0.684844494,-0.658731937,0.004466077,-0.000961623,0.005697781,-0.170024291,-0.409815013,-0.035181172,-0.791760206,0.323503733,1.831220508
1.324949026,0.312109977,0.685189903,-0.660254002,0.005546808,-0.000982161,0.004584039,-0.170732498,-0.410131842,-0.03509989,-0.791747391,0.323500216,1.831215024
1.329947948,0.311282396,0.683743715,-0.658406377,0.006098656,-0.001951273,0.004516716,-0.170967326,-0.410236895,-0.035072938,-0.791731775,0.323501945,1.831214786
1.334948063,0.310741633,0.684204519,-0.658832073,0.005817926,-0.00209906,0.004017194,-0.171148002,-0.410317719,-0.035052199,-0.791717291,0.323499501,1.831217766
1.339949012,0.309560984,0.685162485,-0.659569263,0.005360327,-0.001858352,0.004779289,-0.171207905,-0.410344541,-0.035045322,-0.79170084,0.323491246,1.831228256
1.344951272,0.309544981,0.684245586,-0.658292353,0.005569517,-0.003108492,0.004534719,-0.170955732,-0.410318792,-0.034901123,-0.791683018,0.323482275,1.831238031
1.349948406,0.309684008,0.685439169,-0.659947574,0.00633887,-0.002770261,0.005021053,-0.170798317,-0.410298765,-0.03481894,-0.791664004,0.323481023,1.831248283
1.354946613,0.310542554,0.685538292,-0.659357667,0.006914271,-0.001746309,0.005211699,-0.1706772,-0.410283357,-0.034755703,-0.791642666,0.323479205,1.831248641
1.359945416,0.312894762,0.684738517,-0.660659492,0.006624936,-0.002687877,0.005466358,-0.170637026,-0.410278261,-0.034734737,-0.791622519,0.323480576,1.831253529
1.36494565,0.313174576,0.68283546,-0.659809113,0.005805233,-0.002339282,0.005542683,-0.170834109,-0.410183042,-0.034687717,-0.791603088,0.323485494,1.831256509
1.369946599,0.312756419,0.684174716,-0.660453439,0.004456313,-0.003495505,0.003297781,-0.171129331,-0.410059452,-0.034640983,-0.791594386,0.323474348,1.831261396
1.374948859,0.314690083,0.681920648,-0.660759389,0.005180871,-0.001243629,0.004719886,-0.171356484,-0.409964323,-0.034605023,-0.791571259,0.323487878,1.831257701
1.379945993,0.313369334,0.681637228,-0.661658466,0.004584477,-0.002834464,0.003791206,-0.17143181,-0.409932792,-0.034593098,-0.791564584,0.323483676,1.831257343
1.384943843,0.313213885,0.682110906,-0.661330879,0.004211048,-0.002555856,0.001935693,-0.17148976,-0.409908503,-0.034583922,-0.791553855,0.323470891,1.831252933
1.389943004,0.313229293,0.681789637,-0.66053772,0.003813523,-0.003087522,0.000334056,-0.171107411,-0.410061628,-0.034683675,-0.79155314,0.323455453,1.831236959
1.394942999,0.310327619,0.682524979,-0.657930791,0.003534856,-0.003418037,0.000836441,-0.170813203,-0.410179466,-0.034760427,-0.791548729,0.323431253,1.83123064
1.399943948,0.309693336,0.685447931,-0.658379316,0.004885543,-0.003852361,0.001999527,-0.170715645,-0.410218537,-0.034785874,-0.791541338,0.323410273,1.831228495
1.404951811,0.310116678,0.684846342,-0.660013676,0.005739502,-0.004201028,0.00017872,-0.170640603,-0.410248607,-0.034805454,-0.791532516,0.323378384,1.831215143
1.409955025,0.310886711,0.682190597,-0.65967381,0.004508444,-0.003213286,0.000129026,-0.1707865,-0.410225153,-0.034671552,-0.791518867,0.323359668,1.831206918
1.414953232,0.310704827,0.684301317,-0.658923626,0.005118652,-0.003437206,0.000291405,-0.17107147,-0.410173297,-0.034426566,-0.791511655,0.32333672,1.831204057
1.419952631,0.311191469,0.683753312,-0.658643901,0.005472731,-0.00466187,0.003482842,-0.171165958,-0.410156101,-0.034345333,-0.791489482,0.323320299,1.831212759
1.424954414,0.308681846,0.685779035,-0.661098003,0.005606259,-0.00429137,0.001397146,-0.171238661,-0.410142869,-0.03428283,-0.791471779,0.323293447,1.83121419
1.429955363,0.310322851,0.686115921,-0.660829246,0.005372436,-0.002822537,0.003095143,-0.171262771,-0.410138488,-0.034262106,-0.79146111,0.323282629,1.831219435
1.434957623,0.316566139,0.684266686,-0.66418016,0.004810953,-0.003048823,0.002762656,-0.171085075,-0.409936786,-0.034316547,-0.791449428,0.32327354,1.83121562
1.439954996,0.314817697,0.681943536,-0.657394409,0.004134497,-0.005824839,0.003673959,-0.171026155,-0.409869909,-0.0343346,-0.791432023,0.323271334,1.831219435
1.444953084,0.309000731,0.685263813,-0.658615053,0.004067474,-0.005631454,0.0020321,-0.170980826,-0.40981847,-0.034348492,-0.791423619,0.323240131,1.831232548
1.449952245,0.311685711,0.685228765,-0.660202742,0.004732537,-0.00500306,0.003709277,-0.170965791,-0.409801424,-0.034353096,-0.79141438,0.323223144,1.831238747
1.45495224,0.311419189,0.684847891,-0.660424352,0.004375055,-0.003549062,0.005742534,-0.171104923,-0.409685016,-0.034500115,-0.791406035,0.323222965,1.831251621
1.459953189,0.311012626,0.688048303,-0.66107142,0.005713726,-0.004164299,0.005041964,-0.171188354,-0.409620851,-0.034584366,-0.791386485,0.323206276,1.831262589
1.464955091,0.312216729,0.686250627,-0.657575488,0.009468568,-0.002661441,0.004254233,-0.171252549,-0.409571469,-0.034649193,-0.791355252,0.323211342,1.831267357
1.469952226,0.307571054,0.687470913,-0.659258366,0.009071328,-0.002374396,0.004099557,-0.171273828,-0.409555107,-0.034670688,-0.791327,0.323194265,1.831286073
1.474950433,0.308037341,0.686886251,-0.659697652,0.007514854,-0.003558535,0.006363319,-0.171204805,-0.409573078,-0.03468854,-0.791300178,0.323188871,1.831311822
1.479949355,0.309908986,0.686568022,-0.658597827,0.009339951,-0.002008701,0.006691137,-0.171095788,-0.409609795,-0.034695782,-0.791266441,0.323193908,1.831321001
1.48494947,0.309873492,0.687433958,-0.657844365,0.010673495,-0.001327043,0.008647196,-0.17101191,-0.409638047,-0.034701355,-0.79122591,0.323205769,1.83134222
1.489950418,0.308410197,0.685654104,-0.658027828,0.01100409,-0.001318799,0.010938996,-0.170984089,-0.409647435,-0.034703203,-0.791176021,0.323226452,1.831364632
1.494952679,0.309389561,0.686052501,-0.660086095,0.011410446,-0.00013399,0.011988636,-0.170962691,-0.409654647,-0.034704626,-0.791132629,0.323252499,1.831390023
1.499949813,0.309859067,0.685474038,-0.661517918,0.012394007,-0.001929128,0.010874319,-0.170901865,-0.409913152,-0.034800056,-0.791073799,0.323272079,1.831421137
1.50494802,0.310898274,0.686475158,-0.660803795,0.010536008,-0.000226856,0.010819947,-0.170855075,-0.410112053,-0.034873482,-0.791026115,0.323301673,1.831440687
1.509946823,0.309134424,0.685184538,-0.660749257,0.011765853,0.00056686,0.012585809,-0.170839563,-0.410178006,-0.03489783,-0.790974617,0.323332936,1.831468225
1.514947057,0.31028527,0.683865249,-0.66193676,0.012511556,0.000860475,0.01286548,-0.170827627,-0.410228759,-0.034916565,-0.790921509,0.323369861,1.831490755
1.519948244,0.311854631,0.683567226,-0.660812557,0.012686264,0.000899175,0.013019518,-0.170795739,-0.410217255,-0.034923639,-0.790861368,0.323408484,1.83151412
1.524950504,0.31298551,0.683713019,-0.661072373,0.011459957,0.001829331,0.012993868,-0.170742944,-0.410179764,-0.034929961,-0.790807009,0.323455095,1.831531405
1.529947639,0.313161403,0.683757424,-0.661221802,0.011944274,0.000738191,0.012208747,-0.170725435,-0.410167336,-0.034932055,-0.790753245,0.323490262,1.831546307
1.534945846,0.31211862,0.68368125,-0.660972178,0.012225702,0.001400287,0.012301368,-0.170711964,-0.41015774,-0.034933668,-0.790699363,0.323530912,1.831561208
1.539950848,0.312826663,0.684900641,-0.658555567,0.010652555,0.000644288,0.012726367,-0.170707509,-0.410154581,-0.0349342,-0.790661037,0.323572695,1.831580758
1.544950843,0.310809463,0.684783101,-0.658932507,0.011345652,0.000372513,0.012662135,-0.170571461,-0.4101547,-0.034937158,-0.790614486,0.323602855,1.831602216
1.54995203,0.310251176,0.685745835,-0.659819961,0.012486795,0.00021622,0.010609807,-0.170526356,-0.41015473,-0.034938138,-0.79055953,0.323630035,1.831609845
1.554953933,0.310236484,0.684920311,-0.660178483,0.013027404,-0.001435972,0.011929664,-0.170491636,-0.41015473,-0.034938894,-0.79049778,0.323651582,1.831636548
1.559951305,0.309158325,0.68609339,-0.660313666,0.012428435,-0.000312948,0.013491807,-0.170480117,-0.41015473,-0.034939144,-0.79044497,0.323681951,1.83166647
1.564949274,0.310589701,0.68469739,-0.659576476,0.014331584,0.001500599,0.013190538,-0.170971394,-0.410044312,-0.035027694,-0.790382266,0.323725581,1.831684113
1.569948435,0.312295258,0.684248626,-0.660543203,0.014781194,-8.29E-05,0.013378496,-0.171258047,-0.409980357,-0.03507892,-0.790313363,0.323761791,1.831712604
1.574948311,0.311189115,0.683307409,-0.661944747,0.015485168,-0.000149636,0.014020836,-0.171478614,-0.409931123,-0.035118338,-0.790235221,0.323791802,1.831745148
1.579949617,0.310951293,0.681834102,-0.662830591,0.013125092,0.000788551,0.011991005,-0.171551749,-0.409914821,-0.035131406,-0.7901752,0.323828101,1.831765652
1.58495152,0.313487142,0.67980361,-0.664011478,0.011253252,-0.000103941,0.012509944,-0.171210751,-0.409966946,-0.035065971,-0.790107489,0.323867202,1.831790328
1.589948654,0.313778162,0.676403582,-0.666142464,0.009439918,-0.000180111,0.011960698,-0.170697078,-0.410049438,-0.034968153,-0.790057182,0.323896229,1.83180058
1.594946861,0.319678247,0.678728521,-0.662300289,0.007139937,0.000902999,0.011088945,-0.170301825,-0.410112917,-0.034892887,-0.790016651,0.323940814,1.831801176
1.599946022,0.319671631,0.685068607,-0.65686059,0.007275243,0.001401797,0.009019384,-0.170170769,-0.410133958,-0.034867931,-0.790006638,0.323982984,1.831789494
1.604946136,0.311074644,0.690507174,-0.655683041,0.008996811,-0.000153082,0.008669662,-0.170069933,-0.41015017,-0.034848727,-0.789982915,0.323990166,1.831794143
1.609947443,0.305914372,0.686341822,-0.658746958,0.012197715,-0.00030379,0.010794086,-0.170487672,-0.410042942,-0.034592822,-0.789928436,0.323998332,1.831833363
1.614949584,0.309215963,0.679421723,-0.66429764,0.012824559,0.000322253,0.011507106,-0.17080909,-0.409960449,-0.034395918,-0.789857447,0.324028671,1.831859112
1.619946718,0.316741884,0.676340103,-0.665786445,0.010571544,0.000448438,0.013819476,-0.170915678,-0.40993309,-0.034330629,-0.789796114,0.324079156,1.831878424
1.624944925,0.319002032,0.680916548,-0.660858095,0.008539967,-0.000422073,0.009203466,-0.170997679,-0.40991202,-0.034280393,-0.789763451,0.324115843,1.83187604
1.629943848,0.313043714,0.689217269,-0.6555323,0.009181166,-0.000707414,0.00816326,-0.171053052,-0.409904987,-0.034318171,-0.789746046,0.324127853,1.831882715
1.634943962,0.305712819,0.688053191,-0.658627093,0.011371445,0.000629479,0.010183414,-0.17112416,-0.409899533,-0.034402281,-0.789711356,0.324139416,1.831907868
1.639944911,0.304420382,0.682423532,-0.6637609,0.012463079,0.0005696,0.012758898,-0.171147734,-0.409897745,-0.034430169,-0.78964591,0.324163914,1.83194387
1.644947171,0.312986523,0.67724514,-0.665754616,0.008016962,0.001603702,0.011059477,-0.171165869,-0.409896344,-0.034451626,-0.789599776,0.324196756,1.831959486
1.649944305,0.317222863,0.680712461,-0.66052556,0.008334137,0.001227095,0.009276514,-0.171171889,-0.409895867,-0.034458742,-0.789571702,0.324241251,1.831947923
1.654942513,0.315712541,0.68484956,-0.658834875,0.008145944,0.000123982,0.007218626,-0.171441317,-0.409956187,-0.034265403,-0.789549232,0.324258327,1.831950426
1.659941435,0.311590523,0.682235956,-0.661119819,0.007974133,0.002040791,0.007872627,-0.171530664,-0.409976184,-0.034201298,-0.789525032,0.32428056,1.831951261
1.664941549,0.312412232,0.679179907,-0.664516628,0.004029359,0.001487173,0.007573053,-0.171599388,-0.409991592,-0.034151968,-0.789509535,0.324302316,1.831958175
1.669942498,0.316438794,0.676195621,-0.663684666,0.003598668,0.000210453,0.007169751,-0.171622187,-0.409996688,-0.034135614,-0.789493561,0.32432273,1.831951141
1.6749506,0.318737298,0.675264299,-0.663704932,3.01E-05,-0.000513241,0.002847868,-0.171242997,-0.409806222,-0.034278169,-0.789495647,0.324333847,1.831927657
1.679953933,0.319432497,0.676327765,-0.663951457,7.60E-05,0.000931299,0.002151431,-0.171019092,-0.40969497,-0.034363829,-0.789503813,0.324346453,1.831900477
1.684952378,0.314280629,0.683289349,-0.65957725,-0.002163996,1.80E-05,0.000480829,-0.170846805,-0.409609348,-0.034429736,-0.789542079,0.324331909,1.831875443
1.689951539,0.311353892,0.683639348,-0.658913553,-0.000780098,-0.001137365,0.000889618,-0.170789689,-0.409580976,-0.034451589,-0.789566875,0.324313641,1.831857681
1.694951653,0.31036368,0.681899786,-0.662568927,-0.002999373,-0.001917275,0.001297581,-0.171170056,-0.409580827,-0.034569882,-0.789593816,0.32429722,1.831852913
1.699952602,0.312888294,0.683627129,-0.661256552,-0.001699031,-0.002058644,0.001539599,-0.171724066,-0.409602612,-0.034711432,-0.789619803,0.324283361,1.831846595
1.704954624,0.310578078,0.68557924,-0.659172475,-0.000177434,-0.001121652,-0.000344188,-0.172150344,-0.409619361,-0.034820348,-0.789646029,0.324265182,1.831838608
1.709951997,0.30935955,0.683250248,-0.660968006,-0.000288442,-0.000862736,0.001285262,-0.172291681,-0.409624934,-0.034856461,-0.789669693,0.324251741,1.831832647
1.714949846,0.310495734,0.683357477,-0.662112117,2.53E-05,-0.000467114,0.001204757,-0.17240043,-0.409629196,-0.034884248,-0.789682806,0.324236184,1.831823468
1.719949007,0.310077369,0.687267363,-0.659663081,0.001521789,-0.000581477,0.001955036,-0.171887681,-0.409738094,-0.034370393,-0.789707422,0.32422483,1.831807733
1.724949002,0.309347779,0.689720333,-0.660335243,0.00120519,-0.001513265,0.003397046,-0.171493143,-0.409821898,-0.033975013,-0.789727807,0.324210256,1.831808805
1.72995019,0.311480314,0.686223924,-0.660908818,0.000108894,0.000931118,0.005220528,-0.171362326,-0.409849674,-0.033843916,-0.789743185,0.324221611,1.831807733
1.734952211,0.315034389,0.682421327,-0.661787391,0.00102493,-0.000639642,0.005856222,-0.171261683,-0.409871042,-0.033743042,-0.789747357,0.324237257,1.831800938
1.739949346,0.31467998,0.680336773,-0.663631558,-0.00075342,0.000670882,0.005886647,-0.171169564,-0.409996241,-0.033874344,-0.78975296,0.324251235,1.831792951
1.744947195,0.316261142,0.680957854,-0.66205436,-0.002345943,0.000468155,0.005827051,-0.171039268,-0.41021204,-0.034141958,-0.789772153,0.324275851,1.831787705
1.749946356,0.31203106,0.687256694,-0.6582762,-0.001556513,0.001232591,0.005035383,-0.17099607,-0.410283595,-0.034230694,-0.789809287,0.324286759,1.831780553
1.754946351,0.310293257,0.685768545,-0.659833789,-0.002328562,0.000584521,0.006862712,-0.170962825,-0.41033864,-0.034298968,-0.789839268,0.324289411,1.831780195
1.759947538,0.310294926,0.679309726,-0.666303992,-0.001527232,0.000764835,0.006486963,-0.170951799,-0.410356909,-0.034321606,-0.789851904,0.324306726,1.831782699
1.76494956,0.315079659,0.680867136,-0.661130786,-0.003560538,0.000334949,0.007747702,-0.17114751,-0.410027415,-0.03414597,-0.789874315,0.324335515,1.831786752
1.769946933,0.314055651,0.689450204,-0.654686272,-0.000715575,-0.000720486,0.006113546,-0.171212405,-0.409918159,-0.034087732,-0.789909959,0.324350595,1.831784964
1.774945021,0.309792995,0.687872529,-0.658693373,-0.000165831,0.000119705,0.009186232,-0.171262339,-0.409834117,-0.034042921,-0.789930701,0.324360371,1.83179462
1.779944181,0.310267508,0.676139951,-0.667183697,-0.001487831,-0.000222903,0.009625877,-0.171278894,-0.409806252,-0.034028064,-0.789922833,0.32437858,1.831812501
1.784944415,0.31319043,0.682791114,-0.660360217,-0.003819506,-0.000240863,0.008173609,-0.171441853,-0.409780115,-0.033820126,-0.789951563,0.324398458,1.831824541
1.789945602,0.310176164,0.688510299,-0.656895339,-0.000413261,0.000500482,0.00789348,-0.171533063,-0.40977031,-0.033702552,-0.78998208,0.324416935,1.83183217
1.794947863,0.310069889,0.682596445,-0.664017022,-0.001947389,-0.000152638,0.011027526,-0.171603233,-0.40976277,-0.033612087,-0.789994955,0.324441671,1.831857681
1.799944997,0.311528563,0.679213345,-0.665268302,-0.004878694,-0.000917442,0.011404294,-0.171626508,-0.409760267,-0.033582091,-0.790007591,0.32446301,1.831885815
1.804943085,0.312420279,0.684716702,-0.660642266,-0.003865963,5.49E-05,0.009444066,-0.171587527,-0.40973255,-0.033780333,-0.790040731,0.324486732,1.831895351
1.809948206,0.315359503,0.68380928,-0.661553621,-0.006620408,0.001119464,0.007531479,-0.171517253,-0.409697384,-0.034069251,-0.790089011,0.324514866,1.831896067
1.81494832,0.313315064,0.679350793,-0.665062487,-0.007109178,-0.001240492,0.007808826,-0.171463177,-0.409670323,-0.034291554,-0.790116668,0.324516356,1.831911087
1.819949269,0.313760132,0.675818264,-0.667434394,-0.009912242,0.000758844,0.007236037,-0.171445251,-0.409661353,-0.034365263,-0.790156364,0.324538201,1.831917167
1.82495153,0.316934526,0.679162025,-0.662074924,-0.012228924,0.00207973,0.004650309,-0.171431452,-0.409654468,-0.03442198,-0.790237546,0.324559897,1.831891537
1.829948664,0.316479117,0.685048699,-0.658698022,-0.012909341,0.000146421,0.002840321,-0.171425179,-0.409754783,-0.034536477,-0.790331006,0.324560374,1.831869602
1.834946871,0.312301636,0.68224448,-0.660690188,-0.014178447,-0.001621674,0.003719647,-0.171420366,-0.409831971,-0.034624573,-0.790409446,0.324556351,1.831870794
1.839945674,0.311976582,0.678441465,-0.664894819,-0.015340568,-0.000196032,0.003739368,-0.171418771,-0.409857571,-0.034653787,-0.790485799,0.324559957,1.831863761
1.844945908,0.311065525,0.677948356,-0.663194895,-0.017694257,0.000627614,0.001112912,-0.171417534,-0.40987727,-0.034676261,-0.790579259,0.324560463,1.831850171
1.849946856,0.314966977,0.690268159,-0.659246862,-0.017952973,0.001167728,-0.000194011,-0.171191305,-0.40985778,-0.03452345,-0.790704787,0.324554682,1.831813574
1.854949117,0.310377955,0.68750906,-0.657358408,-0.017260224,0.000870426,0.001493094,-0.170788899,-0.409816474,-0.034243818,-0.79081738,0.32454595,1.831794381
1.859946251,0.30551967,0.685468137,-0.658367157,-0.015359812,0.002295481,0.002816517,-0.170655474,-0.409802765,-0.0341511,-0.790911257,0.324539661,1.831788659
1.8649441,0.312113166,0.682785153,-0.66479528,-0.01357855,0.001577956,0.003911672,-0.170552805,-0.409792244,-0.034079757,-0.79098773,0.324546784,1.831775427
1.869943261,0.313209832,0.68117559,-0.659213603,-0.01520656,0.002593887,0.003727173,-0.170518771,-0.409788728,-0.034056101,-0.791088104,0.324568361,1.831751227
1.874943256,0.31163305,0.682989955,-0.659868777,-0.014939532,0.00249997,0.001957661,-0.170889109,-0.40984714,-0.034158159,-0.791182637,0.324572861,1.831737041
1.879944205,0.318850487,0.679189444,-0.663079679,-0.01716977,0.001309972,0.001535815,-0.17101191,-0.409866512,-0.034192,-0.791276217,0.324581385,1.831707239
1.884946227,0.315681428,0.675905883,-0.663606048,-0.020390702,0.001435326,0.001175033,-0.171106383,-0.409881443,-0.034218039,-0.791386485,0.324586898,1.831677914
1.8899436,0.316106915,0.679145098,-0.662989974,-0.023071257,0.002297466,-0.002846196,-0.171137705,-0.40988636,-0.034226671,-0.791514516,0.324582517,1.831633687
1.894941449,0.316611379,0.680458426,-0.661224365,-0.024752257,0.002240592,-0.001982034,-0.171159849,-0.409993649,-0.034425821,-0.791660666,0.32457608,1.831589818
1.89994061,0.315775841,0.681608677,-0.659539223,-0.023080008,-0.000810608,-0.003603767,-0.171166703,-0.410054833,-0.034539491,-0.79179585,0.324557036,1.831552267
1.904940844,0.312565118,0.685410917,-0.657756031,-0.023294067,-0.000164557,-0.004956241,-0.171171978,-0.410101891,-0.034626953,-0.791940928,0.324529231,1.831510544
1.909941792,0.315461934,0.685036123,-0.657361805,-0.022281047,-0.001286916,-0.003242937,-0.171173736,-0.410117477,-0.034655955,-0.792078495,0.324505329,1.831471324
1.914943695,0.312811285,0.684213221,-0.660630703,-0.021629145,-0.002017878,-0.005188055,-0.171146199,-0.410131782,-0.034871239,-0.792216063,0.324469388,1.831434011
1.919941068,0.313991308,0.681899607,-0.657510757,-0.021340864,-0.001912099,-0.00607366,-0.171107963,-0.410138875,-0.035137214,-0.792346716,0.324433863,1.831386566
1.924939036,0.312181205,0.682914793,-0.660612166,-0.020832859,-0.002884822,-0.007669271,-0.171078533,-0.410144329,-0.035341866,-0.79247117,0.324382246,1.831354499
1.929938197,0.315636158,0.681851447,-0.659635186,-0.023654636,-0.002297478,-0.007160129,-0.171068773,-0.410146117,-0.035409722,-0.792611957,0.324346721,1.831302881
1.934938073,0.313607275,0.685013235,-0.656802595,-0.022013493,-0.003901589,-0.009372415,-0.171061262,-0.410147518,-0.035461936,-0.792755008,0.324292511,1.831252933
1.93993938,0.310224146,0.686802387,-0.657222211,-0.018798279,-0.00397688,-0.007360734,-0.170712933,-0.409900874,-0.03553718,-0.792877316,0.324236929,1.831225514
1.944947481,0.31087327,0.688114047,-0.656601787,-0.017260451,-0.0039807,-0.009482811,-0.170444906,-0.409711093,-0.035595074,-0.79300189,0.32417962,1.831171751
1.949950457,0.309241027,0.684746504,-0.659805596,-0.016109746,-0.00402594,-0.007909566,-0.170356035,-0.40964818,-0.035614271,-0.793096304,0.324120998,1.831137419
1.954948902,0.312104315,0.685092032,-0.657752991,-0.015477507,-0.003981848,-0.009030225,-0.170287654,-0.409599781,-0.035629038,-0.793204725,0.324067771,1.831092596
1.959948063,0.312166393,0.682692885,-0.657084286,-0.016244618,-0.004075545,-0.008306574,-0.170375839,-0.409727424,-0.0357951,-0.793306589,0.324018002,1.831048369
1.964948177,0.310749888,0.685995519,-0.659004509,-0.014432887,-0.004423521,-0.007790857,-0.170555785,-0.409970969,-0.036085833,-0.793407142,0.323963642,1.831017494
1.969949484,0.307419956,0.690812826,-0.656756163,-0.013119414,-0.003375232,-0.006693214,-0.170615464,-0.410051733,-0.036182232,-0.793515146,0.323903114,1.830984235
1.974951625,0.310090065,0.686160922,-0.658160686,-0.012116265,-0.003397113,-0.005250266,-0.170661375,-0.410113871,-0.036256406,-0.79358995,0.323859811,1.830961704
1.979948759,0.31109786,0.688602567,-0.656213641,-0.011267587,-0.00358309,-0.004588426,-0.170676604,-0.410134494,-0.036281001,-0.793667734,0.32381928,1.830937386
1.984946966,0.308898985,0.689657152,-0.654575586,-0.010415844,-0.001983196,-0.004253565,-0.170687735,-0.410216749,-0.036170527,-0.793755651,0.32378149,1.830904245
1.989946127,0.310120493,0.68581748,-0.659503579,-0.010280984,-0.001414075,-0.001213961,-0.170691431,-0.410244018,-0.036133897,-0.793819785,0.323753834,1.830888033
1.994946361,0.311259001,0.684421599,-0.660933614,-0.010766844,-0.003538359,-0.002549685,-0.170694262,-0.410264999,-0.036105715,-0.793883443,0.323721945,1.83086729
1.999947309,0.313408256,0.688388169,-0.657856703,-0.010603262,-0.001659113,-0.003104215,-0.170695201,-0.410271972,-0.036096368,-0.79396677,0.323701113,1.830833197
2.00494957,0.310216278,0.688355327,-0.6569736,-0.008869033,-0.002089236,-0.002622103,-0.170800656,-0.409968048,-0.035848599,-0.794034421,0.323663235,1.830813646
2.009946585,0.312896132,0.684248149,-0.657815993,-0.009679573,-0.000471882,-0.003180122,-0.170861557,-0.409790725,-0.035706911,-0.794098437,0.32364586,1.830785871
2.014944792,0.311930031,0.687297821,-0.655947983,-0.005993827,-0.00153433,-0.001447647,-0.170908406,-0.409654289,-0.035597891,-0.794152439,0.323625028,1.830768824
2.019943953,0.310078293,0.693373144,-0.651245832,-0.004061107,-0.000737101,-0.000433884,-0.170923933,-0.40960905,-0.035561744,-0.794214547,0.323603094,1.830753803
2.024943829,0.304949135,0.691850245,-0.653532863,-0.000598544,-0.001588132,0.001864533,-0.170820951,-0.409664333,-0.035672594,-0.794242263,0.323573709,1.830759048
2.029945135,0.310059547,0.685606539,-0.658209026,0.001794782,-0.003252472,0.003496764,-0.170670882,-0.409773529,-0.035849184,-0.794237256,0.323568225,1.83076179
2.034947157,0.313086152,0.686128736,-0.656184971,0.002896395,-0.003052423,0.003720747,-0.170555428,-0.409857541,-0.035985056,-0.794241548,0.323563814,1.830758572
2.03994441,0.312128246,0.691464603,-0.651979327,0.006792657,-0.002876613,0.000851899,-0.170517147,-0.409885406,-0.03603011,-0.794239402,0.323548734,1.83074224
2.044942379,0.30729416,0.690358758,-0.655310631,0.010519864,-0.003799206,0.004025808,-0.170487687,-0.409906834,-0.036064774,-0.794201255,0.323525161,1.830756664
2.04994154,0.311342031,0.681833863,-0.660384715,0.010406786,-0.005266764,0.00264818,-0.170277357,-0.409969538,-0.036176354,-0.794146895,0.323503911,1.830761552
2.054941416,0.31550315,0.68064326,-0.661182463,0.007230817,-0.004096133,0.00258856,-0.17011553,-0.410017788,-0.036262207,-0.794117689,0.323502541,1.830749989
2.059942722,0.315225184,0.680015922,-0.65944773,0.006099752,-0.003609221,0.000416642,-0.170061871,-0.410033792,-0.036290672,-0.794091344,0.323483586,1.830727339
2.064944983,0.317203581,0.678559363,-0.66285193,0.003496468,-0.00180889,-0.004395009,-0.17002058,-0.410046071,-0.036312576,-0.794085503,0.323460907,1.830685496
2.069942236,0.313511729,0.679462433,-0.660258532,0.002759862,-0.001126163,-0.00414014,-0.170147121,-0.410134822,-0.036398627,-0.79408884,0.32343626,1.830645323
2.074940205,0.307791978,0.685022414,-0.662189782,0.001379616,-0.001486632,-0.002386023,-0.170386285,-0.410288692,-0.036544506,-0.794102728,0.32340169,1.830634236
2.079945326,0.308787733,0.689714968,-0.661801279,-0.000292852,-0.000541798,-0.00306039,-0.170465589,-0.410339713,-0.036592878,-0.794126272,0.323369205,1.830602169
2.08494544,0.310682237,0.697229624,-0.652062953,0.003985423,-0.000743645,-0.003033534,-0.170526609,-0.410378963,-0.036630098,-0.794148803,0.323349565,1.830572128
2.089946508,0.308840126,0.697976351,-0.653518617,0.007793503,-4.69E-05,0.000365701,-0.170546845,-0.410391986,-0.036642436,-0.794145465,0.323337793,1.830550432
2.094948769,0.313209146,0.696883202,-0.655820549,0.009212249,0.000226522,-1.39E-05,-0.170763984,-0.410196036,-0.036714677,-0.794131994,0.323328614,1.830525994
2.099946022,0.308454007,0.6930511,-0.654821515,0.014885679,0.00232575,0.002421363,-0.170835987,-0.410131067,-0.036738634,-0.794082046,0.323328555,1.830515623
2.104944229,0.311200947,0.688086867,-0.656282544,0.016887804,0.000911274,0.003804504,-0.170891389,-0.410081059,-0.036757063,-0.794021487,0.323340088,1.830498815
2.109943151,0.314559966,0.688928306,-0.656269193,0.018912509,0.001710238,0.003284637,-0.170909762,-0.410064489,-0.036763176,-0.793943763,0.323351741,1.830482602
2.114943027,0.313756645,0.692469597,-0.652322829,0.022022061,-0.001014427,0.003234743,-0.170724377,-0.410103768,-0.036480702,-0.793866634,0.323351324,1.830467939
2.119943857,0.313115418,0.691681743,-0.653946757,0.025113899,0.000719064,0.002020139,-0.170613542,-0.410129696,-0.036315978,-0.793767333,0.323354959,1.830443025
2.124946356,0.314948142,0.690245926,-0.657494068,0.028899694,-0.002474311,-0.000336751,-0.170528263,-0.410149604,-0.036189232,-0.793636918,0.323336482,1.830432773
2.129944086,0.314361036,0.684689939,-0.65514648,0.033048227,-0.003188693,-0.000824222,-0.170499995,-0.41015622,-0.036147207,-0.793486714,0.323317766,1.830410242
2.134942293,0.31143558,0.68492645,-0.657430291,0.034836642,-0.003604915,-0.002690374,-0.170280859,-0.410106868,-0.036064342,-0.79333055,0.32328552,1.830382109
2.139941454,0.310622841,0.685103059,-0.661307037,0.035138067,-0.005663838,-0.002134331,-0.170009151,-0.41003564,-0.035985909,-0.793167531,0.323245466,1.830371857
2.144941568,0.308509022,0.68871963,-0.657784998,0.036468837,-0.00443159,-0.000724433,-0.169800088,-0.409980834,-0.03592556,-0.793011129,0.323212683,1.830360413
2.149942636,0.30567053,0.694039702,-0.657645822,0.037627526,-0.004717364,0.002153413,-0.169730768,-0.409962654,-0.035905551,-0.792850196,0.323178917,1.830376029
2.154944658,0.307006717,0.694922626,-0.655908406,0.040007897,-0.005817791,0.004084136,-0.169677436,-0.409948647,-0.035890155,-0.792669296,0.323150694,1.830393791
2.159941912,0.308208555,0.693238974,-0.659536123,0.043420851,-0.004848128,0.006831583,-0.170110211,-0.409882247,-0.03563495,-0.792462647,0.323142171,1.830422759
2.164940119,0.308571875,0.690549254,-0.660582781,0.042598013,-0.00385657,0.008328984,-0.170443207,-0.409831166,-0.035438586,-0.792261481,0.323147893,1.830458879
2.169939041,0.311691642,0.689799905,-0.659399271,0.04298326,-0.00333651,0.010784985,-0.170553625,-0.409814209,-0.035373475,-0.792054415,0.323168397,1.830489278
2.174939156,0.314459234,0.687511265,-0.661267102,0.043907821,-0.002256271,0.014025999,-0.170638576,-0.409801185,-0.035323378,-0.79183799,0.323206484,1.830517054
2.179939985,0.318303376,0.688101828,-0.66306138,0.043471679,-0.002430168,0.015873034,-0.170553073,-0.409827709,-0.035281137,-0.791620493,0.32325381,1.830556631
2.184942007,0.316244274,0.684011519,-0.666657865,0.043420061,-0.001571738,0.015891166,-0.170372352,-0.409879267,-0.035222713,-0.791392922,0.32329917,1.830584764
2.18993926,0.317412645,0.683080375,-0.66850692,0.039014589,-0.000279273,0.01299048,-0.17031242,-0.409896374,-0.035203341,-0.791193545,0.323338687,1.830610394
2.194936991,0.315633565,0.685374677,-0.667460084,0.03426528,0.00239187,0.014738498,-0.170266315,-0.409909517,-0.035188437,-0.791025877,0.323399901,1.83062613
2.199936152,0.31690371,0.685226619,-0.666074038,0.029108737,0.007563434,0.015342985,-0.170251027,-0.409913868,-0.035183497,-0.790888667,0.323475361,1.83062315
2.204936266,0.317179918,0.683875024,-0.668062449,0.022100899,0.011844995,0.01432359,-0.170238137,-0.409985423,-0.035243269,-0.790785193,0.32357043,1.83059895
2.209937096,0.314632326,0.679272771,-0.673597276,0.015295922,0.015634865,0.014436295,-0.170233861,-0.410009146,-0.035263088,-0.790710807,0.323664606,1.830569267
2.214945316,0.316686183,0.677298188,-0.675931394,0.004272284,0.020695098,0.015868502,-0.170230567,-0.410027385,-0.035278335,-0.790688217,0.323793292,1.830520153
2.21994853,0.31306389,0.678490937,-0.678575635,-0.004027429,0.026877703,0.017775094,-0.17022948,-0.410033435,-0.035283394,-0.790715098,0.323932528,1.83046627
2.224946737,0.309173882,0.679997027,-0.678651154,-0.013707344,0.032954976,0.020051725,-0.170325413,-0.410288692,-0.035088923,-0.790794134,0.324096262,1.830406666
2.229945898,0.309001923,0.675472617,-0.690247536,-0.028000683,0.039184541,0.024764199,-0.170381173,-0.410435319,-0.034975357,-0.790929317,0.324290872,1.830340862
2.234945774,0.305450737,0.674344957,-0.695805132,-0.04517401,0.045517493,0.033647709,-0.170424059,-0.410548151,-0.034887977,-0.791145265,0.32455039,1.830293417
2.239947081,0.301256597,0.677712679,-0.703380525,-0.06529016,0.057737108,0.044272959,-0.17043829,-0.410585552,-0.034859002,-0.791463256,0.324869215,1.830244541
2.244949102,0.295490921,0.679400623,-0.710055113,-0.089824565,0.069819808,0.055349082,-0.170367867,-0.410356045,-0.034841217,-0.791885316,0.325261712,1.830212593
2.249946117,0.290214241,0.691775382,-0.713407218,-0.118432537,0.09062086,0.077285439,-0.170262471,-0.410019487,-0.034839865,-0.792478025,0.325791061,1.830193281
2.254944324,0.281166553,0.704313219,-0.716288328,-0.148978993,0.108548991,0.103230171,-0.170181364,-0.409760535,-0.034838825,-0.79322052,0.32645309,1.83022356
2.259943485,0.273215294,0.729622245,-0.722136021,-0.186101705,0.117553487,0.142323941,-0.170154467,-0.409674674,-0.034838483,-0.794144571,0.327273905,1.830358982
2.264943361,0.238541663,0.772248268,-0.756461442,-0.284535557,0.040985927,0.241038695,-0.170133784,-0.409608603,-0.034838218,-0.795345724,0.328072846,1.831261396
2.269944429,0.205211058,0.758322299,-0.707208693,-0.369531274,-0.010432165,0.365939826,-0.170424029,-0.409588426,-0.035655309,-0.796849132,0.329107523,1.832997561
2.274946213,0.186909795,0.805010676,-0.699975252,-0.411121041,-0.010950893,0.47515282,-0.170647353,-0.409572899,-0.036284003,-0.79845494,0.330535293,1.835066438
2.279943466,0.141427726,0.823517084,-0.724296153,-0.489702761,-0.000440333,0.578936994,-0.170721397,-0.409567744,-0.036492467,-0.800301671,0.332272351,1.837554932
2.284941673,0.098148949,0.827497184,-0.760813355,-0.612320542,0.027207842,0.6945948,-0.170778379,-0.40956378,-0.036652867,-0.802634478,0.334436566,1.840427756
2.289941549,0.1071596,0.765921414,-0.831570804,-0.789035857,0.038934309,0.819660306,-0.171678975,-0.409148932,-0.03754583,-0.805568218,0.337141752,1.843744993
2.294941664,0.076464877,0.672973633,-0.975787282,-1.113924503,0.044868045,0.965183735,-0.173263445,-0.408411622,-0.039082058,-0.809651196,0.340339184,1.847678423
2.29994297,-0.015088817,0.631808639,-1.040528893,-1.422782898,0.197477043,1.088092685,-0.173788831,-0.408167124,-0.039591443,-0.815259397,0.34429431,1.851568222
2.30494523,0.037140332,0.661079347,-1.123334765,-1.795702338,0.262081146,1.269036531,-0.174193084,-0.407978982,-0.039983377,-0.822583556,0.349353373,1.855678797
2.309942245,0.005631665,1.060655475,-0.996806979,-1.776131868,0.431506515,1.471175671,-0.17432712,-0.407916635,-0.040113337,-0.830674052,0.355484366,1.860179663
2.314940453,0.017859254,1.206472278,-0.96820873,-1.55543983,0.681488514,1.582248449,-0.178831577,-0.40486455,-0.046080083,-0.837438703,0.362929493,1.863747716
2.319939375,0.22136499,1.050539494,-1.002572417,-1.588735223,0.734211266,1.812357903,-0.180325165,-0.403852522,-0.048058543,-0.843877614,0.371848375,1.867561221
2.324939489,0.322790384,0.96968466,-1.062625289,-1.725291491,0.723765016,2.05969882,-0.181474388,-0.403073847,-0.049580835,-0.850600779,0.381834298,1.872313619
2.329940557,0.384208113,1.093285561,-1.119714737,-1.732514739,0.608430028,2.233959198,-0.18185544,-0.40281564,-0.050085597,-0.857048512,0.392020643,1.878126621
2.334942818,0.263030469,1.141452551,-1.055226922,-1.690937042,0.51103723,2.290272713,-0.187080696,-0.398260117,-0.057059735,-0.863023639,0.401745468,1.884781241
2.339939833,0.217355609,1.147653699,-1.060870051,-1.630049467,0.425940722,2.307883501,-0.190033749,-0.395671487,-0.061001889,-0.868551433,0.411183119,1.891764998
2.344937801,0.192499727,1.23916173,-1.102313519,-1.448321819,0.287974834,2.300199747,-0.192305908,-0.393679708,-0.06403511,-0.872839987,0.420057416,1.899334788
2.349942684,0.092803881,1.40377605,-1.116279483,-1.189085841,0.12776345,2.26501894,-0.19305931,-0.393019289,-0.065040872,-0.875708997,0.427950859,1.907687426
2.354942799,0.048371881,1.637483001,-1.13152802,-0.706130505,-0.025859861,2.205951929,-0.198178917,-0.389389992,-0.068758443,-0.876114666,0.434938282,1.916713953
2.359943628,-0.104292586,1.742337823,-1.129771948,-0.13340193,-0.121612981,2.029705524,-0.204454526,-0.38503924,-0.072959535,-0.873568475,0.440606952,1.925813675
2.36494565,-0.291831672,1.666735888,-1.144143939,0.36947006,-0.183545887,1.756998658,-0.209283173,-0.381691635,-0.076191992,-0.868681848,0.444691122,1.934339523
2.369943142,-0.467613876,1.451974988,-1.155090213,0.785440862,-0.242422879,1.47234726,-0.210884258,-0.380581617,-0.077263817,-0.861777186,0.447291046,1.94221735
2.374940872,-0.64277178,1.148963213,-1.152681708,1.057345271,-0.300259858,1.21952045,-0.212116197,-0.379727572,-0.078088507,-0.853472769,0.448627889,1.949575067
2.379940033,-0.796348453,0.878027081,-1.1234411,1.1454283,-0.355588436,1.00098753,-0.219769254,-0.37527746,-0.077155039,-0.844807923,0.448889673,1.956568003
2.384940147,-0.918444932,0.668308973,-1.093209505,1.083830476,-0.407886207,0.797469676,-0.225657761,-0.371853381,-0.076436795,-0.836648226,0.448141754,1.9630934
2.389941216,-1.024127126,0.528987586,-1.066144347,0.93892175,-0.458903193,0.62082994,-0.227610275,-0.370718032,-0.076198637,-0.829416513,0.446464419,1.969241142
2.394943237,-1.099452138,0.473482639,-1.035637975,0.774316907,-0.513345063,0.460497379,-0.22911261,-0.369844466,-0.07601539,-0.823221147,0.443929076,1.975073218
2.399940491,-1.140107989,0.483260244,-1.006657839,0.628650904,-0.560768247,0.302244335,-0.231664449,-0.369167745,-0.072647698,-0.818037927,0.440606058,1.980546474
2.404938459,-1.155637026,0.51814568,-0.980163276,0.527733624,-0.598481238,0.135968864,-0.235704541,-0.368255675,-0.066712663,-0.813658655,0.4365049,1.985533595
2.40993762,-1.159784436,0.554553628,-0.959785163,0.488474905,-0.630421162,-0.034053206,-0.237044156,-0.367953241,-0.064744718,-0.809762895,0.431657523,1.989961505
2.414937496,-1.154441476,0.575183034,-0.945884824,0.488000154,-0.663158476,-0.199812666,-0.238074899,-0.367720544,-0.063230522,-0.806094289,0.42610231,1.993848205
2.419938803,-1.150895834,0.566697299,-0.935735524,0.503228068,-0.683363438,-0.362487793,-0.238416672,-0.367643386,-0.062728442,-0.802559853,0.419900537,1.997155905
2.424940825,-1.136824727,0.534405708,-0.929750383,0.520161569,-0.692581415,-0.518730581,-0.240073904,-0.368775845,-0.055161092,-0.7991395,0.413152128,1.999838471
2.42993784,-1.117289305,0.500448108,-0.917181253,0.535089374,-0.683475852,-0.651870668,-0.240623415,-0.369151354,-0.052651905,-0.795853734,0.406030506,2.001906157
2.434936047,-1.09000802,0.47252956,-0.905393243,0.543824553,-0.661655843,-0.758050442,-0.24104622,-0.369440287,-0.05072125,-0.792719126,0.398690403,2.003411293
2.439934969,-1.053146243,0.461735666,-0.894379556,0.543500423,-0.62442565,-0.839513779,-0.241186425,-0.369536102,-0.050081085,-0.789764047,0.391287923,2.00439167
2.444935083,-1.009220123,0.470887303,-0.884003103,0.542191386,-0.580437541,-0.898967505,-0.240577161,-0.372158647,-0.043183435,-0.787013531,0.383913815,2.004896641
2.44993639,-0.948239863,0.490960211,-0.885211289,0.535347879,-0.532724977,-0.936584353,-0.240197688,-0.373658925,-0.039311346,-0.784440517,0.376690865,2.004988909
2.45493865,-0.864134967,0.532765985,-0.894565225,0.529607177,-0.496320456,-0.959522963,-0.2399057,-0.374813288,-0.036332037,-0.782024264,0.369650424,2.004762411
2.459935665,-0.754107237,0.591128588,-0.913648546,0.520046294,-0.484900564,-0.979194462,-0.239808902,-0.375196069,-0.035344157,-0.779731274,0.362734735,2.004308701
2.464934111,-0.613541484,0.666813016,-0.948062122,0.505205452,-0.520627797,-1.013409376,-0.237391189,-0.377639055,-0.03092142,-0.777558208,0.355755746,2.00368166
2.469933033,-0.452104747,0.744634271,-0.989612997,0.481877357,-0.597293437,-1.073533773,-0.234226614,-0.380615622,-0.025761547,-0.775529504,0.348488927,2.002926588
2.474933147,-0.272958875,0.818821013,-1.035994887,0.458271474,-0.721078575,-1.168260813,-0.23179169,-0.382905841,-0.021791374,-0.773611188,0.340661466,2.002067327
2.479934216,-0.098339446,0.897889316,-1.065781236,0.44068867,-0.892927825,-1.300531507,-0.230984315,-0.383665234,-0.020474941,-0.771786451,0.33197093,2.001157761
2.484942675,0.06305059,0.969132185,-1.079581141,0.423576832,-1.102403283,-1.472642183,-0.230363101,-0.384249568,-0.019462034,-0.770083129,0.322121143,2.000170469
2.489945889,0.197363541,1.023943067,-1.082969427,0.408851266,-1.33648169,-1.674418926,-0.226276577,-0.388573825,-0.012232098,-0.768478096,0.310907185,1.99905777
2.494944334,0.292956829,1.074159503,-1.063435316,0.416475981,-1.57405436,-1.893138409,-0.223132268,-0.391901016,-0.006669153,-0.766907811,0.298204988,1.997857451
2.499943256,0.341985554,1.096873164,-1.023115635,0.449732482,-1.792203903,-2.105935097,-0.222089663,-0.393004268,-0.004824585,-0.765221,0.284061491,1.996574044
2.504943132,0.351684153,1.092392921,-0.965687454,0.493143648,-1.966763496,-2.296839476,-0.221287459,-0.393853128,-0.003405316,-0.763371229,0.268722296,1.995155811
2.509944439,0.337961912,1.068399072,-0.896603584,0.542831421,-2.089952946,-2.447897673,-0.216831774,-0.396884978,0.001935961,-0.761335254,0.252494931,1.993509769
2.514946222,0.311554909,1.028816581,-0.82620281,0.590885878,-2.15965867,-2.566237926,-0.209166989,-0.401998878,0.010970725,-0.759116113,0.235672489,1.991634369
2.519943476,0.295531452,0.98601073,-0.759936273,0.635582626,-2.176982403,-2.642771959,-0.206625491,-0.40369457,0.01396648,-0.756728053,0.218611628,1.989494205
2.524941206,0.29447183,0.942845702,-0.709425986,0.669173121,-2.151934385,-2.688380957,-0.204669967,-0.404999256,0.016271511,-0.754201889,0.201599181,1.987039924
2.529940128,0.311583132,0.903043151,-0.673047006,0.679090619,-2.102194309,-2.703428984,-0.204021573,-0.405431867,0.017035816,-0.751650155,0.184853911,1.984232664
2.534940243,0.344518125,0.862778723,-0.651933908,0.6624192,-2.036765814,-2.705182076,-0.187674448,-0.413190573,0.029493919,-0.749168873,0.168470159,1.981016397
2.539941311,0.384252518,0.823317766,-0.638962686,0.618550599,-1.969785929,-2.703293085,-0.182254061,-0.415763199,0.033624787,-0.746886194,0.152462482,1.977479458
2.544943333,0.422826141,0.793463528,-0.631026685,0.550414324,-1.902382255,-2.692716599,-0.17808345,-0.417742699,0.036803212,-0.744916201,0.13684243,1.973679543
2.549940586,0.459983051,0.771828651,-0.629752159,0.467645139,-1.842309117,-2.6736691,-0.176700547,-0.418399066,0.037857119,-0.743319809,0.121604249,1.969674349
2.554938316,0.486838341,0.752326012,-0.627530158,0.374865502,-1.782270193,-2.648260832,-0.161528796,-0.423420399,0.047062151,-0.742144465,0.10674388,1.965368032
2.559937477,0.502986312,0.727289677,-0.632251382,0.279912591,-1.719647288,-2.610013723,-0.153007135,-0.426202953,0.052191518,-0.741363287,0.09230426,1.960955262
2.564937353,0.510940373,0.714701772,-0.636660755,0.186616302,-1.648559332,-2.556344032,-0.146450296,-0.428343952,0.056138217,-0.740982771,0.078338996,1.956495285
2.56993866,0.513779283,0.720433474,-0.63431263,0.105686702,-1.576802373,-2.482303381,-0.144276172,-0.429053903,0.057446864,-0.740964949,0.064942583,1.952102184
2.574940681,0.539669514,0.736025751,-0.639952242,0.04322562,-1.509481311,-2.383844137,-0.134257004,-0.431465745,0.061419271,-0.741197169,0.052211799,1.947712779
2.579937935,0.576140523,0.752448797,-0.641061425,0.001710851,-1.455658674,-2.279058218,-0.122518443,-0.434146732,0.065726832,-0.741598725,0.0400979,1.943463445
2.584936142,0.609967589,0.779427946,-0.641300678,-0.03104952,-1.417088389,-2.166491747,-0.113486417,-0.436209559,0.069041207,-0.742125928,0.02859406,1.9394871
2.589935064,0.660134733,0.805102825,-0.656539083,-0.0580451,-1.405972123,-2.059429169,-0.110491566,-0.436893582,0.07014019,-0.742745638,0.017592132,1.935818911
2.594935179,0.717931092,0.81302166,-0.67439568,-0.089984305,-1.417243361,-1.964618325,-0.108187236,-0.437419891,0.070985779,-0.743475497,0.006960621,1.932448506
2.599936247,0.790496588,0.82796675,-0.689075947,-0.124078237,-1.44805491,-1.891648889,-0.093935445,-0.439603627,0.074464038,-0.744354069,-0.003407636,1.929234385
2.604938269,0.853141248,0.835757434,-0.703442574,-0.158136547,-1.504607677,-1.844012976,-0.082969658,-0.441283852,0.077140324,-0.745379329,-0.01372874,1.926310897
2.609935284,0.895045519,0.846254647,-0.699564576,-0.188304424,-1.582007408,-1.817712545,-0.079333618,-0.441840976,0.078027725,-0.746567845,-0.02419124,1.923720002
2.614933491,0.920147598,0.846068919,-0.687493503,-0.199694306,-1.674379349,-1.792800426,-0.076535933,-0.442269653,0.078710519,-0.747822762,-0.034880269,1.921522141
2.61993885,0.919311166,0.825923443,-0.666174769,-0.181346908,-1.770081878,-1.76526022,-0.068834335,-0.442851454,0.079799987,-0.748971939,-0.045838747,1.919679403
2.624939203,0.87605983,0.777447939,-0.635700047,-0.143602148,-1.850103259,-1.714891791,-0.056058984,-0.443743676,0.081510961,-0.749903917,-0.056991436,1.918361783
2.629940271,0.810728312,0.690303922,-0.605372965,-0.102758639,-1.899603367,-1.625778198,-0.051822919,-0.444039524,0.082078286,-0.750562131,-0.068112127,1.917646885
2.634942532,0.746140957,0.587287903,-0.582608223,-0.071694493,-1.92683208,-1.501800895,-0.048563555,-0.444267154,0.082514808,-0.751010001,-0.078975171,1.917550921
2.639939785,0.688472331,0.477918714,-0.561520696,-0.055928145,-1.920792818,-1.344367266,-0.047482811,-0.444342613,0.08265955,-0.751329243,-0.089336701,1.918031216
2.644937992,0.636223495,0.393565923,-0.54011929,-0.057690568,-1.898052454,-1.164681792,-0.032396331,-0.444996744,0.084430598,-0.751666367,-0.099051386,1.919092536
2.649937153,0.598017275,0.346206367,-0.520402312,-0.07417275,-1.866425276,-0.967004836,-0.027393941,-0.445213646,0.085017845,-0.752168953,-0.108000152,1.92082262
2.654937267,0.586277306,0.337654561,-0.498214096,-0.082410805,-1.832003474,-0.767657995,-0.023544941,-0.445380539,0.085469693,-0.752843142,-0.116148561,1.923206806
2.659938335,0.593112707,0.360888809,-0.471400827,-0.075076841,-1.799823165,-0.575150251,-0.022268686,-0.445435882,0.085619517,-0.7536394,-0.123483963,1.926217675
2.664940596,0.603689611,0.393490136,-0.440269113,-0.048478488,-1.760233641,-0.400658488,-0.012516306,-0.44493103,0.086139135,-0.754463792,-0.130049661,1.929663181
2.669937611,0.604691327,0.425449371,-0.411797315,-0.008013541,-1.718758941,-0.249946237,-0.007112344,-0.444628179,0.086411484,-0.755226016,-0.135945156,1.933548927
2.674935579,0.585931182,0.442186177,-0.388473928,0.034073576,-1.664732695,-0.120025493,-0.002954363,-0.444395125,0.086621039,-0.755868495,-0.141238987,1.937773347
2.679934502,0.553106487,0.449210286,-0.358875871,0.069085382,-1.591923237,-0.017138695,-0.001575655,-0.444317877,0.086690523,-0.756428182,-0.145976737,1.942193866
2.684934378,0.513052881,0.44879809,-0.332581341,0.093177326,-1.495594859,0.065978952,0.002030726,-0.444016933,0.086911716,-0.756913185,-0.150152788,1.946617246
2.689935446,0.476753801,0.450291097,-0.303462684,0.110183619,-1.375777841,0.124035656,0.005793464,-0.44367364,0.08715421,-0.757344484,-0.153743386,1.950875401
2.694937229,0.452478647,0.467222571,-0.273374557,0.119099043,-1.234308243,0.16728048,0.008688636,-0.443409503,0.087340795,-0.757753134,-0.156707749,1.954840899
2.699934483,0.447537959,0.497025818,-0.245784059,0.129308537,-1.078020811,0.188732535,0.00964862,-0.443321913,0.087402657,-0.758132756,-0.159022242,1.958370328
2.70493269,0.457049698,0.530186772,-0.229396686,0.139541164,-0.91398102,0.190249383,0.010387263,-0.44325453,0.087450266,-0.758429408,-0.160711318,1.961316228
2.70993185,0.476555973,0.56615895,-0.218228608,0.16057089,-0.751555979,0.175657466,0.012667193,-0.442702591,0.088485532,-0.758585811,-0.161817819,1.963607311
2.714931726,0.499998569,0.594937265,-0.209247217,0.194765016,-0.588840067,0.139161721,0.014421444,-0.442277908,0.089282103,-0.758494616,-0.162418887,1.965172768
2.719933033,0.521172881,0.611956835,-0.201724976,0.242650717,-0.429664105,0.089712679,0.015003121,-0.442137092,0.089546226,-0.758063138,-0.162589356,1.965974092
2.724934816,0.538872182,0.616392255,-0.197243497,0.300696373,-0.277344465,0.033315446,0.015450682,-0.442028761,0.089749455,-0.757213533,-0.162393779,1.966005087
2.72993207,0.555637956,0.609506607,-0.192986771,0.36300838,-0.120010719,-0.018325681,0.016390018,-0.441972524,0.090543501,-0.755922258,-0.161776692,1.965258718
2.734930277,0.580254257,0.592319131,-0.185977995,0.421709359,0.034294762,-0.059994511,0.017912531,-0.441908687,0.091889232,-0.754208803,-0.160703689,1.963777423
2.739929438,0.623180568,0.568805456,-0.178112969,0.466860056,0.188915461,-0.090197466,0.018417368,-0.441887528,0.092335455,-0.752146006,-0.159091309,1.961569548
2.744929314,0.675765455,0.535649538,-0.171667188,0.496843159,0.33597064,-0.103825606,0.018805806,-0.441871226,0.092678793,-0.749829054,-0.156893134,1.958714008
2.749930382,0.735654831,0.501773655,-0.159908116,0.5003196,0.474715233,-0.09893395,0.018934604,-0.441865832,0.092792638,-0.747414947,-0.154073849,1.955305815
2.754938602,0.796272814,0.471180081,-0.150020629,0.479827106,0.60584271,-0.079416297,0.02041086,-0.441322714,0.095613472,-0.745046377,-0.150601521,1.951427937
2.759941578,0.864467919,0.456361711,-0.138536155,0.436032236,0.725902617,-0.044142507,0.020900359,-0.441142648,0.096548811,-0.74289602,-0.146453008,1.947163701
2.764939785,0.167763591,-0.084760025,-0.34831506,0.231712967,0.946291983,0.090466455,0.021276996,-0.441004068,0.097268492,-0.740589499,-0.142514914,1.943325877
2.769938707,1.156739593,-0.018759638,-0.096974999,-0.325009495,1.618116379,0.596780837,0.021401882,-0.440958142,0.097507119,-0.741860271,-0.132046461,1.937674284
2.774938822,0.968530893,0.075488955,0.295504719,-0.615132689,1.778304219,0.86939168,0.022088598,-0.440810531,0.100098483,-0.745739341,-0.11998187,1.933022141
2.77993989,-0.703656197,-0.321125299,0.517568231,-0.732309222,2.276809692,1.059255362,0.022462454,-0.44073379,0.101553537,-0.749292016,-0.110322997,1.930943489
2.78494215,-0.410819173,0.303251386,0.113787353,-0.694791317,2.884279013,1.40838623,0.022750109,-0.440674752,0.102673106,-0.752798378,-0.09508016,1.92649889
2.789939165,0.043269239,0.798981309,-0.51275605,-0.745805621,3.086179972,1.6002177,0.02284549,-0.440655172,0.103044331,-0.756547868,-0.077369876,1.920966148
2.794937372,-0.130350471,1.065549493,-0.94587791,-0.699320078,3.061079741,1.681915879,0.020891717,-0.441332221,0.10233254,-0.75988394,-0.060381845,1.916195989
2.799936295,-0.180975154,1.44234097,-1.083521366,-0.618361175,2.929204702,1.787521005,0.018199701,-0.442254603,0.101090714,-0.763257742,-0.043843992,1.912627697
2.804936409,-0.12184824,1.723799348,-1.028832674,-0.557896972,2.780588627,1.861414909,0.016128376,-0.442964315,0.100135222,-0.766907394,-0.027393704,1.90975666
2.809937716,-0.245615959,1.617057323,-0.879219592,-0.544835269,2.675082207,1.91854167,0.015441565,-0.443199635,0.099818401,-0.770456672,-0.011627425,1.907763958
2.814939976,-0.293289334,1.259925604,-0.885763228,-0.695026934,2.779286146,1.977480412,0.01491311,-0.443380713,0.099574625,-0.774404466,0.004589401,1.905474544
2.819936991,0.07215821,1.140497208,-0.864435732,-0.748209596,3.145416498,2.004972458,0.005679265,-0.444504261,0.097648606,-0.778459549,0.023304626,1.900847197
2.824935436,0.387257814,0.945040107,-0.801590741,-0.947392523,3.31213975,1.974639893,-0.001425553,-0.445368737,0.096166663,-0.783616066,0.042887364,1.895034313
2.829934597,0.637930691,0.997557104,-0.929687142,-0.983340025,3.554593801,1.869354129,-0.003781375,-0.445655376,0.095675282,-0.789153814,0.06311205,1.887483835
2.834934711,1.150232315,1.100611806,-1.167836547,-0.961492121,3.560661554,1.770125389,-0.005594021,-0.445875943,0.095297195,-0.794215858,0.084016338,1.878398299
2.83993578,1.42765069,1.048330545,-1.398779511,-1.015217423,3.239231825,1.591681242,-0.011906624,-0.446291894,0.093059905,-0.799381673,0.10316129,1.869631529
2.844937801,1.47317493,1.002870679,-1.545171261,-0.917063713,2.909898758,1.442380548,-0.022539027,-0.446958601,0.08920297,-0.803836107,0.120267056,1.861592054
2.849934816,1.518992305,0.92695266,-1.538574696,-0.844618261,2.449595928,1.403635979,-0.02606453,-0.447179645,0.087924086,-0.80768168,0.135788292,1.854979277
2.854932785,1.333179116,0.720228732,-1.456005812,-0.805381596,1.975828528,1.434555411,-0.028777165,-0.447349727,0.086940065,-0.810922027,0.149342105,1.850619316
2.859931946,1.090840101,0.677818239,-1.324190021,-0.793738663,1.637171388,1.460294366,-0.029676624,-0.447406143,0.086613782,-0.814200759,0.161393136,1.848107576
2.864931822,0.923641682,0.820389867,-1.104588747,-0.767509043,1.361941934,1.445431828,-0.041608118,-0.44830519,0.080029301,-0.817629457,0.172307,1.846764088
2.869933128,0.727362216,1.031716824,-0.855908453,-0.735506237,1.173730493,1.350599408,-0.045564376,-0.448603272,0.077846013,-0.821520805,0.18178606,1.846097469
2.87493515,0.643448949,1.259010196,-0.623001397,-0.670007646,1.054027557,1.191054583,-0.048608445,-0.448832631,0.076166116,-0.825583458,0.19024621,1.845375299
2.879932404,0.373697251,1.373838544,-0.408630669,-0.574629128,1.018467069,0.985388696,-0.049617801,-0.448908687,0.075609095,-0.829696059,0.197221935,1.844418049
2.884930611,0.264369667,1.345415354,-0.321601808,-0.420444131,1.046694279,0.86663413,-0.057326339,-0.448457599,0.071872279,-0.833112717,0.203845143,1.843062401
2.889935732,0.189808547,1.196745157,-0.323095024,-0.265716463,1.071124554,0.796613276,-0.061597664,-0.448181927,0.069814593,-0.835549951,0.210245833,1.841386676
2.894935846,0.203248411,1.005831957,-0.437795669,-0.134396732,1.069649577,0.795033216,-0.064884156,-0.447969794,0.068231337,-0.836916625,0.216729522,1.839638948
2.899936914,0.371587813,0.843885779,-0.60915941,-0.009739261,0.971071899,0.855886757,-0.065973893,-0.447899461,0.067706361,-0.837146401,0.223452762,1.838177443
2.904939175,0.483256817,0.761003137,-0.738295078,0.099308528,0.796988785,0.893919528,-0.069275238,-0.447777838,0.066359833,-0.836370051,0.229862973,1.837447405
2.909936428,0.538155615,0.713393509,-0.805616438,0.167878971,0.60791415,0.914476514,-0.072853439,-0.447669387,0.064962842,-0.835019946,0.235708937,1.837501884
2.914934635,0.5204041,0.709258616,-0.783321261,0.231830701,0.431524724,0.908839881,-0.075606622,-0.44758594,0.063887954,-0.833233714,0.240865111,1.838269234
2.919933558,0.450021327,0.748505712,-0.738213539,0.282253385,0.316095233,0.883263648,-0.076519527,-0.447558284,0.06353154,-0.831270158,0.245385274,1.839507699
2.924933672,0.382050753,0.796059906,-0.67389667,0.317638844,0.245402634,0.837315023,-0.077221945,-0.447537005,0.063257307,-0.829255641,0.249400273,1.840934992
2.929934502,0.340151459,0.833858788,-0.651290536,0.349416256,0.218641445,0.782882392,-0.081505194,-0.446889669,0.063528262,-0.827183962,0.253058732,1.842352629
2.934936762,0.331320286,0.851434886,-0.658737242,0.373653442,0.202224836,0.719444096,-0.084800869,-0.446391553,0.063736737,-0.825020313,0.256420314,1.843598723
2.939934015,0.352794468,0.822733164,-0.69612515,0.39603287,0.168490797,0.670407593,-0.085893653,-0.446226388,0.063805863,-0.822655857,0.259526551,1.844755054
2.944931984,0.439043134,0.845578074,-0.750466228,0.423244029,0.103889376,0.617612064,-0.086734474,-0.446099311,0.063859053,-0.820112586,0.262367517,1.845864058
2.949930906,0.485886961,0.829584479,-0.74248153,0.446896106,0.023590103,0.535487711,-0.089146152,-0.445632577,0.06479302,-0.817403197,0.264633328,1.846973538
2.954931259,0.443756521,0.778154671,-0.733048975,0.439216763,-0.024917174,0.463344157,-0.093158439,-0.444844127,0.066438206,-0.814732909,0.266396701,1.848069072
2.959932089,0.348030061,0.731145084,-0.698246419,0.435979098,-0.050062172,0.423488587,-0.094488837,-0.444582701,0.066983715,-0.812097371,0.267784208,1.84927547
2.964934349,0.293342292,0.762006164,-0.681964278,0.429177105,-0.048616175,0.398190737,-0.095512487,-0.444381565,0.067403443,-0.809607744,0.269032747,1.850469828
2.969931602,0.275066495,0.795658767,-0.667651236,0.426911175,-0.046230901,0.375382572,-0.095851913,-0.444314867,0.06754262,-0.807208955,0.270196557,1.851608634
2.974929571,0.260124207,0.792271078,-0.651875675,0.431239963,-0.046384573,0.364941835,-0.099179171,-0.443506956,0.070080839,-0.804806828,0.271288276,1.852744341
2.979928493,0.235535994,0.784553885,-0.63779068,0.44491592,-0.034514006,0.359815031,-0.100282423,-0.443239063,0.070922464,-0.802336395,0.272376895,1.853864312
2.984928846,0.226091847,0.787242115,-0.647049785,0.449357152,-0.022684639,0.359012008,-0.101131298,-0.44303295,0.071570039,-0.799852073,0.273496449,1.854946375
2.989929676,0.232028857,0.778085589,-0.646451473,0.45368892,-0.014393456,0.358696967,-0.101412773,-0.442964613,0.071784757,-0.79736042,0.274650007,1.855983973
2.994931936,0.250393063,0.765731871,-0.658199549,0.457500905,-0.003200355,0.35298562,-0.103289351,-0.442253977,0.073717512,-0.794823766,0.27586025,1.856959343
2.999929667,0.29131186,0.743533373,-0.685860574,0.452664554,-0.003948132,0.337881625,-0.104322359,-0.44185549,0.074795768,-0.792269588,0.277073145,1.85777998
3.004927397,0.294110596,0.698194146,-0.695960402,0.441846967,-0.008289455,0.333059222,-0.105117187,-0.441548884,0.075625405,-0.789694309,0.278237045,1.858620405
3.009926558,0.294897348,0.68713367,-0.696265519,0.427098989,-0.001669032,0.32061699,-0.105380744,-0.441447228,0.075900495,-0.787222028,0.279389173,1.859382987
3.014926672,0.285134345,0.686198354,-0.708423078,0.406644166,0.005267791,0.308828741,-0.106523603,-0.44119671,0.077200621,-0.784863293,0.280497372,1.8600986
3.019927502,0.274217933,0.690334439,-0.708022773,0.389464825,0.015524127,0.307814747,-0.107850522,-0.440939873,0.078729317,-0.782612622,0.281618297,1.860813856
3.024935722,0.279117107,0.699466228,-0.707784414,0.382518679,0.02829323,0.31292066,-0.108871497,-0.440742284,0.07990554,-0.780422688,0.282812923,1.861502051
3.029938936,0.272440016,0.696451843,-0.697666287,0.377369255,0.037521791,0.316063166,-0.109210037,-0.440676779,0.080295555,-0.778260708,0.284047097,1.862176657
3.034937143,0.263284981,0.697694957,-0.691112638,0.367583185,0.059259195,0.316118449,-0.109470516,-0.440626353,0.08059565,-0.776188135,0.285328805,1.862790108
3.039936304,0.272256583,0.680376351,-0.706454515,0.358699411,0.074567109,0.311244518,-0.110415623,-0.44007358,0.081916012,-0.774128318,0.286669403,1.863301635
3.04493618,0.280340195,0.65944773,-0.709527135,0.344695956,0.089760236,0.301175267,-0.111142822,-0.439648271,0.082931936,-0.772142828,0.28803584,1.863726139
3.049937248,0.286358565,0.646740258,-0.709447682,0.324797481,0.109157674,0.286646664,-0.111383945,-0.439507246,0.083268791,-0.770280898,0.28944093,1.864000916
3.054939508,0.290922344,0.643769979,-0.713763714,0.304574519,0.133756191,0.266884714,-0.111569479,-0.439398736,0.083527982,-0.768568337,0.290860116,1.864097238
3.059936762,0.291569024,0.646577835,-0.7122913,0.280804455,0.159782246,0.244720086,-0.112515181,-0.439078838,0.084397629,-0.767041326,0.292294502,1.864035487
3.064934731,0.288789153,0.654433429,-0.705794096,0.265267551,0.184886694,0.226121917,-0.114136882,-0.438545555,0.085859209,-0.765657067,0.293736249,1.863820314
3.069933653,0.286488295,0.667575836,-0.694960415,0.25434643,0.205719084,0.214411825,-0.114674605,-0.438368708,0.08634384,-0.764393866,0.295212924,1.863499999
3.074933529,0.282574475,0.683225334,-0.68520534,0.247043803,0.219229341,0.206225917,-0.115088336,-0.43823263,0.086716734,-0.763210356,0.296696186,1.863119364
3.079934359,0.283368647,0.689941585,-0.677504182,0.24486883,0.227874592,0.197175696,-0.115225531,-0.43818754,0.086840376,-0.762073517,0.298179746,1.862671614
3.084936619,0.293617189,0.690743804,-0.680437088,0.245057553,0.23266457,0.184308156,-0.116999552,-0.437504888,0.087796852,-0.760956287,0.299654484,1.862157226
3.089933872,0.296859473,0.679652929,-0.679244339,0.247777477,0.23176752,0.179394469,-0.117587782,-0.437278539,0.088114001,-0.759799719,0.301109195,1.861624241
3.094932079,0.296776772,0.671922863,-0.678130031,0.24711062,0.227641866,0.172074258,-0.118040383,-0.437104344,0.088358022,-0.75863868,0.302527636,1.861088634
3.099930763,0.295927167,0.667496979,-0.681754291,0.245829001,0.2220411,0.160160169,-0.11819046,-0.437046617,0.088438936,-0.75748992,0.303874195,1.860527515
3.104931116,0.296980679,0.661699116,-0.681978226,0.239444554,0.217633829,0.153122321,-0.119361319,-0.436617494,0.08943712,-0.756387293,0.305178463,1.859956264
3.109931946,0.301009297,0.654076695,-0.688173532,0.23697716,0.211697891,0.148374975,-0.120010711,-0.436379999,0.089999698,-0.755266607,0.306451261,1.859395385
3.114934206,0.296474218,0.642447412,-0.693000615,0.226504579,0.209553972,0.140560955,-0.12051037,-0.436197281,0.090432569,-0.754182875,0.307689309,1.858824134
3.119931698,0.299310684,0.64258796,-0.698135555,0.217441529,0.209134758,0.138888851,-0.120676048,-0.436136663,0.090576097,-0.753154159,0.308914244,1.858240843
3.124929905,0.2938914,0.634661078,-0.707728982,0.206097618,0.205319002,0.140309319,-0.121147379,-0.435878038,0.091048196,-0.752148688,0.31013155,1.857690692
3.129929066,0.29207179,0.627316415,-0.717118144,0.180604234,0.202896759,0.135044828,-0.121650405,-0.435578525,0.091569431,-0.751266718,0.311307341,1.857143521
3.13492918,0.289245754,0.622790158,-0.720481932,0.156202406,0.203398153,0.131909758,-0.122037448,-0.435348034,0.091970481,-0.750504136,0.312459528,1.856589198
3.13993001,0.284064204,0.631982207,-0.715696156,0.137990564,0.204256028,0.135433078,-0.122165784,-0.435271621,0.092103466,-0.749856055,0.313629806,1.856056929
3.14493227,0.287524998,0.640415609,-0.70715791,0.116984405,0.204906449,0.131440341,-0.122264527,-0.435212821,0.092205785,-0.749340355,0.314785868,1.855497241
3.149929762,0.298485398,0.651451945,-0.700578272,0.105180055,0.203882575,0.132605195,-0.12250229,-0.434928983,0.092918441,-0.748897433,0.315971553,1.854925394
3.154927731,0.309962571,0.654376805,-0.692408621,0.10536404,0.201362476,0.138458639,-0.122685239,-0.434710592,0.093466774,-0.748459578,0.317174852,1.854368806
3.159932613,0.304418921,0.658008933,-0.685328901,0.106759727,0.191572905,0.137779415,-0.122745901,-0.434638172,0.09364859,-0.747994184,0.318323374,1.853860021
3.164932966,0.305197984,0.67035538,-0.67775923,0.115568087,0.183680788,0.141221687,-0.122792572,-0.434582442,0.093788482,-0.747513533,0.319462746,1.853393793
3.169934034,0.305874705,0.681720614,-0.664863169,0.13140206,0.17771697,0.146718666,-0.123461626,-0.434435099,0.093928583,-0.746961653,0.320589721,1.852979183
3.174936056,0.298061222,0.682554662,-0.664934576,0.145751625,0.166518435,0.151451677,-0.124637268,-0.434191406,0.094131134,-0.746299565,0.321675658,1.852649093
3.179933548,0.302415639,0.667735934,-0.676839411,0.144154713,0.165868878,0.157687545,-0.12502709,-0.434110582,0.094198294,-0.745615363,0.322794348,1.852331281
3.184931517,0.308271378,0.64978081,-0.686920285,0.145503402,0.1718878,0.166438147,-0.125327036,-0.434048444,0.094249971,-0.74488622,0.323984563,1.85200417
3.189930677,0.315201551,0.649822235,-0.687908113,0.148567408,0.173765332,0.174441218,-0.125426486,-0.434027821,0.094267108,-0.744134784,0.325231016,1.851693511
3.19493103,0.316681236,0.643276691,-0.686511636,0.140481204,0.1655415,0.176292211,-0.126499772,-0.433921039,0.094748914,-0.74343133,0.326435626,1.851430535
3.199932098,0.30990234,0.634215117,-0.694693327,0.130604252,0.154246837,0.181557015,-0.126855642,-0.433885634,0.094908677,-0.742719352,0.327600837,1.85124135
3.204934359,0.304129601,0.634794831,-0.699138224,0.123085596,0.1475721,0.188992575,-0.127129465,-0.433858395,0.095031604,-0.742028415,0.328751385,1.851120949
3.20993185,0.29786399,0.64717555,-0.698884964,0.120113194,0.146748543,0.195760667,-0.127220258,-0.433849365,0.095072366,-0.741371334,0.329916894,1.851035595
3.214929581,0.293155402,0.657298863,-0.696563244,0.111584917,0.146042436,0.202867806,-0.128094152,-0.433468729,0.095357157,-0.74075979,0.331071615,1.851018548
3.219928741,0.298164964,0.662175357,-0.695086479,0.108811326,0.143022135,0.209715173,-0.12858288,-0.43325004,0.095514297,-0.740150332,0.332261354,1.851014972
3.224929094,0.310566634,0.665173471,-0.689914942,0.109642103,0.145437241,0.217876777,-0.128958911,-0.433081776,0.095635213,-0.739552081,0.333511084,1.851016283
3.229930162,0.315379143,0.648714304,-0.687258542,0.103612922,0.139728338,0.219821766,-0.129083604,-0.433025986,0.095675305,-0.738932014,0.334740251,1.851037145
3.234932184,0.326636463,0.635596216,-0.696370125,0.102031924,0.138008028,0.220010296,-0.129465297,-0.432831913,0.09584745,-0.738304615,0.335996002,1.851038456
3.239929438,0.33473292,0.618460298,-0.701032043,0.094720572,0.139879733,0.214496508,-0.129880011,-0.432615161,0.096047007,-0.737689614,0.337245345,1.851001859
3.244927406,0.332774162,0.61026305,-0.709934056,0.085776933,0.13605006,0.207722574,-0.130199119,-0.432448357,0.096200556,-0.737099707,0.338454694,1.850956082
3.249926329,0.329486758,0.610269606,-0.720692277,0.06663575,0.141589284,0.200282261,-0.130304918,-0.432393044,0.096251465,-0.736627936,0.339647382,1.850870132
3.254926443,0.320437521,0.620424628,-0.723775148,0.050236847,0.148587659,0.193050638,-0.130386338,-0.432350516,0.096290641,-0.736270308,0.340809166,1.850756764
3.259927273,0.320859045,0.628762484,-0.722396255,0.032888498,0.146686658,0.193702236,-0.131766364,-0.431951702,0.096616015,-0.736004293,0.341970682,1.850666404
3.264929533,0.317350596,0.637494683,-0.716347396,0.021129716,0.147093326,0.19928968,-0.132828206,-0.431644857,0.096866369,-0.735810399,0.343147218,1.850608587
3.269926548,0.320425957,0.640839219,-0.711724579,0.009684792,0.14711307,0.206887051,-0.13318029,-0.431543112,0.096949376,-0.735673547,0.344350219,1.850575924
3.274924755,0.326849371,0.632964015,-0.705331862,0.000594334,0.148527056,0.213697314,-0.133451194,-0.431464821,0.09701325,-0.735560238,0.34559688,1.850553513
3.279923677,0.332970768,0.633689404,-0.711524367,-0.008442987,0.151489511,0.218290582,-0.134081483,-0.431283772,0.097070657,-0.735482216,0.346891403,1.85052824
3.284923792,0.334646761,0.636052549,-0.710921168,-0.021751476,0.151826099,0.220733434,-0.135112956,-0.430987686,0.097151466,-0.735478342,0.348181039,1.850521088
3.28992486,0.3284612,0.638890624,-0.699879527,-0.027790464,0.155813009,0.224358141,-0.135454968,-0.430889487,0.097178258,-0.735526443,0.349483907,1.850519657
3.294933081,0.321952879,0.651538908,-0.694508195,-0.026535118,0.163610354,0.232951224,-0.135718122,-0.430813968,0.097198881,-0.735594749,0.350836188,1.850532651
3.299936295,0.317386985,0.659160554,-0.690153956,-0.022781659,0.167251289,0.24292098,-0.135805383,-0.430788934,0.097205713,-0.735623896,0.3522304,1.850577474
3.30493474,0.317192316,0.659969747,-0.690185428,-0.0296732,0.165514708,0.25428915,-0.13760148,-0.430268496,0.096659921,-0.735672653,0.353644729,1.850694776
3.309933662,0.320031643,0.658629119,-0.688051164,-0.03464346,0.171057537,0.268600285,-0.13819702,-0.430095941,0.096478947,-0.735745609,0.355143785,1.850848913
3.314933538,0.323275208,0.659508049,-0.68350935,-0.04092551,0.174290627,0.283521563,-0.13865526,-0.429963171,0.096339695,-0.735828996,0.356703818,1.851029992
3.319934368,0.305029064,0.667761266,-0.680153549,-0.045908593,0.180515319,0.300128877,-0.138807192,-0.429919153,0.096293524,-0.735950947,0.358295619,1.851303935
3.32493639,0.293631613,0.675293446,-0.683429658,-0.041786429,0.196191609,0.320043832,-0.139675319,-0.429619163,0.095979124,-0.736035049,0.360001564,1.851622939
3.329933643,0.293048471,0.679044604,-0.690973461,-0.051584564,0.196415111,0.346044213,-0.140149072,-0.42945385,0.095805861,-0.736117363,0.361788869,1.852041483
3.334931374,0.291008472,0.687417507,-0.692974269,-0.062324889,0.193091184,0.373939455,-0.140513584,-0.429326653,0.095672548,-0.736230791,0.363645434,1.852607131
3.339930534,0.295027673,0.688965917,-0.706004202,-0.070686504,0.206214786,0.403181374,-0.140634447,-0.429284453,0.095628344,-0.736326218,0.365651816,1.853238702
3.344931126,0.295124948,0.690772235,-0.718015492,-0.104955219,0.206913352,0.441273928,-0.141550958,-0.429037482,0.095223024,-0.736546636,0.367786795,1.854028463
3.349932194,0.281087726,0.703077555,-0.717800438,-0.126838788,0.21999447,0.484697789,-0.142685264,-0.42873925,0.094714202,-0.736850619,0.370072305,1.85499537
3.354934216,0.286953181,0.711654663,-0.722380519,-0.171539485,0.223544076,0.533298552,-0.14355804,-0.428509772,0.094322696,-0.737316608,0.372555315,1.856120348
3.359931707,0.248119116,0.733326793,-0.716348112,-0.157054171,0.272757977,0.579267323,-0.143847436,-0.428433686,0.094192885,-0.737805724,0.375282526,1.857365012
3.364929676,0.274329185,0.678217888,-0.749271572,-0.176576361,0.337324589,0.63252151,-0.144070104,-0.428375125,0.094093002,-0.738115788,0.37853688,1.858454466
3.369929075,0.281735957,0.644007146,-0.773501098,-0.208903313,0.386134565,0.67863363,-0.146691144,-0.427958906,0.093185082,-0.738616586,0.382115722,1.859627962
3.374928951,0.312060893,0.599831045,-0.794724286,-0.258808523,0.448881626,0.709786475,-0.148707852,-0.42763862,0.092486493,-0.739277482,0.386088669,1.860581756
3.379930019,0.324905664,0.624236822,-0.792401135,-0.323111504,0.495571196,0.745282412,-0.149376556,-0.427532405,0.092254855,-0.740403533,0.390348434,1.861519933
3.384932041,0.30270493,0.635416389,-0.779191792,-0.345539987,0.576510489,0.776001692,-0.149891078,-0.427450716,0.092076622,-0.74166894,0.39495346,1.862307429
3.389929295,0.319881052,0.611179471,-0.800129056,-0.393216699,0.659891784,0.809735537,-0.151540935,-0.426825047,0.091214746,-0.743172884,0.400021493,1.862910628
3.394927263,0.333379269,0.593559623,-0.819690049,-0.462049365,0.733207405,0.845066547,-0.154306144,-0.425738394,0.089739852,-0.745039999,0.405502379,1.863366365
3.399926186,0.329070926,0.618387818,-0.808065116,-0.498667538,0.819271266,0.870297134,-0.155223027,-0.425378054,0.089250803,-0.747249782,0.411340684,1.863613367
3.404926538,0.327333719,0.612740815,-0.815118968,-0.54302597,0.919510067,0.900396943,-0.155928507,-0.425100803,0.088874526,-0.749726295,0.417658985,1.863571525
3.409927368,0.341865808,0.613585353,-0.825929463,-0.594584048,1.003562808,0.935533345,-0.156162426,-0.425008863,0.088749751,-0.752541721,0.424398005,1.863353491
3.414929628,0.323471308,0.644493699,-0.823827565,-0.614233196,1.113650441,0.978510797,-0.161189929,-0.423595756,0.084873006,-0.755593956,0.431629866,1.86297071
3.419926882,0.306908607,0.620334268,-0.834952116,-0.655451477,1.240802765,1.029387116,-0.162856951,-0.423127174,0.08358755,-0.758917093,0.439501554,1.862263918
3.42492485,0.322927743,0.61380434,-0.848156571,-0.72792697,1.353526831,1.086064219,-0.164139614,-0.422766656,0.082598478,-0.762686908,0.447968662,1.861319065
3.429929972,0.309241533,0.642063618,-0.859236062,-0.783850908,1.464770675,1.143307805,-0.164564922,-0.422647119,0.082270518,-0.766887665,0.456973076,1.860203505
3.434930086,0.308036834,0.671740055,-0.885393143,-0.832052946,1.594166517,1.202540755,-0.169190213,-0.421139687,0.077631906,-0.771465719,0.466599256,1.858866453
3.439931154,0.290557534,0.64048475,-0.892644584,-0.895233214,1.759531379,1.27557373,-0.171787441,-0.420289576,0.075008437,-0.776458442,0.477038264,1.857114434
3.444933414,0.307943732,0.61191684,-0.943524837,-1.027669549,1.925329089,1.35200417,-0.173785821,-0.419635504,0.072989859,-0.782249451,0.488376915,1.854942083
3.449930429,0.293936729,0.613784552,-0.962885499,-1.18561542,2.073095322,1.424248576,-0.17444846,-0.419418603,0.072320528,-0.789049149,0.500393629,1.852432489
3.454928637,0.252911419,0.581767738,-0.967922807,-1.390310645,2.265225649,1.519690871,-0.178220496,-0.41824016,0.068201132,-0.79710716,0.513340056,1.849520445
3.459927797,0.263002008,0.555537581,-1.004029155,-1.643853784,2.469299078,1.615764141,-0.18276082,-0.416829348,0.063200571,-0.806713283,0.527351499,1.846024156
3.464927912,0.255188584,0.533096731,-1.025512457,-1.939078689,2.680007219,1.720345259,-0.186254293,-0.415743828,0.059352972,-0.818122029,0.542384744,1.841885209
3.46992898,0.226721808,0.569707513,-1.045750737,-2.251834154,2.881939411,1.831122518,-0.187412664,-0.415383875,0.058077179,-0.831576407,0.558382273,1.837164164
3.474931002,0.210575759,0.694603026,-1.069803357,-2.528055429,3.150945902,1.998596311,-0.188303947,-0.415106922,0.057095546,-0.847072363,0.575654805,1.83168757
3.479928255,0.102298111,0.901492894,-1.010491252,-2.685707569,3.465548038,2.21269846,-0.195041999,-0.412300438,0.045342851,-0.864315212,0.59442544,1.825533152
3.484926224,-0.063746355,1.034690619,-1.003661871,-2.79155159,3.854165792,2.451791525,-0.200226471,-0.410141021,0.036299948,-0.88305676,0.614946306,1.818231821
3.489925385,-0.09435869,1.064249277,-1.060739279,-2.902536631,4.210227489,2.723524809,-0.201945543,-0.40942502,0.033301491,-0.903040946,0.637445688,1.809755683
3.494925261,-0.03200043,1.117128491,-1.081322432,-3.035610676,4.531569004,3.026821613,-0.20326826,-0.408874094,0.030994382,-0.924606562,0.662005544,1.800002694
3.499926567,0.005200556,1.261348963,-1.013825417,-3.187942743,4.840647697,3.364817858,-0.20822525,-0.405806392,0.0204152,-0.948223889,0.688509524,1.789100289
3.504928589,-0.04749909,1.384594798,-0.966378212,-3.295685768,5.098086834,3.818367958,-0.216608152,-0.400528789,0.002351561,-0.973442197,0.717192948,1.777392507
3.509925842,-0.017108891,1.451909304,-0.892389834,-3.24159956,5.20257616,4.346797466,-0.21938777,-0.398778826,-0.003638,-0.998595059,0.748156428,1.76590991
3.514924049,0.127712682,1.563784599,-0.847356856,-3.049577475,5.298980713,4.755502701,-0.221526489,-0.397432357,-0.00824656,-1.023303032,0.780882597,1.753754735
3.519923687,0.301497847,1.630484223,-0.924919307,-2.870028257,5.388380051,5.052594662,-0.22223565,-0.396985888,-0.009774671,-1.048098683,0.814800262,1.740398884
3.524923801,0.75456965,1.761671066,-1.049100161,-2.733482599,5.285374641,5.208715916,-0.236951843,-0.382779866,-0.039651379,-1.072829962,0.849043369,1.726461172
3.529925108,1.045676708,1.971086144,-1.067318559,-2.49300456,5.038122654,5.316104889,-0.241831452,-0.378069401,-0.049557928,-1.096560597,0.882636666,1.712759018
3.534927368,1.106118083,2.086238623,-0.983184636,-2.164508343,4.892025471,5.449372768,-0.245585978,-0.374445051,-0.057180345,-1.11943996,0.916105151,1.698683023
3.539924622,1.422213316,2.26727581,-1.080421448,-1.784770608,4.709787369,5.496528149,-0.24683091,-0.373243272,-0.059707791,-1.140938401,0.949150503,1.684080124
3.544923067,1.418845654,2.207781792,-0.989660919,-1.371168256,4.5295825,5.545804024,-0.259523869,-0.35692066,-0.08183448,-1.160711527,0.981738389,1.669617295
3.549922228,1.461006403,2.268341303,-1.033538938,-0.974197149,4.355645657,5.558724403,-0.266636491,-0.347698122,-0.094165362,-1.179361701,1.013727188,1.65465498
3.554922342,1.281440258,2.098693371,-0.914953232,-0.587344408,4.20230341,5.529603958,-0.272109151,-0.34060201,-0.10365314,-1.196686029,1.045049429,1.639124274
3.559923172,1.18543303,1.997274876,-0.921623409,-0.278756976,4.137238503,5.432245255,-0.273923814,-0.338249058,-0.106799103,-1.214580059,1.075639248,1.621500969
3.564931393,1.081620336,1.765139103,-0.919042051,0.055186152,4.003231049,5.319763184,-0.280590326,-0.326709569,-0.117392451,-1.231655002,1.105413437,1.603038549
3.569934607,0.901595712,1.592294812,-0.811884046,0.284473896,3.915622473,5.137304783,-0.288115352,-0.313072532,-0.129146352,-1.250061393,1.13404572,1.582157254
3.574933052,0.669385791,1.345499158,-0.809912324,0.495160073,3.809370279,4.970698357,-0.293905318,-0.302579731,-0.13819018,-1.26944375,1.161678433,1.559162974
3.579932213,0.340904832,0.926199198,-0.903295934,0.571315408,3.649788857,4.682960033,-0.295825154,-0.299100518,-0.141188949,-1.289435506,1.187857628,1.534766316
3.584932327,-0.025564469,0.381403178,-0.970183551,0.356705219,3.320986748,4.212401867,-0.297302365,-0.296423495,-0.14349629,-1.310035944,1.211509466,1.510513663
3.589933395,-0.174961939,0.040204011,-1.206293702,-0.177494079,2.710726738,3.822524786,-0.303458095,-0.281068474,-0.153319582,-1.327945709,1.232437968,1.492085338
3.594935656,0.421890825,0.336088479,-1.213143826,-0.900709391,2.096210957,3.510977268,-0.308194488,-0.26925385,-0.160877943,-1.343943357,1.251003981,1.480353475
3.599932671,1.528601527,1.091313362,-1.410246134,-1.435974479,1.500723004,2.938612938,-0.309765011,-0.265336365,-0.163384154,-1.357782602,1.265340924,1.47463429
3.604930878,1.565226316,1.645548463,-1.56790936,-1.677871108,0.665151179,2.106497765,-0.310973376,-0.262322098,-0.165312514,-1.362079978,1.273246646,1.48098135
3.6099298,0.644818425,1.534634948,-1.301421404,-1.724876165,-0.035419039,1.451161385,-0.312730253,-0.254777193,-0.169848517,-1.358609438,1.277015567,1.495739818
3.614929914,0.013888828,1.307688713,-0.995674372,-1.638567448,-0.500434875,1.00530827,-0.31545341,-0.242353484,-0.177278727,-1.350367785,1.278623223,1.514713764
3.619930983,-0.257238775,1.209079385,-0.818306088,-1.425145507,-0.769355237,0.661799669,-0.316356331,-0.238234028,-0.179742441,-1.339072227,1.27845645,1.535612941
3.624933004,-0.300745904,1.197319269,-0.773974657,-1.114863038,-0.971517861,0.356433123,-0.317051083,-0.235064387,-0.181638107,-1.324579239,1.276555777,1.55815351
3.629930258,-0.369488031,1.130700111,-0.709550202,-0.792123079,-1.135140181,0.099874571,-0.317281455,-0.234013394,-0.182266667,-1.307418346,1.27324152,1.581665397
3.634928226,-0.447400182,0.979863107,-0.651885748,-0.524486601,-1.25434339,-0.112230293,-0.318708569,-0.224140659,-0.18430835,-1.288595915,1.26890707,1.605370164
3.639927149,-0.51210022,0.838234067,-0.597773671,-0.303802162,-1.329069734,-0.291667819,-0.31918177,-0.220867053,-0.184985325,-1.269127131,1.263736725,1.628471017
3.644927025,-0.547528327,0.734861374,-0.576437235,-0.126252651,-1.390536308,-0.458206683,-0.319545865,-0.218348235,-0.18550621,-1.24945116,1.257717848,1.650779247
3.649927855,-0.575685322,0.622834265,-0.561531663,-0.005573163,-1.442747593,-0.634817064,-0.319666624,-0.21751304,-0.185678929,-1.229885936,1.250803471,1.672238111
3.654929876,-0.560763538,0.562768161,-0.570652485,0.061186939,-1.496209264,-0.810658455,-0.319514543,-0.21724847,-0.182133138,-1.210972548,1.24291122,1.69265902
3.65992713,-0.521361649,0.542939007,-0.582525373,0.097468853,-1.555467367,-0.974592626,-0.319403499,-0.217254296,-0.18004711,-1.192777276,1.23406899,1.712207198
3.664925098,-0.470910966,0.538140953,-0.587483108,0.125319123,-1.631203771,-1.136593103,-0.319318026,-0.217258781,-0.178442061,-1.175240755,1.224239945,1.730964422
3.669924259,-0.412860125,0.542783916,-0.592715859,0.148388475,-1.724028707,-1.291570067,-0.319289684,-0.217260271,-0.177909851,-1.158235431,1.213430882,1.749104857
3.674924374,-0.352600843,0.554379106,-0.598330736,0.170646757,-1.835236907,-1.448094964,-0.318080723,-0.21968174,-0.174417004,-1.141584158,1.201596379,1.766783595
3.679925442,-0.287507385,0.577686906,-0.601204932,0.208183572,-1.963858843,-1.606146932,-0.316482693,-0.222925276,-0.17014958,-1.12518847,1.188664436,1.784060717
3.684927464,-0.228058159,0.615411639,-0.596082449,0.262690663,-2.09507823,-1.760921359,-0.315253139,-0.225420967,-0.166866094,-1.109074354,1.174638867,1.800877571
3.689924717,-0.189885512,0.651973724,-0.587067485,0.342200369,-2.222147465,-1.913671494,-0.314845443,-0.226248503,-0.165777355,-1.093260169,1.159528255,1.817088723
3.694922447,-0.157775238,0.681220651,-0.589625776,0.431933403,-2.336709499,-2.058505297,-0.314531744,-0.226885229,-0.164939642,-1.077749491,1.143403053,1.832591057
3.699927807,-0.119048253,0.703692257,-0.602604032,0.533213556,-2.441300631,-2.20016551,-0.310310036,-0.233877063,-0.157936007,-1.062572837,1.126323104,1.847201109
3.704927921,-0.068662345,0.719516993,-0.62104243,0.633758843,-2.542470455,-2.339789152,-0.307061702,-0.239256799,-0.152547181,-1.047743678,1.108319879,1.860983968
3.709929228,-0.009089286,0.729509592,-0.638393939,0.729650378,-2.645336151,-2.47837925,-0.305984616,-0.241040617,-0.150760338,-1.033277035,1.089413643,1.873924613
3.714931488,0.049210332,0.738577604,-0.657727659,0.81860739,-2.752819061,-2.615728378,-0.305155873,-0.242413148,-0.149385482,-1.019119143,1.069601893,1.886117697
3.719928503,0.105351165,0.749741495,-0.675932825,0.898831487,-2.866172075,-2.747621536,-0.30110696,-0.248268917,-0.144240737,-1.005254388,1.048887968,1.89750278
3.72492671,0.160312474,0.758175969,-0.692706466,0.966957331,-2.988522768,-2.870487213,-0.294175357,-0.258235425,-0.135541037,-0.991657197,1.027302623,1.908278584
