Time,inertial-6253.76535:scaledAccelX,inertial-6253.76535:scaledAccelY,inertial-6253.76535:scaledAccelZ,inertial-6253.76535:scaledGyroX,inertial-6253.76535:scaledGyroY,inertial-6253.76535:scaledGyroZ,inertial-6253.76535:scaledMagX,inertial-6253.76535:scaledMagY,inertial-6253.76535:scaledMagZ,inertial-6253.76535:roll,inertial-6253.76535:pitch,inertial-6253.76535:yaw
0,0.423745483,0.035652213,-0.907961309,0.002965879,-0.00336357,0.006353244,0.010047133,0.236974686,0.300230652,-0.025746599,0.428777844,-1.074548244
0.00500224,0.422938794,0.036885284,-0.90773809,0.002882282,-0.003219657,0.006096162,0.009857556,0.23693262,0.30017969,-0.025741903,0.428774357,-1.074532628
0.00999936,0.420806676,0.037397787,-0.907373667,0.002587889,-0.003951794,0.005309838,0.009711688,0.23690024,0.3001405,-0.02574444,0.428767711,-1.074519277
0.014997504,0.423151821,0.036669962,-0.906603515,0.00301677,-0.003417476,0.006119718,0.009663322,0.236889511,0.300127506,-0.025736311,0.428757131,-1.074501634
0.019996416,0.42251727,0.037660636,-0.907685637,0.002669095,-0.003748045,0.005047813,0.009626107,0.236881256,0.300117522,-0.025733167,0.428749949,-1.074486732
0.024996608,0.421719342,0.038325865,-0.907272935,0.0015545,-0.003714757,0.005781713,0.009535184,0.236699432,0.299276948,-0.025743747,0.428741872,-1.074489236
0.029997569,0.423427284,0.036288574,-0.907829881,0.002182663,-0.003535916,0.005965195,0.009385764,0.236378446,0.297783554,-0.025733948,0.428735554,-1.074475884
0.034999806,0.420792937,0.037347294,-0.907975137,0.001117733,-0.003409553,0.004982617,0.009336219,0.236272022,0.297288358,-0.025741758,0.42872563,-1.074474216
0.039996929,0.42178598,0.036162734,-0.908659995,0.00118624,-0.004362675,0.006154421,0.009298097,0.236190125,0.296907365,-0.025746163,0.428712189,-1.074466586
0.045001216,0.421652764,0.036013346,-0.909510911,0.001060712,-0.003635785,0.005402579,0.009285457,0.236162975,0.296781033,-0.025753101,0.428702742,-1.074468017
0.050000384,0.420951813,0.037290927,-0.908727705,0.00231339,-0.003340826,0.002927384,0.009465797,0.236412063,0.297098666,-0.025755554,0.428695798,-1.074477673
0.05500032,0.423718244,0.036366083,-0.909722626,0.000804562,-0.004312582,0.003670609,0.009525594,0.236494645,0.297203988,-0.025763283,0.428683877,-1.074473381
0.060001537,0.420567065,0.039082225,-0.908268631,0.001416746,-0.003574463,0.004585967,0.009571604,0.236558199,0.29728502,-0.025774518,0.428670049,-1.074483156
0.065004028,0.419920146,0.03982088,-0.908449888,0.001957118,-0.004460292,0.003578549,0.00958686,0.236579269,0.297311902,-0.025789928,0.428653061,-1.074496865
0.070001923,0.420210332,0.04017799,-0.908302903,0.003570563,-0.003091721,0.004177767,0.009740581,0.236753687,0.298279852,-0.025792638,0.428650171,-1.074504495
0.075000063,0.421400458,0.037723716,-0.909018159,0.005236393,-0.0042247,0.00493535,0.009826686,0.236850664,0.298835248,-0.025782969,0.428634703,-1.0744977
0.079999231,0.424302459,0.03742722,-0.908137918,0.00406711,-0.004221728,0.005374359,0.009892939,0.236925274,0.299262583,-0.025777221,0.428634137,-1.074479818
0.084999427,0.424363524,0.035792064,-0.907331526,0.001873152,-0.004049907,0.006395701,0.009914907,0.23695001,0.299404263,-0.0257797,0.428627849,-1.07445991
0.090000637,0.424369574,0.034754828,-0.907923341,0.000800798,-0.004611044,0.004955025,0.009769775,0.236736909,0.299008578,-0.025777448,0.428618431,-1.074449897
0.095002621,0.423354775,0.035227492,-0.90923059,0.001465955,-0.006633,0.004794593,0.009558257,0.23643218,0.298368424,-0.025779881,0.428595245,-1.074443102
0.100000001,0.422129273,0.036517102,-0.907420933,0.00033313,-0.005817113,0.006147199,0.009395509,0.23619771,0.297875851,-0.025789872,0.42857638,-1.074440122
0.104998142,0.423237056,0.03753192,-0.907813072,0.001613131,-0.004825444,0.003598934,0.009341544,0.236119956,0.297712535,-0.025799913,0.42856276,-1.074441552
0.10999731,0.421444833,0.037492014,-0.908366382,0.001206934,-0.005925353,0.00284145,0.009300023,0.236060143,0.297586858,-0.025809901,0.42854327,-1.074451089
0.114997245,0.421797991,0.036953889,-0.908145189,0.000601432,-0.004288664,0.003224674,0.009329488,0.236445591,0.297539741,-0.025820082,0.428537518,-1.074452043
0.119998462,0.420670837,0.036056731,-0.907515347,0.000367926,-0.006019972,0.003514133,0.009352159,0.236742169,0.297503471,-0.0258292,0.428519249,-1.074459076
0.1250007,0.42103526,0.037108924,-0.906307161,0.000533703,-0.003677906,0.00567492,0.009359676,0.236840516,0.297491461,-0.025837973,0.42851311,-1.074452996
0.12999782,0.422039807,0.037477713,-0.906960666,0.000633582,-0.004671417,0.005294469,0.009365461,0.23691617,0.297482193,-0.025849307,0.42850107,-1.074460387
0.13499622,0.420965254,0.036549989,-0.906183481,4.93E-05,-0.005283774,0.004106664,0.009477556,0.236887202,0.29810825,-0.025863988,0.428480834,-1.074451566
0.139995143,0.423595518,0.03558524,-0.906693995,-0.000424478,-0.005035178,0.0031808,0.009675211,0.236810252,0.299226046,-0.025879368,0.428464681,-1.074446321
0.144995332,0.422097355,0.034096807,-0.907319129,-0.000425149,-0.006145949,0.003599836,0.009740749,0.236784741,0.299596667,-0.025893791,0.428444296,-1.074437141
0.149996281,0.420487344,0.033928771,-0.908170819,-0.002370221,-0.005352281,0.004168404,0.009791178,0.236765102,0.299881876,-0.02590896,0.428427011,-1.074432611
0.154998526,0.419726819,0.035487134,-0.909063756,-0.003434256,-0.00365735,0.000459819,0.009807899,0.23675859,0.299976438,-0.025937419,0.428412169,-1.074441552
0.159995645,0.419665962,0.036182363,-0.908900499,-0.001612187,-0.004936113,0.003126534,0.009629168,0.236553013,0.299844384,-0.025964532,0.428394914,-1.074449182
0.164993793,0.423332006,0.036324792,-0.909411848,-0.001559766,-0.004735048,0.003257806,0.009569904,0.236484841,0.299800605,-0.025985437,0.428380519,-1.07444334
0.1699927,0.422780752,0.037825674,-0.908475697,-0.001746399,-0.004114386,0.002219349,0.009524304,0.236432388,0.299766898,-0.026013736,0.428375006,-1.074457884
0.174992889,0.422025591,0.037285492,-0.907846153,-0.001043784,-0.005940315,0.003656619,0.009509185,0.236414999,0.299755722,-0.026038518,0.428353488,-1.074452877
0.180000007,0.42060551,0.039460715,-0.908439815,-0.001046393,-0.005293597,0.00249639,0.009448849,0.236547157,0.298900366,-0.026070068,0.42833066,-1.074475527
0.185002238,0.418970168,0.038626105,-0.907553077,-0.001394853,-0.003149213,0.004589375,0.009416791,0.236626998,0.298407197,-0.026086671,0.428324461,-1.074475288
0.189999357,0.420620948,0.040195033,-0.90895617,-0.000392828,-0.002929527,0.004506416,0.009392124,0.236688435,0.298027724,-0.026118429,0.428319842,-1.074489236
0.194997504,0.421492785,0.037983935,-0.909395278,-5.36E-05,-0.003033446,0.004366822,0.009383945,0.236708805,0.297901899,-0.026126012,0.428314239,-1.074490428
0.199996665,0.422189593,0.038770467,-0.907799125,0.00199461,-0.002563263,0.004201008,0.009351737,0.236608848,0.297716826,-0.026133934,0.428317398,-1.074492455
0.204996869,0.421739131,0.039338503,-0.908174336,0.001112445,-0.002709552,0.006169613,0.009314924,0.236459106,0.297566414,-0.026140705,0.428313375,-1.074484229
0.209998086,0.419873595,0.036561858,-0.907012165,0.002436043,-0.002026411,0.004910862,0.009286599,0.236343905,0.297450691,-0.026138801,0.428311408,-1.07448554
0.215000063,0.420313418,0.036442127,-0.908078611,0.001892917,-0.004992551,0.004119583,0.009277207,0.236305699,0.297412336,-0.02614475,0.428296298,-1.07448566
0.219997436,0.421824574,0.036543153,-0.90747875,0.001925224,-0.001940332,0.005872878,0.009269981,0.236276299,0.297382832,-0.026146479,0.4283005,-1.074477673
0.22499533,0.421839565,0.036561497,-0.908363938,0.002396581,-0.002991808,0.004250823,0.009368684,0.236011729,0.297479719,-0.026146738,0.428293049,-1.074472785
0.229994237,0.422895998,0.037023704,-0.909062505,0.000681465,-0.003231735,0.005622528,0.00944463,0.235808149,0.297554284,-0.026157483,0.428292543,-1.074464679
0.234994173,0.424545705,0.037132096,-0.909779429,0.001384277,-0.003255345,0.003591689,0.009469812,0.235740662,0.29757899,-0.026164355,0.428289413,-1.074466705
0.23999539,0.421093762,0.038002055,-0.908946216,0.001021692,-0.00458363,0.005372574,0.009489187,0.235688716,0.297598034,-0.026171343,0.428275943,-1.074459314
0.244997382,0.419611394,0.038023029,-0.907325983,0.001578455,-0.004033328,0.004605385,0.009574305,0.235905245,0.298110664,-0.026179794,0.428265005,-1.074455261
0.249994755,0.420910209,0.037904873,-0.907546043,0.000686319,-0.003255237,0.004732848,0.009719371,0.236308172,0.299017072,-0.026189081,0.428256691,-1.074450374
0.254992902,0.41974467,0.03711994,-0.907253623,0.002849194,-0.002603138,0.005737373,0.009767471,0.236441791,0.299317628,-0.02619596,0.428254724,-1.07444489
0.259992331,0.420180231,0.039268695,-0.90849936,0.003078577,-0.001084085,0.005371911,0.009804482,0.236544594,0.299548864,-0.026195632,0.428253472,-1.074442983
0.264992505,0.424415737,0.040039439,-0.908898592,0.003272324,-0.002082596,0.006888216,0.009816754,0.236578688,0.299625546,-0.026191717,0.428258419,-1.074427485
0.269993722,0.42201525,0.036737423,-0.906062722,0.00226299,-0.003874014,0.006851447,0.00976272,0.236536771,0.299475759,-0.026188649,0.428249359,-1.07440877
0.274995983,0.421590328,0.039144915,-0.905928314,0.003288913,-0.001891802,0.006159237,0.009744804,0.236522868,0.299426109,-0.02619051,0.428257078,-1.074398756
0.279993355,0.421069264,0.037326522,-0.908183932,0.002311919,-0.001750713,0.005944314,0.009731019,0.236512169,0.299387902,-0.02618579,0.428254575,-1.074387312
0.284991503,0.419562995,0.036305778,-0.908887565,0.003643578,-0.002411599,0.006268105,0.009726448,0.236508623,0.299375206,-0.026176097,0.428244799,-1.074376583
0.289990664,0.421350658,0.036390219,-0.908227146,0.00449786,-0.003732378,0.004582278,0.009527323,0.236654773,0.298574328,-0.026166979,0.428239971,-1.074381113
0.294990838,0.420028508,0.037103876,-0.908620477,0.000816801,-0.002024285,0.004565724,0.009412893,0.236740068,0.298113018,-0.026173696,0.428234339,-1.074380159
0.299991816,0.421264648,0.035289869,-0.908409655,0.002621735,-0.004395756,0.005031174,0.009324848,0.236805692,0.297758073,-0.026164822,0.428217262,-1.074375629
0.30499506,0.422414333,0.035661101,-0.909082294,0.002612001,-0.004505916,0.006514734,0.009295654,0.236827448,0.297640383,-0.026161285,0.428208768,-1.07436645
0.309993207,0.425915271,0.034434184,-0.912750602,0.002414228,-0.005876987,0.006256183,0.009247832,0.236671716,0.297552258,-0.0261585,0.428190231,-1.074357033
0.314997494,0.420007169,0.037112415,-0.902515173,-9.12E-05,-0.010382264,0.007541254,0.009206404,0.236446157,0.297525525,-0.026167301,0.428151697,-1.074337006
0.319996685,0.415149122,0.046451923,-0.908041656,0.002189544,-0.003884122,0.004991907,0.009174529,0.236272588,0.297504961,-0.026187036,0.428140193,-1.074368715
0.324996859,0.420558304,0.038678266,-0.908342659,0.004229394,-0.003327243,0.005944282,0.009163959,0.23621504,0.297498137,-0.026172495,0.428134173,-1.074362755
0.329997838,0.420687646,0.035462651,-0.908465862,0.00406899,-0.00339843,0.007740588,0.009155826,0.236170769,0.297492892,-0.026148126,0.428120315,-1.074338198
0.335000068,0.423107922,0.038594503,-0.908185363,0.005302673,-0.002588908,0.007433646,0.009102301,0.236163318,0.298179507,-0.0261315,0.428126127,-1.074322224
0.339997172,0.423254192,0.032556117,-0.909899771,0.004628183,-0.003006535,0.006556854,0.009061118,0.236157596,0.298707813,-0.026107164,0.428121865,-1.074305654
0.34499532,0.418415457,0.035737306,-0.905748367,0.004305599,-0.003826549,0.006987435,0.009047462,0.236155689,0.298882991,-0.026097234,0.428103149,-1.074289441
0.34999451,0.418870419,0.040301204,-0.911001682,0.004309554,-0.00267842,0.005346841,0.009036954,0.236154228,0.299017787,-0.026093472,0.428098887,-1.074293971
0.354994684,0.422136396,0.039045837,-0.907357693,0.005654618,-0.001413095,0.00513553,0.009172008,0.236262277,0.298608094,-0.026077604,0.428105265,-1.074292779
0.35999617,0.423129469,0.034794483,-0.910130143,0.005263248,-0.00417669,0.005505876,0.009416006,0.236455172,0.297833413,-0.02605518,0.428094268,-1.074275494
0.364998668,0.424763858,0.035988182,-0.909020483,0.004181723,-0.005350944,0.007087929,0.00949691,0.236519128,0.297576547,-0.026041927,0.428088278,-1.074255347
0.369996041,0.421812415,0.03752033,-0.905942678,0.004305141,-0.004454183,0.005698512,0.009559161,0.236568332,0.297378898,-0.02603572,0.428073555,-1.074251056
0.374994189,0.422197759,0.038326152,-0.910083711,0.002944736,-0.004449515,0.006045413,0.009579802,0.236584648,0.297313362,-0.026032884,0.428061187,-1.074246526
0.379993349,0.423817128,0.035668153,-0.909260273,0.004184377,-0.006540199,0.006589118,0.009728107,0.236329272,0.297755301,-0.026015297,0.428041846,-1.07422471
0.384993285,0.421283662,0.040590703,-0.90678829,0.004807633,-0.005539054,0.005783639,0.009777282,0.236244604,0.297901839,-0.025999902,0.428018153,-1.074215412
0.389994502,0.420395285,0.040011264,-0.908697426,0.005117247,-0.004916087,0.006479043,0.009815118,0.236179456,0.298014581,-0.025991209,0.428004205,-1.074210525
0.394996494,0.421437293,0.036637969,-0.907976151,0.005111241,-0.004066454,0.005982592,0.009827664,0.236157849,0.298051953,-0.02597671,0.427993953,-1.074197888
0.399993867,0.416794986,0.036926843,-0.906378031,0.005664073,-0.004122277,0.007728225,0.009883764,0.236196876,0.298713773,-0.025952948,0.42797482,-1.074174881
0.404992014,0.417518079,0.040720314,-0.907597125,0.004522336,-0.00316931,0.006831787,0.00991386,0.236223578,0.299089849,-0.025948303,0.427966893,-1.074167609
0.409991175,0.417889953,0.040218487,-0.908444464,0.005943186,-0.002365453,0.007331849,0.009937015,0.236244112,0.299379259,-0.025934713,0.427967817,-1.074153066
0.414991349,0.41817081,0.039239086,-0.908492088,0.006774677,-0.000960081,0.007455072,0.009944693,0.236250937,0.299475193,-0.02590657,0.427966923,-1.074134588
0.419992834,0.421032548,0.038346551,-0.907974422,0.007512871,0.000346634,0.010218769,0.009784407,0.236230299,0.299522549,-0.025865462,0.427981973,-1.074097514
0.424995065,0.42127037,0.037559405,-0.908994138,0.009134263,-0.001139092,0.008880728,0.00956367,0.236197338,0.299511522,-0.025827842,0.427988559,-1.074072838
0.429992437,0.419608355,0.036546111,-0.908865511,0.007751053,-0.0005438,0.009507441,0.009393828,0.236171991,0.299502999,-0.02579171,0.427993685,-1.07404983
0.434990585,0.421444952,0.034634858,-0.907237947,0.007667149,-0.000697906,0.009280603,0.009337512,0.236163586,0.299500167,-0.025742143,0.428002894,-1.074010015
0.439989746,0.422652274,0.035145469,-0.907429516,0.008734575,-0.000318235,0.008262586,0.00929418,0.236157119,0.299498022,-0.025704233,0.42802006,-1.073982239
0.444989949,0.421804816,0.035812717,-0.908200204,0.007895475,-0.000914978,0.008873913,0.009379018,0.236245468,0.2984896,-0.02566394,0.428025484,-1.073957801
0.449997306,0.423133016,0.035562653,-0.909369111,0.008039629,-0.001592217,0.00713165,0.009444295,0.236313432,0.297713667,-0.025634946,0.428033173,-1.073950648
0.454999566,0.423196852,0.035064586,-0.909344375,0.007779106,-0.000922623,0.007906452,0.00946594,0.236335978,0.297456414,-0.02559459,0.428043246,-1.073925018
0.459996939,0.424333692,0.034094501,-0.909082651,0.006674367,-0.002994409,0.009356526,0.009482594,0.236353308,0.297258437,-0.025557319,0.428039819,-1.073890209
0.464995086,0.419095278,0.037672214,-0.906160116,0.006875459,-0.003179629,0.007226454,0.009513768,0.23644805,0.297521621,-0.025539679,0.428031981,-1.073880792
0.469994754,0.420373499,0.036110107,-0.907331645,0.006676688,-0.001990678,0.00640793,0.009563694,0.236610919,0.298056632,-0.025520694,0.428036898,-1.073870301
0.474994957,0.420307845,0.034196377,-0.908049703,0.004865773,-0.003579718,0.008680586,0.009580248,0.236664921,0.298234016,-0.025489489,0.428029567,-1.073839545
0.479995906,0.422491997,0.034005813,-0.908540606,0.00305635,-0.003154099,0.00680829,0.009592985,0.23670648,0.29837051,-0.025480922,0.428025842,-1.073823452
0.484998137,0.420282125,0.03563283,-0.905514181,0.002459649,-0.003398923,0.005422952,0.009597208,0.236720249,0.29841578,-0.025475765,0.428016394,-1.073814273
0.489995271,0.419905752,0.037950739,-0.909446299,0.003934855,-0.002169555,0.004352116,0.009410976,0.236458957,0.297824949,-0.025467053,0.428015709,-1.073822379
0.494993418,0.421104938,0.035303481,-0.910565019,0.002821764,-0.002558714,0.005533718,0.009349226,0.236372322,0.297629029,-0.025456078,0.428014755,-1.073817253
0.499992311,0.420823455,0.033796404,-0.90934813,0.003000682,-0.002417173,0.00634782,0.009301714,0.236305654,0.297478288,-0.025446089,0.428007752,-1.073805332
0.504992485,0.422522962,0.033269074,-0.908476651,0.002709097,-0.002234605,0.005483635,0.009285958,0.236283556,0.29742831,-0.025438482,0.428007901,-1.073794961
0.509993494,0.419482023,0.034563109,-0.906410098,0.00306033,-0.003324913,0.005329087,0.009415402,0.236474544,0.298230827,-0.025434148,0.427998304,-1.073786259
0.514995694,0.42162469,0.035985604,-0.908356249,0.0032257,-0.002652746,0.005519601,0.009493355,0.236589342,0.298705041,-0.025429491,0.42799598,-1.073776841
0.519993067,0.422996014,0.036997899,-0.907928705,0.002825369,-0.00202157,0.004521184,0.009553333,0.236677676,0.299069911,-0.025428642,0.427998483,-1.073776007
0.524991512,0.422326803,0.036546953,-0.910155058,0.002033799,-0.001267613,0.002933636,0.009573221,0.236706957,0.299190879,-0.025444545,0.428002894,-1.073790193
0.529990673,0.421073079,0.034707658,-0.907027245,-0.001281027,-0.005931271,0.003782931,0.009616164,0.236784428,0.299042583,-0.025456853,0.427978933,-1.073784232
0.534990847,0.417793423,0.037802979,-0.906011224,0.001123779,-0.003960979,0.001187903,0.009658274,0.23686552,0.298749983,-0.025481282,0.427966893,-1.073807716
0.539992034,0.423261046,0.032732956,-0.909288824,-0.000183268,-0.003838676,0.001712321,0.009690676,0.236927912,0.298524857,-0.025488943,0.427964896,-1.073812008
0.544994056,0.422599763,0.033162031,-0.90746212,-0.000406658,-0.005981316,0.002166449,0.00970142,0.236948594,0.298450232,-0.025499517,0.427947283,-1.073810577
0.54999119,0.420198172,0.040257808,-0.905831397,-0.00163446,-0.005715352,0.000767068,0.009709685,0.236964509,0.298392773,-0.025539754,0.42792663,-1.073838949
0.55498904,0.423520684,0.036815688,-0.907630563,-0.000880591,-0.006719762,0.000950414,0.009620174,0.236662671,0.297903061,-0.025563093,0.427910298,-1.073854327
0.559988201,0.420260429,0.037443243,-0.905287564,-0.000479158,-0.00883118,0.002206837,0.009551302,0.236430421,0.29752624,-0.025586555,0.427871525,-1.073868752
0.564988136,0.423826188,0.036621757,-0.908229709,-0.000114555,-0.009331133,0.000364846,0.009528465,0.236353412,0.297401309,-0.025608804,0.427844286,-1.073890328
0.569989383,0.42054823,0.034741923,-0.904741347,-0.000750881,-0.011830641,0.000359946,0.009510893,0.236294165,0.297305197,-0.025631834,0.42779392,-1.073908091
0.574991643,0.42359668,0.0343358,-0.907999635,-0.000277178,-0.012506454,0.000615801,0.009529161,0.236423641,0.297871768,-0.025646895,0.427748531,-1.073910594
0.579989016,0.421806216,0.032517958,-0.904690504,0.000428106,-0.015556435,-0.002038132,0.00956758,0.236674055,0.298912823,-0.025664069,0.427678764,-1.073935151
0.584993005,0.422272623,0.026189545,-0.907655358,-0.001820128,-0.014057924,-0.00333821,0.00958032,0.236757085,0.299257994,-0.025683163,0.427619636,-1.07395184
0.589992464,0.425684333,0.024837095,-0.908506334,-0.009021924,-0.016944729,-0.004719593,0.009590121,0.236820966,0.299523592,-0.025744231,0.427553117,-1.073970199
0.594992638,0.425402343,0.029187968,-0.905707717,-0.009449866,-0.017189154,-0.00609639,0.009593371,0.236842155,0.299611658,-0.025813216,0.42748642,-1.07400763
0.599993885,0.423210263,0.029563028,-0.908294618,-0.011110507,-0.020155875,-0.00832941,0.009532397,0.236790329,0.299470633,-0.025907217,0.427392215,-1.074061751
0.604996085,0.425562263,0.036311343,-0.908677459,-0.012387597,-0.022295292,-0.008762951,0.009512179,0.236773148,0.299423873,-0.026019245,0.427305967,-1.074126244
0.609993458,0.425111294,0.035726823,-0.905858338,-0.013269762,-0.021992812,-0.012933793,0.009496622,0.236759916,0.299387872,-0.026139824,0.427204639,-1.074215889
0.614991605,0.425075203,0.030234057,-0.909781158,-0.016735431,-0.023244381,-0.013196771,0.009491464,0.236755535,0.299375951,-0.026265165,0.427101135,-1.074294925
0.619990528,0.424876392,0.03866351,-0.909194887,-0.016670175,-0.025346067,-0.013883309,0.009592466,0.236290842,0.299105555,-0.026410781,0.426991522,-1.074390054
0.624990702,0.423007876,0.044154167,-0.908886135,-0.01569505,-0.024915911,-0.014867732,0.009651931,0.236022592,0.298951268,-0.026565332,0.426879257,-1.074502587
0.629991651,0.421464205,0.042724047,-0.910465181,-0.014967174,-0.024909776,-0.014480717,0.009697685,0.235816211,0.298832536,-0.026699319,0.426759124,-1.074605465
0.634994447,0.419040471,0.042275377,-0.910715699,-0.013815128,-0.025947105,-0.014217163,0.009712857,0.235747769,0.298793167,-0.026832975,0.426637769,-1.074711323
0.639992297,0.418289512,0.044991586,-0.909897149,-0.01066765,-0.024234507,-0.012459018,0.009724237,0.2357786,0.298431605,-0.026950054,0.426518381,-1.074813962
0.644990444,0.423924118,0.050129309,-0.905536413,-0.008031677,-0.024164526,-0.011256063,0.009727714,0.235873014,0.297977656,-0.0270596,0.426417887,-1.07491231
0.649989367,0.413958788,0.04725929,-0.906647146,-0.004133116,-0.023816075,-0.011375704,0.009730389,0.235945657,0.297628403,-0.02714543,0.426298082,-1.075019956
0.654989541,0.411933541,0.029771172,-0.911918819,-0.002349479,-0.024781397,-0.006678993,0.009731276,0.235969752,0.297512591,-0.027171597,0.426163673,-1.075082302
0.659990788,0.416439712,0.029007517,-0.912549198,-0.003934038,-0.021549514,-0.008704588,0.009731958,0.235988274,0.297423482,-0.0272207,0.426065028,-1.075143099
0.664993048,0.422943771,0.038726632,-0.909628034,-0.006526378,-0.023007385,-0.008990721,0.009824784,0.236106649,0.298765779,-0.027306,0.425968975,-1.075200319
0.669990122,0.419789732,0.044332985,-0.906299293,-0.005509856,-0.021391535,-0.007268582,0.009896207,0.23619774,0.299798548,-0.027387114,0.425871581,-1.075264335
0.67498827,0.416931003,0.047824409,-0.909205198,-0.003428747,-0.021420646,-0.005972317,0.009919889,0.236227944,0.300141007,-0.027457621,0.425776422,-1.075338244
0.679987192,0.411073506,0.046490237,-0.908420622,0.000335064,-0.020396752,-0.005152637,0.009938112,0.236251175,0.300404519,-0.02750116,0.425665855,-1.075402021
0.684987366,0.411137432,0.046526499,-0.90686065,0.003798479,-0.017632091,-0.000664987,0.010028565,0.236226246,0.300250381,-0.027521096,0.42557317,-1.075444102
0.689988613,0.415221959,0.044892479,-0.908772528,0.006192584,-0.017845916,0.001871768,0.010183517,0.236174047,0.299887598,-0.027521627,0.42549479,-1.075456977
0.694991112,0.418395102,0.041005675,-0.907655895,0.006544782,-0.017833225,0.004937184,0.010234895,0.236156732,0.299767315,-0.027503094,0.425417066,-1.075453043
0.699988484,0.420495689,0.037830789,-0.906711102,0.006790401,-0.016578773,0.006942233,0.010274428,0.236143425,0.299674749,-0.027465394,0.425353438,-1.075422883
0.704986393,0.419560641,0.038971759,-0.906510115,0.005829575,-0.017977275,0.006520323,0.010287536,0.236139014,0.299644053,-0.027449578,0.425275862,-1.075401068
0.709985554,0.418581575,0.037604149,-0.907815337,0.006349048,-0.017411198,0.011043991,0.010172068,0.236059099,0.298358887,-0.027417796,0.425197214,-1.075370193
0.71498549,0.416638196,0.034771036,-0.909532964,0.004222574,-0.018968422,0.011093384,0.010133781,0.23603259,0.297932744,-0.027385104,0.425112695,-1.075326085
0.719992578,0.422490478,0.035283025,-0.908518493,0.002715637,-0.019611131,0.010244904,0.010104322,0.236012191,0.297604859,-0.027361382,0.425032318,-1.07527709
0.724994838,0.418342054,0.035398018,-0.908495724,0.002878757,-0.019415902,0.011244921,0.010094554,0.236005425,0.29749614,-0.027337732,0.42494759,-1.075228333
0.729992211,0.417717338,0.032225113,-0.908516884,0.000248808,-0.018978616,0.009835476,0.009987391,0.235911205,0.298578799,-0.027321087,0.424866349,-1.075189948
0.734990358,0.419709593,0.032112252,-0.910283148,-0.001468882,-0.018142361,0.008735285,0.009927199,0.235857934,0.299226403,-0.027327219,0.424792707,-1.075148821
0.739989519,0.420667052,0.031249763,-0.909393549,-0.004377947,-0.018679332,0.006717554,0.009880886,0.235816926,0.299724698,-0.027344389,0.4247123,-1.075114846
0.744989932,0.418511868,0.033078894,-0.910385787,-0.008766441,-0.015833367,0.00563659,0.00986553,0.235803336,0.299889922,-0.027386654,0.424643934,-1.075087667
0.749991417,0.41781798,0.031395383,-0.912795842,-0.010797417,-0.013986579,0.00582481,0.009993698,0.235786632,0.299624026,-0.027439229,0.424577504,-1.0750736
0.754993677,0.416036904,0.038173161,-0.911651671,-0.011253071,-0.014929463,0.004810347,0.010177358,0.23577477,0.299139529,-0.027515259,0.424517095,-1.075073719
0.75999105,0.415988296,0.042877588,-0.909578562,-0.012666388,-0.009980568,0.00638163,0.010318671,0.235765666,0.298766732,-0.02758985,0.424470782,-1.075066566
0.764989197,0.415275156,0.043436144,-0.912335098,-0.01202106,-0.008899209,0.006191808,0.010365528,0.235762641,0.298643142,-0.027675783,0.424436957,-1.075075984
0.769988358,0.416911691,0.039958913,-0.910274029,-0.008648045,-0.00522843,0.006791867,0.01040158,0.235760316,0.298548013,-0.027724637,0.424423099,-1.075058103
0.774988532,0.419128448,0.037796795,-0.911964536,-0.009591543,-0.005588704,0.007761961,0.010311091,0.235970363,0.299150646,-0.027781798,0.424409837,-1.075039744
0.779989481,0.417121142,0.042521205,-0.909457326,-0.009456586,-0.00256816,0.006227091,0.010241466,0.236131981,0.29961431,-0.027848171,0.424409598,-1.075034499
0.784991741,0.417464018,0.042425431,-0.909539402,-0.012205598,-0.000927472,0.001240292,0.010218379,0.236185566,0.29976806,-0.027939342,0.424415797,-1.075058103
0.789988875,0.417304486,0.033521883,-0.912148297,-0.013107103,0.001679762,0.002550865,0.010200615,0.236226797,0.299886346,-0.028009908,0.424436003,-1.075058937
0.794987023,0.416250378,0.037226688,-0.911961496,-0.014983905,0.002804516,0.004402828,0.010250049,0.236267686,0.299864143,-0.028093293,0.424450696,-1.075059175
0.799986184,0.415548146,0.042173296,-0.909886122,-0.013774533,0.003118348,0.004117988,0.010344026,0.23632665,0.299784929,-0.02819374,0.424471438,-1.075076818
0.804986358,0.414325267,0.042103816,-0.908885658,-0.01220593,0.002732631,0.003707018,0.010375186,0.2363462,0.299758643,-0.02827649,0.424487948,-1.075089216
0.809987307,0.416517079,0.043065418,-0.911224723,-0.01010596,0.003985071,0.004544776,0.010399162,0.236361235,0.299738437,-0.028342035,0.424523056,-1.07509315
0.814989567,0.416346997,0.043940324,-0.91040498,-0.008606169,0.004529246,0.009168059,0.010407113,0.236366227,0.299731731,-0.02839363,0.424555153,-1.075077891
0.819986701,0.418875396,0.044085398,-0.909699023,-0.004103696,0.003883362,0.011501046,0.00996568,0.236096755,0.298403263,-0.028426142,0.424583912,-1.075052142
0.824984848,0.419212401,0.0431922,-0.909658551,-0.002455584,0.002188495,0.012934737,0.009819309,0.236007407,0.297962755,-0.028439024,0.424617738,-1.075019717
0.829984009,0.419426441,0.04564628,-0.908131778,0.002894348,0.000397161,0.015256628,0.009706686,0.235938668,0.297623843,-0.028422752,0.424634576,-1.074970484
0.834984183,0.420496196,0.043452699,-0.908438027,0.005077573,-0.001986358,0.015874008,0.009669343,0.235915869,0.297511458,-0.028392438,0.42464754,-1.074919224
0.83998543,0.42052412,0.040350851,-0.908293128,0.0058859,-0.001599277,0.017184395,0.009689823,0.235896409,0.29731828,-0.02835005,0.424652427,-1.074848056
0.844987631,0.421997875,0.033862021,-0.908385515,0.006296019,-0.004611547,0.017932553,0.009708791,0.23588948,0.29722783,-0.02828237,0.424643189,-1.07476449
0.849984765,0.422020823,0.034785565,-0.908112466,0.005089979,-0.007227714,0.016414631,0.009723386,0.23588416,0.297158241,-0.028242406,0.424624085,-1.074698329
0.854989052,0.419086516,0.038004078,-0.906747699,0.004271813,-0.008547314,0.015917184,0.009728225,0.235882401,0.297135144,-0.028211083,0.424598247,-1.074633479
0.859988451,0.418728054,0.044282176,-0.906331182,0.005466416,-0.009086039,0.017202985,0.009870754,0.235851169,0.297295183,-0.028184392,0.424566478,-1.074580669
0.864988387,0.419038326,0.045337144,-0.906066775,0.008541446,-0.01440798,0.017656116,0.010057983,0.235810682,0.297527581,-0.028132947,0.424504638,-1.074509978
0.869989634,0.419569731,0.043440275,-0.905543387,0.010056759,-0.013325818,0.021228589,0.010202044,0.235779539,0.297706395,-0.028063187,0.424460649,-1.074419856
0.874991596,0.418614268,0.042126082,-0.90714705,0.012494838,-0.018480014,0.020619791,0.010249811,0.235769197,0.297765702,-0.027987534,0.424381286,-1.07433784
0.879988968,0.415085435,0.034098368,-0.909707785,0.012329454,-0.017369494,0.019932015,0.010286565,0.235761255,0.297811329,-0.02789025,0.424304068,-1.074243546
0.884987116,0.418946415,0.036067661,-0.909093797,0.008777648,-0.017297471,0.01932637,0.01039561,0.235856831,0.297664821,-0.027819932,0.424232721,-1.074150443
0.889986277,0.41555962,0.04111908,-0.910604298,0.009345295,-0.018497722,0.020519147,0.010479512,0.235930368,0.297552079,-0.027753254,0.424148023,-1.074073076
0.894986212,0.41544345,0.040583432,-0.908746421,0.008002883,-0.016345212,0.020360868,0.010507332,0.235954747,0.297514707,-0.02769541,0.424075216,-1.073986769
0.899987459,0.416211396,0.039055493,-0.908970416,0.005673429,-0.013335465,0.018528471,0.010528739,0.235973507,0.297485948,-0.02765209,0.424022555,-1.073919296
0.904989719,0.416520745,0.034569297,-0.911104381,0.00562451,-0.014489066,0.016900091,0.010588518,0.236070648,0.298074961,-0.027599765,0.423959821,-1.073848605
0.909987092,0.415962428,0.029723071,-0.913042307,0.00411836,-0.012199618,0.015515276,0.010687784,0.236237347,0.29913336,-0.02754499,0.423907757,-1.073766828
0.914985478,0.419143289,0.032132413,-0.909717083,-0.001341492,-0.013608032,0.013350044,0.010720699,0.236292616,0.299484313,-0.027538253,0.423857629,-1.07370007
0.919984639,0.421228021,0.043329787,-0.909479737,-0.000158944,-0.012612566,0.011245598,0.010746025,0.236335143,0.299754351,-0.027552953,0.423821986,-1.07366848
0.924984813,0.415873677,0.046553981,-0.908257842,0.001673505,-0.010007761,0.013708935,0.010754421,0.23634924,0.299843878,-0.02755815,0.423781812,-1.073638797
0.92998606,0.418563515,0.037074309,-0.912092626,-0.001951984,-0.007315704,0.010860833,0.010118091,0.236026943,0.299015522,-0.027552135,0.423758149,-1.073590279
0.93498826,0.419363707,0.038038522,-0.91082114,-0.001425615,-0.008448676,0.013900043,0.009907097,0.235920072,0.298740894,-0.027554853,0.423728228,-1.07354641
0.939985394,0.415836781,0.042395536,-0.906659007,-0.000116183,-0.006832248,0.014301102,0.00974475,0.235837847,0.298529536,-0.027555455,0.423702985,-1.073514581
0.944983542,0.415614933,0.041050807,-0.908507347,0.0028785,-0.007701869,0.012561649,0.009690919,0.235810578,0.29845947,-0.027538761,0.423668444,-1.073478341
0.949982464,0.418821007,0.043744665,-0.908232749,0.004781359,-0.007686889,0.01419267,0.009990537,0.235932887,0.298132896,-0.027516747,0.423646539,-1.073431015
0.954982638,0.416328937,0.046533443,-0.907481253,0.008691636,-0.011893482,0.014924775,0.010174275,0.236008897,0.297957152,-0.02747876,0.423598409,-1.073390007
0.959983587,0.415133297,0.045140471,-0.907039285,0.012772352,-0.011864536,0.016674872,0.010315649,0.236067384,0.297821939,-0.027414445,0.423547924,-1.073334217
0.964986086,0.418619812,0.043615486,-0.908838868,0.012974008,-0.015399474,0.017574465,0.010362526,0.236086786,0.297777116,-0.027339796,0.423480928,-1.073269725
0.969983459,0.417447686,0.042449865,-0.909760356,0.014655465,-0.013369347,0.018726753,0.010648551,0.23595956,0.298490077,-0.027259743,0.423425853,-1.073194265
0.974981606,0.41859901,0.044809334,-0.909009874,0.013937644,-0.013641376,0.019592501,0.010995447,0.23577401,0.299480289,-0.027180895,0.423369378,-1.073109269
0.979980528,0.420546412,0.048126612,-0.910431862,0.016071895,-0.012865954,0.020038357,0.01126236,0.235631242,0.300242156,-0.027092857,0.423323721,-1.07302475
0.984980762,0.418638885,0.050103303,-0.911574483,0.019123409,-0.011337954,0.019981544,0.011350863,0.235583901,0.30049479,-0.027000904,0.423282206,-1.072946429
0.989988089,0.411957324,0.052692849,-0.905245423,0.025185673,-0.013429395,0.02152501,0.01141896,0.235547483,0.300689161,-0.026879437,0.423209816,-1.072877169
0.994990587,0.411197364,0.052490093,-0.912427962,0.030129325,-0.00807607,0.024199435,0.011391662,0.235684827,0.300329834,-0.026719369,0.423173487,-1.072793841
0.99998796,0.41406101,0.043389712,-0.910387814,0.032173935,-0.006919272,0.024745597,0.011370658,0.235790506,0.300053388,-0.026531197,0.423144609,-1.072681904
1.004986167,0.415512443,0.040442374,-0.912076414,0.034770306,-0.006796116,0.026690897,0.011363694,0.235825554,0.299961716,-0.026318863,0.423118919,-1.072557926
1.009985328,0.415449351,0.040266879,-0.909048498,0.032910518,-0.005250063,0.023969635,0.011358335,0.235852525,0.299891174,-0.02612431,0.423107475,-1.072448969
1.014985442,0.413790911,0.038885035,-0.909439862,0.033103928,-0.003124399,0.023562042,0.011244547,0.235921562,0.29989931,-0.025933329,0.423106164,-1.072348356
1.019986629,0.411342263,0.040631745,-0.913965344,0.032039933,0.000403977,0.022402484,0.011043733,0.236035436,0.299937457,-0.025756473,0.423110217,-1.072268009
1.02498889,0.41346541,0.040753692,-0.914099216,0.034495909,0.001272516,0.024645112,0.010977147,0.236073196,0.299950093,-0.025558813,0.423127532,-1.072170496
1.029986262,0.412024528,0.046778306,-0.913306713,0.037805256,0.005599013,0.025615375,0.010925913,0.236102238,0.299959809,-0.025365632,0.423155069,-1.0720855
1.034984469,0.413906455,0.048635598,-0.915923536,0.041742414,0.009501175,0.025855841,0.010908925,0.236111864,0.299963027,-0.025139626,0.423214167,-1.071987987
1.03998363,0.420044303,0.049503338,-0.920567095,0.043794144,0.00890002,0.025339019,0.011092759,0.235980585,0.299963266,-0.024915194,0.423279017,-1.071902514
1.044983506,0.412034243,0.053901479,-0.914021015,0.04960632,0.013457167,0.025022279,0.011153715,0.235937044,0.299963325,-0.024667395,0.423344046,-1.071822643
1.049984813,0.41085875,0.055280861,-0.912084937,0.053878594,0.019006282,0.029091338,0.011200616,0.235903546,0.299963385,-0.02437992,0.423444539,-1.071716785
1.054986954,0.413734227,0.052949075,-0.914165318,0.062508844,0.020864636,0.034313131,0.011216167,0.235892445,0.299963385,-0.024046319,0.423558146,-1.071582556
1.059984326,0.41272679,0.049010985,-0.910646379,0.066335447,0.027387438,0.034373753,0.011222446,0.236290112,0.299958915,-0.023677096,0.423705757,-1.071440458
1.064982533,0.412398845,0.047883257,-0.911765277,0.070343144,0.028305402,0.036615539,0.011223121,0.236522496,0.299956322,-0.023285057,0.423855573,-1.071286678
1.069981694,0.415264487,0.046211269,-0.910761476,0.074135005,0.032273699,0.037511993,0.011223639,0.236701295,0.299954355,-0.022870582,0.424026251,-1.071127176
1.074981928,0.415608376,0.045043834,-0.910177171,0.0756194,0.031747222,0.037132658,0.011223812,0.236760572,0.299953669,-0.022448864,0.424198925,-1.070955157
1.079983115,0.414826423,0.043394931,-0.910538614,0.077271998,0.036337759,0.039471436,0.011417278,0.236888662,0.299918473,-0.02201665,0.424394846,-1.07078135
1.084985375,0.411507517,0.043713655,-0.913741946,0.079383954,0.039826848,0.040849559,0.011676384,0.237014309,0.299871773,-0.02157519,0.424591899,-1.070603967
1.089982748,0.411439359,0.037631772,-0.91442728,0.079680189,0.043650135,0.040857829,0.011875749,0.237110987,0.299835861,-0.021121366,0.424818337,-1.070418596
1.094980836,0.413298845,0.033299133,-0.911925316,0.078495711,0.048750382,0.041073404,0.011941854,0.23714304,0.29982394,-0.020664848,0.425070763,-1.070219636
1.099979997,0.41669175,0.037102811,-0.911795139,0.077952184,0.051103327,0.040991493,0.011992719,0.237167701,0.29981479,-0.020225773,0.425333709,-1.070026398
1.104979992,0.419478655,0.037689894,-0.912193835,0.076531917,0.053183023,0.03587373,0.011713959,0.237382263,0.299550742,-0.019797089,0.425608516,-1.069867134
1.109980941,0.419481277,0.02917386,-0.913819373,0.072727717,0.056053098,0.034284208,0.011499473,0.237547353,0.299347579,-0.019377954,0.425901324,-1.069703341
1.114983201,0.419083327,0.028966552,-0.91298914,0.067337014,0.05985342,0.032773878,0.011428353,0.237602085,0.299280196,-0.018995119,0.426222116,-1.069556952
1.119980335,0.419156581,0.028262638,-0.912793338,0.067049846,0.066329673,0.031369183,0.011373632,0.237644196,0.29922837,-0.018613113,0.426564395,-1.069408059
1.124984622,0.421319515,0.034402076,-0.910008729,0.061942365,0.074234091,0.028213022,0.011188331,0.237717956,0.299093604,-0.018282825,0.426948249,-1.069290042
1.129983783,0.419631869,0.033155929,-0.911849797,0.059637621,0.086949214,0.025751289,0.010876735,0.237835169,0.29887107,-0.017956296,0.427394092,-1.069188237
1.134983897,0.41603893,0.025789434,-0.93445909,0.051840022,0.087512895,0.027137043,0.010773416,0.237874031,0.29879728,-0.017653007,0.427828968,-1.069082141
1.139985204,0.407262832,0.026969509,-0.916519463,0.040433917,0.100929312,0.03842992,0.010693919,0.237903953,0.298740536,-0.017393079,0.428307146,-1.068918467
1.144987345,0.402094692,0.026434071,-0.930436313,0.019624736,0.128190547,0.057694737,0.010667559,0.237913862,0.298721701,-0.017189002,0.428934157,-1.068671584
1.149984717,0.381795645,0.024529601,-0.930914283,-0.003089978,0.153460696,0.106057756,0.010319777,0.238064662,0.298922777,-0.016995057,0.429653108,-1.068161249
1.154982924,0.378791332,0.030847935,-0.92593801,-0.02098633,0.180287614,0.156817079,0.010204459,0.23811467,0.298989445,-0.016785715,0.430521965,-1.067374706
1.159982085,0.355434358,0.02390049,-0.933602452,-0.033295155,0.204587489,0.230235338,0.010115729,0.238153145,0.299040765,-0.016435707,0.431456894,-1.066203117
1.164982319,0.345041931,0.031592499,-0.931481719,-0.024812303,0.238253072,0.311549842,0.010086307,0.2381659,0.299057752,-0.015862837,0.432563275,-1.064580321
1.169983506,0.367280453,0.057091258,-0.918264151,0.003884617,0.285268813,0.362306833,0.010111314,0.238275841,0.299015909,-0.015070117,0.433950782,-1.062692046
1.174985766,0.39257127,0.084971748,-0.936625242,0.036427293,0.344158709,0.377437383,0.010131396,0.238337085,0.298988432,-0.014122577,0.435681194,-1.060771942
1.179983139,0.402394027,0.109709017,-0.959150255,0.058517504,0.404057801,0.369970143,0.010146849,0.238384187,0.298967302,-0.013149251,0.437695891,-1.058970571
1.184981227,0.389415145,0.114357851,-0.961685121,0.092925921,0.47133404,0.352131456,0.010151972,0.238399804,0.298960268,-0.012059912,0.440013438,-1.057325125
1.189980388,0.426422805,0.141367927,-0.960673571,0.148390248,0.55241859,0.320716381,0.009879933,0.238383695,0.298450053,-0.010791879,0.442803502,-1.055823088
1.194980621,0.433869839,0.14791213,-0.971479118,0.177872598,0.630150616,0.24537544,0.009511432,0.238349989,0.297771811,-0.009563442,0.445995927,-1.054791808
1.199981809,0.396469384,0.104022309,-0.98889339,0.174611613,0.70362556,0.20923838,0.009227894,0.238324046,0.297249973,-0.008342061,0.449442953,-1.053990483
1.20498383,0.426873356,0.0616633,-1.008343935,0.109226525,0.739513397,0.205023885,0.009133879,0.238315448,0.297076941,-0.007418351,0.453125507,-1.053037286
1.209981203,0.396481693,-0.101922967,-1.087124705,-0.115260616,0.812073708,0.210711569,0.00906154,0.238308832,0.296943784,-0.007222055,0.456959039,-1.051887989
1.214979053,0.294645905,-0.251899302,-1.16139102,-0.516454995,0.911130607,0.305791914,0.008100096,0.238835305,0.297229111,-0.008767972,0.461140186,-1.05010581
1.219978213,0.347499192,-0.27110213,-1.137554407,-0.748583972,1.027221799,0.483409226,0.00736033,0.239240393,0.297448665,-0.011115874,0.466012537,-1.047240853
1.224978447,0.440404505,-0.096410133,-1.145573735,-0.721851587,1.125970125,0.718781114,0.007115037,0.239374712,0.297521472,-0.012820347,0.471661836,-1.0430516
1.229979634,0.365926713,0.008499062,-1.079261899,-0.672290206,1.212939858,0.862311125,0.006926301,0.239478067,0.297577471,-0.013880703,0.477484643,-1.0384413
1.234981894,0.370736659,0.061443537,-0.969883084,-0.689069211,1.412339211,0.991451621,0.005844039,0.238845095,0.29816395,-0.014874651,0.484511375,-1.033120751
1.239979267,0.433971584,0.216538355,-1.071595907,-0.635775566,1.583381176,1.10573113,0.003980254,0.237683386,0.299189478,-0.01553584,0.492532909,-1.027398467
1.244977355,0.49210009,0.359013408,-1.164776802,-0.546154499,1.649086475,1.109821677,0.003362258,0.237298191,0.299529523,-0.015963754,0.500752866,-1.021968722
1.249976635,0.478820592,0.358430266,-1.214064479,-0.442999601,1.66726768,1.032226086,0.002886752,0.237001806,0.299791157,-0.015999334,0.508942366,-1.017075181
1.254976749,0.383863419,0.377340198,-1.226088285,-0.324126005,1.662425399,0.950554073,0.002729083,0.236903533,0.299877912,-0.015666399,0.516823053,-1.012859344
1.259984374,0.383410096,0.491776705,-1.285075545,-0.14763318,1.656780958,0.842761815,0.000420202,0.235122725,0.300709188,-0.014948843,0.524659276,-1.009485126
1.264986873,0.442446321,0.579546154,-1.434434056,0.082901686,1.571239352,0.702867925,-0.000345379,0.234532252,0.30098483,-0.013572393,0.53201592,-1.007107615
1.269984245,0.405618906,0.618093014,-1.543300509,0.342573494,1.39401412,0.531684756,-0.000934442,0.234077916,0.301196903,-0.011395044,0.538193047,-1.00591445
1.274982452,0.290079713,0.565544963,-1.575074196,0.582739234,1.188652873,0.350661188,-0.001129764,0.233927265,0.301267236,-0.008396157,0.543039024,-1.005813956
1.279981256,0.11111787,0.437107265,-1.554685831,0.762786567,1.010824561,0.213984415,-0.003912682,0.233348399,0.300690293,-0.004621432,0.546735466,-1.006421566
1.284981489,-0.085160844,0.291149974,-1.494102836,0.851899564,0.872931123,0.131752491,-0.005486897,0.233041897,0.300342828,-0.000380878,0.549521923,-1.007358193
1.289982438,-0.255693525,0.158067837,-1.476056814,0.852129579,0.778157711,0.063962728,-0.006698148,0.232806057,0.300075471,0.003894033,0.551680088,-1.008567333
1.294984698,-0.438381612,-0.002845863,-1.335269809,0.720645368,0.702288985,0.088463329,-0.007099777,0.232727855,0.299986839,0.007856661,0.553250134,-1.009323955
1.299981833,-0.506179631,-0.036712348,-1.315036416,0.554139614,0.722331345,0.121973194,-0.009558604,0.233679608,0.298867851,0.010983394,0.555049479,-1.009925365
1.304980278,-0.554782689,-0.064490438,-1.365582824,0.399540931,0.634977877,0.184709817,-0.012541756,0.235015616,0.297437191,0.013595893,0.556219697,-1.010243535
1.309979439,-0.577372372,-0.019088879,-1.310769558,0.260849088,0.568393826,0.248104647,-0.014837089,0.236043587,0.296336412,0.015584343,0.557032168,-1.01022315
1.314979553,-0.589956164,0.035605259,-1.330004096,0.174409449,0.480582952,0.314781159,-0.015598178,0.236384436,0.295971423,0.017253511,0.557404578,-1.00996685
1.319980502,-0.59738785,0.092361607,-1.345958948,0.14518705,0.369053066,0.374322653,-0.016183784,0.236646697,0.295690596,0.018899158,0.557136536,-1.009509206
1.324982762,-0.593531966,0.11717508,-1.369277835,0.141279623,0.238976374,0.426028728,-0.019181911,0.238098174,0.29457885,0.020658139,0.556199133,-1.008853674
1.329979897,-0.578247905,0.114636347,-1.381952047,0.141173452,0.100796238,0.469759107,-0.021488767,0.239214987,0.293723434,0.022568144,0.554570973,-1.00794065
1.334978104,-0.564729095,0.092219077,-1.393858433,0.12343654,-0.051873147,0.513132632,-0.022253677,0.23958531,0.293439776,0.024560574,0.552169263,-1.006742597
1.339977264,-0.550202608,0.058463912,-1.398756146,0.075589225,-0.205383047,0.547093391,-0.022842223,0.239870235,0.293221563,0.026439656,0.549004257,-1.005307674
1.34497714,-0.53589803,0.013678845,-1.399962902,-0.004021013,-0.360755742,0.582152545,-0.023940317,0.240963146,0.293245494,0.028061589,0.54507488,-1.003643632
1.349978328,-0.517222583,-0.017727792,-1.402483702,-0.107619584,-0.519987047,0.623875499,-0.025698243,0.242813662,0.293361306,0.029286211,0.540374219,-1.001704812
1.35498035,-0.50267309,-0.034168527,-1.39167583,-0.217870325,-0.67644614,0.664925516,-0.026281137,0.243427262,0.293399721,0.03005546,0.534910858,-0.999523997
1.359977722,-0.488503128,-0.040328581,-1.376262307,-0.321858615,-0.821194112,0.706677973,-0.026729636,0.243899375,0.293429255,0.030385559,0.528764129,-0.997120917
1.364975929,-0.463692278,-0.035920884,-1.372576118,-0.424592078,-0.955201447,0.746012628,-0.026878349,0.244055927,0.29343906,0.030263867,0.522004724,-0.994514704
1.36997509,-0.420413047,-0.032454859,-1.38460958,-0.513402462,-1.087895155,0.776220381,-0.025519524,0.246214777,0.290724635,0.029754061,0.514648497,-0.99174118
1.374974966,-0.357164413,-0.032933343,-1.390920877,-0.598555267,-1.225116849,0.792878032,-0.025068963,0.246930614,0.289824605,0.028811045,0.506709278,-0.988852143
1.379976153,-0.296697706,-0.023245174,-1.39035356,-0.668591976,-1.363234162,0.800514102,-0.024722287,0.247481406,0.289132059,0.027476426,0.498184115,-0.985907614
1.384978414,-0.239575386,0.010675836,-1.394325733,-0.719716787,-1.502291918,0.788950443,-0.024607336,0.247664034,0.288902432,0.02574086,0.48906976,-0.983076096
1.389975786,-0.190659374,0.0513466,-1.385575175,-0.748156667,-1.637556791,0.757769465,-0.023110371,0.248391762,0.289273411,0.023669234,0.479386926,-0.980463743
1.394979835,-0.153056145,0.084139206,-1.369251966,-0.74933672,-1.762833118,0.705809116,-0.022265464,0.248778388,0.289531946,0.021375468,0.469169497,-0.978177547
1.399979234,-0.127979666,0.110354066,-1.346446872,-0.732464373,-1.869680285,0.641240358,-0.021615366,0.24907586,0.289730877,0.018939685,0.458515435,-0.976267397
1.404979467,-0.107906848,0.130142853,-1.317124128,-0.704428673,-1.95671618,0.56888485,-0.021399805,0.249174491,0.289796829,0.016421964,0.447518647,-0.974768221
1.409980655,-0.090186276,0.146340072,-1.280398607,-0.66728729,-2.020538807,0.494940192,-0.019097241,0.249134302,0.291098684,0.01386872,0.436311811,-0.97361356
1.414983153,-0.06991037,0.157100841,-1.255800724,-0.628490567,-2.062195301,0.422665685,-0.016179113,0.249003917,0.292791933,0.011327242,0.424986392,-0.972795784
1.419980526,-0.046912171,0.152855113,-1.23882401,-0.595915794,-2.091727018,0.351154089,-0.01393381,0.248903587,0.294094771,0.008789916,0.413602442,-0.972303629
1.424978971,-0.019458843,0.136859298,-1.223381758,-0.577881038,-2.110898018,0.283576757,-0.01318931,0.248870313,0.294526786,0.006227639,0.402216852,-0.972083688
1.429977894,0.010729168,0.124200851,-1.212796211,-0.578486085,-2.125085831,0.223749638,-0.012616469,0.248844728,0.294859171,0.003548626,0.390834361,-0.972075939
1.434978008,0.04203843,0.121348344,-1.204766035,-0.591713846,-2.136395931,0.166143611,-0.007927993,0.248755932,0.295623243,0.000685143,0.379471064,-0.972266376
1.439978957,0.075673364,0.121648118,-1.200482011,-0.604735553,-2.146763325,0.112794891,-0.004320531,0.248687625,0.296211153,-0.002345928,0.368148446,-0.972662687
1.444981217,0.116619214,0.122969307,-1.185842395,-0.620438278,-2.153390884,0.056848265,-0.003124365,0.248664975,0.29640609,-0.005554019,0.356884897,-0.973263979
1.449978352,0.155620813,0.134024188,-1.172519207,-0.632034242,-2.15491128,0.004410964,-0.002203996,0.248647556,0.296556085,-0.008924925,0.345705628,-0.974062145
1.454976559,0.18148239,0.155811012,-1.15791595,-0.634573221,-2.154734612,-0.048489891,0.0003227,0.248464197,0.297615707,-0.012421773,0.334589958,-0.975049436
1.459975481,0.195253268,0.165612072,-1.136173964,-0.622161806,-2.149308443,-0.101672605,0.004513125,0.248143554,0.299452186,-0.01592575,0.323544085,-0.976252437
1.464975595,0.203750774,0.172209308,-1.107838631,-0.605277538,-2.128906012,-0.15122211,0.00590259,0.248037234,0.300061107,-0.019415505,0.312646806,-0.977659762
1.469976783,0.214081123,0.162032977,-1.082249641,-0.582889974,-2.093958378,-0.193548933,0.006971689,0.247955441,0.300529629,-0.022801006,0.301970929,-0.979207098
1.474979043,0.24806881,0.163808227,-1.100596786,-0.584196508,-2.047983646,-0.229335293,0.007326182,0.247928321,0.300684988,-0.026212649,0.291619897,-0.980813682
1.479976416,0.311816275,0.156148449,-1.139959216,-0.615655124,-2.027362108,-0.270718455,0.013391448,0.246613741,0.304290384,-0.029816842,0.281452566,-0.982481003
1.484974623,0.389878452,0.114264607,-1.179956913,-0.681225955,-2.036194086,-0.326344669,0.015402576,0.246177837,0.305485874,-0.033739209,0.271352857,-0.984233856
1.489973783,0.468306422,0.07169871,-1.20459497,-0.783027053,-2.070919514,-0.387320518,0.016950002,0.245842442,0.306405723,-0.038166475,0.261175364,-0.986085832
1.494973898,0.547994494,0.044904914,-1.228235126,-0.907654107,-2.121865511,-0.457612634,0.017463097,0.245731235,0.30671072,-0.043244813,0.250845879,-0.98810339
1.499974966,0.595258892,0.03264454,-1.242585182,-1.034879923,-2.197589159,-0.533563435,0.021589257,0.244269937,0.308686435,-0.049017832,0.240174055,-0.990312099
1.504977465,0.607065499,0.055271767,-1.22083652,-1.13601172,-2.277285337,-0.602735758,0.023880752,0.243444979,0.309772402,-0.055373434,0.229091331,-0.992805362
1.509974837,0.595287681,0.090674676,-1.178732395,-1.190426946,-2.34383297,-0.660335064,0.0256439,0.24281022,0.31060797,-0.06205209,0.217653394,-0.995533168
1.514972687,0.574185848,0.125350982,-1.12341845,-1.186910868,-2.389154911,-0.699168205,0.026228527,0.242599741,0.310885012,-0.068713933,0.205985546,-0.99839431
1.519971848,0.55469054,0.145228088,-1.064783812,-1.129034042,-2.406212807,-0.722043455,0.029115636,0.240700975,0.312301755,-0.075034775,0.194226801,-1.001245975
1.524972081,0.533705294,0.14525871,-1.009400725,-1.041904092,-2.402815104,-0.729855299,0.032530688,0.238319978,0.313985199,-0.080832206,0.1824902,-1.004020929
1.529979348,0.50658071,0.130651131,-0.969745398,-0.947129488,-2.367597103,-0.724530041,0.03515834,0.236487955,0.315280497,-0.086047716,0.170923129,-1.006706357
1.534981608,0.498432159,0.1063243,-0.951581061,-0.867083251,-2.325345755,-0.712954819,0.036029618,0.235880494,0.315709978,-0.090768009,0.159595072,-1.009252548
1.539979219,0.501909673,0.071570404,-0.934152603,-0.806075096,-2.274226427,-0.696055412,0.036700007,0.235413089,0.316040456,-0.095065586,0.148557261,-1.011590242
1.544977427,0.509837151,0.033922389,-0.924096465,-0.784587801,-2.222401142,-0.675219774,0.042141959,0.232284203,0.318356216,-0.099169895,0.137821659,-1.013679504
1.549976587,0.517516196,0.007096394,-0.906180143,-0.796668708,-2.16779995,-0.653793335,0.046329174,0.229876727,0.320138067,-0.103269346,0.127390712,-1.015593648
1.554976463,0.513493419,-0.01027811,-0.879705966,-0.831851721,-2.111645937,-0.62484163,0.047717575,0.229078457,0.320728868,-0.107509539,0.117252514,-1.017338037
1.55997777,0.519606233,-0.016010344,-0.85042572,-0.880241811,-2.035228968,-0.591695607,0.048785858,0.228464246,0.321183443,-0.111961044,0.107560061,-1.018881202
1.564979911,0.499391079,-0.037544321,-0.815762341,-0.926881731,-1.959649444,-0.554368973,0.051824439,0.226831183,0.32198891,-0.116574101,0.09819793,-1.020221353
1.569977403,0.490181655,-0.028615333,-0.783897638,-0.970689893,-1.866864443,-0.50345856,0.056876734,0.224129289,0.323270738,-0.121408187,0.089367472,-1.021282554
1.574975491,0.489341974,-0.021205004,-0.764766335,-0.998863339,-1.770040751,-0.442737401,0.058551978,0.223233402,0.323695749,-0.126334637,0.081086621,-1.022060275
1.579974651,0.483207852,-0.024077237,-0.744690657,-1.008347392,-1.673913717,-0.380759209,0.059840966,0.222544059,0.32402274,-0.131264195,0.07328248,-1.022568226
1.584974885,0.518188477,-0.023045642,-0.751705945,-1.008478522,-1.588657379,-0.312616587,0.060268369,0.22231549,0.324131191,-0.136138469,0.066076539,-1.022636056
1.589975834,0.547543824,-0.033719145,-0.750427544,-0.997191191,-1.531964064,-0.239235342,0.06694404,0.218534604,0.32694298,-0.140892148,0.059188675,-1.022257328
1.594978094,0.577948332,-0.034737036,-0.756663144,-0.986276627,-1.483260155,-0.17763114,0.069157563,0.217280924,0.327875316,-0.145564184,0.052650981,-1.021543026
1.599975109,0.610711396,-0.030474169,-0.770035386,-0.969970882,-1.455997705,-0.12657921,0.070860721,0.216316313,0.328592688,-0.150151432,0.046338744,-1.020546913
1.604973316,0.642229676,-0.017542299,-0.755156994,-0.944669604,-1.445512891,-0.080922008,0.07142546,0.215996474,0.32883057,-0.15461871,0.04016662,-1.01926446
1.609972239,0.675101876,-0.001507449,-0.724968076,-0.908786058,-1.430764675,-0.045612674,0.075773939,0.212122574,0.329137325,-0.158926651,0.034143295,-1.017704964
1.614972472,0.695158958,0.020965111,-0.700093389,-0.869207501,-1.428388119,-0.024514364,0.078184329,0.209940344,0.329269648,-0.163082898,0.028206153,-1.01601553
1.619973421,0.705504417,0.033542085,-0.653808415,-0.824791312,-1.41012454,-0.014850154,0.080038957,0.208261281,0.329371452,-0.167029589,0.022371097,-1.014289618
1.624975562,0.69606936,0.044542305,-0.611352503,-0.78217113,-1.377936959,-0.025219291,0.080653921,0.207704529,0.329405218,-0.17079547,0.016686894,-1.01267302
1.629972935,0.682448268,0.050142031,-0.556317806,-0.739730358,-1.315987229,-0.049686138,0.083563142,0.205763415,0.32991153,-0.174382761,0.011272118,-1.011223197
1.63497138,0.669007778,0.063441016,-0.511732996,-0.695066929,-1.242466331,-0.088497348,0.086984284,0.203594357,0.330563784,-0.177785411,0.006195708,-1.010034442
1.639970541,0.671565652,0.050153565,-0.467777073,-0.65282774,-1.135094643,-0.135942206,0.089616627,0.201925412,0.331065655,-0.180961937,0.001647815,-1.009163857
1.644970775,0.695469379,0.035945322,-0.43742919,-0.611180067,-1.031577826,-0.181438267,0.090489462,0.201372012,0.331232071,-0.183909968,-0.002380857,-1.008553386
1.649971724,0.727137864,0.029096097,-0.418545425,-0.556428313,-0.931486487,-0.212397426,0.091161042,0.200946212,0.331360102,-0.186581612,-0.005866198,-1.008122683
1.654973984,0.752215028,0.019572679,-0.388369173,-0.493086368,-0.838744521,-0.230166897,0.095279083,0.198255658,0.332836419,-0.188917696,-0.008895027,-1.007765651
1.659971118,0.777861476,-0.000776123,-0.358620882,-0.410252064,-0.748867631,-0.230271012,0.098447643,0.196185455,0.333972365,-0.190804109,-0.011428865,-1.007422805
1.664975405,0.80502373,-0.044413071,-0.316408753,-0.323795736,-0.648339927,-0.2110122,0.099498272,0.195499018,0.334349036,-0.192176268,-0.013420481,-1.007010102
1.669974566,0.85107702,-0.098401397,-0.277061164,-0.248366803,-0.550256729,-0.176947802,0.10030666,0.194970846,0.334638834,-0.193089798,-0.014795355,-1.006406546
1.674974442,0.911454797,-0.128631324,-0.232177496,-0.183136195,-0.453756332,-0.140342712,0.101948358,0.193848282,0.334899157,-0.193652764,-0.015549627,-1.005559087
1.679975629,0.965339661,-0.148167625,-0.186981723,-0.123081684,-0.340629071,-0.111292996,0.104600511,0.192026556,0.335265547,-0.193922222,-0.015633479,-1.004611135
1.684977889,1.019677877,-0.144023642,-0.142098859,-0.060417328,-0.224441215,-0.091218568,0.105479911,0.191422507,0.335387051,-0.193908095,-0.015034773,-1.003616214
1.689975262,1.091640711,-0.127260819,-0.095428355,0.014860778,-0.091764525,-0.089211106,0.10615655,0.190957725,0.335480511,-0.193555921,-0.01364152,-1.002673388
1.694973469,1.157171369,-0.0911083,-0.046102326,0.105939344,0.04279796,-0.114138335,0.106380917,0.190803617,0.335511506,-0.192815393,-0.011510591,-1.00194025
1.69997263,1.215894222,-0.046375867,-0.016043006,0.212672666,0.19983694,-0.164049566,0.108445697,0.190174937,0.335363835,-0.191615149,-0.008540653,-1.001580715
1.704972506,1.276427746,-0.007129311,-0.002130267,0.335001081,0.353210956,-0.241445094,0.109130338,0.189966485,0.33531487,-0.189864844,-0.004781929,-1.001710415
1.709973812,1.332448125,0.011695019,0.017344739,0.457496971,0.511603892,-0.34121269,0.109657124,0.189806089,0.3352772,-0.187524989,-0.000249901,-1.002423048
1.714975953,1.3772403,0.032627765,0.036408093,0.575704873,0.663059711,-0.457021207,0.109831795,0.189752907,0.335264713,-0.184632152,0.005001463,-1.003809452
1.719973326,1.407450438,0.05943054,0.048091672,0.687128127,0.820928514,-0.576360166,0.109909132,0.190514743,0.334083736,-0.181269675,0.010978309,-1.005905032
1.724971533,1.042658091,0.035317309,-0.066363297,0.697855294,1.054039836,-0.717246294,0.109920651,0.19096601,0.333402276,-0.177598462,0.017296469,-1.009204984
1.729970694,-0.148112804,-0.212670043,-0.266604841,-0.225893006,1.658839464,-0.930077136,0.109929517,0.191313222,0.332877964,-0.178910673,0.023934972,-1.01647687
1.734970927,0.492708951,-0.239582658,0.078676082,-0.076511234,2.089298725,-0.668974698,0.109932452,0.191428363,0.332704097,-0.178885221,0.03550135,-1.02051127
1.73997283,-0.642784536,0.489251614,-0.203398392,-0.144101724,2.118732452,-0.782623053,0.108195506,0.192650959,0.33313179,-0.180988207,0.04382018,-1.027887464
1.74497509,-1.028188229,0.783673167,-0.202142805,0.094560683,2.461093664,-0.844885826,0.105865747,0.19419989,0.333839804,-0.182694823,0.052682854,-1.03730011
1.749972224,-0.329105616,0.828414857,-0.464188397,0.820213199,3.361815453,-0.648947656,0.104073159,0.1953917,0.334384531,-0.179555163,0.068881892,-1.044432521
1.754970312,-0.281335741,0.66349709,-1.364711165,1.235489249,3.819204569,-0.704482794,0.103478767,0.195786878,0.334565163,-0.174402893,0.087336875,-1.052359343
1.759969234,-0.197423443,0.264650285,-2.020976543,1.788995385,3.548817158,-0.299774647,0.103021428,0.196090937,0.334704161,-0.164810374,0.103963405,-1.05756712
1.764969468,0.126245499,0.508633018,-1.821450233,1.838226557,3.111331224,0.073748671,0.095161125,0.198031992,0.336624205,-0.156259224,0.119082369,-1.05929482
1.769970417,0.157367021,0.486432791,-1.413242102,2.135859728,3.246433496,-0.041123226,0.089113154,0.199525505,0.338101566,-0.145985916,0.134796739,-1.062095761
1.774972677,0.255004227,-0.231731564,-1.148348093,2.025698185,3.660830736,-0.168803096,0.087107763,0.20002073,0.338591427,-0.135583252,0.153092891,-1.065181851
1.779969811,0.500938714,-0.644652665,-1.143247485,1.811516881,3.95902729,-0.152122036,0.085564755,0.200401768,0.338968337,-0.125424162,0.173642799,-1.06708765
1.784967899,0.514383912,-0.679906726,-1.169785261,1.558246255,4.203882217,-0.170365319,0.079622701,0.20382081,0.337810129,-0.117105022,0.19500424,-1.069353819
1.789966822,1.033291817,-0.827550769,-1.335457206,1.271808863,4.452570438,-0.130115435,0.069559686,0.209780961,0.335621446,-0.109824091,0.218749121,-1.070429802
1.794967294,1.542284489,-0.988067627,-1.900166512,1.021755338,4.267317772,-0.011235815,0.066222981,0.211757228,0.33489573,-0.103415519,0.242265776,-1.069771409
1.79997468,1.802829623,-1.255833268,-2.096544981,0.680154681,3.687127829,0.212752536,0.063655607,0.213277847,0.334337354,-0.097604513,0.262608379,-1.066819787
1.804977417,1.705060363,-1.177499294,-2.005285501,0.327495873,3.142547369,0.472169399,0.062804319,0.213782042,0.334152192,-0.093597814,0.279953659,-1.062465787
1.809975028,1.425745487,-1.046232224,-1.833016038,-0.044775888,2.739469528,0.741661847,0.047588993,0.219167292,0.333533257,-0.091245875,0.294953108,-1.057197571
1.814973474,1.24148047,-0.568765283,-1.601688266,-0.23281011,2.392959833,0.938561618,0.042543877,0.220952943,0.333328009,-0.090438068,0.308188975,-1.051547289
1.819972634,1.075019836,-0.123363927,-1.360191345,-0.316614121,2.134459257,1.041355133,0.038662005,0.22232689,0.333170116,-0.090487063,0.320005417,-1.04606986
1.824972749,1.080562234,0.313957483,-1.215276837,-0.284575552,1.984837294,1.034655929,0.03737485,0.222782463,0.333117753,-0.090975218,0.331293434,-1.041080356
1.829974055,1.046397328,0.700948417,-1.1280303,-0.22173433,1.781846046,0.914613545,0.029184155,0.223786667,0.333950251,-0.092079125,0.3413921,-1.037447095
1.834975958,0.973118782,0.999293447,-1.051430821,-0.070411749,1.663921356,0.716319621,0.024686538,0.2242814,0.334442258,-0.093058914,0.350768983,-1.035333991
1.83997333,0.785610497,1.096403599,-0.897788763,0.114789233,1.574728251,0.469889522,0.021225926,0.224662051,0.334820837,-0.093755536,0.359285027,-1.034939766
1.844971299,0.688422263,0.892567337,-0.875818014,0.32790041,1.562844396,0.319468647,0.020078452,0.224788263,0.334946364,-0.093055606,0.367657065,-1.035064578
1.849970698,0.60722065,0.610447288,-0.898997605,0.491333038,1.489387274,0.262189806,0.017308747,0.224749446,0.335141212,-0.091076955,0.375498414,-1.035007834
1.854970932,0.554321051,0.312391877,-0.928669274,0.595140278,1.441595435,0.282803267,0.014487725,0.22459951,0.335304886,-0.087960392,0.382994533,-1.034380794
1.859972119,0.591798127,0.123577729,-0.994928718,0.644756973,1.333666205,0.324495316,0.012317139,0.224484146,0.335430831,-0.084229201,0.390019119,-1.033108234
1.864974022,0.694069147,0.033377454,-1.073686838,0.657345533,1.19349432,0.376875132,0.011597414,0.224445894,0.335472614,-0.08010269,0.396485746,-1.031172633
1.869971514,0.677852511,-0.002537276,-1.060883403,0.656363964,1.025725603,0.393430501,0.011043634,0.224416465,0.33550474,-0.076003984,0.401976019,-1.029101372
1.874969602,0.638375223,-0.013581074,-1.030855894,0.652897179,0.916092932,0.399593264,0.007618427,0.22577104,0.333553433,-0.071833357,0.40686357,-1.027034879
1.879968762,0.651974976,0.054802284,-1.067085505,0.62021029,0.815939426,0.374503404,0.004982963,0.226813301,0.332052022,-0.068061419,0.411305845,-1.025193453
1.884968758,0.640696645,0.063740946,-1.072267413,0.61162442,0.703124702,0.332840204,0.004109093,0.227158889,0.331554174,-0.064421691,0.415080577,-1.023558497
1.889969945,0.66428107,0.045508631,-1.098238707,0.588761151,0.582051814,0.295632899,0.003436709,0.2274248,0.331171125,-0.060863473,0.418308079,-1.022006392
1.894972205,0.560028553,-0.016283043,-1.043080688,0.55652523,0.470191956,0.271606028,0.002031022,0.228715897,0.33084324,-0.057403289,0.420728624,-1.02059865
1.899969578,0.496712685,-0.035557106,-0.986425638,0.524045646,0.443879306,0.257493228,-0.000246491,0.230925649,0.330387861,-0.054102011,0.423027217,-1.019247055
1.904967904,0.49067533,-0.028192062,-1.012888789,0.463857681,0.415229499,0.230590731,-0.001001671,0.231658369,0.330236852,-0.05120109,0.425195038,-1.018086791
1.909967065,0.549703598,-0.036734536,-1.034083724,0.389163643,0.367165238,0.191737413,-0.001582731,0.23222214,0.330120653,-0.048737671,0.427195728,-1.017040849
1.914967299,0.400888622,-0.066331618,-1.023702741,0.345846355,0.315110743,0.177261814,-0.001775399,0.232409075,0.330082148,-0.046551418,0.428637087,-1.016235113
1.919968247,0.478292733,-0.169270813,-1.038308859,0.311680526,0.306344002,0.211777776,-0.003049101,0.234507978,0.327522516,-0.04404391,0.430185586,-1.01488483
1.924970508,0.562729895,-0.040043734,-1.057798386,0.224836349,0.181497097,0.192104936,-0.003471436,0.235203922,0.326673806,-0.042428441,0.431296051,-1.013730526
1.929967642,0.447722197,0.031098925,-0.834960222,0.191234618,0.208772674,0.142349511,-0.003796394,0.235739395,0.326020777,-0.041279688,0.432299316,-1.013137221
1.934972167,0.465264618,0.004025877,-0.958803713,0.14072001,0.253997475,0.109155342,-0.003904145,0.235916957,0.325804234,-0.040302001,0.433745354,-1.012693167
1.939971805,0.457152128,-0.025848303,-0.978448153,0.087893292,0.198050216,0.095735393,-0.004834784,0.237139881,0.326064825,-0.039593428,0.43472746,-1.012276053
1.944972038,0.433643609,-0.022171831,-0.927250862,0.06504412,0.186797738,0.097463749,-0.00535314,0.237814173,0.326256931,-0.038968869,0.435622871,-1.011817575
1.949973226,0.436121106,-0.015586939,-0.940891981,0.033751421,0.183374524,0.099488817,-0.00575198,0.238333017,0.32640475,-0.03851625,0.436570913,-1.011377692
1.954975724,0.441989541,0.008243935,-0.93406117,0.004043054,0.17689079,0.095757976,-0.005884227,0.238505051,0.326453775,-0.038262993,0.437461346,-1.010976911
1.959973097,0.449671328,0.030322092,-0.93118912,-0.023131097,0.181981981,0.089915439,-0.005900404,0.238600925,0.325829595,-0.038220998,0.438415349,-1.010657668
1.964971304,0.446030825,0.033665396,-0.94332999,-0.037291896,0.190009862,0.083499454,-0.005819471,0.238595918,0.324955165,-0.038237464,0.439393431,-1.010377049
1.969970465,0.432022721,0.038175531,-0.933601022,-0.049089786,0.196179807,0.073790811,-0.005757198,0.238592073,0.324282348,-0.038351066,0.440358818,-1.010178089
1.974970579,0.420347184,0.035295043,-0.929634333,-0.060403354,0.216023803,0.069180027,-0.005736549,0.238590792,0.324059248,-0.038515475,0.441432714,-1.01002121
1.979971886,0.421080172,0.031471606,-0.937609553,-0.068274848,0.224099442,0.065929584,-0.005720661,0.238589823,0.323887616,-0.038720261,0.442549706,-1.009868622
1.984974384,0.414403021,0.03581471,-0.918564022,-0.073735178,0.233616099,0.067973323,-0.006107043,0.238598034,0.323943973,-0.038960405,0.443692237,-1.009716868
1.989971757,0.428284466,0.048942998,-0.91910702,-0.069458753,0.254302084,0.068544552,-0.006404337,0.238604352,0.323987335,-0.039208017,0.444998264,-1.009576797
1.994969606,0.439857066,0.057661183,-0.915696084,-0.056105439,0.243828967,0.084040225,-0.006502914,0.238606453,0.3240017,-0.039351601,0.446236551,-1.009342074
1.999968767,0.449420184,0.074960858,-0.900620699,-0.036117122,0.234140918,0.100630239,-0.006578762,0.238608062,0.324012786,-0.039376669,0.447450936,-1.009018421
2.004968882,0.453514844,0.097040616,-0.901525736,-0.010214197,0.220608801,0.124920182,-0.006881394,0.238585413,0.324052125,-0.039260048,0.448607326,-1.008581519
2.009970427,0.458616406,0.11239931,-0.89800787,0.023604391,0.204797119,0.145382524,-0.007394827,0.238544539,0.324118465,-0.038939297,0.449689329,-1.008053899
2.014972687,0.450370967,0.099274345,-0.88618052,0.068377614,0.189575046,0.171228141,-0.007565072,0.238530979,0.324140459,-0.038277231,0.450685441,-1.007346034
2.019970417,0.453692496,0.070371792,-0.894938171,0.110326938,0.172631651,0.19622533,-0.007696063,0.238520548,0.324157387,-0.037272885,0.451615751,-1.006438971
2.024968386,0.451979905,0.068497889,-0.899169803,0.141503826,0.146277189,0.212884367,-0.007739497,0.238517091,0.32416299,-0.036094245,0.452386528,-1.005434752
2.029967546,0.463197738,0.083254516,-0.896629632,0.171832219,0.135419726,0.213726506,-0.008037589,0.238599151,0.325506598,-0.034801479,0.4531295,-1.004452586
2.034967899,0.475442499,0.077741675,-0.897514403,0.197851509,0.122647174,0.202273682,-0.008136431,0.238626361,0.325952113,-0.033395592,0.45382309,-1.00352335
2.039968967,0.481412888,0.056041773,-0.902926922,0.212856695,0.109796487,0.184171781,-0.008212483,0.238647297,0.326294929,-0.03191188,0.454458445,-1.002643108
2.044971228,0.488199711,0.038748179,-0.911811113,0.215797499,0.096400209,0.157377318,-0.0082377,0.238654226,0.326408595,-0.030456515,0.45501864,-1.001877666
2.049968719,0.484080732,0.02596793,-0.910077453,0.210260302,0.082294516,0.132974476,-0.008261762,0.239062414,0.32612142,-0.029088594,0.455493331,-1.001263857
2.054966688,0.475889385,0.018836515,-0.910295963,0.202557653,0.078266561,0.106843211,-0.008270893,0.23929745,0.325933486,-0.027812142,0.455925167,-1.000783801
2.059965849,0.472799689,0.013470469,-0.91233933,0.188936234,0.072360829,0.084474355,-0.008277919,0.23947829,0.325788856,-0.026649281,0.45632875,-1.000421166
2.064966202,0.461124212,0.000400841,-0.91644156,0.177946612,0.057721872,0.078516424,-0.008280249,0.239538252,0.325740933,-0.025539462,0.456645876,-1.000085473
2.069973707,0.445584416,0.016472306,-0.895513356,0.172403932,0.057615884,0.070440285,-0.008035377,0.239893183,0.325305343,-0.024507741,0.456924826,-0.999821186
2.074976206,0.451769561,0.003433842,-0.905054331,0.16294536,0.0570703,0.06199085,-0.007705445,0.240322262,0.324758917,-0.023524581,0.457241297,-0.999587238
2.079973698,0.439749211,0.016456241,-0.903414667,0.164427191,0.053268407,0.070895031,-0.007451585,0.240652397,0.324338466,-0.02252759,0.457494318,-0.999335349
2.084971666,0.440578967,0.058966506,-0.895751476,0.17747198,0.066884868,0.074020281,-0.007367409,0.240761861,0.324199051,-0.021527462,0.457854807,-0.999123812
2.089970827,0.465287149,0.043362152,-0.90022403,0.165715709,0.066604927,0.074750386,-0.007302642,0.240846097,0.324091762,-0.020552702,0.458234727,-0.998844266
2.09497118,0.442818642,0.048700072,-0.896842778,0.170856968,0.066576533,0.08719115,-0.007677327,0.241284907,0.323741943,-0.019558746,0.458563,-0.998544931
2.09997201,0.442567319,0.042891182,-0.88153702,0.168730259,0.077826895,0.098120093,-0.007965622,0.241622552,0.323472768,-0.018511131,0.458971888,-0.998179436
2.10497427,0.44950667,0.045893647,-0.893037319,0.167603195,0.069469266,0.111516796,-0.008061215,0.24173452,0.32338354,-0.017462205,0.459353328,-0.99772352
2.109971523,0.442217112,0.051051211,-0.887533605,0.174934328,0.061758459,0.12779206,-0.008134768,0.241820663,0.323314875,-0.016329393,0.45966202,-0.997189045
2.114970207,0.448237568,0.046076443,-0.891043603,0.173786521,0.060248133,0.138098568,-0.008216753,0.242132068,0.322569311,-0.015160043,0.459980428,-0.996588826
2.119969368,0.450289994,0.038682248,-0.890472472,0.174431145,0.057594962,0.152555034,-0.008338073,0.242657676,0.321264744,-0.013949019,0.460299551,-0.995893121
2.124969721,0.45082444,0.035508316,-0.888698876,0.170246214,0.052116133,0.162896037,-0.008378301,0.24283196,0.320832193,-0.012736689,0.460582256,-0.995140135
2.129971027,0.449069977,0.042026706,-0.891475499,0.17459324,0.0467989,0.170843169,-0.008409253,0.242966071,0.320499361,-0.011495551,0.460831165,-0.994350374
2.134973288,0.451502591,0.035265114,-0.88668102,0.173851892,0.046886392,0.174565494,-0.008419516,0.243010521,0.320389003,-0.010237401,0.461087346,-0.993535936
2.139970541,0.453448713,0.032640703,-0.89339149,0.170038372,0.040424254,0.181242615,-0.008244771,0.243725359,0.321346849,-0.008974697,0.461307943,-0.992668927
2.144968748,0.45099932,0.023873391,-0.890461445,0.16848661,0.041231211,0.182319418,-0.008186827,0.243962377,0.321664453,-0.007703966,0.461535126,-0.991792619
2.149967909,0.444181114,0.017573388,-0.891732633,0.165839165,0.039746404,0.182995945,-0.008142244,0.244144753,0.321908832,-0.006445857,0.461739033,-0.990915418
2.154967785,0.441419005,0.011203503,-0.889132619,0.166505292,0.047150165,0.179973111,-0.008127461,0.244205222,0.321989864,-0.005175507,0.461971343,-0.990051925
2.159969091,0.443035275,0.006080834,-0.891888261,0.161869824,0.0538688,0.176762268,-0.007826843,0.244841397,0.320506394,-0.003936407,0.462256074,-0.989211977
2.164971352,0.447687864,-0.007892408,-0.894265831,0.148861721,0.055840127,0.171490282,-0.00765559,0.24519825,0.319631964,-0.002743219,0.462554395,-0.988368273
2.169968605,0.446715415,-0.018542347,-0.899360895,0.13670972,0.055091109,0.1655671,-0.007523821,0.245472834,0.318959147,-0.001605934,0.462821305,-0.987542689
2.174967289,0.44742316,-0.023723971,-0.898798048,0.118929535,0.058088198,0.157510698,-0.00748013,0.245563865,0.318736047,-0.000587853,0.463111877,-0.986762643
2.179966927,0.449918032,-0.011875553,-0.89834094,0.103404284,0.061476063,0.154002413,-0.007144839,0.245833427,0.31894666,0.000321712,0.463425189,-0.986011624
2.184967279,0.449385345,0.0095212,-0.897675812,0.096862979,0.059124973,0.155753419,-0.006729457,0.246123984,0.319401979,0.001151981,0.463722467,-0.985297263
2.189968348,0.441614926,0.020040492,-0.895494998,0.093264647,0.059431944,0.157768115,-0.006409849,0.246347561,0.319752336,0.001959141,0.463999867,-0.984597087
2.194970608,0.439915717,0.01908998,-0.895772696,0.091864429,0.059536211,0.166059285,-0.006303873,0.246421695,0.319868475,0.002783839,0.464287132,-0.983843029
2.199973822,0.441687942,0.014118295,-0.897151709,0.092206649,0.052990463,0.174853474,-0.006222331,0.246478736,0.319957852,0.003664675,0.464535683,-0.983016968
2.204972267,0.444881201,0.015678376,-0.89193356,0.093381353,0.055551734,0.177532017,-0.006390485,0.246596709,0.319302708,0.004554023,0.464799941,-0.982175648
2.209971428,0.443937272,1.18E-05,-0.889699936,0.088495046,0.067226022,0.179115221,-0.006519867,0.246687472,0.318798602,0.005420092,0.465142101,-0.981327891
2.214971542,0.444628865,-0.004484116,-0.905970693,0.088034675,0.05787982,0.189411148,-0.006562768,0.246717572,0.31863144,0.006341251,0.465403408,-0.980400443
2.219972849,0.444166124,-0.003768716,-0.897422433,0.084358141,0.052812349,0.195359275,-0.006595777,0.246740729,0.318502843,0.007256512,0.465643287,-0.97942853
2.224976063,0.439898252,-0.008276635,-0.899045169,0.071731664,0.062110562,0.204559088,-0.006469243,0.246915445,0.318095267,0.008127856,0.465931863,-0.978419363
2.22997427,0.429592043,0.000584853,-0.900202036,0.070613883,0.066149473,0.21439822,-0.00623287,0.247218788,0.317412704,0.009005643,0.466214597,-0.977388382
2.234972715,0.430634737,0.004751373,-0.898909032,0.059002861,0.080359362,0.221810773,-0.006154493,0.247319371,0.317186356,0.009826211,0.466572225,-0.976316392
2.239971876,0.430746049,0.004200428,-0.904637814,0.05884622,0.093491539,0.231567666,-0.006094187,0.247396752,0.317012221,0.01067389,0.467007458,-0.97519654
2.244971991,0.424564481,0.001631591,-0.90619421,0.058992732,0.098452315,0.246713147,-0.006074191,0.247422412,0.316954494,0.011578372,0.467442393,-0.973988414
2.249973059,0.427457452,0.013902942,-0.905370176,0.062676072,0.109181896,0.260856956,-0.005939278,0.247989058,0.317955554,0.012503278,0.467940211,-0.972720802
2.254975319,0.429333329,0.028647665,-0.902288377,0.072030157,0.122039288,0.277501762,-0.005894544,0.248176962,0.318287492,0.013498383,0.468504816,-0.9713732
2.259972334,0.432485342,0.031006645,-0.904157162,0.082204677,0.132720008,0.291499913,-0.005860123,0.248321533,0.318542928,0.014580651,0.469124883,-0.96995455
2.264970541,0.431856155,0.031874485,-0.909171879,0.088560313,0.140586406,0.314499646,-0.00584871,0.24836947,0.318627626,0.015756041,0.469764173,-0.968411207
2.269969702,0.435049832,0.040027749,-0.912249923,0.098290138,0.147908509,0.339647293,-0.005204664,0.248493195,0.318415046,0.017020341,0.470440239,-0.966729283
2.274969816,0.424342871,0.046771921,-0.913619041,0.108751185,0.153990895,0.362958103,-0.004833912,0.248555705,0.318275809,0.018390769,0.471117496,-0.964935839
2.279971123,0.417905569,0.043790508,-0.912797511,0.119220205,0.173921973,0.387139142,-0.004548644,0.248603821,0.3181687,0.019895507,0.471878529,-0.963014305
2.284973621,0.418777019,0.045404773,-0.924552083,0.124724425,0.193525419,0.412630409,-0.004454054,0.248619765,0.318133175,0.021481916,0.472736925,-0.960960388
2.289970875,0.418458343,0.056935403,-0.924487829,0.13574262,0.214637548,0.440575302,-0.004409169,0.248742983,0.317564607,0.023147695,0.47369051,-0.958765984
2.29496932,0.395719945,0.08287631,-0.928518236,0.167501763,0.241139546,0.469712198,-0.004422414,0.248895705,0.316830307,0.025004953,0.474730283,-0.956462443
2.299968481,0.375808239,0.047988668,-0.932541788,0.212005079,0.291533917,0.471633911,-0.004432605,0.2490132,0.316265315,0.027231783,0.475974828,-0.954155922
2.304968596,0.380004436,-0.03261029,-0.952468693,0.180323973,0.351337135,0.4776223,-0.004435984,0.249052167,0.316077948,0.029463295,0.477554083,-0.95161891
2.309969902,0.385102957,-0.022325702,-0.946290612,0.136115789,0.399329692,0.487457484,-0.004438585,0.249082148,0.315933794,0.031392474,0.479343772,-0.949021578
2.314971924,0.397409797,-0.019153627,-0.945155799,0.1306822,0.466347486,0.464670777,-0.004154043,0.249645948,0.315979928,0.033260755,0.481492519,-0.946571469
2.319968939,0.388508618,-0.061435077,-0.958314598,0.104746498,0.541075945,0.429412007,-0.003935108,0.250079751,0.316015452,0.034995306,0.484012246,-0.944253027
2.324966908,0.385609657,-0.112764396,-0.962070286,0.067433178,0.629561067,0.395424128,-0.003862513,0.250223607,0.316027224,0.036590267,0.48695007,-0.942014694
2.329966068,0.395989776,-0.072279371,-0.96141398,0.052135997,0.709993303,0.364813268,-0.003806656,0.250334293,0.316036284,0.037883017,0.490320385,-0.940012813
2.334972382,0.38009575,-0.059494186,-0.95011282,0.058697358,0.818240285,0.311031818,-0.003873744,0.250517607,0.316129357,0.039121568,0.494207323,-0.938327074
2.339973927,0.403087229,-0.110157847,-0.973415136,0.015310583,0.936526656,0.278517395,-0.004011928,0.250806898,0.316292048,0.040188134,0.498748034,-0.936683536
2.344976187,0.403238088,-0.067312025,-0.971857488,-0.013423956,1.045176268,0.252072304,-0.004057747,0.250902832,0.31634599,0.040900443,0.503792465,-0.935218692
2.34997344,0.370058805,-0.056847796,-0.968969524,-0.028273758,1.174093127,0.215104967,-0.004093002,0.250976622,0.316387504,0.041500729,0.509444535,-0.933988333
2.354971647,0.36900425,-0.084252365,-0.9902246,-0.04869939,1.324061513,0.179703131,-0.004104692,0.25100109,0.316401273,0.041966867,0.515834093,-0.932910562
2.359970808,0.389340073,-0.025525877,-1.014596701,-0.019400546,1.465417862,0.162876964,-0.005939498,0.251459986,0.316442341,0.042465813,0.522945523,-0.931945622
2.364970922,0.335224628,-0.016818712,-1.031567097,0.031220619,1.616408706,0.121541113,-0.006547884,0.251612157,0.31645599,0.043095548,0.530694485,-0.931349814
2.369972229,0.338259071,-0.05199679,-1.019205809,0.066713065,1.826197386,0.114431761,-0.007015997,0.25172925,0.31646648,0.044070099,0.539514959,-0.930574775
2.374974489,0.355239689,-0.04995827,-1.051704049,0.092249565,2.0300982,0.102900423,-0.007171214,0.251768082,0.316469938,0.045150794,0.549370885,-0.929811239
2.379971743,0.358979732,-0.049738955,-1.076699018,0.105498917,2.254105568,0.084210187,-0.010272085,0.251846969,0.315578133,0.0462659,0.560305595,-0.929125309
2.38496995,0.315083265,-0.075353287,-1.093387604,0.106205709,2.510080099,0.053941019,-0.012038041,0.251885265,0.315061092,0.047423963,0.57241869,-0.928533316
2.389968872,0.325718552,-0.110424355,-1.096587539,0.06603013,2.822553396,0.001938676,-0.013396825,0.25191474,0.314663261,0.048293881,0.58616364,-0.928098142
2.394969225,0.293395311,-0.054295756,-1.129354119,0.024598718,3.144590616,-0.025443116,-0.013847372,0.251924515,0.314531326,0.048793182,0.601438403,-0.927862763
2.399970293,0.247010335,0.060074378,-1.141090512,0.024348736,3.492250919,-0.100141391,-0.017441684,0.25193119,0.313832283,0.048850197,0.618338943,-0.928375304
2.404972792,0.221213087,0.082822777,-1.161531806,0.040087774,3.904572964,-0.17110762,-0.021908402,0.251932561,0.312997907,0.048764437,0.63730526,-0.929325521
2.409970284,0.204865411,0.107227914,-1.212573051,0.078354627,4.311273575,-0.222635806,-0.025345238,0.251933604,0.312355936,0.048744455,0.658225477,-0.930541277
2.414968252,0.166644454,0.137271181,-1.24919188,0.129204541,4.718317509,-0.285299808,-0.026484828,0.251933962,0.312143058,0.048744954,0.681039333,-0.932192624
2.419967175,0.215981707,0.16344431,-1.297371984,0.203616232,5.173223495,-0.30522874,-0.027361665,0.25193423,0.311979264,0.049042229,0.706140816,-0.933941901
2.424967527,0.147584736,0.252789795,-1.311187625,0.320751697,5.648044109,-0.290565521,-0.037131637,0.252032816,0.308353454,0.049934763,0.733475089,-0.935760796
2.429968357,-0.033647448,0.308592558,-1.243587017,0.42081356,6.236786842,-0.184856147,-0.044648971,0.252108693,0.305563629,0.051830072,0.763498068,-0.936993003
2.434970856,-0.086738691,0.358767867,-1.154558778,0.548140705,6.961474895,0.091953158,-0.047141574,0.252133846,0.304638565,0.056092165,0.797231019,-0.935581982
2.439968348,0.209736958,0.391276062,-1.199989796,0.7432549,7.616914272,0.311187983,-0.049059466,0.252153188,0.303926826,0.063069917,0.834590793,-0.931703508
2.444966555,0.397073656,0.334890425,-1.411833882,0.807064593,8.053871155,0.463182241,-0.057659425,0.252257019,0.300781399,0.072213918,0.873783469,-0.92590332
2.449965715,0.625664473,0.198882028,-1.5481143,0.767638922,8.271957397,0.662192464,-0.07232938,0.252435386,0.295419335,0.083485134,0.913728356,-0.917185009
2.454966068,1.233185768,0.263677269,-1.929142475,0.821723282,8.224125862,0.908516884,-0.077193663,0.252494544,0.293641359,0.097734079,0.953196466,-0.905259907
2.459967136,1.502676845,0.413445055,-2.17097187,0.915952563,7.781146049,1.150762439,-0.080936395,0.252540082,0.292273343,0.114996791,0.989645422,-0.890830338
2.464969635,1.590782166,0.622070253,-1.964663029,1.127618074,7.457474232,1.357309222,-0.082177408,0.252555162,0.291819721,0.136113018,1.024121404,-0.873158455
2.469972849,2.180838823,0.681646824,-2.218412638,1.479660392,7.209214211,1.377879977,-0.104965188,0.255470574,0.275418967,0.16132614,1.057742953,-0.853608906
2.474970818,2.375282526,0.435267061,-2.383143425,1.75552547,6.54326582,1.450269938,-0.112521179,0.256437242,0.269980758,0.191011921,1.086895466,-0.831151009
2.479969978,2.391388893,0.424268782,-2.123900652,2.075544357,6.053342819,1.600125074,-0.118335009,0.257181048,0.265796453,0.226409271,1.113202572,-0.804090738
2.484970331,2.267152786,0.441119611,-2.009377718,2.418223858,5.67740202,1.638713717,-0.120262764,0.257427663,0.264409035,0.266405702,1.137473822,-0.774155974
2.489971399,2.011100292,0.384377956,-1.95796299,2.710099936,5.300489902,1.634324789,-0.133803248,0.26194644,0.250570863,0.310730934,1.158988118,-0.741933703
2.494973898,1.558654308,0.33354333,-1.73866272,2.941676378,4.946522713,1.625491858,-0.141276613,0.264516026,0.242822245,0.358936071,1.178081036,-0.706788421
2.499971628,1.064423919,0.344275296,-1.583907962,3.196244001,4.650885582,1.504460216,-0.147026852,0.266493112,0.236860216,0.409945756,1.195344925,-0.670396805
2.504969835,0.324163973,0.158532292,-1.429470658,3.278115749,4.29543829,1.282892108,-0.148933515,0.267148703,0.234883323,0.461651534,1.210190892,-0.63403976
2.509969234,-0.325203598,-0.181125075,-1.691434503,2.844926596,3.800863504,1.019302011,-0.153674185,0.270956099,0.225070134,0.508713663,1.221925616,-0.600957513
2.514969349,0.136808902,-0.48830083,-0.998358428,2.163151026,3.354115486,1.119589329,-0.158547208,0.275549263,0.213454559,0.554570496,1.231377244,-0.563849926
2.519970655,1.428739548,-0.935126007,-2.199574947,1.583491802,3.137945652,1.2952106,-0.162296653,0.279083431,0.204517156,0.602170587,1.238533497,-0.523118436
2.524972916,1.231137514,-0.6804111,-3.020020723,0.645960569,1.590923309,1.303408146,-0.163539901,0.280255258,0.201553687,0.625232399,1.23638916,-0.50466466
2.529970169,0.24943082,-0.24617362,-1.818874121,-0.135897592,1.052006245,1.302623868,-0.164496496,0.281156957,0.199273497,0.64162302,1.233745098,-0.487180889
2.534968376,-0.157635331,0.043418337,-1.444921494,-0.539505363,0.9991166,1.351585627,-0.167337328,0.285619229,0.187625825,0.658066928,1.232030153,-0.46780473
2.539967537,-0.222322166,0.334455073,-1.287615538,-0.670130312,0.822773695,1.416196227,-0.16952315,0.289052635,0.178663746,0.672147274,1.229547143,-0.450537413
2.544967651,-0.179832146,0.48569119,-1.175041199,-0.651570082,0.619481564,1.436523438,-0.170247927,0.290191084,0.175692081,0.684426725,1.226412177,-0.435355008
2.549968719,-0.09197405,0.486707717,-1.184575319,-0.589242935,0.341790587,1.44591248,-0.170805603,0.291067064,0.173405588,0.694391012,1.222078562,-0.423033267
2.554971218,-0.030539412,0.468095809,-1.193870068,-0.519647241,0.019343756,1.439016819,-0.169970736,0.291886896,0.172771767,0.70144546,1.216411471,-0.414152354
2.559968472,-0.021165429,0.468257457,-1.187066197,-0.452099711,-0.316126496,1.392094493,-0.168297201,0.293052971,0.172409803,0.705166161,1.209621072,-0.409171194
2.564966917,-0.061478831,0.47379151,-1.132861614,-0.410839677,-0.660691142,1.289433718,-0.167742282,0.293439627,0.172289789,0.704972625,1.20189178,-0.408533365
2.569965839,-0.141038775,0.470439166,-1.065105319,-0.40745008,-0.983893156,1.143823981,-0.167315319,0.293737113,0.172197431,0.700854957,1.193470597,-0.412015408
2.574965954,-0.211670876,0.470112264,-0.975969493,-0.397718042,-1.258585572,0.977385283,-0.167173728,0.293835759,0.172166809,0.693343639,1.184603572,-0.419101834
2.579967022,-0.249558344,0.482080281,-0.922275841,-0.383274317,-1.478613496,0.785920918,-0.162207469,0.294520378,0.175133824,0.682845891,1.175582767,-0.429470628
2.584969521,-0.253910989,0.47702992,-0.894906104,-0.365817279,-1.674090385,0.588617444,-0.160560742,0.294747382,0.176117644,0.669708133,1.1664294,-0.44282192
2.589966774,-0.248275965,0.452198207,-0.865419924,-0.356393546,-1.849035978,0.394187629,-0.159293696,0.294922054,0.176874623,0.654362381,1.15713203,-0.458650231
2.594964981,-0.237619326,0.413001895,-0.854945838,-0.360738456,-2.003622532,0.205817252,-0.158873573,0.29497996,0.177125618,0.637097418,1.14769721,-0.476593375
2.599964142,-0.220912397,0.357122421,-0.856229424,-0.382417649,-2.15759635,0.033631954,-0.154452011,0.294835687,0.181947649,0.618150592,1.137974024,-0.49626258
2.604970694,-0.19585225,0.290144473,-0.866109192,-0.42433238,-2.314925909,-0.116448961,-0.151971772,0.294741124,0.18469198,0.597741961,1.127830267,-0.517392755
2.609972239,-0.167289019,0.212328404,-0.879868269,-0.493475497,-2.476632595,-0.235139683,-0.150063396,0.294668376,0.18680355,0.576185226,1.117098212,-0.539500356
2.614974737,-0.131495073,0.145508051,-0.889113665,-0.582690895,-2.640949249,-0.320707053,-0.149430618,0.294644237,0.18750371,0.5537588,1.105651379,-0.562187552
2.619971991,-0.086479828,0.094189107,-0.901958942,-0.685305059,-2.807379246,-0.379480481,-0.14658013,0.293802261,0.191249073,0.530701876,1.093414187,-0.585064888
2.624970198,-0.024439111,0.057707496,-0.90603447,-0.794390619,-2.984740734,-0.412867516,-0.143251494,0.292692721,0.195724517,0.507256925,1.080267072,-0.607860506
2.629969358,0.034676507,0.043445941,-0.901888847,-0.899758577,-3.158209085,-0.43646273,-0.140690327,0.291838974,0.199168071,0.483574629,1.066225886,-0.630460024
2.634969234,0.079941429,0.038080815,-0.89545536,-0.98566097,-3.321669102,-0.456240892,-0.139841095,0.291555882,0.200309888,0.459912598,1.05132091,-0.652710855
2.639970541,0.111919224,0.039688818,-0.895152628,-1.046071529,-3.474149942,-0.474420041,-0.139187664,0.291338086,0.20118843,0.436525702,1.035575032,-0.674491405
2.644972801,0.137613878,0.045638144,-0.887508154,-1.084482431,-3.617279291,-0.491472393,-0.134943813,0.288859665,0.207774475,0.413627386,1.019020081,-0.695618153
2.649970531,0.166965395,0.042249471,-0.877638817,-1.110918999,-3.741601706,-0.513654172,-0.131678462,0.286952704,0.212841988,0.391323626,1.001775384,-0.716087937
2.6549685,0.19482626,0.033535838,-0.871047795,-1.12905097,-3.853158236,-0.540500522,-0.130595744,0.286320388,0.214522272,0.369702578,0.983895421,-0.73587513
2.659967661,0.228332639,0.022532035,-0.876090109,-1.139469266,-3.945099831,-0.571910322,-0.12976265,0.285833836,0.215815157,0.348807186,0.965481222,-0.754973531
2.664968491,0.267498672,0.011433478,-0.881613314,-1.154632211,-4.027991295,-0.601795375,-0.126144052,0.283983856,0.22148329,0.328605413,0.946569502,-0.77323842
2.669969559,0.316861689,-0.000539312,-0.898451746,-1.170942307,-4.100406647,-0.635192692,-0.119980119,0.280852884,0.231142461,0.309070289,0.927230716,-0.790795624
2.674971819,0.374993265,-0.011759369,-0.932594597,-1.195520878,-4.178569794,-0.668856144,-0.117936276,0.27981472,0.234345257,0.290091306,0.907421768,-0.807745397
2.679969549,0.437109411,-0.020067209,-0.966312468,-1.217019558,-4.271065235,-0.705156624,-0.116363682,0.279015958,0.236809582,0.271624207,0.887086034,-0.824156225
2.684967756,0.493535131,-0.033254962,-0.991474032,-1.245710373,-4.368368626,-0.742617667,-0.115842238,0.278751105,0.237626702,0.253638625,0.866202116,-0.839958787
2.689966917,0.538064897,-0.045304209,-1.01700592,-1.273710847,-4.465531826,-0.782378554,-0.106038086,0.273464203,0.248108611,0.236091852,0.844778359,-0.855173111
2.694967031,0.579764783,-0.054480013,-1.038876891,-1.306845427,-4.564437866,-0.819248497,-0.102787219,0.2717112,0.251584202,0.218982682,0.822805703,-0.869864523
2.699968338,0.618688643,-0.057928771,-1.059133291,-1.340212822,-4.664531231,-0.853596807,-0.100285903,0.270362347,0.254258454,0.202282816,0.800277352,-0.88403523
2.704970598,0.653649449,-0.057298876,-1.072308183,-1.372831583,-4.759357929,-0.891572773,-0.099456504,0.269915104,0.255145162,0.185979933,0.777242959,-0.897715449
2.709967613,0.674932241,-0.060231503,-1.074030995,-1.398133993,-4.835309029,-0.933461428,-0.090812057,0.265580237,0.263755023,0.170104831,0.753804624,-0.910738468
2.71496582,0.693218112,-0.074707948,-1.085427999,-1.421491146,-4.891475677,-0.978316963,-0.085964546,0.263155371,0.268571585,0.154672861,0.730054021,-0.923280716
2.719964981,0.716194153,-0.101228237,-1.101121664,-1.456771016,-4.933362484,-1.022988915,-0.082234718,0.261289567,0.272277594,0.139642,0.706071019,-0.935316443
2.724965334,0.739229321,-0.129107147,-1.116248131,-1.500481844,-4.965586185,-1.064777255,-0.080997974,0.26067093,0.273506433,0.124949493,0.681895971,-0.946835458
2.729966402,0.761952639,-0.162926495,-1.125731707,-1.558135509,-4.985564709,-1.107024193,-0.074630871,0.257501453,0.27819106,0.110503264,0.657605529,-0.957744062
2.734968662,0.779281914,-0.190900236,-1.136780262,-1.625803351,-4.987325191,-1.15040791,-0.06705869,0.25373441,0.283514917,0.096231796,0.633274913,-0.968113542
2.739971638,0.800238073,-0.209769875,-1.149933219,-1.694215298,-4.978759289,-1.195713282,-0.06123241,0.250835955,0.287611246,0.082078278,0.608977616,-0.978072286
2.744975805,0.828742445,-0.225067049,-1.171156406,-1.758344531,-4.95893383,-1.23815608,-0.059300523,0.249874875,0.288969517,0.068047971,0.584774554,-0.987608731
2.749975204,0.859630942,-0.225503057,-1.19657445,-1.811279893,-4.936844349,-1.282347918,-0.057814069,0.24913539,0.290014625,0.054128196,0.560664296,-0.996771872
2.754975557,0.894317031,-0.21405226,-1.220949531,-1.849653244,-4.911523819,-1.333122492,-0.046654917,0.24352859,0.298305482,0.040343255,0.536676943,-1.005504608
2.759976387,0.930389106,-0.196104363,-1.249258161,-1.862054467,-4.883440018,-1.386386156,-0.038068712,0.23921454,0.304684728,0.02679619,0.512833297,-1.014015198
2.764978647,0.979533017,-0.158106685,-1.278325438,-1.841286063,-4.854481697,-1.446853161,-0.035221688,0.237784088,0.306799978,0.013563749,0.489148349,-1.02238071
2.769975901,1.04529357,-0.137339234,-1.317480206,-1.791283727,-4.833539486,-1.518369198,-0.033031099,0.236683443,0.308427513,0.000810721,0.465612024,-1.030624866
2.774973869,1.132763982,-0.124999829,-1.361322522,-1.709702134,-4.821275234,-1.608488679,-0.025848694,0.232848257,0.311914086,-0.011347307,0.442201167,-1.038681865
2.779973745,1.221704721,-0.116155215,-1.411127925,-1.61092937,-4.829963207,-1.699458361,-0.013794254,0.22638841,0.317576587,-0.02282452,0.4188039,-1.046670198
2.78497386,1.304369211,-0.105259262,-1.440957427,-1.501452327,-4.850370407,-1.79225719,-0.009797229,0.224246442,0.319454163,-0.033606797,0.395359516,-1.054679394
2.789974928,1.383084059,-0.089705348,-1.47035718,-1.376885772,-4.87898016,-1.877814531,-0.00672179,0.222598344,0.320898831,-0.043593042,0.371842861,-1.062664032
2.79497695,1.457426071,-0.078026637,-1.489811301,-1.234856486,-4.916485786,-1.954199433,-0.005702033,0.222051859,0.321377873,-0.052667048,0.348199606,-1.070512891
2.799974442,1.519321918,-0.084224142,-1.50137651,-1.08960402,-4.955673218,-2.009076118,0.010324804,0.213748962,0.325404495,-0.060745616,0.324429452,-1.078087807
2.804972649,1.581262231,-0.092426144,-1.493516326,-0.952454746,-4.995422363,-2.046667576,0.015639,0.210995883,0.326739639,-0.067868203,0.300551057,-1.085415721
2.809971809,1.648153782,-0.1363893,-1.46161437,-0.831362903,-5.031627655,-2.062473059,0.019727912,0.208877563,0.327766955,-0.074037246,0.276629418,-1.092357159
2.814971685,1.707500815,-0.214287713,-1.406489372,-0.739605427,-5.046066284,-2.046835661,0.021083718,0.208175167,0.328107595,-0.079325885,0.252779126,-1.098754883
2.819972754,1.762649298,-0.325248241,-1.35438168,-0.712190866,-5.036523342,-1.988001943,0.033479434,0.203902245,0.327080965,-0.083963372,0.229166403,-1.104252458
2.824975252,1.808075786,-0.416912824,-1.276689291,-0.772693336,-5.00733614,-1.871644139,0.040398832,0.201561809,0.326421678,-0.088486031,0.205890745,-1.108772755
2.829973221,1.796509624,-0.486936808,-1.180409193,-0.895100832,-4.943833351,-1.701184511,0.045722838,0.199761003,0.325914413,-0.093209207,0.183031574,-1.112210989
2.834971905,1.769100189,-0.510766983,-1.063521028,-1.061237097,-4.826913357,-1.491096497,0.047488179,0.199163884,0.325746208,-0.098463811,0.160906613,-1.114472747
2.839971066,1.757230997,-0.496393591,-0.922569335,-1.229957104,-4.671358109,-1.257728934,0.055255596,0.197250828,0.325118363,-0.104347892,0.13973248,-1.115408301
2.84497118,1.777797222,-0.449501812,-0.762920797,-1.362441659,-4.476166725,-1.014024973,0.06429404,0.195150658,0.324407578,-0.110761978,0.119783662,-1.115008831
2.849972486,1.81271565,-0.398488343,-0.606366694,-1.452750921,-4.253377914,-0.769137561,0.071248516,0.193534717,0.323860675,-0.11752829,0.101212576,-1.113368988
2.854974747,1.848375916,-0.363284767,-0.455811083,-1.503306746,-4.013864994,-0.526628554,0.073554486,0.192998901,0.323679358,-0.124448188,0.084081456,-1.110519171
2.859972239,1.877529621,-0.3616409,-0.310748041,-1.538165689,-3.752699614,-0.290975928,0.075328775,0.192586631,0.323539823,-0.131446928,0.068491906,-1.106493354
2.864970446,1.90209496,-0.411962658,-0.179942086,-1.592249274,-3.464758396,-0.074991018,0.086679198,0.189030573,0.32189548,-0.138583899,0.05456299,-1.101297379
2.869969606,1.926368952,-0.494884819,-0.072160073,-1.690075397,-3.165975809,0.121694222,0.095412575,0.186294436,0.320630252,-0.14608793,0.042342421,-1.09516418
2.87497592,1.941760898,-0.57223177,0.032821089,-1.819796205,-2.860813618,0.273430616,0.098308392,0.185387179,0.320210725,-0.15418233,0.031793747,-1.08836925
2.879977226,1.952056289,-0.625490129,0.132406741,-1.966162801,-2.55628252,0.379257262,0.100536533,0.184689119,0.319887936,-0.163017109,0.022894144,-1.081225634
2.884979725,1.960156322,-0.623755276,0.205287695,-2.079118729,-2.267531872,0.462659389,0.106628075,0.181285501,0.318301499,-0.172482014,0.015550834,-1.07375598
2.889976978,1.960928202,-0.559803188,0.300292313,-2.12668705,-1.985767961,0.517894804,0.116727553,0.175459087,0.315584898,-0.182375669,0.009640476,-1.066267729
2.894975424,1.95583725,-0.460805744,0.387760341,-2.081125021,-1.69248414,0.555934191,0.120076351,0.173527166,0.314684123,-0.192208886,0.005257837,-1.058930039
2.899974585,1.936019301,-0.362115681,0.455166638,-1.919098496,-1.387657523,0.584536612,0.122653022,0.172040671,0.31399101,-0.201359838,0.002413684,-1.051846504
2.904974937,1.89009285,-0.254890174,0.513071954,-1.651228428,-1.074282289,0.606036007,0.123507395,0.171547785,0.313761204,-0.209323034,0.001084233,-1.045097232
2.909975767,1.828262568,-0.138123393,0.559186399,-1.285021186,-0.735076785,0.623162508,0.133113205,0.162983328,0.315189809,-0.21557869,0.001357671,-1.038735628
2.914978266,1.795069695,-0.073154189,0.553620934,-0.858304977,-0.39541921,0.642584682,0.136298299,0.160143524,0.315663487,-0.219712153,0.003343794,-1.032767415
2.919975758,1.767965436,-0.009402869,0.529039323,-0.405981749,-0.092326641,0.67411232,0.138749018,0.157958493,0.316027969,-0.221627325,0.006788812,-1.027039409
2.924973726,1.744878888,0.039705381,0.4948048,0.030695789,0.205667093,0.697112083,0.139561623,0.157233983,0.316148818,-0.221387953,0.011671468,-1.021595716
2.929972887,1.746207118,0.029521052,0.404716134,0.398347974,0.490796447,0.710352182,0.142933026,0.152614892,0.316446036,-0.219232321,0.017987663,-1.016318083
2.93497324,1.765432358,-0.002600437,0.281801939,0.66511023,0.723651767,0.73311156,0.144730449,0.150078237,0.316595137,-0.215658858,0.025478909,-1.01106739
2.939974308,0.473291397,0.300969869,0.014954582,0.883637905,1.230548024,0.81110853,0.146113455,0.148126453,0.316709846,-0.211590573,0.03300767,-1.007985234
2.944977045,1.701894403,0.144281834,0.632669687,1.391110897,2.029289246,0.651663601,0.146572039,0.147479266,0.316747904,-0.205028743,0.046251506,-1.005068421
2.949974775,2.186608553,0.060762234,0.525093615,1.656291604,2.659054756,0.700102806,0.147287354,0.146969929,0.316289783,-0.196758613,0.066108279,-1.000843525
2.954972982,0.730026066,0.409727752,0.218591005,1.88909471,2.253806829,0.522114933,0.147890061,0.146789581,0.31564638,-0.187465325,0.078124091,-1.000132799
2.959972143,-0.139671981,0.517211199,0.563825011,1.713956118,2.360587597,0.114442579,0.1483538,0.146650806,0.315151364,-0.180484235,0.088461772,-1.002828956
2.964972258,0.27988553,0.305689722,0.317399561,2.002012253,3.586295605,-0.179271266,0.148507565,0.146604806,0.314987212,-0.171299279,0.106882639,-1.006827354
2.969973564,0.503528237,0.119115636,-1.105017424,1.730598569,4.433357716,-0.502365112,0.14862588,0.146569386,0.31486091,-0.162767038,0.130421802,-1.012358904
2.974975824,0.149461374,0.005950876,-2.261937857,1.572152257,4.007369995,-0.631417811,0.143713713,0.150819987,0.315289944,-0.155866534,0.149520263,-1.018937945
2.979973078,-0.068909764,0.34777683,-2.249453545,1.785556078,3.260447741,-0.292911172,0.139934123,0.154090539,0.315620065,-0.147376403,0.16390942,-1.02315259
2.984971285,-0.584334254,0.550715089,-1.625673175,1.85286057,3.37593317,-0.230312347,0.138680875,0.155174986,0.315729529,-0.139221236,0.178221479,-1.027629137
2.989970446,-0.090695068,-0.093698099,-1.126588345,2.238715887,4.087510586,-0.257737368,0.137716591,0.156009391,0.31581375,-0.12819615,0.198235959,-1.031620502
2.994970798,0.304972649,-0.681097269,-1.354934454,2.516109228,4.621249199,-0.011575572,0.131959587,0.159573808,0.317171276,-0.114091046,0.222156137,-1.032765031
2.999972105,0.596384048,-1.291140914,-1.509020567,2.28684473,4.749302864,0.234312803,0.122032031,0.165640801,0.31956023,-0.0999972,0.246656075,-1.031419754
3.004974365,1.135089397,-1.512949586,-1.543252349,1.848856807,4.80578661,0.571241438,0.118740238,0.167652503,0.320352376,-0.087761864,0.272416502,-1.026823759
3.009977579,1.569272399,-1.445613861,-1.977177382,1.297826171,4.611298561,0.710725427,0.116207436,0.169200376,0.320961863,-0.078244485,0.297662318,-1.020882368
3.014975786,2.042230129,-1.324385166,-2.140213966,0.822720468,4.071478367,0.766949892,0.115367606,0.169713631,0.321163952,-0.07123065,0.320312381,-1.014060974
3.019974947,2.387407303,-0.856871009,-2.09473753,0.42692858,3.564293146,0.735676944,0.100778542,0.177195907,0.322001845,-0.066923179,0.340755165,-1.007538557
3.024975061,2.617025375,-0.465518415,-2.082514524,0.047880001,3.064021111,0.710292697,0.095941089,0.17967689,0.322279662,-0.065087244,0.359092772,-1.00138855
3.02997613,2.310312033,0.26341936,-1.983037114,-0.137996629,2.289898872,0.65548414,0.092218995,0.181585833,0.322493434,-0.065690212,0.37263447,-0.996738434
3.034978628,1.556829453,0.646037638,-1.379193187,-0.018345628,1.757270932,0.452249885,0.090984821,0.182218805,0.322564334,-0.066515952,0.382187724,-0.994779944
3.039975882,0.799928606,0.552504778,-0.83807385,0.119773291,1.68648684,0.353856117,0.080924973,0.183693841,0.322731763,-0.066218093,0.390835345,-0.993763626
3.044974089,0.545958638,0.466668516,-0.783257365,0.250148118,1.852355242,0.344173282,0.075334959,0.18442741,0.32281521,-0.065113977,0.400457442,-0.992823541
3.049973249,0.674211681,0.499911696,-1.061276913,0.362475634,1.804604769,0.366322368,0.071033821,0.184991851,0.322879434,-0.063480332,0.410116673,-0.991661727
3.054973364,0.608820319,0.425678104,-1.097068667,0.508730531,1.569479942,0.356699854,0.069607645,0.18517901,0.322900742,-0.060920816,0.418061882,-0.9904055
3.059974432,0.555879712,0.254668027,-1.049403191,0.651604772,1.385935426,0.392696619,0.06628295,0.1855198,0.32400921,-0.05710426,0.425028086,-0.988643408
3.064976931,0.660296261,0.118838221,-0.999868274,0.741800725,1.214895725,0.459335417,0.062934488,0.185831219,0.325477988,-0.05247619,0.431443393,-0.985970557
3.069974184,0.842904389,0.008045603,-1.017794609,0.734359741,1.017579079,0.454079062,0.06035807,0.18607083,0.326608092,-0.047615655,0.437135935,-0.982804894
3.074972391,0.962170362,-0.095913492,-1.183063507,0.687552869,0.794564784,0.405625761,0.059503779,0.186150283,0.326982826,-0.043071546,0.441801667,-0.979742229
3.079971552,0.919999182,-0.283521861,-1.259663463,0.607234538,0.432846665,0.409150958,0.058846459,0.186211422,0.327271134,-0.038464922,0.444269478,-0.976385236
3.084971666,0.853171587,-0.371575505,-1.204520226,0.492927253,0.141724527,0.466359437,0.055527311,0.187807903,0.326668799,-0.034141529,0.44522649,-0.972531319
3.089972734,0.707338989,-0.091980517,-0.970712423,0.39625299,-0.021714667,0.488530308,0.052973449,0.189036295,0.326205343,-0.030893965,0.445265383,-0.969050109
3.094975233,0.637476921,0.177267924,-0.908546507,0.379057676,0.027895208,0.410066903,0.052126639,0.189443603,0.326051682,-0.02850703,0.445762426,-0.966751158
3.099972725,0.49419716,0.168058872,-0.988587797,0.381481737,-0.013836764,0.374066442,0.051475074,0.189757004,0.325933427,-0.026040992,0.445744336,-0.964829862
3.104970932,0.398515284,0.093222551,-0.942209184,0.398422152,-0.012459056,0.388198078,0.051030502,0.190518573,0.324810117,-0.023210412,0.44555366,-0.962644935
3.10997057,0.404544622,0.064325258,-0.957312703,0.417742282,-0.00960386,0.411068678,0.050457362,0.19176954,0.322849631,-0.020168062,0.445494056,-0.960273623
3.114970922,0.46023798,0.059054013,-0.938612401,0.414866179,-0.013240979,0.424408197,0.05026732,0.192184329,0.322199553,-0.017114826,0.445491433,-0.957717121
3.119971991,0.496365905,0.050019234,-0.933964789,0.39006108,-0.006567684,0.399903059,0.050121095,0.192503482,0.321699381,-0.01426735,0.445587128,-0.955279827
3.124974251,0.507967114,-0.001995923,-0.934796989,0.350942671,0.002650632,0.364657104,0.05007261,0.19260931,0.321533531,-0.011631235,0.445728898,-0.952962697
3.129971743,0.503803968,-0.073242463,-0.942816436,0.285912722,-0.000495204,0.339300334,0.051249363,0.194023401,0.322140217,-0.009252273,0.445832074,-0.950657845
3.13496995,0.425045758,-0.04332485,-0.921875834,0.249179557,0.011690066,0.315455437,0.051639553,0.19449228,0.322341383,-0.007218727,0.445835471,-0.948673487
3.13996911,0.38093558,0.009191395,-0.939559698,0.237576872,0.051163998,0.300942808,0.051939774,0.194853052,0.322496146,-0.00537973,0.446016908,-0.946940899
3.144975185,0.359640032,0.040245362,-0.928886414,0.243738696,0.07854414,0.30494386,0.052039322,0.194972679,0.322547466,-0.003528695,0.446278661,-0.945236921
3.149976254,0.385522455,0.039028808,-0.931940317,0.247021571,0.111387968,0.31759727,0.052546583,0.195862874,0.321934938,-0.001600305,0.44680056,-0.943407595
3.154978514,0.419377118,0.01114809,-0.938358724,0.248233765,0.119304501,0.334774524,0.052821349,0.196355551,0.321570516,0.000452444,0.447370559,-0.941360593
3.159976244,0.428640246,0.014045211,-0.927219093,0.239321917,0.136123836,0.33423689,0.053032763,0.196734637,0.321290135,0.002435095,0.4480277,-0.939310193
3.164974451,0.427183479,0.01379081,-0.941289783,0.238257259,0.157301962,0.326474458,0.053102866,0.196860328,0.321197152,0.004372725,0.448795348,-0.937357545
3.16997385,0.42536062,0.012553402,-0.941861391,0.228538781,0.173886299,0.311118901,0.053545877,0.197086558,0.320335805,0.006227327,0.449622482,-0.935485363
3.174973965,0.439391762,0.012889759,-0.947400272,0.22642982,0.188493118,0.294028014,0.054085109,0.197292179,0.319253772,0.008034445,0.450556517,-0.933685422
3.179975271,0.44371295,-0.018222202,-0.935658753,0.219208106,0.196361706,0.267068803,0.054500014,0.19745037,0.318421215,0.009802412,0.45151794,-0.931996047
3.18497777,0.458332092,-0.055832982,-0.935649097,0.20137243,0.198719308,0.236185551,0.054637589,0.197502822,0.318145156,0.01147226,0.452515125,-0.930371106
3.189975023,0.469732255,-0.084148318,-0.938298047,0.172763601,0.194874182,0.193472266,0.054743439,0.197543189,0.317932725,0.012932382,0.453502864,-0.928939819
3.19497323,0.479971826,-0.091362387,-0.931634903,0.137889326,0.194358766,0.145923272,0.054279741,0.198082045,0.318765014,0.014090056,0.454493225,-0.927767396
3.199972153,0.472779393,-0.064406976,-0.9292081,0.11658413,0.193463087,0.106103264,0.053922959,0.198496655,0.319405407,0.014986465,0.455483437,-0.926885784
3.204972267,0.464181721,-0.02997853,-0.920356512,0.105322421,0.195730537,0.077284008,0.053804655,0.198634133,0.319617748,0.015691541,0.456470132,-0.926232338
3.209973335,0.46366781,0.005328189,-0.91671592,0.106914073,0.193545982,0.062714078,0.053713631,0.198739931,0.319781154,0.016313864,0.457458019,-0.92571038
3.214975834,0.457775384,0.030204261,-0.904178023,0.118560597,0.188814759,0.061499748,0.053597294,0.199005932,0.319684237,0.016964048,0.458413064,-0.92523849
3.219973087,0.450499028,0.0489574,-0.902035356,0.131627217,0.184585661,0.072917342,0.053420663,0.1994441,0.319456875,0.017692233,0.459331423,-0.924718797
3.224971533,0.464540601,0.075318873,-0.901855826,0.154917523,0.174511582,0.086798899,0.053362094,0.199589387,0.319381505,0.018527701,0.460220635,-0.924134791
3.229970694,0.456899047,0.082142137,-0.891071677,0.18097496,0.163794324,0.10490036,0.053317033,0.19970119,0.31932348,0.019520877,0.461041152,-0.923481584
3.234970808,0.434430182,0.074239597,-0.892038703,0.203338549,0.161804125,0.114748158,0.053302091,0.199738264,0.319304258,0.020687994,0.461818844,-0.922768831
3.239972115,0.435908794,0.022904463,-0.894308746,0.212821588,0.161658153,0.126754001,0.052770481,0.200034544,0.317961395,0.022045374,0.462592155,-0.921905696
3.244974613,0.435468048,-0.009741329,-0.895720959,0.216855347,0.162435934,0.137363151,0.052594207,0.200132787,0.317516148,0.023493595,0.463369519,-0.920901477
3.249971867,0.429135174,-0.034904171,-0.898419857,0.212013572,0.165367708,0.135239497,0.052458581,0.200208366,0.317173541,0.024936911,0.464153886,-0.919909596
3.254970074,0.433153331,-0.044364449,-0.906367481,0.197040483,0.170178384,0.137005568,0.052413609,0.20023343,0.317059964,0.026328724,0.464953631,-0.918880761
3.259969234,0.425684869,-0.043051146,-0.908260643,0.174393177,0.173690885,0.131732285,0.052318223,0.200970843,0.31765306,0.027550301,0.465763569,-0.917919338
3.264969826,0.436190814,-0.03701663,-0.904177308,0.155499935,0.17486757,0.130741552,0.052271556,0.201393053,0.318018109,0.028682448,0.466593117,-0.916950703
3.269970894,0.440197647,-0.026892945,-0.899910748,0.145624518,0.177897051,0.134580538,0.052235648,0.201717928,0.318298966,0.029754026,0.467446089,-0.915963531
3.274973392,0.441243619,-0.034926116,-0.894440711,0.131950989,0.184700802,0.125652045,0.052223742,0.201825649,0.318392098,0.030752575,0.468341321,-0.915026486
3.279976606,0.443447918,-0.047201954,-0.897604883,0.10946025,0.191516593,0.124521211,0.052272782,0.201843739,0.317802697,0.03167323,0.469264001,-0.914047718
3.284975052,0.44033891,-0.060615048,-0.894778609,0.086888194,0.194481328,0.118200675,0.052347735,0.201784402,0.316940665,0.032464765,0.470192194,-0.913103878
3.289974213,0.451294273,-0.061703753,-0.900147855,0.069180787,0.195447147,0.117667384,0.052405406,0.20173876,0.316277385,0.033168141,0.4711501,-0.912145972
3.294974327,0.450785249,-0.056929868,-0.892522514,0.052074805,0.189423591,0.107689813,0.052424528,0.20172362,0.316057444,0.033757128,0.472055703,-0.911251426
3.299975395,0.452400684,-0.056888301,-0.890087068,0.031075399,0.193426028,0.100111559,0.052439243,0.201711968,0.315888226,0.034214728,0.473012269,-0.910411298
3.304977655,0.457947075,-0.051431321,-0.885234714,0.005004127,0.194215894,0.100652061,0.051749352,0.202238321,0.316844344,0.034535971,0.473966748,-0.909561455
3.309975147,0.463976592,-0.032427289,-0.885261953,-0.015313182,0.198296532,0.098885402,0.051218528,0.20264332,0.317579985,0.0346977,0.474964678,-0.908758163
3.314973116,0.446342021,-0.017187044,-0.8897205,-0.017949378,0.203227982,0.094398469,0.051042516,0.202777609,0.317823917,0.034828581,0.475947857,-0.908029675
3.319972277,0.445069522,-0.017069362,-0.891741335,-0.014814008,0.208639741,0.093003757,0.050907087,0.202880934,0.318011612,0.03498546,0.476951838,-0.907311797
3.32497263,0.44192794,-0.010471107,-0.895492494,-0.014205299,0.209736928,0.096961543,0.0505566,0.202921107,0.31807971,0.035140906,0.477946848,-0.906587541
3.329974174,0.449668616,-0.00325874,-0.884785235,-0.013425676,0.214304194,0.105107494,0.049977932,0.202957988,0.318138063,0.035310231,0.478992045,-0.905814409
3.334976673,0.459322602,0.004276699,-0.883425832,-0.010885147,0.216455862,0.114949524,0.049786057,0.202970222,0.318157405,0.035512242,0.480060816,-0.904975951
3.339974403,0.455818087,-0.001778667,-0.883194745,-0.01261214,0.217965215,0.125229478,0.04963842,0.202979624,0.318172306,0.035746682,0.481115937,-0.904080391
3.34497261,0.453452498,-0.009100035,-0.881493211,-0.014629634,0.220799193,0.134878218,0.04958947,0.202982754,0.318177223,0.036006,0.482183814,-0.903109908
3.349971533,0.459534377,-0.015180521,-0.885362446,-0.015973931,0.224620163,0.138844848,0.049294155,0.203046754,0.316990763,0.036292695,0.483285248,-0.90210247
3.354971647,0.460865498,-0.023522532,-0.875739336,-0.010790487,0.220243901,0.137796566,0.049196236,0.203067958,0.316597372,0.036614701,0.484354943,-0.901098967
3.359972715,0.463864863,-0.020104794,-0.875184119,-0.012167608,0.21857354,0.135822088,0.049120892,0.203084275,0.31629467,0.036903612,0.485433698,-0.900114298
3.364975214,0.459911257,-0.02277147,-0.882875144,-0.011771371,0.217120215,0.132481694,0.04909591,0.203089699,0.316194296,0.037202366,0.486478776,-0.899151087
3.369972467,0.454797298,-0.033267822,-0.890218437,-0.023341998,0.226677015,0.13046889,0.048980322,0.202800274,0.31712696,0.037463289,0.487555712,-0.898181796
3.374970675,0.451663762,-0.035916645,-0.891045272,-0.043447938,0.237101063,0.128469095,0.04891815,0.202631652,0.317686141,0.037595637,0.488686025,-0.897226691
3.379969597,0.450229824,-0.033081725,-0.889440775,-0.059502419,0.247157604,0.131991908,0.04887031,0.202501923,0.318116397,0.037663672,0.48987025,-0.896244586
3.384969711,0.450321794,-0.030599026,-0.885133624,-0.068446852,0.266499281,0.126357138,0.048854448,0.202458903,0.31825906,0.037666056,0.491150826,-0.895298064
3.389971256,0.455984056,-0.040778145,-0.895161331,-0.077338688,0.277905315,0.133471102,0.048426099,0.202377021,0.318467557,0.037699264,0.492512763,-0.894276738
3.394973755,0.459547639,-0.031034451,-0.889749408,-0.083097696,0.289906949,0.140409186,0.04786443,0.202300668,0.318636239,0.037683483,0.493906409,-0.893245637
3.399971008,0.453792959,-0.012514719,-0.893654466,-0.0839324,0.303650409,0.150540829,0.047432259,0.202241927,0.318766028,0.037645802,0.495361775,-0.892193854
3.404969692,0.447864592,0.003431869,-0.894978523,-0.069893926,0.311838746,0.160393968,0.047288962,0.202222452,0.318809062,0.037695564,0.496832639,-0.891131043
3.409968853,0.443355232,0.005306132,-0.892868459,-0.058003299,0.335555941,0.16816099,0.047178701,0.202207461,0.318842173,0.037836675,0.498427302,-0.890020132
3.414975166,0.443415791,-0.00083502,-0.898281693,-0.054237965,0.358276963,0.183102161,0.046851095,0.202151597,0.318224847,0.038044319,0.500134766,-0.888816237
3.419976473,0.443499535,0.002924002,-0.899026871,-0.045142841,0.378381282,0.19770211,0.046599023,0.202108607,0.317749858,0.038340095,0.50193125,-0.887511969
3.424978733,0.446636826,0.001251295,-0.897105753,-0.043748114,0.400654763,0.207491904,0.046515442,0.202094346,0.317592353,0.03867222,0.503839076,-0.886156142
3.429975986,0.445303112,-0.001883272,-0.903949797,-0.042294841,0.429833055,0.218236402,0.046451133,0.202083379,0.317471176,0.039052643,0.505886316,-0.884730458
3.434974194,0.444099486,0.001502617,-0.91277951,-0.036252122,0.465632975,0.220704257,0.046017714,0.201770052,0.317382425,0.039465819,0.508096755,-0.883304417
3.439973354,0.441005737,-0.009039353,-0.915971458,-0.037772164,0.50414747,0.223025426,0.04526753,0.201215848,0.317265064,0.039913736,0.510482132,-0.881843805
3.444973469,0.442176431,-0.004700405,-0.918521166,-0.038356081,0.551475644,0.224532545,0.045018785,0.201032087,0.317226142,0.040348869,0.513112605,-0.88036716
3.449974775,0.440688372,0.011353554,-0.92645365,-0.029685909,0.603461385,0.232111886,0.044827394,0.20089069,0.31719619,0.040828135,0.515991986,-0.878882289
3.454977274,0.423920482,0.025327435,-0.931462228,-0.017405745,0.668741345,0.24042435,0.04476393,0.200843796,0.317186266,0.041384757,0.51916784,-0.87737608
3.459975004,0.425604552,0.028969852,-0.931044102,0.00070132,0.731034935,0.247991398,0.043280277,0.200786516,0.319244534,0.042066835,0.52264452,-0.875818968
3.464972973,0.437317699,0.022324253,-0.9225173,0.009209629,0.808520377,0.260308444,0.042788327,0.200767517,0.319927037,0.042865764,0.526539326,-0.874116659
3.469972134,0.438716888,0.014277786,-0.934502602,0.018196188,0.893398464,0.26102826,0.042409804,0.200752914,0.320452154,0.04373147,0.530852139,-0.872375607
3.474972486,0.438117057,0.00726563,-0.948210478,0.050117999,0.972528994,0.254066974,0.042284291,0.200748071,0.320626289,0.044769343,0.535539806,-0.87065208
3.479973555,0.41643402,-0.020931046,-0.94543308,0.086933859,1.066418409,0.227960244,0.041167468,0.200450361,0.319778681,0.046019439,0.540635705,-0.869041145
3.484975815,0.413873613,-0.056926467,-0.967823267,0.100078665,1.172141314,0.202691436,0.040544685,0.200278908,0.319254726,0.047343146,0.546270788,-0.867477953
3.489973307,0.418542355,-0.054142088,-0.975001335,0.116256721,1.275647402,0.178321153,0.040065497,0.200146973,0.31885159,0.048703343,0.552406192,-0.866036177
3.494971275,0.417861104,-0.023983678,-0.965595126,0.15673621,1.394542217,0.149428606,0.039906606,0.200103238,0.318717927,0.050086599,0.559152663,-0.864804804
3.499970913,0.418695241,-0.011982126,-0.976617277,0.206472933,1.522616148,0.129335538,0.038252752,0.200248808,0.319243401,0.051723536,0.566531062,-0.863647759
3.504971266,0.411805689,-0.028569,-0.98497355,0.246383429,1.646012783,0.11583598,0.036159907,0.200477809,0.320051223,0.053595055,0.574485362,-0.862506151
3.509972334,0.404356569,-0.026656583,-0.980522096,0.278891444,1.791494012,0.099720888,0.034549605,0.200654,0.32067278,0.05561522,0.583159328,-0.861381888
3.514974356,0.428543329,-0.015813071,-0.99567771,0.312695444,1.938945413,0.088389248,0.034015659,0.200712427,0.320878863,0.057752848,0.592601061,-0.860267222
3.519971848,0.356919646,-0.024139365,-0.996745586,0.343299896,2.044481277,0.068709917,0.033604823,0.200757384,0.321037471,0.060151499,0.60244447,-0.859270096
3.524970055,0.466789424,-0.092096761,-0.97967124,0.326221973,2.299808979,0.030677129,0.029650774,0.20104681,0.320896715,0.062371019,0.613776624,-0.858147562
3.529968977,0.435705572,-0.035561137,-1.022365212,0.309390247,2.452239037,0.072877586,0.0266084,0.201269507,0.320788383,0.064701647,0.625741899,-0.856747389
3.534969091,0.38358593,0.149179041,-1.034409046,0.397581786,2.627498627,0.010594323,0.025599606,0.201343343,0.320752472,0.066857107,0.63840574,-0.856291652
3.53997016,0.343967795,0.032597646,-0.999017239,0.434480906,2.883931398,-0.007914369,0.02482341,0.201400161,0.320724845,0.069552712,0.652390599,-0.855521202
3.544972181,0.348218918,0.031760335,-1.038251042,0.448202372,3.147555828,0.02708238,0.021475762,0.202023238,0.320408493,0.072630763,0.667684674,-0.854234576
3.549975395,0.347076684,0.029239696,-1.058692575,0.455564618,3.418623447,0.030377116,0.01577522,0.203113645,0.319854498,0.075839378,0.684220195,-0.852875531
3.554973602,0.35836634,0.036172852,-1.095669389,0.478595078,3.71032691,0.091052026,0.013885029,0.203475207,0.319670767,0.079540163,0.702173293,-0.85087949
3.559973001,0.311396688,0.098286845,-1.126178503,0.521146774,3.98742938,0.159816831,0.012430655,0.203753397,0.319529414,0.083835252,0.72134167,-0.848383904
3.564973354,0.274368048,0.134462789,-1.079999208,0.623095214,4.321505547,0.257795542,0.011948412,0.203845635,0.319482565,0.089356512,0.742056429,-0.84494102
3.569974422,0.266426235,0.161269382,-1.094673634,0.69530201,4.747783661,0.348266482,0.000717122,0.205170915,0.315778464,0.096074477,0.764883041,-0.840507388
3.574976921,0.210599244,0.172737837,-1.130457163,0.747241914,5.203068733,0.496877789,-0.003006961,0.20561035,0.314550251,0.104227692,0.789752364,-0.83449173
3.579974651,0.181111783,0.278049767,-1.17225194,0.868826389,5.705004215,0.766396701,-0.00587239,0.205948472,0.313605219,0.114897124,0.816819549,-0.825979948
3.584972858,0.259361982,0.479760349,-1.218349814,1.105513334,6.226732254,1.033602238,-0.006822512,0.206060588,0.313291878,0.129057333,0.846313298,-0.814587235
3.589972019,0.298293889,0.615019381,-1.178493857,1.364977956,6.753380299,1.179934025,-0.018870972,0.207971528,0.311187625,0.146385714,0.878243864,-0.801035404
3.594971895,0.362813205,0.707689643,-1.197196245,1.690699816,7.33122921,1.292456031,-0.025666539,0.209056675,0.310028821,0.167986393,0.912799656,-0.784565568
3.599973202,0.613659859,0.616009116,-1.368425488,2.027841091,7.849312305,1.374947786,-0.030895263,0.209891617,0.309137225,0.194752589,0.949574709,-0.76433754
3.604975462,0.984328389,0.410921305,-1.741955757,2.245285511,8.039197922,1.450769067,-0.032629009,0.210168466,0.308841586,0.226993263,0.986472785,-0.73969388
3.609972715,1.373910785,0.078977257,-1.964868188,2.238340616,7.807612419,1.556792855,-0.042179819,0.212949365,0.304180086,0.263511747,1.021048069,-0.710330188
3.614970922,1.719296217,0.042542592,-1.920189381,2.189159632,7.47973299,1.694098353,-0.053632483,0.216460899,0.298163176,0.304057598,1.053175807,-0.676245272
3.619970322,2.011335373,0.017819129,-1.844416618,2.248844862,7.295359135,1.799974442,-0.062444527,0.219162777,0.293533564,0.350261778,1.083799601,-0.636682093
3.624970436,2.386059999,0.067968354,-2.122714996,2.252112865,6.973371029,1.882161856,-0.065366432,0.22005868,0.291998476,0.400630951,1.111703277,-0.593257904
3.629971743,2.565856695,0.140055373,-2.230449677,2.215166092,6.392910004,1.909886241,-0.067614645,0.220748007,0.29081735,0.453115523,1.135412931,-0.547990024
3.634974003,2.50245142,0.201550514,-2.113847017,2.207039595,5.929944038,1.910602927,-0.082646653,0.227135569,0.278788149,0.50804168,1.155975819,-0.500524223
3.639971495,2.280291319,0.28323856,-2.038300753,2.275611401,5.555483818,1.94363606,-0.094212756,0.232050374,0.269532472,0.566286743,1.173701525,-0.450437248
3.644969702,2.093332529,0.322771311,-2.035492659,2.383061409,5.217714787,1.903838754,-0.09804786,0.233680025,0.266463488,0.626988292,1.188773632,-0.398711443
3.649968863,1.755930424,0.29403916,-2.027910233,2.429381609,4.728123188,1.857030034,-0.100998707,0.234933928,0.264102101,0.687298,1.200518847,-0.348117888
3.654968977,1.286547184,0.293965816,-1.706012368,2.567756414,4.310525894,1.868038893,-0.106922761,0.238867,0.256048024,0.749019861,1.209435582,-0.296742916
3.659970284,0.573395848,0.198409736,-1.451709867,2.784699678,3.981880426,1.83282423,-0.116481699,0.245449781,0.242498785,0.81241715,1.215896845,-0.244977325
3.664973021,-0.211688921,0.110753141,-1.361538172,2.757873297,3.72314024,1.699393153,-0.119651258,0.247632504,0.238006115,0.87441963,1.220359087,-0.194715247
3.669970751,-0.499867499,-0.0934809,-0.954247594,2.209960938,3.348769903,1.573418856,-0.122090019,0.249311969,0.234549299,0.930606425,1.22323513,-0.147213742
3.674969196,0.766167462,-0.956787348,-0.541665971,1.675661087,3.688394308,1.819441438,-0.122898661,0.24986884,0.233403087,0.996326149,1.224897861,-0.084797651
3.679968357,1.940258145,-1.26117444,-2.990971088,0.896686196,2.84476018,1.855692983,-0.129120648,0.25830853,0.21883665,1.040028334,1.221675634,-0.044994913
3.684974432,1.094408512,-0.625656188,-2.542189598,-0.0223708,1.168764472,1.828158259,-0.131183743,0.261106998,0.214006692,1.050662041,1.213489175,-0.034555845
3.6899755,0.342880219,-0.091033436,-1.502609491,-0.632362187,1.064400554,1.717751861,-0.132771164,0.263260216,0.210290387,1.064000607,1.207599163,-0.016816728
3.69497776,0.144034266,0.148128867,-1.484882951,-0.895239949,0.931886673,1.675433755,-0.133297518,0.26397419,0.209058121,1.074295044,1.201922536,-0.001543419
3.699975252,0.047477514,0.440169275,-1.273123145,-0.858341873,0.692326188,1.679751158,-0.133731157,0.267330408,0.20405978,1.081527472,1.19586277,0.010038752
3.704973221,0.047497347,0.572471738,-1.190684915,-0.701803327,0.476506233,1.622449756,-0.133882031,0.26913783,0.201400191,1.086979508,1.189796805,0.018614564
3.709972382,0.115594998,0.490309775,-1.206154943,-0.586508095,0.184774116,1.559202433,-0.133998141,0.270528525,0.199353829,1.089212537,1.183167696,0.023136957
3.714972734,0.126778677,0.43279472,-1.177816987,-0.519748151,-0.126641095,1.472461939,-0.13403663,0.270989656,0.19867529,1.087866783,1.176099658,0.023574891
3.719973803,0.077930667,0.401655108,-1.142270446,-0.481800735,-0.42508629,1.345267653,-0.131902948,0.271341771,0.199252337,1.083065391,1.168875098,0.020135626
3.724977493,-0.001103224,0.381539792,-1.085125446,-0.486915767,-0.715639412,1.173547506,-0.129014015,0.271455854,0.200552031,1.074604988,1.161720872,0.012832788
3.7299757,-0.089983538,0.37037459,-1.011515021,-0.537987232,-0.966118693,0.958876431,-0.126791179,0.271543652,0.201552063,1.062715292,1.154891491,0.00216147
3.734974146,-0.160287678,0.367723495,-0.949439883,-0.603940845,-1.179908037,0.715482295,-0.126054123,0.271572739,0.201883659,1.047638297,1.148576975,-0.011591688
3.739973307,-0.20471172,0.362747997,-0.899080098,-0.671094239,-1.359410524,0.454484552,-0.125487015,0.27159512,0.202138796,1.029639482,1.14289844,-0.028165938
3.74497366,-0.212619096,0.353713632,-0.872741699,-0.730592787,-1.512983799,0.195266783,-0.120602846,0.270930886,0.20525974,1.0090096,1.137825847,-0.047299173
3.749974728,-0.197713181,0.343339384,-0.865368247,-0.78046912,-1.671206474,-0.057,-0.116844811,0.270419776,0.207661122,0.985697091,1.133221984,-0.069176264
3.754976988,-0.176094249,0.322285861,-0.858424604,-0.823555291,-1.824685097,-0.292854726,-0.115598716,0.27025032,0.208457366,0.95995301,1.128931761,-0.093549713
