Time,inertial-6253.76535:scaledAccelX,inertial-6253.76535:scaledAccelY,inertial-6253.76535:scaledAccelZ,inertial-6253.76535:scaledGyroX,inertial-6253.76535:scaledGyroY,inertial-6253.76535:scaledGyroZ,inertial-6253.76535:scaledMagX,inertial-6253.76535:scaledMagY,inertial-6253.76535:scaledMagZ,inertial-6253.76535:roll,inertial-6253.76535:pitch,inertial-6253.76535:yaw
0,0.481630355,0.184317559,-0.857804,0.002840166,0.003479553,0.011041752,-0.283132374,-0.076346561,0.256493181,-0.197009295,0.49844715,2.990587711
0.005001216,0.482853621,0.185263902,-0.85575825,0.003268553,0.002956577,0.008139285,-0.283238411,-0.076321751,0.255795598,-0.196999744,0.49847728,2.990599155
0.0100032,0.484151095,0.183874667,-0.857446015,0.002422561,0.002480864,0.007151897,-0.283413023,-0.076288164,0.254860401,-0.196990952,0.498504311,2.990593672
0.01500032,0.480800062,0.185109779,-0.858157218,0.002315759,0.001777022,0.007874113,-0.283547342,-0.076262318,0.254140854,-0.1969852,0.498521656,2.9906106
0.019998465,0.480798095,0.186973289,-0.858082712,0.001765404,0.001580033,0.007202405,-0.283591896,-0.076253749,0.253902286,-0.19699204,0.498544127,2.990619898
0.024997631,0.479310066,0.187143028,-0.857764959,0.001052059,0.002485076,0.007676176,-0.283626169,-0.076247156,0.253718734,-0.196989879,0.498561025,2.990643978
0.029997569,0.480881572,0.187500477,-0.858093023,0.000240585,0.003835137,0.005659324,-0.283637136,-0.076343291,0.254018694,-0.19700481,0.498590171,2.990648746
0.034998529,0.481589496,0.188343108,-0.858346224,0.001335576,0.002405953,0.007027336,-0.28364557,-0.07641726,0.254249483,-0.197013408,0.498611331,2.990666389
0.040000767,0.48074472,0.188649848,-0.858904243,0.002444532,0.004964754,0.007194784,-0.283648342,-0.07644178,0.254326016,-0.197013289,0.498643488,2.990678787
0.04499789,0.480757266,0.185450613,-0.860007942,0.001679978,0.003854049,0.006489543,-0.283650488,-0.076460652,0.254384905,-0.197015658,0.498672247,2.990670681
0.049996287,0.481111676,0.187463939,-0.859799564,0.00098839,0.003173095,0.008109394,-0.283792108,-0.076460741,0.254786462,-0.197017699,0.498700827,2.990687847
0.054995202,0.482528925,0.188944012,-0.858655095,0.001530395,0.002771595,0.007376024,-0.284043491,-0.076454565,0.25548175,-0.197026104,0.498731345,2.990712404
0.05999539,0.481182814,0.188546926,-0.858791053,0.001257903,0.00250249,0.007690222,-0.284126878,-0.076452516,0.255712301,-0.197027996,0.498757124,2.990733385
0.064996354,0.481357574,0.187761664,-0.858777404,0.00215748,0.003067079,0.008077528,-0.284191012,-0.076450944,0.255889714,-0.197031707,0.498782367,2.990741491
0.069998845,0.48130846,0.188026085,-0.857357144,0.003655184,0.00259066,0.007100589,-0.284212261,-0.076450422,0.255948544,-0.197026789,0.498800665,2.990761757
0.074996226,0.482751787,0.187469304,-0.857773185,0.00300958,0.002056721,0.00742823,-0.28383258,-0.076404452,0.254414946,-0.197022095,0.498829365,2.990769863
0.079994366,0.48217997,0.187030166,-0.859335959,0.002864096,0.002080745,0.007670823,-0.283706695,-0.076389208,0.253906429,-0.197025105,0.498849809,2.990780592
0.08499328,0.481879622,0.187459812,-0.858207047,0.002979278,0.00355028,0.008476572,-0.283609837,-0.076377481,0.253515154,-0.197015494,0.498883545,2.990801096
0.089993469,0.481455803,0.186488315,-0.858102739,0.003793095,0.000872521,0.007321142,-0.28357771,-0.076373592,0.253385425,-0.197008163,0.498903751,2.990809917
0.094994947,0.481632441,0.18695195,-0.858465731,0.003583604,2.50E-06,0.008709391,-0.283655018,-0.076163128,0.253542185,-0.196989775,0.498918593,2.990836382
0.099996924,0.481517315,0.18676047,-0.858907521,0.004917355,0.001880209,0.008253253,-0.28370592,-0.076042004,0.253657639,-0.196970418,0.498948663,2.990851879
0.104994304,0.481401294,0.185518056,-0.8598544,0.003454484,0.000825419,0.009054312,-0.28374508,-0.075948805,0.25374651,-0.196957484,0.498961955,2.990871191
0.109992191,0.47976175,0.187190101,-0.858245015,0.005515574,0.002474051,0.009866185,-0.283758044,-0.075917907,0.253775954,-0.196933255,0.498984396,2.990906
0.114997245,0.47875756,0.183135301,-0.858455241,0.003853369,0.003130316,0.008265277,-0.283738047,-0.076011404,0.253653437,-0.196912616,0.499005377,2.990908146
0.119997442,0.48069787,0.183601186,-0.859693527,0.003964707,0.003145882,0.008309722,-0.283701181,-0.076160669,0.253466427,-0.196892142,0.49903366,2.990912437
0.124998398,0.482705265,0.183676794,-0.860165536,0.003391935,0.002608202,0.009419838,-0.283672839,-0.07627552,0.253322542,-0.196873561,0.499060065,2.990917683
0.130000383,0.48215583,0.184484765,-0.859343708,0.000759179,0.004518867,0.007961625,-0.283663422,-0.076313607,0.253274828,-0.196881682,0.49910143,2.990914822
0.134997502,0.482844174,0.18620649,-0.85819757,0.002007792,0.003828388,0.007148825,-0.28365618,-0.076342911,0.253238112,-0.19688499,0.499131829,2.990925074
0.139995649,0.483767301,0.18768923,-0.857059896,0.001427735,0.004129535,0.007632111,-0.283756137,-0.076289579,0.254357815,-0.196883366,0.499168068,2.990940094
0.14499481,0.482308775,0.187515318,-0.857117057,0.002031093,0.001768754,0.007401898,-0.283833057,-0.076248541,0.25521934,-0.196886092,0.49918732,2.990958452
0.149995014,0.484005451,0.185390621,-0.85710299,0.001344582,0.001290961,0.006915493,-0.283858567,-0.076234937,0.255504996,-0.19688648,0.499207824,2.990966558
0.154996231,0.480585486,0.186223969,-0.857798517,0.001627513,0.001348474,0.006724726,-0.283878177,-0.076224461,0.255724788,-0.196889505,0.499221891,2.990978718
0.159998462,0.483029842,0.18635495,-0.857190311,0.003552001,-0.000705864,0.007824816,-0.283966154,-0.076282412,0.2552163,-0.196875826,0.499236941,2.990991354
0.164995834,0.483544052,0.185919911,-0.856719553,0.004739355,0.00161685,0.009063286,-0.284116209,-0.076389097,0.254237145,-0.196864873,0.499259323,2.991004944
0.169994235,0.481091857,0.186480328,-0.857618272,0.004526739,0.001818935,0.006076378,-0.284165949,-0.076424472,0.253912479,-0.196855068,0.499274015,2.991004944
0.174993411,0.483023524,0.186679021,-0.857914984,0.002435775,0.001379161,0.007278744,-0.284204245,-0.076451689,0.253662676,-0.196856812,0.499293119,2.991013288
0.179993346,0.480641514,0.186066017,-0.857175648,0.003440036,0.001479824,0.006881625,-0.28421694,-0.076460719,0.253579855,-0.196848139,0.49930954,2.991027117
0.18499431,0.481208831,0.186651409,-0.857150078,0.004007911,0.00044355,0.005360537,-0.283448458,-0.076202199,0.254658908,-0.196845919,0.499319285,2.991036654
0.189996794,0.481763035,0.187008396,-0.858369529,0.003273658,0.000295592,0.006847871,-0.283193648,-0.076116472,0.255016714,-0.196837187,0.499328256,2.991054296
0.194994435,0.484198123,0.188154534,-0.858285129,0.005093724,-0.000304257,0.007855879,-0.282997578,-0.07605052,0.255292028,-0.196821138,0.499337524,2.991073608
0.199992314,0.483935654,0.187821522,-0.857130051,0.005700424,-0.000277346,0.006701443,-0.28293255,-0.076028652,0.255383283,-0.196815237,0.499339759,2.991094351
0.204991236,0.483323723,0.186419606,-0.8578462,0.003940212,-0.00083348,0.006855148,-0.283420086,-0.076160334,0.254746169,-0.196802378,0.499348819,2.99109745
0.209991679,0.481562376,0.184884369,-0.857580245,0.003915012,-0.001579077,0.007567875,-0.283714771,-0.076240748,0.254359871,-0.196789071,0.499350131,2.99110198
0.214992896,0.482552707,0.185294285,-0.856713593,0.005518448,-0.001915509,0.007052272,-0.283941507,-0.076302618,0.254062653,-0.196765572,0.49934864,2.991113901
0.219995141,0.481057525,0.186936527,-0.856611431,0.002511016,-0.001848612,0.005581593,-0.284016699,-0.076323137,0.253964096,-0.196773052,0.499348521,2.991114855
0.22499226,0.480105519,0.186896667,-0.857041597,0.004090896,-0.002304197,0.00590413,-0.283966154,-0.076219544,0.25455606,-0.196764871,0.499342054,2.991128206
0.229990393,0.481167257,0.186278492,-0.857631147,0.003952681,-0.003196235,0.004950875,-0.28384009,-0.076064818,0.255425692,-0.196760133,0.499334931,2.991132259
0.234989569,0.481255531,0.186447278,-0.858401418,0.002375321,-0.001589421,0.004274226,-0.283743113,-0.075945772,0.256094813,-0.196759507,0.499337614,2.991146803
0.239990279,0.481495291,0.187226057,-0.858378708,0.003403053,-0.00260652,0.005654256,-0.283710957,-0.075906299,0.256316692,-0.196756721,0.499336034,2.991166353
0.244991481,0.482956529,0.185880348,-0.858264029,0.002393076,-0.001591837,0.005338557,-0.283686221,-0.075875923,0.256487399,-0.196753621,0.499342114,2.991180897
0.249999866,0.482376218,0.184076726,-0.858625591,0.003567424,-0.003172296,0.004876807,-0.283919275,-0.076071352,0.25578016,-0.196744919,0.499335915,2.991168976
0.255003393,0.480947137,0.184685126,-0.859866142,0.002561906,-0.000468869,0.007307889,-0.284098595,-0.076221719,0.255236,-0.196737885,0.499349654,2.991181612
0.260001779,0.479973048,0.184893414,-0.858249009,0.001791404,-0.001665355,0.005392705,-0.284158051,-0.076271579,0.255055577,-0.196741655,0.499340981,2.991175413
0.265000969,0.479682744,0.186959639,-0.859312892,0.002050665,-0.001925655,0.006365628,-0.284203798,-0.076309942,0.254916728,-0.196742937,0.499340087,2.99119544
0.270000905,0.481269121,0.186913639,-0.858297825,0.003330655,-0.002459425,0.005091591,-0.283995152,-0.076299742,0.254690975,-0.196739763,0.499336183,2.991204977
0.275001854,0.482150525,0.187409684,-0.857657135,0.003648173,-0.001530677,0.006480475,-0.283608317,-0.076268718,0.254335582,-0.196732029,0.499336839,2.99121666
0.280003846,0.481770962,0.187263995,-0.85797888,0.003963465,-0.001297249,0.007095732,-0.283480048,-0.076258428,0.254217714,-0.196719572,0.499341547,2.991233349
0.285001218,0.482329041,0.188508049,-0.857257843,0.003641892,-0.002668802,0.006750776,-0.283381343,-0.076250516,0.254127055,-0.196712986,0.49933818,2.991254091
0.289999098,0.480701804,0.188234389,-0.856448829,0.003816741,-0.002289797,0.006684028,-0.28334859,-0.076247893,0.254096985,-0.196707428,0.499339283,2.991270542
0.29499802,0.481431931,0.187749386,-0.858111858,0.004552096,-0.00163579,0.006795176,-0.283387929,-0.076440893,0.254760206,-0.19670175,0.499344021,2.991274595
0.299998194,0.482520849,0.186810464,-0.858382285,0.004828993,-0.001814638,0.00652206,-0.283400983,-0.076504886,0.254980117,-0.19668974,0.49934569,2.991280794
0.304999411,0.483054996,0.18683295,-0.857133746,0.003931912,-0.001057037,0.007162631,-0.283410996,-0.07655412,0.255149305,-0.196675315,0.49935478,2.991290331
0.310001671,0.483666211,0.184841484,-0.856598794,0.004246373,-0.003112111,0.006994735,-0.283414334,-0.076570451,0.255205423,-0.196661785,0.499352425,2.99129796
0.314999044,0.48350361,0.183586493,-0.85704118,0.005267959,-0.002204615,0.005932868,-0.28366071,-0.07663469,0.254637241,-0.196643025,0.49935481,2.9912889
0.319996923,0.483851403,0.184347942,-0.858119905,0.00432914,-0.003157571,0.006344041,-0.283802718,-0.076668777,0.254297554,-0.196629554,0.499354094,2.991277933
0.324996084,0.481776506,0.185333997,-0.855121791,0.003697459,-0.002902378,0.006619041,-0.283911973,-0.076695003,0.254036188,-0.196613878,0.499350965,2.991295576
0.32999602,0.480580628,0.184757292,-0.857711494,0.005753521,-0.003333176,0.006145637,-0.283948213,-0.076703697,0.253949523,-0.19659774,0.49934268,2.991284609
0.334997237,0.481085777,0.183918431,-0.858616412,0.005416085,-0.00407933,0.00785368,-0.284061134,-0.076650001,0.254000545,-0.196571067,0.499328762,2.991289616
0.339999229,0.480679601,0.183747724,-0.857604861,0.004222197,-0.004190978,0.007476185,-0.284184307,-0.076571301,0.254136145,-0.196555465,0.499317437,2.991299391
0.344996095,0.483172327,0.184771806,-0.856030703,0.003157919,-0.004263987,0.005589458,-0.284279078,-0.07651075,0.254240483,-0.196545959,0.499309927,2.991302013
0.349994242,0.481835634,0.185000837,-0.85714215,0.004220848,-0.00274272,0.005964475,-0.28431052,-0.07649067,0.254275084,-0.196528673,0.499308467,2.991304636
0.354993165,0.481678218,0.185713962,-0.85930562,0.003972014,-0.004082636,0.00652134,-0.284334719,-0.076475225,0.254301697,-0.196515292,0.4992975,2.991311789
0.3599931,0.481628001,0.187391296,-0.859781921,0.004757114,-0.005313808,0.007321623,-0.283949345,-0.076427385,0.254251003,-0.196507856,0.499280453,2.991331339
0.364994049,0.480329126,0.186467335,-0.85965544,0.003259087,-0.003606608,0.00518902,-0.283652812,-0.076390572,0.254211992,-0.196503505,0.499268264,2.9913311
0.369996279,0.481555343,0.184658736,-0.859174907,0.004384489,-0.003286586,0.0060996,-0.283554494,-0.076378368,0.254199088,-0.196484044,0.499264985,2.991329432
0.374993414,0.482529789,0.18426545,-0.858254015,0.004426711,-0.002516083,0.007013753,-0.283478856,-0.076368973,0.254189134,-0.196472988,0.49926722,2.99132967
0.379991561,0.481519252,0.186615244,-0.85911274,0.001884865,-0.003950244,0.005424882,-0.283930242,-0.076270647,0.254135638,-0.196477726,0.499252468,2.991342545
0.384996623,0.48330003,0.185660377,-0.858660877,0.001647905,-0.001460377,0.004255846,-0.284759313,-0.07609871,0.254043728,-0.196483716,0.499256909,2.99134326
0.389997065,0.481224,0.186589345,-0.857593,0.001891027,-0.00350588,0.006050651,-0.285034209,-0.076041698,0.25401324,-0.196486607,0.499245346,2.99135828
0.394998521,0.480038434,0.186921716,-0.856002808,0.00201963,-0.001816805,0.005052776,-0.285245717,-0.075997829,0.253989786,-0.196494684,0.499242842,2.991369724
0.400000781,0.480131984,0.18640995,-0.858776927,0.001920732,-0.00224007,0.006067029,-0.285315871,-0.075983286,0.253982008,-0.19649823,0.499234796,2.991374254
0.404997885,0.480299264,0.188469455,-0.858816385,0.001819344,-0.00217569,0.006051122,-0.284578532,-0.076457985,0.254171044,-0.196501821,0.499225914,2.99138689
0.409996033,0.482805669,0.187706321,-0.857769787,0.001601577,-0.001706476,0.005419096,-0.284334034,-0.076615386,0.254233718,-0.196503922,0.499231845,2.991390944
0.414995193,0.482315987,0.186359271,-0.857752502,0.004340384,-0.002042968,0.006094674,-0.284145892,-0.076736495,0.254281938,-0.196495876,0.499225765,2.99139142
0.419995129,0.480957747,0.187333331,-0.857203901,0.003316283,-0.004496272,0.007481759,-0.284083545,-0.076776654,0.254297942,-0.196485475,0.499218792,2.991409302
0.424996108,0.482578069,0.185777783,-0.857574582,0.004537456,-0.002782732,0.005850757,-0.284137309,-0.076552562,0.254206568,-0.196475044,0.499216795,2.991410971
0.42999807,0.482656091,0.186783686,-0.857456565,0.003731025,-0.000967606,0.005824211,-0.284180313,-0.076415166,0.254150599,-0.196470648,0.499223202,2.991413355
0.434995204,0.481662691,0.185287133,-0.856463194,0.003372219,-0.002427053,0.007000379,-0.284213424,-0.07630945,0.254107535,-0.196459785,0.499223202,2.991424322
0.439993352,0.481437713,0.185409293,-0.856638849,0.003866778,-0.001613552,0.006301819,-0.284224391,-0.076274395,0.25409326,-0.196450964,0.499222845,2.991430998
0.444992244,0.481882781,0.185487643,-0.857306242,0.002783535,-0.004995341,0.005409585,-0.284065366,-0.076222084,0.25404954,-0.196442753,0.499204427,2.991441488
0.44999218,0.483850509,0.184557542,-0.857091665,0.005484772,-0.003912472,0.004369001,-0.283843756,-0.076179184,0.254002035,-0.196423486,0.499200374,2.991434336
0.454993159,0.482280523,0.185934633,-0.856736839,0.003951375,-0.002696051,0.004050988,-0.283673227,-0.076146178,0.253965497,-0.196422681,0.49919495,2.991432905
0.459995151,0.480837822,0.186548695,-0.85808444,0.003338744,-0.002857651,0.005102302,-0.283616692,-0.076135233,0.253953367,-0.196419284,0.499182969,2.991438389
0.464992255,0.481060266,0.186472237,-0.858988464,0.003347837,-0.003907842,0.004532418,-0.28357318,-0.076126814,0.253944039,-0.196413293,0.49916476,2.991437435
0.469990134,0.480051428,0.187199742,-0.859201789,0.003983236,-0.00277374,0.006341815,-0.283902913,-0.076167688,0.253999531,-0.196402863,0.499158561,2.991452456
0.474989325,0.481010526,0.185717389,-0.859329641,0.004425959,-0.0032829,0.003558204,-0.284156621,-0.076199137,0.254042238,-0.196403146,0.499148041,2.991443396
0.47998926,0.481670827,0.186042711,-0.858528078,0.003176096,-0.003555554,0.006283844,-0.284240752,-0.076209567,0.254056394,-0.196398959,0.499138653,2.991454363
0.484990478,0.482818395,0.184672594,-0.858757973,0.005002907,-0.004532619,0.005595241,-0.284305453,-0.076217592,0.254067272,-0.196387604,0.499125093,2.991449594
0.48999244,0.483516872,0.184698656,-0.858500659,0.004306281,-0.004307162,0.00395508,-0.284242779,-0.076250196,0.254127949,-0.196379781,0.49911809,2.991441011
0.494989812,0.483866036,0.185549766,-0.857967019,0.003830204,-0.005215729,0.00449606,-0.284109503,-0.076305546,0.254232347,-0.196372733,0.499101311,2.991442204
0.49998796,0.482422441,0.184512258,-0.857125342,0.00281068,-0.004777846,0.003859806,-0.284065306,-0.076323904,0.254266977,-0.196372509,0.499087751,2.991432667
0.504986882,0.4825463,0.183736935,-0.857395232,0.001862731,-0.006627791,0.003317761,-0.284031302,-0.076338023,0.254293621,-0.196374357,0.499063671,2.991422176
0.509987056,0.482983708,0.184349269,-0.857682943,0.000844297,-0.006562782,0.001629082,-0.284020007,-0.076342709,0.254302442,-0.196395695,0.499034077,2.991392136
0.514988005,0.483730525,0.18417725,-0.856884181,-0.000335739,-0.008151553,0.0010348,-0.283946067,-0.07621818,0.253691912,-0.196415797,0.499003887,2.991367102
0.51999718,0.482894659,0.183945015,-0.857014179,0.000791084,-0.009397381,-0.00014574,-0.28392157,-0.076176889,0.253489494,-0.19642958,0.49896574,2.991341829
0.525001466,0.483116955,0.184931576,-0.857430577,-0.001785247,-0.008143621,0.001307961,-0.283902675,-0.076145113,0.253333718,-0.196458444,0.498928666,2.991327286
0.530000925,0.483098775,0.187105313,-0.858205914,-0.000762394,-0.011395704,-0.002213019,-0.283896416,-0.076134577,0.25328207,-0.196500555,0.49887532,2.991298914
0.535000324,0.480542868,0.185704544,-0.856958985,-0.000496711,-0.011412386,-0.001926212,-0.284085751,-0.07637433,0.253505856,-0.196526855,0.498821616,2.991270304
0.54000026,0.482815027,0.186818391,-0.854803801,-0.000480048,-0.013860103,-0.002786024,-0.284196585,-0.076515161,0.253645271,-0.196565568,0.498764426,2.99124074
0.545001209,0.483237147,0.184215754,-0.855780661,-0.00218743,-0.012780654,-0.002994834,-0.28428185,-0.076623522,0.253752559,-0.196607634,0.498709738,2.991188526
0.550004244,0.481015414,0.186372787,-0.8559677,-0.00040192,-0.013334522,-0.003448959,-0.284310132,-0.076659456,0.253788143,-0.19664073,0.498644054,2.99115634
0.555002391,0.482824475,0.185045883,-0.856312096,-0.001662555,-0.015488937,-0.005732045,-0.284167081,-0.076542899,0.254160881,-0.196687803,0.498566896,2.991103411
0.560000777,0.484316975,0.183267131,-0.85712707,-0.002138065,-0.01680178,-0.007660334,-0.283953488,-0.076358825,0.254632741,-0.196731463,0.498491645,2.991042614
0.564999938,0.484169304,0.184134215,-0.856898248,-0.003587742,-0.018036822,-0.008132982,-0.283789098,-0.076217197,0.254995793,-0.196777463,0.498403579,2.990987062
0.570000112,0.483852059,0.18526417,-0.860509515,-0.003932633,-0.017547941,-0.007612437,-0.28373462,-0.076170236,0.255116165,-0.196840391,0.498317063,2.990927696
0.575001061,0.483867228,0.188773602,-0.858008981,-0.00425713,-0.020336041,-0.010441906,-0.283692688,-0.076134108,0.25520879,-0.196911484,0.498209774,2.990881443
0.580003321,0.484204054,0.185125291,-0.858314812,-0.003640827,-0.021918308,-0.009322624,-0.283728898,-0.076166816,0.255806267,-0.196963817,0.498099804,2.990827084
0.585000694,0.481852919,0.184618011,-0.857935429,-0.003416261,-0.020952474,-0.01036274,-0.283756733,-0.076191977,0.256265998,-0.197021782,0.497993678,2.990763903
0.589998603,0.477473468,0.186536118,-0.856107414,-0.005439426,-0.021362893,-0.008164795,-0.283765972,-0.076200321,0.256418437,-0.197086692,0.497875512,2.990725756
0.594997764,0.478184372,0.189568862,-0.860037208,-0.003820576,-0.021818811,-0.008741089,-0.283773065,-0.076206736,0.256535739,-0.197147503,0.497760713,2.990694046
0.599997938,0.476486266,0.188697875,-0.857536912,-0.001845211,-0.021293251,-0.008263853,-0.283828765,-0.07629887,0.256080568,-0.197198465,0.497649342,2.990657806
0.604999423,0.480158329,0.184907079,-0.858763158,-0.00345271,-0.020755336,-0.00957228,-0.283925533,-0.076460764,0.255230755,-0.197251171,0.497547299,2.990594387
0.610001683,0.483574599,0.182217985,-0.858645439,-0.003189225,-0.022681657,-0.009724737,-0.28395763,-0.076514445,0.254948974,-0.197301194,0.497443438,2.990513802
0.614999294,0.484957248,0.177688792,-0.857853234,-0.007200858,-0.021117404,-0.012792073,-0.283982307,-0.076555751,0.254732162,-0.197375536,0.497337699,2.990391493
0.619997203,0.486473203,0.170993716,-0.861541748,-0.014862861,-0.022686189,-0.020234253,-0.283990502,-0.076569445,0.254660279,-0.197487101,0.497213602,2.990199804
0.624996841,0.485689312,0.160654694,-0.864839017,-0.025843941,-0.023736754,-0.02725967,-0.283542931,-0.076510727,0.255756259,-0.197657853,0.497079581,2.989929676
0.629996777,0.49828741,0.151530296,-0.86389488,-0.043122768,-0.02911704,-0.039913975,-0.283394516,-0.076491259,0.256119698,-0.197922975,0.496933013,2.989539862
0.634998024,0.500869274,0.143280089,-0.865329564,-0.059466623,-0.029736923,-0.051191643,-0.283280343,-0.076476283,0.256399333,-0.198295951,0.496765673,2.989052296
0.640000284,0.496432811,0.151992038,-0.861041129,-0.077199087,-0.034986172,-0.054839794,-0.283242494,-0.076471314,0.256492049,-0.198792502,0.49656406,2.988604784
0.644997656,0.487594664,0.182772502,-0.862151802,-0.083858259,-0.037410364,-0.059406899,-0.283404917,-0.076820724,0.256416947,-0.199394763,0.496330053,2.988283634
0.649995804,0.477032781,0.196634039,-0.860281587,-0.083702587,-0.038349841,-0.059489042,-0.283506155,-0.07702399,0.256355792,-0.200013071,0.496072471,2.98802495
0.655000806,0.480612338,0.196360216,-0.861495495,-0.078080907,-0.03932368,-0.051871456,-0.283584058,-0.077180386,0.256308734,-0.200555846,0.495837599,2.987791061
0.66000104,0.480853379,0.200780854,-0.858400881,-0.069904424,-0.041869983,-0.0519659,-0.283609897,-0.077232249,0.256293148,-0.201069653,0.495588571,2.987585783
0.665001988,0.486107498,0.197666273,-0.855171323,-0.068518512,-0.044701062,-0.0514834,-0.283486813,-0.077477872,0.256163955,-0.201562226,0.495340705,2.987349987
0.670004249,0.488980293,0.193372414,-0.856739104,-0.0635553,-0.048243482,-0.050471436,-0.28330183,-0.077766776,0.256002963,-0.2020116,0.495075464,2.987094879
0.675001323,0.487063676,0.193582311,-0.853447497,-0.05928335,-0.053645801,-0.050532781,-0.283159494,-0.077989064,0.255879074,-0.20244059,0.494783521,2.986850023
0.679999471,0.481113046,0.197138235,-0.851777911,-0.053800266,-0.058874812,-0.049389455,-0.283112288,-0.078062773,0.255838007,-0.202844217,0.494454384,2.986655712
0.684998393,0.477551579,0.197350115,-0.848152876,-0.050386831,-0.05901099,-0.047183547,-0.283075958,-0.078119487,0.255806416,-0.203220829,0.494122267,2.986470938
0.689998329,0.471312314,0.198850974,-0.852544606,-0.047285516,-0.057823516,-0.043936543,-0.282864779,-0.078246057,0.255536348,-0.203584149,0.493787795,2.986302853
0.694999278,0.465506524,0.198340163,-0.853885233,-0.043373801,-0.059096869,-0.041578818,-0.282702297,-0.078343451,0.255328506,-0.203910604,0.493450165,2.986150503
0.700001538,0.471463531,0.200458691,-0.85515219,-0.040181413,-0.056823682,-0.040536832,-0.282648444,-0.078375742,0.255259603,-0.204232678,0.493134856,2.98600769
0.704998672,0.473466873,0.200216338,-0.853969216,-0.037395827,-0.056097481,-0.037076928,-0.282607019,-0.07840059,0.255206585,-0.204530746,0.492821664,2.985879421
0.709996819,0.474739194,0.196090043,-0.855626822,-0.03677329,-0.054265421,-0.036275264,-0.282311767,-0.078557961,0.255243599,-0.204807654,0.492527813,2.985725641
0.714995682,0.467379242,0.198313534,-0.855569422,-0.035858124,-0.052223541,-0.032363836,-0.281799912,-0.07882984,0.255327284,-0.205076545,0.492231131,2.985612869
0.719995916,0.460347235,0.20065859,-0.859911621,-0.037433788,-0.04788607,-0.032288361,-0.281630188,-0.078919984,0.25535503,-0.20536305,0.491948992,2.985505819
0.724996865,0.458608747,0.20568864,-0.860947609,-0.036414169,-0.042180695,-0.028772026,-0.281499624,-0.078989349,0.255376369,-0.205649525,0.491690755,2.985425949
0.729999125,0.458917439,0.206859246,-0.861560524,-0.031738456,-0.035741765,-0.024377672,-0.281456321,-0.079012349,0.255383462,-0.205900967,0.491468847,2.985368967
0.7349962,0.467965573,0.20610179,-0.85806793,-0.029391976,-0.030036284,-0.022939796,-0.28161478,-0.079363182,0.255464703,-0.206140444,0.49129957,2.985304594
0.739994347,0.475455016,0.19483766,-0.858887374,-0.030895185,-0.029728215,-0.019822337,-0.281667322,-0.079479516,0.255491644,-0.206351727,0.491148144,2.985194445
0.744993508,0.477437466,0.18572174,-0.860293686,-0.033363204,-0.032372061,-0.021828253,-0.281707764,-0.079569027,0.255512357,-0.206561446,0.490978032,2.98504138
0.749993443,0.479558229,0.180249423,-0.862391353,-0.036427937,-0.032449167,-0.026445571,-0.281721145,-0.079598702,0.255519241,-0.206797183,0.490813881,2.984833241
0.754994452,0.479747295,0.184574783,-0.861620307,-0.040548109,-0.031186907,-0.030456927,-0.281633675,-0.079572633,0.255522072,-0.207072228,0.490639716,2.984630585
0.759996414,0.474850118,0.191298231,-0.860615969,-0.044095624,-0.033134811,-0.032951519,-0.281580478,-0.07955189,0.2555224,-0.207385674,0.490440845,2.984454632
0.764993787,0.471076548,0.195388585,-0.860120177,-0.046372015,-0.032328513,-0.035413593,-0.28153953,-0.079535931,0.255522668,-0.207721993,0.490248471,2.98427844
0.769992173,0.471820056,0.192960247,-0.863669634,-0.047624711,-0.030751934,-0.036468048,-0.28152597,-0.079530641,0.255522728,-0.20805949,0.490067095,2.984081745
0.774991333,0.476769179,0.187737703,-0.861020744,-0.05079196,-0.031847823,-0.037424549,-0.281374991,-0.079724289,0.256281078,-0.208400145,0.489879757,2.98384738
0.779991269,0.480278432,0.189793885,-0.862709105,-0.05095154,-0.030246574,-0.039711352,-0.281183213,-0.079987884,0.257297158,-0.20875676,0.489709944,2.983603001
0.784992516,0.477813095,0.19476603,-0.859346747,-0.052949633,-0.034107428,-0.040165972,-0.281035662,-0.080190711,0.258078992,-0.209141806,0.489503592,2.983395815
0.790000618,0.475221843,0.195497319,-0.860794008,-0.052445728,-0.035880566,-0.042626921,-0.280986696,-0.08025796,0.258338243,-0.209524661,0.489293247,2.983170986
0.795003891,0.476568252,0.195313856,-0.857859194,-0.055365823,-0.037327055,-0.040831719,-0.280949056,-0.080309711,0.25853768,-0.209911257,0.489082307,2.982963324
0.800002277,0.477401286,0.19779101,-0.858677626,-0.057811689,-0.036314633,-0.042256027,-0.280832231,-0.080541857,0.257525027,-0.2103194,0.488863885,2.98274827
0.805001497,0.476773977,0.194409296,-0.857355177,-0.057719011,-0.042126868,-0.043507613,-0.280742347,-0.080720469,0.256745875,-0.210716993,0.488622636,2.98252058
0.81000191,0.480781376,0.191181406,-0.859977961,-0.058905154,-0.043256409,-0.044936687,-0.280712545,-0.080779694,0.256487519,-0.211118147,0.488388926,2.982259512
0.815003157,0.479127377,0.194097698,-0.85397023,-0.060797289,-0.046214789,-0.045332037,-0.280689627,-0.080825269,0.256288737,-0.211538672,0.488126844,2.982026815
0.820005119,0.469657868,0.19742085,-0.851133227,-0.059531298,-0.045460481,-0.043818351,-0.280651778,-0.080985978,0.256136328,-0.211951315,0.48785603,2.98180747
0.825002253,0.458903909,0.204901218,-0.854879677,-0.057632655,-0.042483516,-0.04315909,-0.280592114,-0.081256852,0.255931616,-0.212371141,0.487587065,2.981634855
0.830000103,0.451006919,0.218350917,-0.861854851,-0.057909373,-0.039557125,-0.037554435,-0.280572325,-0.081346668,0.255863756,-0.212803334,0.487316102,2.981549501
0.834999323,0.44992733,0.222570643,-0.860480309,-0.053070411,-0.035228487,-0.032195978,-0.280557126,-0.081415772,0.255811512,-0.213199556,0.487081379,2.981504202
0.839999259,0.45861128,0.222643524,-0.861037314,-0.046278533,-0.029853541,-0.024583746,-0.280552089,-0.08143869,0.255794197,-0.213535473,0.486906826,2.981482267
0.845000207,0.468087554,0.216320381,-0.859294832,-0.040161975,-0.027080251,-0.0170302,-0.280478388,-0.081793889,0.255919933,-0.21381104,0.486759812,2.981455088
0.85000217,0.472356468,0.209580004,-0.856761158,-0.034654297,-0.028933818,-0.013266169,-0.28045398,-0.081911668,0.255961597,-0.214032769,0.486613154,2.981420755
0.854999304,0.473933518,0.208189592,-0.859568059,-0.032461196,-0.027293593,-0.012276977,-0.280435175,-0.08200229,0.255993664,-0.214252353,0.486476362,2.981381655
0.859997451,0.469157845,0.209824309,-0.858973205,-0.029522413,-0.027697787,-0.009640795,-0.280428946,-0.082032338,0.256004304,-0.214445695,0.486330837,2.981369495
0.864996374,0.469069332,0.210964411,-0.860496998,-0.024832947,-0.028204929,-0.005958457,-0.280124545,-0.082365535,0.256061584,-0.214609176,0.486182779,2.981381416
0.869996548,0.468476117,0.209469303,-0.860027075,-0.022761835,-0.030668065,-0.001750794,-0.279949456,-0.082552746,0.256092727,-0.214750394,0.486036092,2.981398106
0.874997497,0.470133275,0.208545223,-0.86255461,-0.021715008,-0.029829405,-0.000723114,-0.27981475,-0.082696788,0.256116688,-0.214882448,0.4858886,2.981426716
0.879999757,0.472908139,0.206326723,-0.86327827,-0.019034946,-0.031952526,0.002560308,-0.279770076,-0.082744554,0.256124616,-0.214976132,0.485744268,2.981463194
0.884996891,0.473772973,0.207597658,-0.863426864,-0.01832,-0.02718614,0.002727344,-0.279737264,-0.082748719,0.256538987,-0.215083361,0.485622585,2.98149538
0.889994979,0.472735792,0.213121608,-0.863223732,-0.016613305,-0.029480122,0.006254944,-0.279727936,-0.08271724,0.257088035,-0.215172648,0.485489875,2.981588364
0.894994199,0.46951133,0.213331029,-0.865804434,-0.012585564,-0.028243192,0.010008642,-0.279720753,-0.082693018,0.257510513,-0.215232566,0.485362589,2.981689215
0.899993837,0.465380967,0.213256165,-0.865173995,-0.008157143,-0.025623867,0.011820949,-0.279718399,-0.082684986,0.257650584,-0.215276375,0.485238433,2.981806755
0.904995084,0.462174714,0.216449738,-0.865168214,-0.003918715,-0.024216039,0.015583449,-0.279716581,-0.082678802,0.257758379,-0.21528621,0.485130936,2.981961489
0.909997046,0.465839863,0.216380283,-0.866990149,0.001035766,-0.021223616,0.019300587,-0.279911369,-0.082678109,0.257232606,-0.215259984,0.485046327,2.982131243
0.91499418,0.469535679,0.212801844,-0.86559546,0.004227283,-0.020283947,0.020494223,-0.280061275,-0.08267758,0.25682807,-0.215217501,0.484966606,2.982276678
0.919997931,0.471508145,0.208423913,-0.868013084,0.006162872,-0.019942995,0.021778438,-0.280110985,-0.082677409,0.256693929,-0.21515426,0.484900743,2.982397795
0.924997091,0.470094085,0.204971597,-0.867088139,0.007489669,-0.019362124,0.023414604,-0.280149192,-0.082677267,0.256590724,-0.215069354,0.484830797,2.982526541
0.929997563,0.469782352,0.204281166,-0.87085253,0.007264679,-0.017964046,0.022039514,-0.280133516,-0.082734138,0.256702513,-0.214985996,0.484767824,2.98264122
0.934998512,0.472995281,0.204007164,-0.872989118,0.006393748,-0.015824264,0.020954423,-0.280092716,-0.082835428,0.256936193,-0.214918122,0.484715223,2.982731819
0.940000534,0.469620585,0.205988929,-0.870389998,0.006507554,-0.011934886,0.021378221,-0.280079216,-0.082869016,0.257013649,-0.214860767,0.484681427,2.982843637
0.944997907,0.466258883,0.20992814,-0.868914247,0.007154141,-0.008183545,0.02199051,-0.280068815,-0.082894862,0.257073253,-0.214803144,0.484658122,2.982981205
0.949995756,0.454175711,0.208399653,-0.86262548,0.004301913,0.000626182,0.018765679,-0.280065358,-0.08290343,0.257093042,-0.214779586,0.484659135,2.983091831
0.954994917,0.445680082,0.215117306,-0.869642615,0.004416773,0.010533449,0.022994904,-0.279482305,-0.08257138,0.258458912,-0.214750722,0.484696507,2.983253241
0.959994853,0.442058176,0.218920738,-0.873260856,0.010038101,0.017472325,0.026095048,-0.279288977,-0.082461283,0.258911818,-0.2146938,0.484760165,2.983426571
0.964996099,0.443438917,0.222159609,-0.874015212,0.012988769,0.031875938,0.02940909,-0.279140234,-0.08237657,0.259260267,-0.214621693,0.484906077,2.98362565
0.969998062,0.446359575,0.223892435,-0.871050358,0.019018881,0.042443246,0.033312861,-0.279090911,-0.082348481,0.259375811,-0.214540228,0.485118359,2.98382926
0.974995434,0.448128819,0.223607913,-0.870411575,0.024531674,0.051123641,0.041290607,-0.279051214,-0.08238095,0.259105563,-0.214388266,0.485384375,2.984077215
0.97999388,0.454645127,0.218147859,-0.871213973,0.025482813,0.059184965,0.043070432,-0.279037625,-0.082405105,0.258927077,-0.214231074,0.485703647,2.984273195
0.984992743,0.456231773,0.213772491,-0.872978628,0.025411487,0.071242459,0.04600111,-0.279027164,-0.082423687,0.258789748,-0.21407263,0.486076772,2.984452486
0.989992976,0.454659075,0.21262686,-0.868766665,0.025131304,0.078552075,0.044738114,-0.279023707,-0.082429856,0.25874421,-0.21391575,0.486488044,2.984610081
0.994993925,0.457324356,0.219262823,-0.869962513,0.026322674,0.086877346,0.047300637,-0.279299498,-0.082405671,0.25813061,-0.213772342,0.486946285,2.984819174
0.999996424,0.457540095,0.221822903,-0.872549415,0.023368981,0.092438973,0.048249364,-0.279671729,-0.082368478,0.25734368,-0.213640079,0.487425238,2.985031128
1.004994035,0.460994095,0.221199423,-0.867406905,0.022969371,0.099059626,0.054971866,-0.279958129,-0.082339868,0.256738216,-0.213495821,0.487956941,2.985264063
1.00999248,0.460282266,0.225425035,-0.867639661,0.022248011,0.105504863,0.06037705,-0.280053109,-0.082330383,0.256537437,-0.213348299,0.48851794,2.985554934
1.014991403,0.460221589,0.225935161,-0.869624615,0.023754604,0.10796424,0.062951587,-0.280126184,-0.082323082,0.256382942,-0.213203564,0.489094377,2.985832691
1.019991517,0.463724941,0.224392056,-0.866133809,0.027128089,0.117705174,0.06769982,-0.280203909,-0.082111798,0.256844312,-0.213024959,0.48973155,2.986130953
1.024992466,0.458898008,0.225811601,-0.86453867,0.027620852,0.1219607,0.074376136,-0.280263752,-0.081949234,0.257199287,-0.212834805,0.490381479,2.986482382
1.029994965,0.457852453,0.230831206,-0.867304683,0.030382534,0.132069394,0.083375573,-0.28028357,-0.081895329,0.257317007,-0.212625742,0.491092503,2.986898899
1.034992695,0.456869096,0.235637933,-0.868759751,0.043182954,0.141108632,0.091580629,-0.280298829,-0.081853852,0.257407576,-0.212321565,0.491846442,2.987368822
1.039990783,0.455434769,0.227478057,-0.872954249,0.049533494,0.150356621,0.097902186,-0.280554771,-0.081755348,0.25671193,-0.211954862,0.49265039,2.987796783
1.044989705,0.453081489,0.224136293,-0.876760542,0.054072566,0.164744973,0.107113905,-0.281005353,-0.081593849,0.255442917,-0.211556748,0.493530512,2.98825264
1.049990416,0.448354691,0.220307708,-0.886192501,0.061874114,0.182626531,0.11341197,-0.281154782,-0.081540301,0.255022138,-0.211105749,0.494489014,2.988714695
1.054997563,0.442175746,0.222487018,-0.891592026,0.067020513,0.195694491,0.120933987,-0.281269759,-0.0814991,0.254698366,-0.210610226,0.495498806,2.989204645
1.059999466,0.432830423,0.233115062,-0.896496475,0.063373283,0.215108678,0.135469601,-0.281307876,-0.081485443,0.254590988,-0.210132852,0.496601194,2.989824772
1.064996839,0.413098872,0.233478397,-0.905842125,0.073268443,0.237494797,0.151342154,-0.281604022,-0.081002288,0.253961891,-0.209566161,0.497806281,2.990505695
1.069994807,0.392740995,0.246117726,-0.913906157,0.070558652,0.262677848,0.176746249,-0.28170222,-0.080842078,0.253753275,-0.208998471,0.49909994,2.991392136
1.074993968,0.355661422,0.247961447,-0.939196885,0.060968898,0.288595259,0.224896953,-0.281777769,-0.080718815,0.253592789,-0.20832558,0.500505388,2.992499828
1.079994321,0.312944591,0.237610728,-0.970554411,-0.007089819,0.335764289,0.297629952,-0.281802803,-0.080677941,0.253539562,-0.207810178,0.502113581,2.9939785
1.08499527,0.343357891,0.263690591,-0.936802447,-0.02290955,0.389851511,0.349737495,-0.282273114,-0.079933688,0.252728462,-0.207364038,0.504155397,2.995848894
1.089997292,0.329591691,0.174958229,-1.038452029,-0.110468313,0.439478517,0.388280839,-0.282540649,-0.079510525,0.25226894,-0.206948265,0.506371439,2.997341633
1.094994426,0.246550456,0.079826832,-1.125631928,-0.337895542,0.541421652,0.451176465,-0.282746494,-0.079184934,0.251915365,-0.207447618,0.508908689,2.998739243
1.099992871,0.185284451,-0.022486877,-1.163210392,-0.658721089,0.690641582,0.543721497,-0.282814771,-0.079076976,0.251798123,-0.209293276,0.512261927,2.999881744
1.104992032,0.157795727,0.126093477,-1.140807033,-0.754961789,0.873982549,0.637939572,-0.283795476,-0.07854569,0.251458198,-0.211853027,0.516604841,3.002447367
1.109992146,0.205998704,0.15260528,-1.158996582,-0.836983979,1.074640393,0.736963272,-0.285056651,-0.077917553,0.251093686,-0.214483351,0.522115171,3.005133867
1.114993453,0.242816523,0.212333366,-1.188227296,-0.886166215,1.306620955,0.821222782,-0.286027044,-0.077434242,0.250813216,-0.217377767,0.528891385,3.008281708
1.119995594,0.280292273,0.220596865,-1.207978606,-0.943718731,1.549763083,0.883550286,-0.28634879,-0.07727398,0.250720203,-0.220460653,0.536961138,3.011347294
1.124992967,0.314541638,0.235873371,-1.222865462,-1.020107627,1.767130733,0.946651578,-0.286596388,-0.077150673,0.250648648,-0.223949105,0.546186924,3.014465809
1.129991174,0.419195175,0.336737663,-1.235784411,-0.991206408,1.949137211,0.998581827,-0.289472759,-0.076951914,0.245332822,-0.227424994,0.556472898,3.018013716
1.134990335,0.446104944,0.313586622,-1.286250353,-0.926925123,2.108781815,1.010842681,-0.291685939,-0.076798983,0.241242647,-0.230458304,0.567489326,3.021114588
1.13999033,0.492039651,0.329826921,-1.281871319,-0.844597936,2.229247093,1.006274819,-0.292419791,-0.076748274,0.239886433,-0.233170077,0.579078555,3.024081707
1.144991279,0.440756798,0.285566688,-1.246994972,-0.873146594,2.369036436,0.988420486,-0.292984426,-0.076709256,0.238842905,-0.236074731,0.591286778,3.026559591
1.14999342,0.436321318,0.266523272,-1.211872339,-0.975818098,2.513432503,0.941363573,-0.295604795,-0.075905755,0.234653801,-0.239860252,0.604151487,3.028437614
1.154990554,0.55438292,0.319746703,-1.240947604,-1.059143305,2.556789398,0.915446758,-0.300081253,-0.074488126,0.227544576,-0.24442637,0.617340922,3.030184269
1.159988761,0.613340795,0.370294183,-1.27921927,-1.095141411,2.493419409,0.924540281,-0.301565558,-0.074018061,0.225187302,-0.24902378,0.630113244,3.03225255
1.164987683,0.606324553,0.39804104,-1.30322957,-1.086150169,2.426932096,0.937576234,-0.302707642,-0.073656388,0.223373532,-0.253487945,0.642476261,3.034484386
1.169987559,0.561257541,0.471510589,-1.257318735,-0.989445567,2.338929653,0.961278141,-0.30308634,-0.073536463,0.222772121,-0.257423192,0.654339135,3.037351847
1.174988508,0.534416914,0.491401255,-1.266581059,-0.840386569,2.236934185,0.925665677,-0.310047001,-0.071465239,0.210602567,-0.260614276,0.665622294,3.040108204
1.179990768,0.423663795,0.493685931,-1.307579517,-0.696113646,2.107421398,0.843686163,-0.312355042,-0.070778459,0.206567362,-0.263214499,0.675923526,3.042486668
1.184987903,0.259558439,0.581148863,-1.333700895,-0.536207259,1.94606638,0.717222571,-0.314130902,-0.070250034,0.203462556,-0.265572429,0.684921026,3.044655323
1.189991951,0.299861968,0.688275158,-1.321655512,-0.329880178,1.771266818,0.574826121,-0.314719737,-0.070074819,0.20243305,-0.26752013,0.692920864,3.046598196
1.194990873,0.432316303,0.667971015,-1.392108202,-0.156163394,1.593487501,0.439949751,-0.320060581,-0.067672282,0.19492662,-0.268779695,0.700030088,3.047663689
1.199990988,0.43370232,0.602651894,-1.470119953,-0.019976495,1.375060201,0.310855418,-0.323040992,-0.066314489,0.190776154,-0.269471765,0.705835164,3.047987461
1.204992056,0.268238932,0.518568993,-1.529623151,0.114156276,1.090160251,0.184284553,-0.325334221,-0.065269761,0.187582657,-0.269471258,0.709720135,3.047774792
1.209994197,0.078668073,0.383589089,-1.497287154,0.204880372,0.795915186,0.068708375,-0.326094627,-0.064923346,0.18652375,-0.268886864,0.711826265,3.046994686
1.214991331,-0.098000959,0.241654515,-1.421712399,0.24180752,0.543799043,-0.000765938,-0.328304827,-0.063734472,0.182198897,-0.267888308,0.712543428,3.04589963
1.219989538,-0.246630043,0.114471793,-1.348971009,0.231972024,0.347679377,-0.017906411,-0.330676407,-0.062410191,0.177225307,-0.266587615,0.712279201,3.044796705
1.224988699,-0.354162872,0.020483166,-1.283397079,0.182555526,0.185180336,0.004351733,-0.332501203,-0.061391246,0.173398465,-0.265120685,0.711273074,3.043974161
1.229988575,-0.413603634,-0.03483808,-1.235816956,0.114022084,0.03795556,0.053224195,-0.33310625,-0.061053384,0.172129571,-0.263582528,0.709650815,3.043643236
1.234989524,-0.442067176,-0.053509112,-1.207602024,0.042084996,-0.107187144,0.117940798,-0.333571821,-0.060793422,0.171153232,-0.261964768,0.707423866,3.044006586
1.239991546,-0.448679864,-0.054473765,-1.195063591,-0.012448833,-0.251430035,0.185906053,-0.334723443,-0.059338987,0.168366611,-0.260203183,0.704600036,3.045082092
1.24498868,-0.43923077,-0.037576988,-1.192342997,-0.046687156,-0.395286709,0.250513643,-0.335609525,-0.058219895,0.166222483,-0.258232027,0.701175809,3.046871424
1.249986768,-0.422801703,-0.021563839,-1.198723555,-0.059943501,-0.539412379,0.294600874,-0.335903347,-0.057848826,0.165511534,-0.256039262,0.697113872,3.049179077
1.254985929,-0.401730806,-0.008370152,-1.194023967,-0.05303812,-0.684796929,0.327657223,-0.336129427,-0.057563316,0.164964512,-0.253571898,0.692414403,3.051934481
1.259985924,-0.390816629,-0.002205426,-1.182829261,-0.03717057,-0.823020041,0.353000075,-0.336079657,-0.056403335,0.164827004,-0.250832349,0.687101007,3.055069208
1.264987111,-0.387852073,0.008034632,-1.176334262,-0.015137266,-0.949635208,0.371847719,-0.335915267,-0.05443361,0.164765537,-0.247860536,0.681200504,3.058521748
1.269989133,-0.38444069,0.015365328,-1.165370226,0.020102486,-1.068238258,0.381965995,-0.335860759,-0.053780485,0.164745167,-0.244615197,0.674743533,3.062190294
1.274986506,-0.371946007,0.004590225,-1.152749896,0.057148628,-1.16838634,0.384812653,-0.335818827,-0.053277951,0.164729491,-0.241112918,0.667849183,3.06591773
1.279984355,-0.36204952,-0.006690691,-1.125471234,0.081800118,-1.250832558,0.388938755,-0.335804909,-0.053111318,0.16472429,-0.237445295,0.660598993,3.069736958
1.284983277,-0.329374075,-0.011692643,-1.115982652,0.091519527,-1.31840682,0.388422012,-0.334023565,-0.049016092,0.166757852,-0.233757913,0.653088152,3.0736022
1.289983273,-0.290837675,0.004650719,-1.117034316,0.100326791,-1.383037329,0.377719074,-0.333432913,-0.047658194,0.167432144,-0.230123386,0.645299792,3.077466011
1.29498446,-0.252505153,0.033439793,-1.120747924,0.109561615,-1.44782424,0.363991648,-0.332978427,-0.04661338,0.167950973,-0.226584852,0.63721633,3.081355572
1.299986482,-0.205030948,0.062848076,-1.144554257,0.112571172,-1.510471821,0.338440418,-0.332827747,-0.046266939,0.168123007,-0.2231787,0.628827393,3.085163832
1.304983497,-0.129150301,0.086451881,-1.176891804,0.115455858,-1.59356153,0.294192761,-0.331142753,-0.042794012,0.172248393,-0.219963804,0.620053887,3.088880062
1.309981465,-0.04863736,0.10171663,-1.209426165,0.105939239,-1.693224192,0.227358773,-0.330195814,-0.04084903,0.174604386,-0.217028528,0.610788822,3.092254639
1.314980388,0.052338801,0.127007544,-1.247454762,0.087223634,-1.808071136,0.130886763,-0.329467177,-0.039352499,0.176417142,-0.214559391,0.600949883,3.09515357
1.319980264,0.151110694,0.167003512,-1.283034086,0.074152268,-1.95390439,0.01222657,-0.32922557,-0.038856279,0.177018225,-0.212592736,0.590365231,3.097560167
1.324987411,0.226224557,0.213806555,-1.300537348,0.072243527,-2.11211729,-0.118525624,-0.327444226,-0.036932431,0.179124877,-0.211097106,0.578935385,3.099517107
1.329989672,0.268428922,0.254935026,-1.303979993,0.091469206,-2.269621849,-0.257405549,-0.325244665,-0.034739528,0.181481376,-0.209940508,0.566646397,3.100970507
1.334986806,0.285698324,0.287030637,-1.289626479,0.132406563,-2.417002678,-0.394522458,-0.323552281,-0.03305224,0.183294535,-0.208986744,0.553540885,3.101875305
1.339984894,0.282249451,0.304001331,-1.263419271,0.198651016,-2.543322086,-0.515289843,-0.322991103,-0.032492768,0.183895752,-0.208014786,0.539736867,3.102286339
1.344983816,0.272807479,0.308485806,-1.229319572,0.2788091,-2.639987946,-0.616963923,-0.322559327,-0.032062292,0.184358343,-0.206885412,0.52542007,3.102266073
1.34998405,0.264791369,0.296921313,-1.195611,0.363550305,-2.711831093,-0.702476561,-0.318369091,-0.030218188,0.190220937,-0.205504626,0.510737836,3.101886034
1.354984999,0.259268939,0.267308712,-1.163076997,0.437715024,-2.757492781,-0.766783893,-0.315145016,-0.028799275,0.194731817,-0.203843698,0.495835215,3.101096392
1.359987259,0.267092258,0.2239407,-1.137116909,0.490402311,-2.785096169,-0.816938162,-0.314075947,-0.028328791,0.196227536,-0.201954499,0.480836838,3.099925518
1.364984274,0.2889328,0.187272891,-1.111945868,0.509694338,-2.799274445,-0.849632084,-0.313253373,-0.027966786,0.197378382,-0.200001612,0.465839565,3.098478079
1.369982481,0.322277516,0.157977149,-1.094278216,0.499124438,-2.812449932,-0.871571064,-0.30986613,-0.027243819,0.200844467,-0.198117748,0.450879186,3.096872568
1.374981403,0.354723364,0.140177891,-1.076531291,0.473172903,-2.819905281,-0.874560058,-0.304110676,-0.026077885,0.206630275,-0.196348652,0.435966164,3.095229864
1.379981518,0.382747054,0.134805381,-1.056219459,0.439449191,-2.825202703,-0.869896173,-0.302202284,-0.025691284,0.20854874,-0.194737852,0.421119422,3.093608141
1.384982586,0.400256574,0.143511012,-1.033135414,0.415287435,-2.820151091,-0.855628252,-0.300733894,-0.025393821,0.210024863,-0.193235472,0.406376839,3.092107534
1.389984488,0.411436826,0.156231299,-1.007539034,0.400791526,-2.80015707,-0.839648724,-0.300246984,-0.025295187,0.210514322,-0.19179602,0.391822457,3.090735435
1.394981623,0.421337456,0.174660176,-0.98377496,0.403848916,-2.766389847,-0.820276618,-0.292507738,-0.024684222,0.218458414,-0.190327004,0.377506018,3.089518547
1.399979472,0.432859451,0.187976986,-0.956621945,0.421303213,-2.715247869,-0.804600596,-0.289941549,-0.024481639,0.221092522,-0.188756973,0.363540739,3.088363886
1.404978395,0.432332069,0.205567002,-0.931568503,0.44395414,-2.646718502,-0.786911786,-0.287967026,-0.024325764,0.223119289,-0.187106267,0.349962294,3.087298393
1.40997839,0.434599549,0.215496421,-0.917245626,0.461396962,-2.559025049,-0.768210411,-0.287312329,-0.024274077,0.223791331,-0.185352474,0.336883008,3.086274147
1.414979577,0.446210325,0.223748833,-0.922682524,0.469557822,-2.475939989,-0.754878521,-0.280826539,-0.023489753,0.229425594,-0.183576688,0.324281871,3.085259676
1.419981599,0.463806391,0.221235707,-0.939715564,0.452327579,-2.398197889,-0.746514201,-0.277195722,-0.023045443,0.232560068,-0.181878611,0.31210345,3.084158659
1.424978733,0.506339371,0.212864354,-0.969468176,0.404254347,-2.33782196,-0.743369579,-0.274402052,-0.022703577,0.234971836,-0.180415109,0.300307721,3.082953453
1.429976583,0.568294942,0.208917201,-1.012335896,0.32239753,-2.300692797,-0.748614132,-0.273475736,-0.02259022,0.235771537,-0.17936559,0.288787723,3.081622362
1.434975743,0.664724112,0.208710492,-1.058273554,0.211030811,-2.298063755,-0.782546222,-0.269867539,-0.022021279,0.23836799,-0.178919703,0.27739346,3.080080986
1.439975739,0.772269726,0.211348996,-1.099414468,0.080416411,-2.341762781,-0.839414299,-0.265751362,-0.021346861,0.241226688,-0.17918998,0.26588279,3.078246117
1.444976926,0.857537508,0.224923894,-1.120794535,-0.054595776,-2.417681217,-0.912078023,-0.262584239,-0.020827945,0.243426263,-0.180220142,0.254041076,3.076138735
1.449978828,0.907939494,0.258853227,-1.134318233,-0.163618684,-2.510886431,-0.982909203,-0.261534065,-0.020655882,0.244155601,-0.181893244,0.241746143,3.073888779
1.454976201,0.914670467,0.303634167,-1.120457172,-0.218739614,-2.607565403,-1.040655017,-0.260726035,-0.02052349,0.244716778,-0.183915317,0.228927687,3.071664333
1.459980249,0.880539834,0.330717385,-1.083450794,-0.209207237,-2.681504965,-1.062511683,-0.256040007,-0.02042239,0.249338746,-0.185862049,0.215684965,3.069583416
1.46497941,0.817537189,0.336790293,-1.026631713,-0.135253698,-2.728631973,-1.032976627,-0.252434433,-0.0203446,0.252895027,-0.187305376,0.202187806,3.067825079
1.469979882,0.74662143,0.307748318,-0.965155602,-0.017631102,-2.734088659,-0.95084089,-0.251238883,-0.020318806,0.254074216,-0.187952906,0.188693687,3.066464186
1.474980831,0.68861258,0.249682993,-0.91091305,0.118972138,-2.709020376,-0.839412928,-0.250319004,-0.02029896,0.254981548,-0.187660798,0.175419316,3.065487385
1.479983091,0.646331489,0.161326006,-0.874583364,0.231823787,-2.659861803,-0.69680953,-0.246849954,-0.021137066,0.257886231,-0.186511785,0.162519097,3.064847946
1.484980226,0.628272116,0.066196389,-0.8471241,0.297635078,-2.602309227,-0.535681784,-0.240981415,-0.022636041,0.262754023,-0.184774294,0.150082901,3.064588547
1.489978313,0.630642414,-0.013513135,-0.829102159,0.300550669,-2.546597719,-0.376360446,-0.239035532,-0.023133073,0.264368087,-0.182837084,0.138112664,3.06477046
1.494977236,0.642223179,-0.054953091,-0.811533153,0.257707179,-2.495811701,-0.218117163,-0.237538293,-0.023515504,0.265610009,-0.181030095,0.126580611,3.065546751
1.499977231,0.644533694,-0.057337824,-0.787157476,0.181903109,-2.44917202,-0.072445594,-0.237041831,-0.023642313,0.266021818,-0.179587603,0.11541485,3.067017317
1.50497818,0.645071089,-0.026783269,-0.760017276,0.096275434,-2.40419364,0.05661691,-0.230074227,-0.022888269,0.269956946,-0.178631932,0.104601897,3.069238663
1.50998044,0.644719362,0.02439959,-0.736845374,0.015416169,-2.354538441,0.166585729,-0.227763921,-0.022638243,0.271261752,-0.17816861,0.094135433,3.072189331
1.514977574,0.643636525,0.08043395,-0.714966297,-0.051378276,-2.296815872,0.25372076,-0.225986287,-0.022445865,0.272265702,-0.178131521,0.084054992,3.075721264
1.519975662,0.643467426,0.124726377,-0.68832314,-0.105879031,-2.227055311,0.314832449,-0.225396857,-0.022382075,0.272598594,-0.178435951,0.074376285,3.079668999
1.524974585,0.639262497,0.169346333,-0.661783457,-0.139295936,-2.150308132,0.346957266,-0.220592514,-0.020858413,0.276607782,-0.179013312,0.06512019,3.083932877
1.529974818,0.630847514,0.203338832,-0.632834077,-0.172352239,-2.061175108,0.353386521,-0.217922866,-0.019988306,0.278865844,-0.17984271,0.05631816,3.08827424
1.534975767,0.623214662,0.234143004,-0.606046438,-0.195783332,-1.961620688,0.337030172,-0.215868756,-0.019318817,0.28060326,-0.180880293,0.047998764,3.092585564
1.539978027,0.618855059,0.264567465,-0.581715643,-0.212535739,-1.856978893,0.306999773,-0.215187654,-0.019096829,0.281179368,-0.182082951,0.040166762,3.096795559
1.5449754,0.624578476,0.292270243,-0.55703491,-0.222849309,-1.751675248,0.26064375,-0.21264039,-0.018052202,0.283645481,-0.183416426,0.032846298,3.100846529
1.549973488,0.636250675,0.314593941,-0.543727934,-0.234046102,-1.651285291,0.197883174,-0.209755585,-0.016824665,0.286502987,-0.184879303,0.025996469,3.104619026
1.55497241,0.653829336,0.329504579,-0.533323348,-0.245154202,-1.555546522,0.116254225,-0.207535937,-0.015880158,0.288701653,-0.186444178,0.019572482,3.1079669
1.559972405,0.670837164,0.338085204,-0.521909773,-0.256390959,-1.47042644,0.02189135,-0.206799924,-0.015566979,0.289430708,-0.188097805,0.013504032,3.110816717
1.564973354,0.693585634,0.343129486,-0.50393647,-0.268186867,-1.386827826,-0.082298189,-0.206233621,-0.015326008,0.289991647,-0.189841285,0.007806884,3.113116264
1.569975257,0.711166859,0.353490204,-0.476794749,-0.278189749,-1.301101208,-0.195407331,-0.20315516,-0.014526621,0.291603625,-0.191666275,0.00245011,3.114893198
1.57497263,0.732331634,0.364232212,-0.436955005,-0.278708577,-1.211625695,-0.310002744,-0.200786516,-0.013911548,0.292843968,-0.193524361,-0.002538214,3.116111755
1.579970598,0.741517961,0.376996219,-0.389784247,-0.26475364,-1.111122727,-0.427176297,-0.200001121,-0.013707601,0.29325524,-0.195337012,-0.007126024,3.116780281
1.584969521,0.751212597,0.391854286,-0.343050748,-0.231927529,-0.993866503,-0.538585424,-0.199396804,-0.013550678,0.293571681,-0.197002962,-0.011228636,3.116903067
1.589969397,0.766852975,0.409856647,-0.298425853,-0.189792797,-0.859580398,-0.642438233,-0.197964907,-0.013746056,0.294443429,-0.198481455,-0.014730392,3.116526127
1.594976544,0.795756817,0.409014434,-0.253422797,-0.144766152,-0.70952189,-0.746346772,-0.195617884,-0.014146556,0.295889586,-0.19969663,-0.017535601,3.115528345
1.599978447,0.839595675,0.400803417,-0.217083871,-0.118600018,-0.550418854,-0.846084356,-0.194839656,-0.014279354,0.296369106,-0.200762957,-0.019573953,3.113860607
1.60497582,0.888945341,0.405174285,-0.178929955,-0.103893377,-0.38890484,-0.946146905,-0.194240853,-0.014381533,0.296738058,-0.201782003,-0.020834092,3.111615658
1.609973788,0.93315506,0.418506652,-0.139083073,-0.093176678,-0.219280571,-1.044050574,-0.19404231,-0.014415414,0.296860397,-0.202773824,-0.021288939,3.108825445
1.614972949,0.980009556,0.432684243,-0.102286078,-0.074919306,-0.045451906,-1.133160949,-0.191722527,-0.015409679,0.29897207,-0.203701839,-0.020907179,3.105504274
1.619972825,1.022681832,0.441815704,-0.059470259,-0.046138298,0.135658264,-1.198618531,-0.190953329,-0.015739359,0.299672276,-0.20450601,-0.019631131,3.101763964
1.624974132,1.049374938,0.452749938,-0.030211721,-0.001426145,0.315978527,-1.233855367,-0.190361485,-0.015993025,0.300211012,-0.205113143,-0.017462876,3.097761631
1.629976273,1.054317713,0.458700538,-0.005793211,0.063503511,0.496183485,-1.235062718,-0.190165237,-0.016077135,0.300389647,-0.205414101,-0.014411552,3.093631744
1.634973407,1.039421201,0.446743816,0.016314451,0.150140166,0.69079721,-1.20298934,-0.190525353,-0.017976785,0.298759162,-0.20527032,-0.010403785,3.089379311
1.639971614,1.021795988,0.41843307,0.02173489,0.242502421,0.883717299,-1.132297873,-0.190771237,-0.019060731,0.29778105,-0.204621896,-0.005399148,3.085162878
1.644970536,-0.020564198,-0.397655189,-0.541175127,-0.285825402,1.21993041,-0.870479524,-0.190960437,-0.019894755,0.297028452,-0.204420105,-0.00050841,3.077447414
1.649970412,1.230858803,-0.074971288,0.421419591,-0.568371296,2.122616768,-0.728531182,-0.191023171,-0.020171301,0.296778917,-0.208410203,0.011474119,3.072336435
1.654971361,0.515350103,-0.013393994,0.170081884,-0.285438299,2.479967594,-0.512316823,-0.192092478,-0.021014525,0.294892073,-0.209881335,0.025264947,3.067901134
1.65997386,-1.262589097,-0.041885071,0.229325056,-0.340049803,2.818551779,-0.268344939,-0.193476677,-0.021929855,0.292557359,-0.211544931,0.035620138,3.064930677
1.664971232,-0.553064644,0.607255459,-0.180032089,-0.00658413,3.464691639,-0.134261653,-0.194541723,-0.022634137,0.290760934,-0.212990567,0.051969029,3.064628601
1.669969916,-0.018359356,0.512615502,-1.253042102,0.160633594,3.547863245,0.048869926,-0.194894865,-0.022867665,0.290165275,-0.212328658,0.070061155,3.062649012
1.674968839,-0.148148835,0.258787036,-1.520473123,0.293496817,3.568672895,0.236854583,-0.195166588,-0.023047347,0.289706975,-0.210935459,0.087148443,3.06009078
1.679969072,0.237053216,0.468197286,-1.73311913,0.548547626,3.547647476,0.314350665,-0.201577842,-0.023814676,0.282182813,-0.208262578,0.105245687,3.059259653
1.684970021,0.41429913,0.33846429,-1.688016415,0.599415481,3.272102356,0.307432175,-0.206510872,-0.024405085,0.276393473,-0.205339089,0.121888012,3.057719231
1.689972281,0.206329316,0.00667055,-1.676396132,0.438317001,3.369841814,0.202184886,-0.208146572,-0.024600852,0.274473846,-0.202595755,0.138359636,3.054225683
1.694969654,0.471211433,-0.052923776,-1.347039104,0.219216347,3.636663437,0.08419732,-0.209405139,-0.024751483,0.272996813,-0.201723889,0.156865016,3.049911261
1.699967742,0.485429347,-0.123837516,-1.213426828,0.010764308,3.911704063,-0.007549469,-0.21444115,-0.023569288,0.268205285,-0.201883048,0.17669183,3.04458189
1.704966903,0.626013875,-0.194124639,-1.261806488,-0.149497956,4.194909573,-0.015772689,-0.222986236,-0.021413781,0.260168791,-0.20266439,0.198147267,3.038686037
1.709967136,1.277392387,-0.141913548,-1.460253954,-0.399407327,4.177724838,0.02873496,-0.225819632,-0.020699056,0.257504046,-0.20502238,0.220635593,3.032757759
1.714968324,1.829238653,-0.129351586,-1.680482388,-0.545607507,3.899182081,0.115347967,-0.227999732,-0.020149123,0.255453706,-0.207876042,0.242396802,3.027150393
1.719970345,2.056035995,-0.097583942,-1.807436109,-0.654486716,3.418468475,0.286265731,-0.228722617,-0.019966776,0.254773825,-0.210968733,0.261914223,3.022842884
1.72496748,1.939804554,-0.159716323,-1.757722974,-0.797388911,2.924876928,0.500051498,-0.240244001,-0.01893474,0.24011299,-0.214172155,0.278772861,3.020100117
1.729971409,1.685264587,-0.048134193,-1.588940978,-0.898811698,2.50613308,0.685742676,-0.244064271,-0.018592536,0.235251725,-0.21791999,0.293292075,3.019549847
1.73497057,1.37872529,0.181307107,-1.405966759,-0.938226461,2.164622307,0.799475253,-0.247003704,-0.018329233,0.231511325,-0.222001404,0.305919856,3.021263123
1.739970565,1.071313858,0.502270818,-1.233489275,-0.906216621,1.912924886,0.828101695,-0.247978374,-0.018241927,0.230271086,-0.226434395,0.316816777,3.025013685
1.744971514,0.901265383,0.793718398,-1.123402357,-0.812970281,1.739112735,0.782058001,-0.254866004,-0.017678741,0.220642626,-0.230897769,0.326745778,3.029826164
1.749973536,0.691789567,1.033302188,-1.027496934,-0.630839825,1.622094512,0.665381193,-0.258668602,-0.017369259,0.215303555,-0.234982237,0.335584164,3.035167456
1.75497067,0.591182053,1.12550199,-0.92832458,-0.451577097,1.547337532,0.519636393,-0.261594415,-0.017131135,0.211195514,-0.238469586,0.343874067,3.040117979
1.759968519,0.445765227,1.100442648,-0.806208909,-0.262300938,1.509925485,0.341044575,-0.26256457,-0.017052177,0.209833369,-0.241318777,0.351601452,3.044019222
1.76496768,0.301152259,0.926296473,-0.727012098,-0.09509144,1.513881445,0.21100311,-0.265097737,-0.016609212,0.205809757,-0.243230298,0.359024554,3.046490431
1.769967675,0.280446321,0.677161634,-0.734741032,0.032763898,1.537524819,0.155152678,-0.267739385,-0.016076913,0.201475099,-0.244155422,0.366584629,3.047563553
1.774968863,0.420661449,0.492554605,-0.805572748,0.131746963,1.506633759,0.156982422,-0.269771934,-0.015667345,0.198139876,-0.244237915,0.374251962,3.0479002
1.779971361,0.542459071,0.296310484,-0.867102385,0.181788594,1.432445407,0.181274891,-0.270445883,-0.01553154,0.197033986,-0.243650392,0.381709933,3.047668457
1.784969211,0.614239693,0.154993594,-0.894302368,0.20325987,1.345463157,0.218533352,-0.270964444,-0.015427046,0.196183071,-0.242617935,0.388881505,3.047189236
1.789967656,0.670167446,0.075527072,-0.902961373,0.175157696,1.245438814,0.255240858,-0.274087518,-0.014813961,0.19184047,-0.241521463,0.395651817,3.046811819
1.794966817,0.744964778,0.085165992,-0.939946949,0.129509374,1.13672924,0.256812841,-0.27649051,-0.014342234,0.188499138,-0.240663052,0.402007192,3.046634436
1.799966931,0.728624165,0.115815513,-0.980071902,0.097741313,1.017192364,0.221785307,-0.277287304,-0.014185818,0.187391207,-0.240068629,0.407580316,3.046558857
1.80496788,0.653669655,0.126621053,-0.987920105,0.053082772,0.907827854,0.188175142,-0.277900368,-0.014065466,0.186538741,-0.239677072,0.412426412,3.046462059
1.80997014,0.651167154,0.180193812,-0.9933393,0.019776467,0.814362407,0.147849739,-0.279001862,-0.013391932,0.184252679,-0.239642829,0.416788995,3.0465312
1.814967275,0.669396281,0.216506392,-0.993364096,-0.004558566,0.713433444,0.098263524,-0.280757606,-0.012232997,0.180467963,-0.239846036,0.420634627,3.046629667
1.819965482,0.634813309,0.174587056,-0.984199762,-0.026045009,0.627863348,0.057258043,-0.281339765,-0.011848716,0.179213017,-0.240083456,0.42392835,3.046381235
1.824964404,0.592197299,0.145124882,-0.976581395,-0.060936533,0.56617111,0.030308465,-0.281787694,-0.011553038,0.178247422,-0.240454003,0.426872909,3.045969009
1.829964519,0.570568085,0.144529879,-0.98403722,-0.089067489,0.515831292,0.001283745,-0.281936228,-0.011454997,0.177927241,-0.241032287,0.429503471,3.045509815
1.834965467,0.580120921,0.158517897,-0.99122709,-0.114060059,0.450273782,-0.028762279,-0.284016103,-0.010689573,0.175184563,-0.241795093,0.431794137,3.045042992
1.839967728,0.561172426,0.158492923,-0.97121942,-0.134199858,0.395816803,-0.04798799,-0.284705758,-0.010435773,0.174275145,-0.242672846,0.433765799,3.044550896
1.844964862,0.539265752,0.172139943,-0.942136765,-0.154931918,0.354790986,-0.066334434,-0.285236388,-0.010240491,0.173575416,-0.243707523,0.435512006,3.044104099
1.84996295,0.516230643,0.197275728,-0.925289035,-0.179148018,0.323263437,-0.087335162,-0.285412341,-0.010175739,0.17334339,-0.244959012,0.437052071,3.043709755
1.854961872,0.493995041,0.2139045,-0.933865309,-0.192582265,0.298529029,-0.106513962,-0.286036164,-0.010129542,0.171735466,-0.246317163,0.438406348,3.043300867
1.859962106,0.478927851,0.213495985,-0.933459163,-0.211090997,0.278199106,-0.122513205,-0.2863639,-0.010115121,0.170848608,-0.247791544,0.439616859,3.042826653
1.864969254,0.460321397,0.192726269,-0.9269315,-0.226764396,0.268009186,-0.127598241,-0.286616057,-0.010104026,0.170166224,-0.249302253,0.440762609,3.042243958
1.869971514,0.429081529,0.170909971,-0.918589413,-0.24562408,0.264546782,-0.129539639,-0.286699653,-0.010100346,0.169939965,-0.250865728,0.44184494,3.041589975
1.874968529,0.412713498,0.169190601,-0.922575176,-0.265852839,0.273833781,-0.135001898,-0.287010342,-0.010495491,0.169891894,-0.252555162,0.442952931,3.040883541
1.879966497,0.411160529,0.183466956,-0.918932617,-0.29317233,0.285364628,-0.146522328,-0.287361771,-0.011027831,0.170003042,-0.254451722,0.444091767,3.040180922
1.884965658,0.4439722,0.20174773,-0.921395481,-0.311539352,0.28215909,-0.146558046,-0.287632167,-0.011437431,0.170088559,-0.256480366,0.445281446,3.039491653
1.889965534,0.467368275,0.209084347,-0.920021594,-0.325334519,0.267067164,-0.13907741,-0.287721843,-0.011573247,0.170116916,-0.258551002,0.446427196,3.038889885
1.894966483,0.480531514,0.232012793,-0.910624266,-0.33659339,0.246365279,-0.128207356,-0.287790835,-0.011677748,0.170138732,-0.260680854,0.447490573,3.038488388
1.899968505,0.467943937,0.251785934,-0.898871899,-0.342956513,0.223527089,-0.122456037,-0.288197279,-0.012126715,0.168462232,-0.262848914,0.448419333,3.03821516
1.904965878,0.453566939,0.256572366,-0.896421611,-0.345136553,0.210430786,-0.118680179,-0.288510025,-0.012472165,0.167172283,-0.26500836,0.449276209,3.037976742
1.909964085,0.4449853,0.260860652,-0.890391052,-0.343285143,0.19873926,-0.113192827,-0.288613707,-0.012586709,0.16674456,-0.267139077,0.450077415,3.037818193
1.914963245,0.433958203,0.25276649,-0.887345791,-0.346494406,0.191923335,-0.109978855,-0.288693488,-0.012674844,0.166415468,-0.269265264,0.450826555,3.037629604
1.919963121,0.429380387,0.241382211,-0.886034548,-0.350812763,0.18916212,-0.106008865,-0.28890422,-0.013343535,0.165383294,-0.2713736,0.451567531,3.037387609
1.924964309,0.430456221,0.234638855,-0.888634443,-0.35934481,0.189466506,-0.103077024,-0.289252698,-0.01450465,0.163655773,-0.273511797,0.452322274,3.037113905
1.929966331,0.427322537,0.231032819,-0.88929826,-0.368668377,0.187163085,-0.098277912,-0.289368242,-0.014889653,0.163082957,-0.275672019,0.453060448,3.036869526
1.934963703,0.445535988,0.230877131,-0.89852047,-0.381370932,0.177018121,-0.09210474,-0.289457142,-0.015185887,0.162642226,-0.277879894,0.453780204,3.036659956
1.939961553,0.450952202,0.223770887,-0.887233078,-0.391733825,0.164820746,-0.090670027,-0.289486617,-0.015284113,0.162496075,-0.280109406,0.454451054,3.036422491
1.944960713,0.439797193,0.217109382,-0.876322627,-0.402766049,0.168113679,-0.088968083,-0.2895585,-0.016377944,0.161644965,-0.282378316,0.455127537,3.03617382
1.949960709,0.447096139,0.218987033,-0.872447252,-0.412487805,0.170796096,-0.089749254,-0.289582342,-0.016740639,0.161362752,-0.284732401,0.455840439,3.035896301
1.954961896,0.456109911,0.226263657,-0.869360268,-0.417015672,0.172327116,-0.087960668,-0.28960067,-0.017019708,0.161145598,-0.287094116,0.45656684,3.035667658
1.959964156,0.442646354,0.24070479,-0.860165775,-0.420833498,0.174682453,-0.084173657,-0.28960675,-0.017112242,0.161073595,-0.289500535,0.457288593,3.035520077
1.96496129,0.435662508,0.269878954,-0.854061723,-0.41797778,0.18280609,-0.082271703,-0.289702684,-0.017786965,0.161489308,-0.291953921,0.458040655,3.035472631
1.96995914,0.433260113,0.30136165,-0.845283508,-0.400243163,0.187361404,-0.083066501,-0.289757043,-0.018160036,0.161743745,-0.294375479,0.458802938,3.035544872
1.974958062,0.421508074,0.310863376,-0.843741417,-0.383891672,0.197844788,-0.085279286,-0.289798886,-0.018447088,0.161939502,-0.296728641,0.459590554,3.035590172
1.979958296,0.416772485,0.308516622,-0.845758379,-0.372612715,0.20803982,-0.080569394,-0.289812744,-0.018542267,0.162004426,-0.299019456,0.460427284,3.035625935
1.984959245,0.429447472,0.29413408,-0.855292439,-0.363670588,0.209439173,-0.068059102,-0.289868623,-0.019200241,0.161098823,-0.301180393,0.4613083,3.035608053
1.989961505,0.435571015,0.296947211,-0.845318079,-0.352445781,0.210619256,-0.051910151,-0.289932698,-0.020008061,0.159834966,-0.303272545,0.462230176,3.035697222
1.994958639,0.427348554,0.312748551,-0.844430387,-0.334183127,0.215000287,-0.041815184,-0.289982021,-0.020629624,0.158862516,-0.305276573,0.463159233,3.035900593
1.999962926,0.418746591,0.336006761,-0.843201995,-0.311268985,0.214353442,-0.033574075,-0.289998353,-0.020835722,0.158540085,-0.307185769,0.464085072,3.036237478
2.004961967,0.415821344,0.347564399,-0.846443474,-0.29026264,0.218988463,-0.026363712,-0.290010929,-0.0209943,0.158291996,-0.308998346,0.465035826,3.036618948
2.009962559,0.421255708,0.345850557,-0.838915288,-0.262575507,0.220712915,-0.0203768,-0.290302604,-0.021455118,0.157397687,-0.310647666,0.46600306,3.037003517
2.014963388,0.433130711,0.333908409,-0.835417211,-0.243769541,0.220266402,-0.010888691,-0.290527016,-0.021809686,0.156709582,-0.312150121,0.467012733,3.037371397
2.019965649,0.448222756,0.328883767,-0.838231504,-0.229939327,0.220879138,-0.006892072,-0.290601432,-0.021927254,0.156481415,-0.313574851,0.468056828,3.037731171
2.024962902,0.448317885,0.33338213,-0.830040097,-0.213440955,0.217097729,-0.007351411,-0.290658683,-0.022017715,0.156305864,-0.314926207,0.469073266,3.03813076
2.029960871,0.4514817,0.334740371,-0.826763332,-0.195551753,0.211524203,-0.003581164,-0.29072836,-0.022311622,0.155667961,-0.316184282,0.470068723,3.038527966
2.034960032,0.448085576,0.33651644,-0.830132604,-0.177638769,0.206277594,0.002084178,-0.290833205,-0.022804618,0.154590979,-0.317327052,0.471039832,3.038969517
2.039960384,0.442288935,0.337768048,-0.822689056,-0.154665127,0.202016845,0.011483528,-0.290867954,-0.022968085,0.154233873,-0.318333387,0.471995592,3.039480209
2.044961214,0.444613934,0.335137516,-0.8229177,-0.133055717,0.199725151,0.028929107,-0.290894717,-0.023093862,0.153959095,-0.319187164,0.472986877,3.040061712
2.049963236,0.4401775,0.343652993,-0.817250669,-0.112687133,0.18872036,0.051135037,-0.290903598,-0.023135567,0.15386799,-0.319889903,0.473941833,3.040840626
2.054960728,0.430921704,0.357509553,-0.813454807,-0.088153452,0.187660396,0.073640533,-0.291697949,-0.023080586,0.154290214,-0.32043463,0.474906564,3.041800737
2.059958458,0.426578015,0.369667351,-0.802970648,-0.055106744,0.187452525,0.095765948,-0.291961342,-0.023062356,0.154430225,-0.320795,0.475913048,3.042919397
2.064957619,0.427421987,0.391292334,-0.800718188,-0.012942134,0.183458626,0.117549382,-0.292163998,-0.023048328,0.154537946,-0.320916414,0.476929218,3.044251442
2.069957733,0.434706599,0.397169799,-0.794235766,0.02867604,0.180213869,0.140000954,-0.292231172,-0.023043677,0.154573664,-0.320797205,0.477979779,3.045706749
2.074958563,0.434318691,0.384852886,-0.791806877,0.070493735,0.179882124,0.162993729,-0.292030126,-0.023211837,0.153005078,-0.320354521,0.479067594,3.047212124
2.079960585,0.43503356,0.378605813,-0.794018567,0.111004926,0.175985381,0.181495041,-0.291900903,-0.023310093,0.152090013,-0.319665909,0.480164617,3.048806429
2.0849576,0.437620223,0.370602965,-0.80107677,0.15080528,0.169198751,0.203447118,-0.291801482,-0.023385694,0.151385933,-0.318696231,0.481247127,3.050483942
2.089955568,0.426162481,0.376092851,-0.795943439,0.193146393,0.165061399,0.230708703,-0.291768521,-0.023410762,0.151152477,-0.317454278,0.482354939,3.052357674
2.094954729,0.418755472,0.385027111,-0.7932055,0.238682434,0.160563841,0.252236754,-0.292113543,-0.022987586,0.151266858,-0.315954983,0.483454525,3.054404736
2.099955082,0.424218744,0.390690476,-0.795281887,0.287453085,0.157485276,0.27352035,-0.292601466,-0.022401091,0.15160127,-0.314165354,0.484563589,3.056598902
2.104956388,0.434592247,0.385699391,-0.7988078,0.335444123,0.158071071,0.292614907,-0.292976886,-0.021949822,0.151858568,-0.312063634,0.485738665,3.058868647
2.109958649,0.434988678,0.36071822,-0.80527091,0.368171722,0.162275106,0.295664579,-0.29310137,-0.021800188,0.151943877,-0.309731662,0.486919165,3.061027765
2.114956141,0.460519671,0.323525667,-0.825493515,0.376419008,0.167623684,0.276979119,-0.293197155,-0.021685058,0.152009532,-0.307358354,0.488137752,3.062905788
2.119954109,0.481056154,0.262771755,-0.833265364,0.368971169,0.173821136,0.252281129,-0.293733329,-0.020580318,0.150949806,-0.30499649,0.489380121,3.064409256
2.124953032,0.501678646,0.218591213,-0.844055712,0.353044659,0.172453433,0.235963687,-0.294145852,-0.019730296,0.150134429,-0.302675247,0.490617037,3.065667152
2.129953384,0.501218498,0.215256616,-0.864801943,0.32934773,0.159599483,0.214965343,-0.294282645,-0.019448444,0.149864063,-0.300500929,0.491737694,3.066868782
2.134960413,0.508107603,0.194812119,-0.86403805,0.306367964,0.150560334,0.203955397,-0.294387907,-0.01923158,0.149656028,-0.298449218,0.492800713,3.067928553
2.139962673,0.489785612,0.188894957,-0.85618341,0.284810156,0.144139647,0.193177015,-0.294515431,-0.018468829,0.149230808,-0.296530664,0.493774474,3.068987608
2.144959927,0.491403192,0.195812821,-0.874955893,0.261770189,0.133186489,0.175333798,-0.294707179,-0.017183393,0.148543432,-0.29474929,0.494679719,3.069979191
2.149958372,0.492514342,0.198819533,-0.869728506,0.224644944,0.133627728,0.15522854,-0.294770777,-0.016757168,0.148315519,-0.293246567,0.495556921,3.070887804
2.154957533,0.504024744,0.194790304,-0.86789012,0.190717414,0.127922237,0.131026417,-0.294819713,-0.016429216,0.148140147,-0.291963845,0.496383369,3.071631908
2.159957409,0.50564611,0.194220185,-0.871122003,0.166296214,0.113052078,0.120311134,-0.294835925,-0.016320473,0.148082003,-0.290812194,0.497142673,3.072355986
2.164958477,0.500386775,0.213075414,-0.864159882,0.14484106,0.104160339,0.101522513,-0.294797897,-0.015094136,0.14761357,-0.289851189,0.497800201,3.073114157
2.169960976,0.499660462,0.221674681,-0.863729119,0.121492222,0.100114003,0.087395161,-0.294785291,-0.014687506,0.147458255,-0.289052546,0.498434067,3.073811769
2.174958706,0.49456954,0.232288718,-0.852510631,0.103952065,0.096220978,0.077008948,-0.294775575,-0.014374632,0.147338748,-0.288402498,0.499018282,3.074513674
2.179956675,0.492166281,0.247554034,-0.843072057,0.099130988,0.086352013,0.07278689,-0.294772357,-0.01427089,0.147299126,-0.287792385,0.499530464,3.075272083
2.184955597,0.476719052,0.261401594,-0.849036157,0.099328347,0.083054505,0.067726023,-0.294873357,-0.013978898,0.148039088,-0.287209928,0.500019133,3.076046944
2.18995595,0.467809498,0.266081065,-0.850517809,0.104803517,0.083214253,0.066880882,-0.294932455,-0.013829576,0.148475096,-0.286615312,0.500484467,3.076833963
2.194957018,0.458005786,0.277474672,-0.845255852,0.113921024,0.08621572,0.070447333,-0.294977903,-0.013714683,0.14881058,-0.285983622,0.500956833,3.077694178
2.199959278,0.458527595,0.294308901,-0.831082284,0.129059449,0.087920941,0.076113172,-0.294992983,-0.013676587,0.148921818,-0.285293013,0.501450777,3.078653574
2.20495677,0.442358077,0.299699813,-0.822971463,0.148207769,0.094970174,0.084786966,-0.295231462,-0.013412406,0.148979977,-0.284497857,0.501976192,3.079656839
2.2099545,0.409894139,0.313553333,-0.814491987,0.157210127,0.107633106,0.094058819,-0.29553932,-0.013087968,0.148971602,-0.283682346,0.502511978,3.080779314
2.214953661,0.41479212,0.323291928,-0.821045697,0.178768709,0.11780712,0.109883927,-0.295776218,-0.012838335,0.14896515,-0.28272438,0.50314486,3.081981421
2.219953775,0.431724966,0.306613803,-0.826679349,0.204155177,0.130134776,0.116247006,-0.295854747,-0.012755562,0.148963004,-0.281612933,0.503875792,3.08311677
2.224954844,0.448337913,0.289401025,-0.823428392,0.228103608,0.132752016,0.121567443,-0.295915186,-0.012691873,0.148961365,-0.280327857,0.504616499,3.084238768
2.229956865,0.467683017,0.263181329,-0.848475993,0.249040678,0.130223498,0.138316721,-0.296034247,-0.012376234,0.147623256,-0.278785348,0.505429566,3.085307121
2.23495388,0.483973682,0.236699224,-0.855239987,0.252979755,0.126486436,0.134632751,-0.296125889,-0.012133371,0.14659366,-0.277232856,0.506222427,3.086288691
2.239952087,0.489164859,0.209020659,-0.861563683,0.24676387,0.122852601,0.125430822,-0.296156257,-0.012052842,0.146252275,-0.275671601,0.506974816,3.087119579
2.244951248,0.508440673,0.187679932,-0.872240663,0.236436814,0.126205713,0.120729238,-0.296179622,-0.011990882,0.145989582,-0.274148107,0.507774591,3.087828398
2.249951124,0.500618935,0.182663321,-0.880478144,0.219131142,0.126340419,0.102653362,-0.296304435,-0.011538342,0.145578846,-0.272750527,0.508504927,3.088462114
2.254952192,0.487042934,0.184034705,-0.887626052,0.189059868,0.124390453,0.085781947,-0.296518803,-0.010753331,0.144935548,-0.271567881,0.509181738,3.088995934
2.259954453,0.476044983,0.196423933,-0.888382554,0.165565073,0.130075186,0.06803973,-0.296589881,-0.010493035,0.144722238,-0.270593375,0.50985682,3.089486599
2.264951706,0.465443015,0.201092035,-0.893337905,0.132911325,0.141129792,0.053861834,-0.296644568,-0.010292756,0.144558117,-0.269837111,0.510534704,3.089883327
2.269955873,0.470013678,0.206740469,-0.894375205,0.1112523,0.157843053,0.043626934,-0.296662688,-0.010226347,0.144503698,-0.269256145,0.511290193,3.090228558
2.274955273,0.473278105,0.20883508,-0.893034339,0.119963981,0.180467978,0.043347988,-0.296553105,-0.009638323,0.14438507,-0.268628687,0.512162805,3.090559006
2.279955149,0.457685173,0.227859735,-0.880509079,0.098033741,0.197854921,0.038372353,-0.296516776,-0.009443346,0.144345731,-0.268136233,0.513103902,3.090918303
2.284956217,0.456541359,0.230942294,-0.886990368,0.077696383,0.214373022,0.034548335,-0.296488822,-0.009293324,0.144315466,-0.267819881,0.514114201,3.091213465
2.289958477,0.461669236,0.227880791,-0.885206461,0.058605243,0.2283521,0.033450477,-0.296479553,-0.00924358,0.144305438,-0.26760596,0.515193939,3.091477633
2.294955492,0.442422748,0.219041333,-0.896435559,0.032462239,0.245131105,0.037490893,-0.297015846,-0.009092276,0.144409761,-0.267481595,0.516316235,3.091705084
2.299953699,0.433047831,0.228954449,-0.906256497,0.009477554,0.27878207,0.044430032,-0.297328144,-0.009014138,0.144472077,-0.267525256,0.51757741,3.091960192
2.304952621,0.440806597,0.225530803,-0.910911202,-0.022009887,0.315380722,0.050657142,-0.29756844,-0.008954016,0.144520015,-0.267695427,0.519072235,3.092163801
2.309952736,0.45837602,0.23386386,-0.901627541,-0.061130662,0.336865723,0.059993684,-0.297648102,-0.00893408,0.144535914,-0.268093705,0.520688951,3.092416286
2.314953804,0.460860074,0.247040659,-0.897007704,-0.090665542,0.361125737,0.071158372,-0.297961175,-0.008748502,0.143704787,-0.268641382,0.522431612,3.092752934
2.319956303,0.465926677,0.269805312,-0.8915025,-0.118638739,0.398604661,0.07493002,-0.298318863,-0.008515299,0.142578766,-0.2694107,0.524367332,3.093142509
2.324953794,0.444278151,0.255634189,-0.897354186,-0.142895371,0.460634559,0.083637089,-0.298594058,-0.008335865,0.141712368,-0.270294428,0.526585937,3.093392849
2.329952002,0.452673018,0.188916937,-0.925263762,-0.197947428,0.522198737,0.092376418,-0.298685312,-0.008276368,0.141425088,-0.271265298,0.529135704,3.093328476
2.334950924,0.464120865,0.165834606,-0.938319445,-0.30629608,0.564403772,0.098777972,-0.298755527,-0.00823059,0.141204044,-0.272831887,0.531902194,3.093151569
2.339951038,0.463762254,0.176240414,-0.94309032,-0.392330766,0.600039303,0.103675,-0.299124241,-0.008061025,0.140621796,-0.274885774,0.534799933,3.093006611
2.344952106,0.463173807,0.218685806,-0.929922402,-0.446047843,0.673156917,0.111450747,-0.299407929,-0.007930556,0.140173808,-0.277365386,0.538055539,3.092923403
2.349954367,0.439282686,0.215207353,-0.933353961,-0.45507738,0.769950807,0.119825706,-0.299501985,-0.007887295,0.140025258,-0.279850811,0.541800797,3.092725754
2.354951382,0.462737113,0.195297569,-0.960733354,-0.53879106,0.835062265,0.128638774,-0.299574375,-0.007854009,0.139910966,-0.282731593,0.54586494,3.092295647
2.359949589,0.449052066,0.192105442,-0.960241318,-0.611510634,0.905252635,0.147300526,-0.299927473,-0.00794037,0.137983635,-0.28603971,0.550248444,3.091878891
2.364948511,0.442220926,0.224440426,-0.970071793,-0.656156063,1.005098462,0.149555787,-0.300531954,-0.008105303,0.134590179,-0.289694071,0.55507797,3.091341257
2.369948387,0.431207687,0.220864192,-0.981805801,-0.679039717,1.144211888,0.146897569,-0.300732374,-0.008159992,0.133464977,-0.293582678,0.560569465,3.090511322
2.374949694,0.455624729,0.169548273,-1.003539681,-0.762537718,1.261327147,0.156298712,-0.300886601,-0.008202071,0.132599205,-0.29782629,0.566668689,3.089255333
2.379951954,0.441102475,0.229093596,-1.001111269,-0.810917616,1.389523387,0.171199784,-0.300937742,-0.008216024,0.132312134,-0.302642941,0.573311269,3.088059664
2.384949207,0.41624099,0.226511046,-1.016259074,-0.829098523,1.567039251,0.172560856,-0.302795351,-0.00843067,0.128099859,-0.307617843,0.580776095,3.086481571
2.389947176,0.447199851,0.201458052,-1.073938251,-0.913086891,1.734076977,0.184450716,-0.303411305,-0.008501843,0.126703143,-0.313141942,0.589080215,3.084384203
2.394946337,0.394608259,0.219485447,-1.070028543,-0.967736185,1.909107447,0.212429553,-0.303885221,-0.008556604,0.125628471,-0.319116771,0.598089457,3.082226515
2.399946213,0.375334531,0.259147465,-1.088670492,-1.022107244,2.145422697,0.228886664,-0.304042369,-0.008574762,0.125272125,-0.325689048,0.608194351,3.079689264
2.404953718,0.351155609,0.281076908,-1.12404108,-1.078795075,2.431502819,0.27391842,-0.305774957,-0.008649904,0.120456196,-0.332816184,0.619651437,3.076715946
2.40995574,0.31230855,0.218870938,-1.171922922,-1.207043767,2.750437498,0.338358432,-0.306748271,-0.008689957,0.117735453,-0.340633631,0.632648051,3.073096037
2.41495347,0.291388184,0.205065519,-1.226727724,-1.364885569,3.077270031,0.393636554,-0.307497144,-0.008720774,0.115642026,-0.349611104,0.64718461,3.068889141
2.419951916,0.205852926,0.227683127,-1.242051959,-1.471441627,3.436142445,0.477173418,-0.307745457,-0.008730993,0.114947885,-0.359499216,0.66328299,3.064273596
2.424951077,0.097500362,0.19603534,-1.274251938,-1.629722953,3.88508296,0.570167184,-0.308986336,-0.008678156,0.109355569,-0.370557129,0.681537628,3.058745861
2.429951191,0.108778805,0.201868758,-1.299924254,-1.823737621,4.341798782,0.664675355,-0.310456395,-0.008599428,0.102400579,-0.383273602,0.702017605,3.052292585
2.434952497,0.157479733,0.218527645,-1.33057785,-1.993943572,4.823345184,0.772462368,-0.311587512,-0.008538851,0.097049177,-0.397633225,0.724891126,3.044812918
2.439954758,0.204698637,0.312279016,-1.388457894,-2.122281551,5.295912743,0.847568333,-0.311962545,-0.008518765,0.095274754,-0.413811177,0.74992907,3.036127567
2.444951773,0.277658165,0.377919763,-1.399695754,-2.195210934,5.76057291,0.867037356,-0.312251121,-0.00850331,0.093909457,-0.432004392,0.77698195,3.025503397
2.44994998,0.378216326,0.365392298,-1.466720343,-2.225642443,6.161613464,0.899517,-0.314885676,-0.00726065,0.078948535,-0.45189029,0.805779994,3.01249218
2.454948902,0.29984197,0.364303529,-1.515312791,-2.282515287,6.462400913,1.041289568,-0.3169128,-0.006304508,0.067437127,-0.472893953,0.835773468,2.9982934
2.459949017,0.240131915,0.419702083,-1.448838949,-2.444148064,6.778144836,1.188672781,-0.317584962,-0.005987469,0.063620165,-0.496494979,0.867162347,2.98291564
2.464950323,0.429262996,0.526054382,-1.520242333,-2.443650723,6.985668659,1.288221836,-0.318102121,-0.005743529,0.060683265,-0.522147596,0.899505377,2.965528488
2.469952583,0.653198838,0.539748788,-1.422869563,-2.386252642,7.127594948,1.40866673,-0.319076121,-0.004133731,0.048501235,-0.549061716,0.932625175,2.946285248
2.474949837,0.968937159,0.753550172,-1.586668968,-2.370716333,7.255659103,1.445727825,-0.320636988,-0.001349131,0.027794741,-0.578951955,0.966011882,2.924279213
2.479948044,1.302720785,0.978598654,-1.747702956,-2.323116064,7.087676048,1.455225229,-0.321154535,-0.000425811,0.02092886,-0.610864639,0.997894287,2.900491714
2.484947205,1.455873609,1.054814696,-1.810414314,-2.241638899,6.832944393,1.439839482,-0.321552783,0.000284622,0.015646031,-0.64418745,1.028054714,2.874960423
2.489947557,1.701265693,1.126568437,-1.75868094,-2.131440163,6.509851456,1.526878238,-0.321684837,0.000520188,0.013894345,-0.677849531,1.056758642,2.848881483
2.494948864,2.047295332,1.19304049,-1.828201771,-1.944118738,6.105833054,1.626180887,-0.320628494,0.008021465,-0.018835176,-0.71073252,1.083812952,2.822811127
2.499951124,1.944442272,1.156525373,-1.447129607,-1.657656789,5.833681583,1.802899718,-0.320278227,0.010508746,-0.029687665,-0.74266398,1.110236645,2.797120571
2.504948139,1.977541208,1.093797445,-1.495622516,-1.321936369,5.572012901,1.872756004,-0.320008695,0.01242254,-0.038037919,-0.773714304,1.135675311,2.770308733
2.509946346,1.816351175,0.902939439,-1.342958212,-1.117900848,5.26315403,1.928473949,-0.319919348,0.013057117,-0.040806703,-0.803539813,1.159855247,2.743446589
2.514945507,1.389873743,0.679792285,-1.423867583,-0.933820128,4.882143497,1.928652406,-0.316198289,0.019909453,-0.061580773,-0.832011282,1.182184219,2.716697454
2.519945621,0.882945895,0.475924253,-1.460663199,-0.678001702,4.196483612,1.890578747,-0.314060658,0.023756364,-0.073082492,-0.854740739,1.201588869,2.694375277
2.52494669,0.45270741,0.330312431,-1.710575938,-0.525651634,3.290578127,1.778081775,-0.312415898,0.026716303,-0.081932284,-0.868768096,1.216847777,2.679806948
2.529948711,0.289767176,0.399331808,-1.893043637,-0.501103044,2.347028732,1.666248798,-0.311870515,0.027697762,-0.08486671,-0.873849392,1.227891803,2.674941778
2.534945726,0.343493968,0.467706114,-1.531226277,-0.466432482,1.873950243,1.655785084,-0.30910778,0.032206543,-0.094479315,-0.876148582,1.237952232,2.674157619
2.539949894,0.809145749,0.544143617,-1.795950413,-0.471565515,1.513352156,1.59014535,-0.305828929,0.037486698,-0.105083182,-0.875455976,1.246954799,2.675906897
2.544949293,0.372511804,0.548897445,-1.763028622,-0.425855398,0.962630033,1.525967717,-0.303306103,0.041549422,-0.113242142,-0.867633045,1.253289342,2.68514061
2.549949169,-0.059867375,0.497649223,-1.436749816,-0.395663083,0.617680907,1.510046005,-0.302469581,0.042896543,-0.1159475,-0.85733968,1.258792043,2.69763875
2.554950476,0.037503816,0.635185838,-1.319635749,-0.320783705,0.266906083,1.464317918,-0.301825941,0.04393306,-0.118029088,-0.843804479,1.263047338,2.713778734
2.559952497,0.171851024,0.768025935,-1.330754757,-0.119086355,-0.193860129,1.380439639,-0.300587952,0.049441241,-0.123988204,-0.82452333,1.265131474,2.73515296
2.564949751,0.127096802,0.778653085,-1.23246181,0.150783375,-0.687375665,1.214322925,-0.29963541,0.05367941,-0.128573343,-0.799779415,1.264689922,2.760901928
2.56994772,0.043626577,0.753460586,-1.174076557,0.403020978,-0.99963969,1.072582364,-0.299319535,0.055084705,-0.130093694,-0.77262795,1.262637854,2.787827969
2.57494688,-0.102114782,0.681349397,-1.060537815,0.62289232,-1.229397774,0.921580195,-0.299076498,0.056165986,-0.131263494,-0.744213939,1.259192705,2.8149786
2.579946756,-0.24659875,0.591487467,-0.952044785,0.791035056,-1.398860097,0.738196373,-0.299925804,0.059051327,-0.131720319,-0.716146529,1.25446105,2.840909958
2.584948063,-0.319697589,0.504643202,-0.875291884,0.90744102,-1.510043502,0.555818319,-0.301519513,0.063826397,-0.132141531,-0.689516962,1.248667479,2.86469388
2.589950323,-0.339474261,0.409193218,-0.834010541,0.965644121,-1.602909446,0.385311007,-0.302047938,0.06540972,-0.132281199,-0.664334834,1.241956949,2.886423588
2.594947577,-0.350042135,0.310657352,-0.800454438,0.950809956,-1.687688589,0.227740049,-0.302454561,0.066627979,-0.132388666,-0.640992105,1.23440659,2.906117916
2.599945784,-0.339558393,0.214670673,-0.786735892,0.878473043,-1.773217797,0.083444826,-0.302589387,0.067031935,-0.132424295,-0.619608462,1.226046324,2.92394948
2.604944944,-0.305771112,0.131918848,-0.785165012,0.763612986,-1.8721807,-0.039940137,-0.307889819,0.068819806,-0.129431099,-0.600021243,1.216902733,2.94031477
2.609945059,-0.265714198,0.074587837,-0.783462524,0.616646707,-1.985941768,-0.136709511,-0.309647322,0.069412626,-0.128438607,-0.582087636,1.206975579,2.95559597
2.614946127,-0.2186106,0.049726747,-0.778268933,0.471419066,-2.11634326,-0.204035804,-0.310999632,0.069868766,-0.127674952,-0.565467775,1.196280479,2.97026515
2.619948626,-0.164018437,0.065160334,-0.767462194,0.344201624,-2.256236553,-0.241502732,-0.311448038,0.070020013,-0.127421737,-0.549908519,1.184832811,2.984641314
2.624946117,-0.112443283,0.110178672,-0.752703786,0.254978865,-2.403356791,-0.255866379,-0.316126376,0.069347069,-0.122611418,-0.535075307,1.172652483,2.999000788
2.629944324,-0.069252893,0.155983061,-0.741309702,0.21439454,-2.537195206,-0.256219447,-0.318749905,0.068928614,-0.119874291,-0.520672739,1.159823179,3.013325453
2.634943247,-0.039800242,0.197736904,-0.735906065,0.230922654,-2.657889366,-0.250648797,-0.320768565,0.068606645,-0.117768258,-0.506440461,1.146408916,3.027552366
2.639943123,-0.011551655,0.227561757,-0.741185188,0.294476211,-2.7635777,-0.251581222,-0.321437895,0.068499885,-0.11706993,-0.492319465,1.132468581,3.041432858
2.644944191,0.029616468,0.238152936,-0.747993588,0.384307235,-2.86228919,-0.261208892,-0.324754417,0.068130389,-0.112797819,-0.478202581,1.118008018,3.05489254
2.649946451,0.068750672,0.230609462,-0.761202455,0.486579597,-2.967694998,-0.279691279,-0.328679144,0.067718104,-0.107615113,-0.464048713,1.102972865,3.067834854
2.654943466,0.111019522,0.218937963,-0.773497343,0.581208408,-3.068344116,-0.293061107,-0.331698954,0.06740088,-0.103627376,-0.449902833,1.087420225,3.080267191
2.659941673,0.153400645,0.199435368,-0.791361511,0.662028909,-3.174850702,-0.292214006,-0.332700253,0.067295693,-0.102305114,-0.435665011,1.071341515,3.092340946
2.664940596,0.192841768,0.177162886,-0.805418015,0.726065516,-3.282348871,-0.287174731,-0.333470702,0.067214765,-0.101287723,-0.421410054,1.054745674,3.104107857
2.669940948,0.224956959,0.153891087,-0.821160316,0.772793472,-3.39369154,-0.274507582,-0.338761657,0.066453762,-0.091748111,-0.407136679,1.037615657,3.115672112
2.674947977,0.247231036,0.130599916,-0.8391307,0.793849409,-3.493486166,-0.255838871,-0.342832685,0.065868214,-0.084408037,-0.393069088,1.020009041,3.126930952
2.679950237,0.266819239,0.115919121,-0.858570278,0.794751883,-3.589894772,-0.228709117,-0.344182581,0.065674059,-0.081974201,-0.379227996,1.001948118,3.137970924
2.684947729,0.293516666,0.11311616,-0.879073977,0.781475902,-3.675586462,-0.194898278,-0.345221221,0.065524668,-0.080101535,-0.365733385,0.983498216,-3.13437295
2.689945698,0.343397826,0.115714423,-0.909417629,0.759668648,-3.768305779,-0.154722393,-0.348340213,0.0648605,-0.073612206,-0.352568567,0.964640021,-3.123631716
2.694944859,0.387306362,0.130200386,-0.93310374,0.731832504,-3.869417191,-0.123518094,-0.353545636,0.063727975,-0.062685251,-0.339848399,0.945305347,-3.113040209
2.699944735,0.4370673,0.149801746,-0.953740358,0.700811982,-3.973289967,-0.095521748,-0.355271637,0.063352451,-0.059062079,-0.3276214,0.925485492,-3.102639675
2.704945564,0.478300273,0.177893013,-0.963623703,0.671705067,-4.079741478,-0.073192999,-0.356599689,0.063063517,-0.056274295,-0.315933764,0.905165315,-3.092450142
2.709947586,0.517022371,0.207737386,-0.967667162,0.646570563,-4.181930542,-0.064215273,-0.357040048,0.06296771,-0.05534992,-0.304841489,0.884366393,-3.082531929
2.714944839,0.542562008,0.235386729,-0.968771935,0.630468786,-4.274003983,-0.077257343,-0.362968504,0.061739303,-0.037513111,-0.294446588,0.863085628,-3.073061705
2.719942808,0.570275664,0.265738606,-0.97401011,0.621943355,-4.355089664,-0.102682427,-0.364934266,0.061331984,-0.031598762,-0.284757406,0.841368198,-3.064163923
2.724941969,0.595791161,0.297049195,-0.977040648,0.622338057,-4.429606915,-0.15023686,-0.366446793,0.061018579,-0.027048074,-0.275793552,0.81923902,-3.055924416
2.729942083,0.616433442,0.311229706,-0.980572701,0.62452364,-4.487607479,-0.221783906,-0.366948307,0.060914662,-0.02553915,-0.267594516,0.796752214,-3.048564434
2.734942913,0.634528041,0.321294278,-0.987537801,0.617431402,-4.531713963,-0.316164136,-0.370561153,0.060061447,-0.01007152,-0.260293633,0.773959041,-3.042114258
2.739945173,0.652528584,0.310246974,-0.994671702,0.60319078,-4.564692497,-0.436148763,-0.37255761,0.059587196,-0.001402532,-0.25391382,0.750878632,-3.036810398
2.744942665,0.668027937,0.290281385,-1.007293463,0.568286479,-4.584422112,-0.566574037,-0.374093771,0.059222288,0.005267664,-0.248507798,0.727586627,-3.032666206
2.749940634,0.693471611,0.274626642,-1.023553491,0.513198972,-4.598679543,-0.706526756,-0.374603122,0.059101295,0.007479375,-0.244180202,0.704110265,-3.02966547
2.754939795,0.713989735,0.251316875,-1.038200498,0.437134922,-4.610987663,-0.84317106,-0.375928164,0.058069039,0.018140063,-0.240881562,0.680474401,-3.027678967
2.759939909,0.731807232,0.222030669,-1.05496645,0.335693121,-4.619175434,-0.972363353,-0.377308488,0.05677972,0.030709086,-0.238642544,0.656713724,-3.026624918
2.764941216,0.760188997,0.210568771,-1.07289958,0.218410417,-4.63104105,-1.088228583,-0.378370523,0.055787675,0.040380094,-0.237446293,0.632831156,-3.026323557
2.769943476,0.792924106,0.227905929,-1.086562753,0.10446173,-4.642017365,-1.194249868,-0.378722668,0.055458736,0.043586817,-0.237246871,0.608857632,-3.026622772
2.774940729,0.835849404,0.275851637,-1.091847539,0.012599785,-4.656057835,-1.288755059,-0.37899366,0.055205636,0.046054177,-0.237885192,0.584803343,-3.027307749
2.779938698,0.853783309,0.341068894,-1.096745849,-0.030253502,-4.66042757,-1.376679778,-0.379316628,0.051206298,0.062698096,-0.23907949,0.560673475,-3.028291225
2.78493762,0.853924036,0.396825671,-1.099265814,-0.014880924,-4.643969059,-1.462223887,-0.37956512,0.048129078,0.075504459,-0.240448698,0.536568105,-3.029617548
2.789938211,0.859523475,0.445129037,-1.114885926,0.048629485,-4.607863426,-1.542999029,-0.379647523,0.047108732,0.079750814,-0.241716623,0.512603641,-3.031299591
2.794939041,0.863060355,0.455103397,-1.137280345,0.137692094,-4.555505753,-1.618987918,-0.379710913,0.046323642,0.083018094,-0.242635369,0.488830328,-3.033407688
2.799941301,0.896068931,0.453748375,-1.190356016,0.229134679,-4.51336813,-1.682567239,-0.379459083,0.042823821,0.093238138,-0.243147373,0.465298593,-3.03590107
2.804938793,0.952602625,0.433413684,-1.24274683,0.30603227,-4.493721008,-1.738827705,-0.378989398,0.036855306,0.110340379,-0.243258834,0.441894233,-3.038720131
2.809942961,1.020341277,0.40740338,-1.294149399,0.36396724,-4.497289181,-1.797837377,-0.378833681,0.034876257,0.116011165,-0.243057996,0.418524891,-3.041857958
2.814942122,1.079198599,0.373146623,-1.334680557,0.397699624,-4.528095722,-1.852730393,-0.378713876,0.033353515,0.120374441,-0.242627367,0.39505291,-3.045285702
2.819942474,1.133039355,0.359523922,-1.369051933,0.409779072,-4.588527203,-1.896497726,-0.37867415,0.032848604,0.121821225,-0.242080942,0.371352911,-3.04886055
2.824943304,1.176114202,0.357279062,-1.380075336,0.411337227,-4.662374496,-1.932580829,-0.375361294,0.023003839,0.144010797,-0.241479918,0.347361147,-3.052506685
2.829945564,1.201298237,0.368832529,-1.368357897,0.418129325,-4.729344368,-1.967570782,-0.37426284,0.019739501,0.151368439,-0.240817845,0.323104024,-3.05616188
2.834942818,1.213444233,0.396915972,-1.34830606,0.4499152,-4.777434349,-1.996948719,-0.373417616,0.017227815,0.157029644,-0.239981949,0.298664272,-3.059798241
2.839940786,1.221864462,0.434673756,-1.321174026,0.511329591,-4.794466972,-2.007726431,-0.373137385,0.016394988,0.158906788,-0.238810882,0.274242282,-3.063326359
2.844939947,1.245490551,0.467149466,-1.282631636,0.597362936,-4.790402412,-1.995948434,-0.368481725,0.00821167,0.178182885,-0.23714523,0.250004113,-3.066739559
2.849940538,1.281166792,0.48856461,-1.227914929,0.700227082,-4.770051003,-1.961783409,-0.365839303,0.003631819,0.188986987,-0.234871954,0.226076126,-3.069890976
2.854941607,1.334990621,0.474448651,-1.174663901,0.792247474,-4.725491524,-1.902437687,-0.363806129,0.000107935,0.197300017,-0.231991023,0.202631325,-3.072832346
2.859943628,1.422277689,0.419112176,-1.117884398,0.858912289,-4.668839931,-1.823285937,-0.36313197,-0.001060518,0.200056463,-0.228539631,0.179800391,-3.075582743
2.864940882,1.535754442,0.36844483,-1.065530777,0.864440084,-4.60962534,-1.717574596,-0.358779758,-0.006068127,0.212071866,-0.224876553,0.15767312,-3.078072309
2.86993885,1.647127271,0.373489439,-0.985507369,0.802653491,-4.560705662,-1.581841469,-0.353470922,-0.011871614,0.226033509,-0.221502557,0.136188298,-3.079883814
2.874938011,1.732372046,0.379789561,-0.875896156,0.708380401,-4.488012314,-1.427046537,-0.349386156,-0.016337004,0.236776054,-0.218559802,0.115413636,-3.080939054
2.879938126,1.797728896,0.390128255,-0.747247219,0.591715932,-4.386741638,-1.261165142,-0.348031729,-0.017817641,0.240338072,-0.216182217,0.095503218,-3.081195354
2.884939194,1.831730962,0.385680199,-0.604037106,0.468997359,-4.237044334,-1.101753116,-0.346989602,-0.018956892,0.243078798,-0.214406788,0.076614782,-3.080793142
2.889941454,1.83895576,0.367984861,-0.452804506,0.340268791,-4.044852257,-0.950508296,-0.338094831,-0.024540633,0.259297639,-0.213233501,0.058892097,-3.079870701
2.894938946,1.836364508,0.340575546,-0.314063877,0.196099311,-3.819875717,-0.803881228,-0.331250936,-0.028836943,0.271776944,-0.212763742,0.042485785,-3.078489542
2.899936914,1.82484901,0.293745816,-0.186801255,0.029748533,-3.562905312,-0.66717881,-0.328981638,-0.030261518,0.275914848,-0.213085875,0.027491467,-3.07676959
2.904936075,1.832360268,0.218223467,-0.091894932,-0.161531419,-3.284789801,-0.551236451,-0.32723555,-0.031357631,0.27909869,-0.214288905,0.014041817,-3.074926376
2.90993619,1.868481636,0.126054123,-0.012193481,-0.371533364,-2.99886775,-0.474625885,-0.321089447,-0.033541746,0.288354993,-0.21643877,0.002150959,-3.073222876
2.914937258,1.92831862,0.066398673,0.062945507,-0.580149055,-2.72626543,-0.44183746,-0.310731173,-0.037063248,0.303769201,-0.219598398,-0.008249837,-3.071734905
2.919939518,1.979834795,0.07622239,0.145032629,-0.749943733,-2.461770296,-0.435643345,-0.307296574,-0.038230915,0.30888027,-0.223698571,-0.017291784,-3.07031703
2.92493701,1.999298811,0.128570989,0.234332383,-0.836773276,-2.190122604,-0.431080043,-0.304653883,-0.039129354,0.312812865,-0.228322998,-0.024993276,-3.068840981
2.929935217,1.994891167,0.185524881,0.32140249,-0.825689733,-1.890936136,-0.420473158,-0.303777605,-0.039427258,0.314116865,-0.232963741,-0.031233592,-3.067327023
2.934934378,1.99809289,0.231307983,0.390612423,-0.739848912,-1.562506914,-0.404644489,-0.292399794,-0.04475062,0.326783985,-0.237199023,-0.035829831,-3.065867424
2.939934492,2.012413263,0.242754236,0.46219781,-0.607937753,-1.226718187,-0.374588579,-0.288627148,-0.046515744,0.330984145,-0.240737006,-0.038711566,-3.0645473
2.944941521,2.009708643,0.269231528,0.514473617,-0.44302541,-0.887870073,-0.318177432,-0.285724342,-0.047873888,0.334215909,-0.243485987,-0.039865926,-3.063150883
2.949943781,1.987930298,0.294841111,0.553972781,-0.273687184,-0.54053396,-0.233050257,-0.284761816,-0.04832422,0.335287511,-0.245430321,-0.039282568,-3.061601639
2.954941273,1.969100237,0.327651829,0.559179187,-0.112527184,-0.203130066,-0.126228765,-0.279450417,-0.052525517,0.340794832,-0.246629804,-0.036933213,-3.059821606
2.959939241,1.940006495,0.371127874,0.53879267,0.040282067,0.135044962,0.000639446,-0.276558191,-0.054872464,0.343779713,-0.24714461,-0.03282826,-3.05768466
2.964938164,1.918124437,0.402475417,0.493607253,0.160226524,0.451118529,0.139350787,-0.274332821,-0.056678284,0.346076399,-0.247108489,-0.027031785,-3.05517292
2.969938517,1.061300278,0.423076719,0.262071729,0.42728138,1.039122462,0.337486118,-0.273594946,-0.057277057,0.346837938,-0.246016294,-0.019974863,-3.05267477
2.974939346,1.134848833,0.332313657,0.439973295,0.670896232,2.133391857,0.675847232,-0.272517115,-0.058375031,0.348209172,-0.242116362,-0.006762512,-3.050734997
2.979941607,2.388432264,0.914227247,0.887786865,0.878038168,2.830747128,0.939501941,-0.271645367,-0.059381701,0.349455684,-0.24052456,0.01436966,-3.044004917
2.98493886,0.4912076,0.636885345,1.099642396,1.409024477,3.062598228,1.017506361,-0.270974636,-0.060156263,0.350414842,-0.234297782,0.030825691,-3.039467335
2.989936829,-0.35613367,0.304891616,0.815494895,1.444588423,3.534660339,1.098106265,-0.270752221,-0.060413096,0.350732863,-0.22734423,0.04807188,-3.03724885
2.994935989,0.591870785,0.547720373,-0.263670236,1.370987296,4.099727631,1.093287945,-0.270581096,-0.060610708,0.35097757,-0.221376479,0.071213514,-3.034599066
2.999936342,0.558086097,0.358781636,-1.347038746,1.040459394,4.149608612,0.82556361,-0.278098375,-0.056329571,0.343859106,-0.216129705,0.093581133,-3.035131693
3.004937172,-0.196854115,0.345872045,-1.606235027,0.950750411,4.106869221,0.583917022,-0.283882439,-0.053035524,0.338381916,-0.211866364,0.113031857,-3.037457943
3.009939432,-0.347310692,0.851452231,-1.960819364,1.197941661,4.241536617,0.344075471,-0.285800308,-0.05194328,0.336565793,-0.207018241,0.133185282,-3.038837671
3.014936924,-0.710166454,0.524364352,-2.060963154,1.097763181,4.27237463,0.217303097,-0.287276,-0.051102873,0.335168421,-0.202033535,0.152218729,-3.042761803
3.019934654,0.062365666,0.379630685,-1.53699553,1.289131045,4.72620821,0.022579607,-0.29497245,-0.048087172,0.328656346,-0.196471184,0.175507903,-3.047279596
3.024933815,0.461738169,-0.333532959,-1.43532896,1.169348598,5.097441196,0.043756768,-0.308181942,-0.042999219,0.3175295,-0.189988524,0.201353312,-3.054387093
3.029933929,0.990223467,-1.0006212,-1.382226348,0.524013758,5.420356274,0.146068275,-0.312561989,-0.041312151,0.313840032,-0.186149046,0.229808182,-3.063120365
3.034934998,1.793235183,-0.943540037,-1.56567049,-0.010638624,5.427661896,0.088029295,-0.315932125,-0.040014066,0.311001241,-0.185586303,0.259578913,-3.071091652
3.039937019,2.338465929,-0.905100167,-1.860220075,-0.464303851,5.076189995,0.02982923,-0.317049593,-0.039583646,0.310059965,-0.187444419,0.287733674,-3.079148769
3.044934511,2.910368204,-0.562476635,-2.014181852,-0.768764198,4.453446388,0.011066392,-0.335033655,-0.036541391,0.289287597,-0.191375703,0.313282371,-3.085603237
3.04993248,3.118881464,-0.197761625,-2.056570292,-1.103926182,3.652396441,0.163118258,-0.340996832,-0.035532635,0.282399893,-0.197098076,0.334792912,-3.089440584
3.054931641,2.985949039,0.272422791,-1.846715212,-1.247314692,2.918426037,0.336210221,-0.345585078,-0.034756467,0.277100235,-0.203947753,0.352543235,-3.089910269
3.059931993,2.348886251,0.672090948,-1.549444675,-1.154110312,2.391894102,0.415822804,-0.347106457,-0.034499105,0.275343001,-0.21066232,0.366708934,-3.088408232
3.064933062,1.512581229,0.94374156,-1.231811881,-0.996613085,2.053026676,0.383636206,-0.359541506,-0.035691518,0.259322256,-0.216977611,0.378024548,-3.086261511
3.069935083,0.767155528,1.035791278,-0.99060601,-0.820177794,1.915045381,0.295758247,-0.366452157,-0.036430966,0.250380278,-0.222749203,0.387632012,-3.084449053
3.074932575,0.370119214,0.972135425,-0.881904662,-0.624956191,1.886048913,0.198094264,-0.371769428,-0.036999922,0.243500054,-0.227576926,0.396696121,-3.083604336
3.079936743,0.247239351,0.796765745,-0.812930822,-0.467719167,1.890669942,0.121313035,-0.373532534,-0.037188575,0.241218686,-0.231486872,0.405700505,-3.083813906
3.084936142,0.344298124,0.600159228,-0.819713116,-0.31444487,1.860499382,0.124039054,-0.377555758,-0.037809066,0.235493213,-0.234282747,0.414856434,-3.084573746
3.089936495,0.499852538,0.353232682,-0.811912835,-0.169664487,1.762749314,0.200537547,-0.381578803,-0.038494136,0.229591295,-0.235669196,0.423839271,-3.085458517
3.094937563,0.735913277,0.221757576,-0.837601006,-0.080260746,1.629141688,0.303692281,-0.384674251,-0.039021254,0.225050166,-0.236068919,0.432685584,-3.085849285
3.099939823,0.961045384,0.304323763,-0.912744105,-0.031506892,1.41172564,0.360662639,-0.385700643,-0.039196033,0.223544404,-0.236241087,0.440726757,-3.085281372
3.104937077,0.97612983,0.3730506,-0.964765489,0.017931029,1.200385094,0.318615317,-0.386490375,-0.039330516,0.222385824,-0.236279339,0.447563708,-3.084565878
3.109935045,0.809094131,0.358869284,-0.97183013,0.061383221,1.008947968,0.247486547,-0.39032945,-0.039121527,0.214411095,-0.236177012,0.452974826,-3.084208727
3.114934206,0.580335557,0.259620279,-0.955755234,0.074527614,0.917562664,0.215110138,-0.393283367,-0.038960721,0.208275095,-0.235815674,0.457616746,-3.084290743
3.119934559,0.50764519,0.240188345,-1.008295417,0.080442406,0.850134015,0.196721435,-0.39426285,-0.038907401,0.20624052,-0.235406339,0.461880475,-3.084427595
3.124935389,0.544614136,0.208528608,-1.050159335,0.089181915,0.773788691,0.197699681,-0.395016491,-0.038866378,0.204675034,-0.234846711,0.465845406,-3.084565878
3.129937887,0.572178185,0.161951587,-1.018489957,0.097887933,0.708525538,0.235466674,-0.396723896,-0.038263362,0.202455759,-0.234022081,0.469597787,-3.084471464
3.134935617,0.545509219,0.160091311,-0.972710907,0.105651915,0.670951664,0.264587879,-0.399511367,-0.03720339,0.199029014,-0.233042553,0.473204613,-3.084066868
3.139934063,0.533943892,0.179684967,-0.95733887,0.103111945,0.631712019,0.24806504,-0.400435627,-0.036851924,0.19789277,-0.232213125,0.476578593,-3.08367157
3.144933224,0.579856932,0.197386041,-0.95000118,0.09131363,0.58680743,0.230840668,-0.401146799,-0.036581498,0.197018519,-0.231491089,0.479797721,-3.083264589
3.1499331,0.610004306,0.202654555,-0.929028511,0.083407365,0.5234797,0.207458124,-0.401382595,-0.03649183,0.196728617,-0.230859891,0.48272717,-3.082865953
3.154934645,0.595108807,0.175636619,-0.89092803,0.060609043,0.474558324,0.186201066,-0.402680963,-0.035227321,0.192006662,-0.23029162,0.485380948,-3.082592726
3.159936905,0.62854284,0.122722343,-0.907719851,0.021123372,0.420879453,0.159979656,-0.403111488,-0.034808032,0.190440953,-0.229886591,0.487801909,-3.082571507
3.164934397,0.558379948,0.105324462,-0.881191194,-0.010782236,0.391758144,0.162354678,-0.40344274,-0.034485418,0.189236239,-0.229578137,0.48997277,-3.082520485
3.169932604,0.478344321,0.164316863,-0.909825504,-0.036182042,0.376128137,0.166984171,-0.403552592,-0.034378447,0.188836783,-0.229520142,0.491915494,-3.082247257
3.174931765,0.414155692,0.231405646,-0.918245733,-0.030528247,0.382848471,0.181964159,-0.404482663,-0.03338002,0.186942354,-0.229497328,0.49380073,-3.081720591
3.179931879,0.362905443,0.298315316,-0.911906183,-0.003472179,0.409460098,0.217564583,-0.405000269,-0.032822262,0.185921475,-0.229375705,0.495809257,-3.080863476
3.184933424,0.371380329,0.34300524,-0.896917462,0.032963894,0.427701205,0.241775125,-0.405398548,-0.032393109,0.18513599,-0.229064867,0.497973114,-3.079752684
3.189935446,0.409324497,0.345994979,-0.907037437,0.08146143,0.447570354,0.255930007,-0.405530632,-0.03225081,0.184875533,-0.228459209,0.500308931,-3.078645468
3.194932461,0.442928046,0.306369066,-0.90222019,0.133965626,0.483415514,0.246062472,-0.40616399,-0.031937085,0.183807641,-0.227573559,0.502873182,-3.077743292
3.199930429,0.509389639,0.217544258,-0.900418818,0.156986102,0.506359994,0.225266054,-0.406910181,-0.031627111,0.182578772,-0.226444349,0.505634308,-3.077245712
3.20492959,0.560811222,0.148661286,-0.905513823,0.144901887,0.489490151,0.20717752,-0.407484323,-0.031388607,0.181633234,-0.225316882,0.508363008,-3.077005863
3.209929466,0.57862854,0.133040011,-0.880135238,0.129258186,0.467748493,0.195510536,-0.4076747,-0.031309526,0.181319714,-0.224311218,0.510958374,-3.076754093
3.214936733,0.531878173,0.173931837,-0.867227972,0.117760167,0.440820485,0.161549836,-0.407821178,-0.031248678,0.181078479,-0.22351034,0.513279259,-3.076503754
3.219938993,0.515101314,0.194069594,-0.868756056,0.111771382,0.431954354,0.130189687,-0.408425689,-0.030056557,0.180225149,-0.222906098,0.515528381,-3.076400518
3.224936485,0.531817079,0.18803589,-0.872078419,0.113358311,0.423156559,0.109796382,-0.408890814,-0.029139301,0.179568574,-0.222298145,0.517750084,-3.076428413
3.229934692,0.527957797,0.191184014,-0.870608807,0.115947932,0.412739605,0.09533222,-0.409045041,-0.028835155,0.179350868,-0.221711636,0.519889653,-3.07648921
3.234934092,0.516399801,0.197059035,-0.873249352,0.113236174,0.389616758,0.085412905,-0.409163713,-0.028601138,0.179183349,-0.221163049,0.521865129,-3.07657361
3.239933968,0.512368798,0.209842324,-0.87492758,0.117187791,0.364465088,0.089165166,-0.409875363,-0.028121583,0.177502036,-0.22058402,0.523726165,-3.076565266
3.244935274,0.513679326,0.223758981,-0.871144652,0.132123291,0.332196981,0.104591981,-0.411102682,-0.027346153,0.174564481,-0.219901875,0.525425494,-3.076365709
3.249937296,0.494342923,0.229179561,-0.870012403,0.163413912,0.306891024,0.137394324,-0.411509663,-0.027089035,0.173590422,-0.21893616,0.527024209,-3.075941563
3.254934549,0.48542729,0.255259782,-0.858599067,0.195922732,0.285556287,0.152082875,-0.411822796,-0.026891202,0.172840953,-0.217807263,0.52850467,-3.075314999
3.259932756,0.490933239,0.272936612,-0.847375691,0.239423931,0.274177432,0.17034857,-0.411926597,-0.026825603,0.172592461,-0.216425523,0.529981613,-3.074537992
3.264931679,0.510067284,0.298562795,-0.837351441,0.281630576,0.251065522,0.182609797,-0.412468672,-0.026237419,0.171174929,-0.214855731,0.531396151,-3.073571682
3.269931555,0.523858726,0.276735336,-0.8282305,0.314938545,0.228482202,0.187285125,-0.41264841,-0.026042389,0.170704916,-0.213024259,0.532714605,-3.072624922
3.274932623,0.542792618,0.251719207,-0.831453919,0.348997772,0.213983908,0.199464008,-0.412786722,-0.025892325,0.170343265,-0.210940853,0.534010053,-3.071671724
3.279934883,0.524832964,0.206601754,-0.810934186,0.353515476,0.187507138,0.199857995,-0.412832588,-0.025842566,0.17022334,-0.208705127,0.535143435,-3.070731878
3.284932137,0.553937078,0.167512387,-0.83348459,0.334552139,0.172367692,0.188457623,-0.412883937,-0.024491344,0.169242859,-0.206570446,0.53625977,-3.069967031
3.289930344,0.550131559,0.129827246,-0.831184149,0.317325503,0.157818437,0.175176188,-0.412904948,-0.023718415,0.168697953,-0.204492405,0.537264347,-3.069346189
3.294929266,0.552196026,0.124583848,-0.83555907,0.294593811,0.147094533,0.163397506,-0.412921101,-0.0231237,0.168278694,-0.202542588,0.538219035,-3.068776131
3.299929619,0.538700879,0.129384458,-0.834996343,0.266753495,0.134305626,0.139429435,-0.412926465,-0.022926502,0.168139681,-0.200834826,0.539041579,-3.068308353
3.304930449,0.527126789,0.134486601,-0.843635321,0.247532696,0.131962702,0.120677464,-0.413441062,-0.022218734,0.167832047,-0.199287117,0.539826512,-3.067961931
3.309932709,0.516584277,0.144202635,-0.843313873,0.225750551,0.129820332,0.107497983,-0.414126456,-0.021423344,0.167527691,-0.197912425,0.54055202,-3.067638874
3.314929962,0.498730749,0.150779858,-0.845488369,0.217963219,0.140655965,0.1072561,-0.414653867,-0.020811345,0.167293504,-0.196575254,0.541309416,-3.06730938
3.319928169,0.50809741,0.153194502,-0.847716153,0.206688836,0.153253019,0.097767763,-0.414828718,-0.020608418,0.167215854,-0.195337519,0.542160213,-3.067042589
3.324927807,0.508578539,0.168940783,-0.841113865,0.196556851,0.163062081,0.086759858,-0.414963245,-0.02045228,0.1671561,-0.194214314,0.5430336,-3.066779852
3.329927921,0.516159177,0.165987417,-0.833686888,0.189337865,0.170773968,0.065560117,-0.415262341,-0.01973857,0.16677399,-0.193181321,0.543946981,-3.066676378
3.334929228,0.512574673,0.177265301,-0.830193996,0.179938152,0.172131658,0.037618253,-0.415492475,-0.019189419,0.166479975,-0.192310706,0.544828355,-3.066705942
3.33993125,0.515508831,0.166773751,-0.820743799,0.159051418,0.169856071,0.0191947,-0.415568769,-0.019007331,0.166382492,-0.191575468,0.54570049,-3.066867352
3.344928265,0.519691169,0.160760686,-0.811685681,0.129201189,0.172391236,0.015784256,-0.41562748,-0.018867226,0.166307479,-0.191019952,0.546582878,-3.067056894
3.349932194,0.522990227,0.160267949,-0.810431659,0.105899878,0.169199452,0.018820826,-0.415733665,-0.01853464,0.165843293,-0.19055146,0.547468245,-3.06719327
3.354931355,0.507481158,0.16839157,-0.825553775,0.083484173,0.168198496,0.028249249,-0.415903062,-0.017989414,0.165041924,-0.19017826,0.548294187,-3.067263126
3.359931707,0.501719475,0.175708964,-0.827478528,0.060192194,0.166421175,0.034318957,-0.415959209,-0.017808627,0.164776206,-0.189917654,0.549124897,-3.067264795
3.364932775,0.505513251,0.177289322,-0.826846182,0.050820887,0.156230599,0.035580903,-0.416002452,-0.017669523,0.164571747,-0.189694971,0.54989481,-3.067243338
3.369935036,0.501144528,0.174777046,-0.829959869,0.043633386,0.150247604,0.03674126,-0.416016787,-0.0176234,0.164503962,-0.189472169,0.550634444,-3.067224026
3.374932528,0.500299215,0.170673162,-0.830777466,0.027537143,0.142121419,0.03386372,-0.415964276,-0.017325377,0.1637647,-0.189353362,0.551316619,-3.067229033
3.379930258,0.506800294,0.170532897,-0.835326016,0.020090103,0.145240262,0.034267418,-0.415946871,-0.017226558,0.163519576,-0.189264521,0.552049458,-3.067232847
3.384929419,0.511927068,0.17683208,-0.838048339,0.013276613,0.145131558,0.038532827,-0.41593349,-0.017150523,0.163330972,-0.189171106,0.552786589,-3.067196369
3.389929771,0.511663616,0.179105207,-0.835633397,-0.002368768,0.14046219,0.023447819,-0.415929019,-0.017125312,0.163268432,-0.189251289,0.553475142,-3.067247629
3.394931316,0.521417081,0.142062172,-0.842869222,-0.01102676,0.136831746,0.030854246,-0.416273296,-0.016895555,0.163276076,-0.189259037,0.55416429,-3.067368984
3.399933338,0.51769799,0.147231579,-0.844715238,-0.017055023,0.132232904,0.040610943,-0.416473508,-0.016767317,0.163292408,-0.189259097,0.554831982,-3.067340374
3.404931068,0.516884387,0.152175546,-0.845737398,-0.025116738,0.129794016,0.049680434,-0.416627556,-0.016668649,0.16330497,-0.189288467,0.555486798,-3.067275524
3.409929276,0.507153571,0.168768778,-0.84691602,-0.040922444,0.135075495,0.045377795,-0.416678637,-0.016635932,0.163309142,-0.189455777,0.55614543,-3.067195177
3.414928436,0.508551061,0.160812095,-0.847181857,-0.052388176,0.135444716,0.049307257,-0.416826874,-0.016673231,0.16255641,-0.189648032,0.556817532,-3.067137718
3.419928312,0.512707174,0.153684616,-0.85434413,-0.052472562,0.140355811,0.055447981,-0.416985869,-0.016748596,0.161544517,-0.189803973,0.557530105,-3.067076921
3.42492938,0.503354728,0.175978854,-0.854647458,-0.062568426,0.148165137,0.060466848,-0.417108208,-0.016806584,0.160765946,-0.190047324,0.558240712,-3.066924334
3.429931402,0.514864624,0.162295491,-0.855655015,-0.069061346,0.15427509,0.066829354,-0.417148769,-0.016825812,0.160507783,-0.190279379,0.559043229,-3.066792488
3.434928656,0.522788584,0.154183984,-0.859514713,-0.077551782,0.161573693,0.07750012,-0.417180002,-0.016840607,0.160309136,-0.190483898,0.559879243,-3.06661272
3.439926863,0.529271543,0.142524973,-0.856308997,-0.0987406,0.167844966,0.084163211,-0.417633861,-0.01669063,0.159582049,-0.190786168,0.560769439,-3.066424131
3.444925785,0.52363646,0.151058748,-0.861897707,-0.113912225,0.172014624,0.087656662,-0.417983055,-0.016575232,0.159022614,-0.19115445,0.561671019,-3.066207647
3.4499259,0.511591733,0.148617715,-0.86511457,-0.122782603,0.181658909,0.085261941,-0.418098837,-0.016536968,0.15883711,-0.191603363,0.562586248,-3.066029549
3.454926729,0.507261217,0.144037679,-0.867511749,-0.128695279,0.198581204,0.083930984,-0.418187946,-0.016507527,0.158694386,-0.192055345,0.563577294,-3.065900564
3.459928989,0.512258232,0.145890906,-0.86908257,-0.149153292,0.211537436,0.090461791,-0.418388277,-0.016347064,0.158998862,-0.192601398,0.564649761,-3.06572485
3.464926243,0.497958362,0.164605647,-0.868243098,-0.164075911,0.224450365,0.1006262,-0.41871509,-0.016071215,0.159588873,-0.193255767,0.565749168,-3.065462112
3.46992445,0.485589176,0.178611711,-0.879029214,-0.181624427,0.249441162,0.111351728,-0.418823451,-0.01597975,0.159784511,-0.194010615,0.566988766,-3.065146923
3.474923611,0.474396497,0.184298113,-0.881137073,-0.195229039,0.277342796,0.130419359,-0.418906838,-0.015909372,0.159935042,-0.194773957,0.568341672,-3.064742327
3.479929686,0.46396327,0.207784876,-0.881833017,-0.204740793,0.308066308,0.159058511,-0.418934494,-0.015886037,0.159984946,-0.195570216,0.569854081,-3.06415844
3.484930754,0.464601755,0.222364977,-0.876457393,-0.184926093,0.363487035,0.185940474,-0.418883681,-0.015826805,0.157289937,-0.19623363,0.571697235,-3.06343627
3.489933014,0.475855827,0.205037534,-0.875707686,-0.188183367,0.409321904,0.212428138,-0.418866843,-0.015807165,0.156396329,-0.196772009,0.573803127,-3.062679768
3.494930267,0.482942969,0.193277195,-0.875791311,-0.206896916,0.443155885,0.234668598,-0.418853849,-0.015792053,0.15570876,-0.197367549,0.576103389,-3.061859846
3.499928474,0.476700723,0.183064952,-0.88449347,-0.218824938,0.484506041,0.248747855,-0.418849558,-0.015787043,0.155480787,-0.197996885,0.578592777,-3.061045647
3.504927635,0.488337398,0.164419934,-0.89026165,-0.239113107,0.525260746,0.260996968,-0.419832021,-0.015422122,0.153830096,-0.198650122,0.581302345,-3.060241699
3.50992775,0.492417693,0.151741683,-0.898922503,-0.272369534,0.571610153,0.269432247,-0.420401692,-0.015211775,0.152917698,-0.199465275,0.584253132,-3.05949831
3.514928818,0.498547047,0.158305377,-0.897916675,-0.303082824,0.625243545,0.266867191,-0.420840055,-0.015049927,0.15221566,-0.200510114,0.587457776,-3.058803797
3.519931555,0.504568756,0.140885457,-0.91155839,-0.33278057,0.70268786,0.256711751,-0.420985401,-0.014996261,0.151982889,-0.20172061,0.591053963,-3.058326483
3.524929523,0.512104392,0.113768153,-0.924983919,-0.391269565,0.774285674,0.243477076,-0.421408892,-0.014412854,0.150490418,-0.20325917,0.594973445,-3.058108568
3.529927492,0.506716847,0.111735992,-0.938778341,-0.453836024,0.85705322,0.220772699,-0.421863556,-0.01367274,0.148671165,-0.205285028,0.599258304,-3.058132887
3.534926653,0.497863084,0.122647673,-0.944999397,-0.491682529,0.950020552,0.196692809,-0.422213405,-0.013103273,0.14727138,-0.207666144,0.603937745,-3.058409452
3.539926529,0.495398194,0.129481241,-0.946468234,-0.50222826,1.056300998,0.173244134,-0.422329396,-0.012914449,0.146807238,-0.210261405,0.609116793,-3.058964252
3.544928074,0.501290977,0.104914598,-0.950449526,-0.516851604,1.17046237,0.146105394,-0.422418654,-0.012769161,0.146450117,-0.213028535,0.614840448,-3.059913158
3.549930334,0.506550431,0.072262757,-0.957431555,-0.555740535,1.278184175,0.114604227,-0.423476398,-0.012429969,0.142648265,-0.216120541,0.621051311,-3.06130147
3.554927588,0.518655539,0.074339189,-0.966741383,-0.600973189,1.386833668,0.079529434,-0.42429024,-0.012168984,0.139722988,-0.219710797,0.62774235,-3.063062906
3.559925556,0.515726566,0.073230125,-0.970986128,-0.64192611,1.501358151,0.039899983,-0.4245601,-0.012082447,0.138753027,-0.223751754,0.63491869,-3.06525588
3.564924717,0.524062037,0.054457244,-0.983708799,-0.689394176,1.61781919,0.004784001,-0.424767733,-0.012015862,0.138006717,-0.228243619,0.642618835,-3.067940712
3.569924831,0.533330679,0.064700678,-0.980873406,-0.741343141,1.739591956,-0.021963749,-0.425412357,-0.01221292,0.13465029,-0.23326093,0.650871277,-3.070986271
3.574926138,0.526294112,0.066217124,-0.974007905,-0.804019511,1.875839233,-0.052610409,-0.426490575,-0.012586122,0.128924087,-0.238879547,0.659721315,-3.074491978
3.57992816,0.518376231,0.082776845,-0.984285057,-0.872832716,2.003164768,-0.077532761,-0.426848084,-0.01270987,0.127025381,-0.24518843,0.669122338,-3.078406572
3.584925175,0.514152229,0.102911524,-0.973834872,-0.934117138,2.135582209,-0.087435253,-0.427123189,-0.012805086,0.125564471,-0.252075046,0.679096878,-3.082616091
3.589923382,0.514017344,0.108540021,-0.971271932,-1.002690196,2.284865379,-0.093694292,-0.427214384,-0.012836657,0.125080064,-0.259568512,0.689757109,-3.087255001
3.594922781,0.519543529,0.108510405,-0.972842276,-1.08187294,2.445748091,-0.101078101,-0.429534376,-0.013980445,0.115613051,-0.267814398,0.701164126,-3.09239006
3.599923134,0.518801212,0.109937929,-0.987752438,-1.171483874,2.607254028,-0.104974113,-0.430303633,-0.014359703,0.112473965,-0.276837885,0.713280797,-3.098007917
3.604924202,0.506709754,0.126730606,-0.984922588,-1.254132867,2.781116486,-0.102540016,-0.430895567,-0.014651516,0.11005865,-0.286686301,0.726155877,-3.104083538
3.609926462,0.5034706,0.164590269,-1.000433207,-1.331919909,2.974297047,-0.091533177,-0.431091815,-0.014748276,0.10925778,-0.297406465,0.739884019,-3.110640287
3.614929438,0.474992812,0.179625914,-1.003419876,-1.40145278,3.179468155,-0.056407988,-0.433163762,-0.016108679,0.097233385,-0.308886528,0.754521668,-3.117765903
3.619927645,0.441209525,0.196640447,-1.037164569,-1.461030126,3.378299475,0.008607166,-0.434326112,-0.016877975,0.090423331,-0.320947051,0.770058751,-3.125189066
3.624926805,0.365808517,0.168191761,-0.991820455,-1.529821396,3.604694128,0.096435167,-0.43522048,-0.017469896,0.085183464,-0.333476365,0.78664279,-3.1328578
3.62992692,0.442159742,0.201848447,-1.033894181,-1.610074997,3.837306499,0.238543049,-0.435517043,-0.017666165,0.083446026,-0.346671522,0.804629505,-3.140569687
3.634927988,0.375796258,0.314140379,-1.032838106,-1.622424126,4.116950989,0.387874007,-0.436444372,-0.018252863,0.073956318,-0.360269427,0.823895335,3.134974718
3.639930487,0.309886605,0.392742634,-1.107133269,-1.603227854,4.450344563,0.525778532,-0.437456876,-0.018886739,0.062588409,-0.374349862,0.844701946,3.126760244
3.64492774,0.272857249,0.371919572,-1.148735762,-1.576206326,4.78761673,0.693592966,-0.438235909,-0.019374464,0.053841576,-0.388564944,0.86717236,3.118024826
3.649925947,0.250218809,0.42025435,-1.161236405,-1.5500561,5.202073097,0.902144969,-0.438494235,-0.019536184,0.050941292,-0.403198242,0.891914964,3.108958483
3.654925108,0.235535055,0.483438283,-1.20052886,-1.492801666,5.612542152,1.073646069,-0.438692987,-0.019660616,0.048709724,-0.418615431,0.918640316,3.098918915
3.659925222,0.19074586,0.539832711,-1.224582195,-1.410179257,6.016156673,1.258616686,-0.439521909,-0.01787857,0.029000841,-0.434673727,0.947315753,3.087739229
3.664926767,0.164333612,0.587127686,-1.264528275,-1.352379799,6.419337273,1.486673355,-0.440159708,-0.016507408,0.013836194,-0.451495826,0.978040457,3.075588703
3.669928789,0.225044653,0.628829896,-1.267265797,-1.311764002,6.835167885,1.741548538,-0.440371186,-0.016052755,0.008807884,-0.469344079,1.011073351,3.062391281
3.674926043,0.242682695,0.688979626,-1.301965952,-1.257452369,7.175644875,1.953554869,-0.440533906,-0.015702931,0.004938941,-0.488668203,1.045875192,3.047583103
3.679924011,0.374422252,0.671908438,-1.291953921,-1.214867473,7.528682709,2.129111052,-0.439644754,-0.012332427,-0.010786613,-0.51025188,1.08249557,3.030007362
3.684923172,0.823765218,0.766409576,-1.447476745,-1.206841707,7.743750572,2.200643301,-0.438006967,-0.006448236,-0.037490174,-0.535395443,1.120165586,3.008700848
3.689923048,1.30888629,0.795389891,-1.526973367,-1.157449603,7.693386078,2.186201572,-0.437463909,-0.004497149,-0.046344571,-0.564320266,1.157072544,2.983287334
3.694924355,1.346242428,0.803173959,-1.347682714,-0.974939525,7.693564415,2.312374592,-0.437046081,-0.002995921,-0.053157426,-0.596047461,1.193977714,2.954382658
3.699926376,1.645110488,0.951478779,-1.376714349,-0.792519212,7.756887436,2.382982731,-0.43690753,-0.002498142,-0.055416439,-0.633565009,1.231132388,2.919082642
3.70492363,2.226017714,0.994189918,-1.474253297,-0.584211111,7.596384525,2.34274888,-0.428559273,0.010187181,-0.09726651,-0.677598178,1.266833305,2.875938416
3.709921598,2.358225584,0.933454573,-1.342027307,-0.344231278,7.339921474,2.348010302,-0.425791144,0.014393393,-0.111143194,-0.727834582,1.300858855,2.82537818
3.714921236,2.380550385,0.963396549,-1.422966361,-0.118888929,7.035263062,2.293625832,-0.423661292,0.017629787,-0.12182036,-0.78718853,1.332519293,2.764696598
3.71992135,2.321686983,0.952309668,-1.371856451,0.099942364,6.740494728,2.241777658,-0.422955066,0.018702915,-0.125360712,-0.858213186,1.361725688,2.691391945
3.724922657,2.111999989,0.933264554,-1.487971663,0.299395263,6.436778545,2.10690546,-0.410903335,0.028773116,-0.154159769,-0.9450804,1.387856364,2.601068974
3.729924679,1.835781693,0.913700044,-1.508901715,0.431719601,6.156425953,1.967333198,-0.40405944,0.034399781,-0.170161322,-1.0534482,1.410547972,2.488712549
