Time,inertial-6253.76535:scaledAccelX,inertial-6253.76535:scaledAccelY,inertial-6253.76535:scaledAccelZ,inertial-6253.76535:scaledGyroX,inertial-6253.76535:scaledGyroY,inertial-6253.76535:scaledGyroZ,inertial-6253.76535:scaledMagX,inertial-6253.76535:scaledMagY,inertial-6253.76535:scaledMagZ,inertial-6253.76535:roll,inertial-6253.76535:pitch,inertial-6253.76535:yaw
0,0.168034375,0.667818606,-0.727164328,-0.022266533,0.005827301,0.012808873,0.133729354,-0.233613923,0.282398134,-0.734478593,0.176333025,-0.037078969
0.004999936,0.166479781,0.668299913,-0.727643788,-0.02245054,0.005348326,0.013748974,0.133618489,-0.233640954,0.282431483,-0.734598875,0.176383883,-0.037132628
0.010000896,0.166341946,0.666315556,-0.728427529,-0.024350818,0.003983706,0.013110795,0.133525521,-0.233562395,0.282442659,-0.734722376,0.176422045,-0.037186529
0.015002624,0.166481048,0.668816864,-0.728657007,-0.02319387,0.005468092,0.0121811,0.133397132,-0.233413473,0.282451332,-0.734845996,0.176464304,-0.03725189
0.019999487,0.165976703,0.669074774,-0.7285043,-0.023645431,0.003384625,0.01261487,0.133354574,-0.23336409,0.282454222,-0.734982014,0.176508367,-0.037309952
0.024997376,0.16876711,0.670627117,-0.727138817,-0.023727315,0.003904823,0.012442041,0.133321822,-0.233326107,0.282456428,-0.735107601,0.176558122,-0.037374016
0.029996287,0.168172434,0.670291185,-0.724663377,-0.023397628,0.00503893,0.012317383,0.133310959,-0.233313516,0.282457173,-0.735240579,0.176602274,-0.037455693
0.03499648,0.168145359,0.671304345,-0.725791335,-0.020734232,0.003792601,0.013999905,0.133372486,-0.233644858,0.282167286,-0.735354781,0.176649034,-0.037512787
0.03999744,0.168331161,0.67036593,-0.724312663,-0.019879049,0.00422929,0.012228508,0.133392885,-0.233754724,0.282071143,-0.73547101,0.176693931,-0.037584588
0.04500531,0.16533792,0.670545757,-0.72402519,-0.019669754,0.004842261,0.010747779,0.133408591,-0.233839259,0.281997204,-0.735586941,0.176728725,-0.037656605
0.050008576,0.16542533,0.671193421,-0.723606527,-0.01776679,0.003841639,0.012122742,0.133413792,-0.233867288,0.281972677,-0.735679746,0.176765695,-0.037721481
0.05500672,0.166432545,0.670451522,-0.723906755,-0.018112233,0.002264464,0.01055658,0.13400054,-0.234002084,0.281888664,-0.735783458,0.176795706,-0.037786491
0.060005888,0.167767704,0.670741439,-0.72358954,-0.016007533,0.003461172,0.013343249,0.134339303,-0.234074786,0.281844676,-0.735877037,0.176841646,-0.037840668
0.065005824,0.166716129,0.670462847,-0.725385308,-0.016278548,0.003021386,0.011945102,0.134599939,-0.23413074,0.28181085,-0.735968828,0.176879212,-0.037898906
0.07000678,0.169611439,0.670096815,-0.724082232,-0.015455724,0.002363145,0.012384495,0.134686366,-0.234149292,0.281799614,-0.736055553,0.176920161,-0.037954066
0.075008765,0.168957084,0.668051898,-0.724574327,-0.014858316,0.002747293,0.011000093,0.134451047,-0.234215036,0.281828731,-0.736134529,0.176953554,-0.038005676
0.080005631,0.170383602,0.667289138,-0.725814939,-0.015985696,0.001368085,0.010887148,0.134068683,-0.234288767,0.281876445,-0.736221313,0.176982135,-0.038056504
0.085003518,0.170320168,0.665779769,-0.725686848,-0.014957698,0.00206486,0.009859441,0.133774459,-0.234345496,0.281913161,-0.736302376,0.177011609,-0.038103048
0.090002179,0.169662386,0.66738528,-0.725514889,-0.01505485,0.000248469,0.007196668,0.133676901,-0.234364316,0.281925321,-0.736389756,0.177024037,-0.038166337
0.095002115,0.169493392,0.669082284,-0.724309862,-0.016181432,0.000330029,0.008851959,0.133601859,-0.234378785,0.281934679,-0.73647958,0.177045375,-0.038228855
0.100002818,0.166457862,0.672188818,-0.722189188,-0.014386432,0.00161964,0.009349623,0.13347885,-0.23428075,0.281883419,-0.736572266,0.177063212,-0.038307518
0.105004802,0.164722756,0.671329677,-0.723470449,-0.012896062,0.002743374,0.009716242,0.133384198,-0.234205306,0.28184396,-0.736651063,0.177086189,-0.038374357
0.110001661,0.164411351,0.671665251,-0.722981393,-0.014183039,0.001682361,0.009994735,0.133352816,-0.234180287,0.281830877,-0.736738741,0.17710498,-0.038439978
0.114999555,0.163639069,0.670141101,-0.72261411,-0.013908222,0.000862607,0.010126348,0.133328661,-0.234161034,0.281820834,-0.736813188,0.177123144,-0.038500022
0.119998462,0.167615846,0.670140207,-0.72521764,-0.014671552,0.003233145,0.011433696,0.133431152,-0.234185889,0.281784385,-0.736897767,0.17716819,-0.03855446
0.124998398,0.166497961,0.671249032,-0.728031576,-0.015608145,0.003777024,0.011891557,0.133621752,-0.234236583,0.281722903,-0.736977458,0.177201703,-0.038606472
0.129999354,0.16714254,0.671890855,-0.725409329,-0.014738126,0.00325861,0.012526995,0.133684963,-0.234253377,0.281702518,-0.737065256,0.177233145,-0.038663555
0.1350016,0.16563563,0.674134195,-0.724127352,-0.014861893,0.002576728,0.012056582,0.133733585,-0.234266311,0.281686842,-0.737152517,0.177264035,-0.038734388
0.139998719,0.167626485,0.671827435,-0.725400805,-0.01473943,0.004484426,0.013915274,0.133749709,-0.234270602,0.281681627,-0.737231553,0.177306488,-0.038789768
0.144996867,0.16633153,0.672014594,-0.725441873,-0.014338912,0.004824266,0.013839195,0.13356851,-0.234204084,0.281534106,-0.737314224,0.177346423,-0.038845386
0.149995774,0.165938243,0.671108127,-0.723804295,-0.014259605,0.003266096,0.01479162,0.133508429,-0.23418203,0.2814852,-0.737394571,0.177392378,-0.038895771
0.15499571,0.166513026,0.672543406,-0.722579777,-0.012889406,0.003737246,0.0150965,0.133462191,-0.234165058,0.281447589,-0.73747313,0.177437082,-0.038959254
0.159996673,0.167937294,0.671506941,-0.724009693,-0.011257114,0.00428017,0.013123264,0.133446857,-0.23415944,0.281435102,-0.737543106,0.177487299,-0.039025594
0.164998651,0.167492226,0.671578526,-0.723708868,-0.011530312,0.004206178,0.016757103,0.13362731,-0.234105617,0.281696767,-0.737604797,0.177544832,-0.039073642
0.16999577,0.16501148,0.672408402,-0.724222183,-0.00869591,0.004974115,0.01397359,0.133734718,-0.234075516,0.281850666,-0.737663031,0.177587032,-0.039142609
0.174993664,0.164864153,0.673771083,-0.722377717,-0.007313853,0.005462892,0.012757493,0.133817345,-0.234052345,0.28196907,-0.73771584,0.177636608,-0.039218631
0.179998726,0.166312262,0.674135983,-0.722646713,-0.00612832,0.003596965,0.013442038,0.133844748,-0.234044656,0.28200832,-0.737762988,0.177677333,-0.039289244
0.184998661,0.167603076,0.672663808,-0.721208036,-0.004706201,0.003635384,0.015798822,0.133649915,-0.234267861,0.281732351,-0.737798095,0.177729145,-0.039347637
0.189999878,0.165919393,0.672592819,-0.722558618,-0.003570392,0.004183079,0.013228921,0.133367583,-0.234572902,0.281332076,-0.737827122,0.177773237,-0.039400257
0.195001855,0.16726017,0.671685934,-0.723170877,-0.00299838,0.005786484,0.013511537,0.133150339,-0.234807611,0.281024098,-0.737852514,0.17782405,-0.039457757
0.199998975,0.169553131,0.67093575,-0.723611474,-0.00156471,0.003524446,0.014355987,0.133078307,-0.234885439,0.280921966,-0.737870812,0.177880496,-0.039505415
0.204996869,0.17013137,0.672357261,-0.722564161,-0.001352437,0.002642048,0.016074488,0.133022889,-0.234945312,0.280843407,-0.73788476,0.177925602,-0.039544988
0.209995776,0.1698789,0.671138585,-0.722427726,-0.001178089,0.003439951,0.01468953,0.133003026,-0.234911919,0.281092376,-0.737893462,0.177977756,-0.039593022
0.214995459,0.170337632,0.669983625,-0.724205196,3.66E-05,0.003813206,0.013309435,0.132987753,-0.234886214,0.281283915,-0.73790586,0.178024188,-0.039641719
0.219996676,0.168559492,0.668392897,-0.724325299,-0.003534241,0.004195874,0.014648962,0.132982686,-0.234877691,0.281347424,-0.737931609,0.178080469,-0.039680813
0.224998653,0.169900611,0.666205466,-0.724431038,-0.001831416,0.004600825,0.014867192,0.132978782,-0.234871134,0.2813963,-0.737942755,0.1781369,-0.03971621
0.229995772,0.169587329,0.667290568,-0.725547612,-0.003461735,0.00490912,0.013938973,0.133087367,-0.234843135,0.281316191,-0.737965524,0.178191438,-0.039757632
0.234993666,0.16928117,0.66914469,-0.72403872,-0.004924495,0.005289339,0.014687407,0.133282006,-0.234795481,0.281157106,-0.737991452,0.178242266,-0.039808899
0.239992321,0.169651777,0.670033038,-0.722136796,-0.004692932,0.002784362,0.014125104,0.133346543,-0.234779686,0.281104356,-0.738019466,0.178287506,-0.039857026
0.244992256,0.169380859,0.670013249,-0.721712649,-0.00231599,0.003551745,0.014045423,0.133396208,-0.234767526,0.281063795,-0.738046646,0.178332061,-0.039904363
0.249992967,0.169724405,0.669491112,-0.7226578,-0.002717916,0.002168264,0.013214834,0.133412659,-0.234763488,0.281050354,-0.738067031,0.178375453,-0.039950792
0.254994959,0.170436308,0.669495702,-0.724276841,-0.002120117,0.002533248,0.012582875,0.133486107,-0.2344926,0.280962557,-0.738085866,0.178417847,-0.039998394
0.259991795,0.170743972,0.668053091,-0.724972069,-0.003547606,0.003458931,0.014437986,0.133510455,-0.234402776,0.28093344,-0.73810333,0.17846626,-0.040039148
0.264989704,0.170948133,0.667525113,-0.726259708,-0.003945122,0.002816932,0.010654107,0.133529186,-0.234333664,0.280910999,-0.738126516,0.178495437,-0.040085617
0.269988596,0.169639885,0.669762969,-0.725072265,-0.005634995,0.002127384,0.013251635,0.1335354,-0.234310746,0.280903548,-0.7381621,0.17853713,-0.040131342
0.274988532,0.170438409,0.669276953,-0.725603759,-0.003410878,0.000160835,0.011401112,0.133398548,-0.234592721,0.281124473,-0.738182545,0.178566456,-0.040169924
0.279989243,0.171331331,0.669449687,-0.72380358,-0.003128904,0.002812025,0.010916089,0.133318126,-0.234760359,0.281253785,-0.738206565,0.178600118,-0.04022399
0.284991235,0.171159253,0.668319702,-0.724811256,-0.004385698,0.000979044,0.009909447,0.133256257,-0.234889343,0.281353295,-0.738236248,0.178628266,-0.0402712
0.289988101,0.169840872,0.668107092,-0.72425586,-0.002996397,0.001895201,0.009517423,0.133235738,-0.23493211,0.281386286,-0.738260508,0.178651363,-0.040330514
0.294986486,0.168590695,0.669364989,-0.722554564,-0.00417349,-0.000476152,0.009285497,0.132999465,-0.234904289,0.281290084,-0.738285363,0.178666368,-0.040378679
0.299985409,0.170215249,0.667452872,-0.724168062,-0.004759593,0.001297992,0.006892587,0.132698789,-0.234833822,0.281135559,-0.738319278,0.17868343,-0.040431857
0.304985344,0.168573543,0.668143332,-0.724709332,-0.005479503,0.000473337,0.005853178,0.132467434,-0.234779596,0.281016678,-0.738350451,0.1786955,-0.040494829
0.309986055,0.170028344,0.667571604,-0.726969182,-0.006188496,0.001521909,0.007328357,0.132390723,-0.234761626,0.280977249,-0.73838824,0.178714156,-0.04053846
0.314994425,0.168938562,0.669186592,-0.725028276,-0.006180493,0.002351252,0.005953837,0.132331699,-0.234747782,0.28094691,-0.738429725,0.17872867,-0.040608723
0.319997698,0.168992206,0.67090565,-0.723154485,-0.006057539,0.000646716,0.006858999,0.132556409,-0.234900087,0.280933887,-0.73847121,0.178732872,-0.040669553
0.324996084,0.168069929,0.67151624,-0.722340703,-0.006248651,-0.000280494,0.005523304,0.132729307,-0.23501727,0.280923873,-0.738512874,0.178734928,-0.040733434
0.329995006,0.167017445,0.671740055,-0.721569479,-0.005693051,0.001566746,0.005882162,0.132786646,-0.235056132,0.280920535,-0.73855871,0.178744912,-0.040812727
0.334994674,0.16969052,0.673104405,-0.720932722,-0.007044535,0.000978133,0.004883983,0.132830754,-0.235086039,0.280917972,-0.738614321,0.178758815,-0.040890571
0.339995652,0.169398427,0.673108995,-0.720076919,-0.005497296,0.000994851,0.005988657,0.132680193,-0.235092193,0.280982882,-0.738658905,0.178768381,-0.040970974
0.344997644,0.168697342,0.67121172,-0.722474933,-0.004390557,0.00188594,0.004640073,0.132397324,-0.235093117,0.281099349,-0.738690495,0.178771332,-0.04104688
0.349994749,0.167389259,0.67367214,-0.722385108,-0.003561527,0.00195909,0.005840474,0.132303521,-0.23509343,0.281137973,-0.738728762,0.178780705,-0.041124646
0.354992628,0.170260191,0.672590256,-0.723057747,-0.001602115,-1.15E-05,0.006081015,0.132231355,-0.235093668,0.281167656,-0.738752842,0.178789198,-0.041197896
0.35999155,0.169592246,0.673766851,-0.722043455,-0.000819134,-0.000402046,0.006208306,0.132207423,-0.235093743,0.281177521,-0.738770485,0.178791761,-0.04127074
0.364991218,0.172704354,0.673527002,-0.72340101,-9.31E-05,0.000484164,0.00730411,0.132443726,-0.234961256,0.28147161,-0.738784194,0.178814456,-0.041339271
0.369992435,0.173247173,0.671626985,-0.724066556,0.000335709,0.001242704,0.004622087,0.132522076,-0.234917328,0.281569123,-0.738790154,0.178829223,-0.041417778
0.374994427,0.171037659,0.670381784,-0.722761512,-0.001142171,-0.000244069,0.004521812,0.132582366,-0.234883532,0.281644166,-0.738804698,0.178831056,-0.041493382
0.379991561,0.17103447,0.671617448,-0.722032666,-0.000157602,-0.000587725,0.003859587,0.132602364,-0.234872326,0.281669021,-0.738825202,0.178827092,-0.041569009
0.38498944,0.171442643,0.669877648,-0.722172797,0.000559832,-0.00220861,0.002963762,0.132812217,-0.234869957,0.281408876,-0.738833547,0.178816572,-0.041632142
0.389988363,0.171501979,0.670070648,-0.720725656,0.001207386,-0.004222494,-0.000518048,0.132929936,-0.234870717,0.281253517,-0.738846183,0.178790137,-0.041719746
0.394988298,0.171140626,0.66813004,-0.723056912,0.000909214,-0.002037784,-0.001074809,0.13302052,-0.234871313,0.28113395,-0.7388556,0.178773239,-0.041795827
0.399989516,0.171864182,0.668381035,-0.722470224,0.000464155,-0.002094177,-0.001539478,0.133050546,-0.234871522,0.281094313,-0.738864362,0.178749621,-0.041874886
0.404991478,0.170590669,0.668046653,-0.724092364,-0.000331645,-0.004364076,-0.001185362,0.132909179,-0.23492524,0.281161517,-0.738877177,0.178719863,-0.041937549
0.409988344,0.168001175,0.668829262,-0.723272085,-0.000844604,-0.005072359,-0.001518528,0.13269645,-0.234997079,0.281282336,-0.738890648,0.178680509,-0.042006381
0.414986253,0.166879639,0.671017885,-0.723027945,-0.003091973,-0.003106934,-0.001160655,0.132532775,-0.235052362,0.281375289,-0.738921285,0.178640157,-0.04209156
0.419984907,0.166860133,0.670931995,-0.721601963,-0.001035724,-0.003272233,-0.001431643,0.132478505,-0.235070691,0.281406105,-0.738936663,0.178603679,-0.042168524
0.424984843,0.167853534,0.671587467,-0.722861707,-0.000964357,-0.00394916,0.000542356,0.132436752,-0.235084787,0.281429827,-0.73895359,0.178576335,-0.042244215
0.429985523,0.170497581,0.670841932,-0.721925735,-6.56E-05,-0.003311029,-0.000151478,0.132664442,-0.235092133,0.281653494,-0.738969445,0.178556383,-0.04232217
0.434987515,0.171183333,0.672400475,-0.724195659,-0.000909789,-0.005234557,-0.000204634,0.132839635,-0.235097796,0.281825602,-0.738987982,0.178521931,-0.042399131
0.439984381,0.171483472,0.670529008,-0.723085403,-0.000781556,-0.0025045,-0.000368522,0.132897735,-0.235099673,0.281882644,-0.739003122,0.178501755,-0.042476319
0.44498226,0.170784861,0.67097038,-0.723266602,-0.000953044,-0.003608348,-0.002668265,0.132942423,-0.235101119,0.281926543,-0.739022672,0.178467438,-0.042560637
0.449987084,0.171450958,0.67153883,-0.721039534,-0.000151771,-0.00353834,-0.001087825,0.13293156,-0.235189497,0.281723499,-0.73904103,0.178444088,-0.042642429
0.454987019,0.16941826,0.669546425,-0.721073031,0.001521804,-0.002829266,-0.001467333,0.132897243,-0.235346392,0.281347245,-0.739050448,0.178408906,-0.042716876
0.4599877,0.169553325,0.671234906,-0.72262311,-0.000336864,-0.002104194,-0.002263732,0.132885858,-0.235398427,0.281222492,-0.739065826,0.178375199,-0.042798553
0.464989692,0.171153069,0.66922009,-0.722097099,0.000364638,-0.004963072,-0.001907229,0.132877111,-0.235438466,0.281126499,-0.739074111,0.178340524,-0.042863578
0.469986558,0.168445989,0.669217825,-0.72400564,-0.000234837,-0.005727068,-0.002093768,0.132874206,-0.235451743,0.28109467,-0.73908937,0.178298041,-0.042935848
0.474984974,0.170628414,0.669403791,-0.723907351,-0.001318269,-0.004944396,-0.003935433,0.132483006,-0.235252202,0.281075358,-0.739104033,0.178255573,-0.043007273
0.479983866,0.170012057,0.669130266,-0.724489093,0.000516406,-0.00197646,-0.003393889,0.132353291,-0.23518604,0.281068951,-0.739116728,0.178227291,-0.04309117
0.484983563,0.169558749,0.67078346,-0.722565055,-0.000448423,-0.004583063,-0.004063603,0.132253483,-0.235135138,0.281064004,-0.739135385,0.178177506,-0.043171026
0.489984512,0.169673532,0.671719015,-0.722602069,-0.001160198,-0.004469462,-0.001277758,0.132220387,-0.235118255,0.281062365,-0.739153981,0.178140521,-0.043243267
0.494986504,0.168254107,0.672403812,-0.721803486,0.000679643,-0.004845591,-0.004014065,0.1325818,-0.23506254,0.280997992,-0.739169717,0.17809616,-0.043326516
0.499983609,0.168922246,0.672418773,-0.721010387,-0.000826518,-0.00356074,-0.003410287,0.132797375,-0.235033467,0.280961037,-0.739188254,0.178060383,-0.043409966
0.504981518,0.168856427,0.671441078,-0.721237838,-0.000338194,-0.004770827,-0.004104738,0.13296324,-0.235011116,0.280932605,-0.73920393,0.178012043,-0.043497395
0.50998044,0.169592187,0.67335701,-0.722442985,0.001115752,-0.004147775,-0.004710666,0.13301824,-0.235003695,0.280923158,-0.739221692,0.177968666,-0.043582924
0.514980078,0.170309022,0.672015548,-0.721669018,-1.96E-05,-0.005065611,-0.004209423,0.132866979,-0.23493579,0.281012863,-0.739243031,0.177918285,-0.043670237
0.519981027,0.172326356,0.67221427,-0.721754193,0.001027516,-0.005469589,-0.002919582,0.132621616,-0.234850541,0.281140387,-0.739254057,0.177878976,-0.043753576
0.524983048,0.171640128,0.67208606,-0.721904278,0.002613534,-0.006768849,-0.004667502,0.132432833,-0.234784961,0.281238496,-0.739250779,0.177833438,-0.043839104
0.529980421,0.170567632,0.671594203,-0.722202122,-0.000124792,-0.006438952,-0.004969561,0.132370234,-0.234763205,0.28127104,-0.73927021,0.177780628,-0.043918502
0.53497833,0.170680538,0.671306729,-0.722427249,0.001187199,-0.007569015,-0.00656394,0.132322058,-0.234746471,0.281296074,-0.739274442,0.177712128,-0.044002727
0.539977193,0.169436619,0.670702398,-0.720937967,0.000795245,-0.006936213,-0.006976597,0.132210404,-0.234791294,0.28114146,-0.739288867,0.177653149,-0.044094227
0.54497689,0.168269709,0.67138505,-0.721513867,0.000949952,-0.008670285,-0.006933996,0.132124484,-0.23482579,0.281022489,-0.73929435,0.177587688,-0.044178184
0.549977839,0.167822838,0.671909988,-0.721867025,0.001636338,-0.007871677,-0.007339092,0.132095993,-0.234837234,0.280983031,-0.739307284,0.177518725,-0.044269782
0.554979861,0.168410152,0.670704842,-0.72394979,0.002360353,-0.006284206,-0.006228308,0.132074073,-0.234846026,0.280952692,-0.739304602,0.177457884,-0.044344693
0.559976935,0.170793906,0.670832634,-0.722704053,0.002951564,-0.0074202,-0.006640656,0.132314473,-0.234881684,0.281032085,-0.739307642,0.177401647,-0.044424403
0.564974844,0.170305759,0.670849979,-0.724096119,0.002872546,-0.007998474,-0.008044949,0.13274987,-0.234942213,0.2811836,-0.739299297,0.177330032,-0.044517286
0.569973528,0.168158203,0.668959618,-0.724602342,0.001293698,-0.009006867,-0.008823865,0.132894233,-0.234962285,0.281233847,-0.7393049,0.177254364,-0.044600312
0.574973702,0.168591782,0.668359399,-0.725397646,0.001951821,-0.008172443,-0.007609762,0.133005321,-0.234977737,0.281272501,-0.739304602,0.177184761,-0.044674665
0.579980552,0.166571945,0.668190718,-0.722898722,-0.00048723,-0.006701534,-0.008399008,0.133042157,-0.234982863,0.281285316,-0.739319086,0.177118421,-0.044763904
0.584982514,0.166654766,0.670862734,-0.721994579,-0.000802011,-0.008142627,-0.007534134,0.133258641,-0.234652758,0.281360984,-0.739336967,0.177042872,-0.044854969
0.589979649,0.166044414,0.670456707,-0.722389996,-0.000570148,-0.007472021,-0.008439784,0.13333042,-0.234543309,0.281386077,-0.739355445,0.176975504,-0.044943552
0.594977558,0.16582869,0.669203877,-0.722925365,-0.003678491,-0.007398669,-0.006554596,0.133385643,-0.234459087,0.281405389,-0.739387572,0.17691043,-0.045028631
0.599976182,0.166698098,0.66937542,-0.725021899,-0.003096582,-0.007084384,-0.005054298,0.133403957,-0.234431162,0.281411797,-0.739404976,0.176847801,-0.045100391
0.604976118,0.166623294,0.668678582,-0.723129451,-0.004654585,-0.004536625,-0.005906147,0.133277878,-0.234762534,0.281368345,-0.739449561,0.176796809,-0.045185111
0.609976828,0.168244064,0.670161664,-0.724062026,-0.005850342,-0.005549085,-0.005320169,0.133201391,-0.234959722,0.28134194,-0.739491761,0.17674455,-0.045265831
0.61497879,0.165694684,0.672071218,-0.724243522,-0.006156948,-0.006228131,-0.006009552,0.133142531,-0.23511146,0.281321615,-0.739538431,0.176678956,-0.045350987
0.619975686,0.163861766,0.671183228,-0.724506199,-0.006564882,-0.006159284,-0.005719726,0.13312301,-0.235161766,0.28131488,-0.739582539,0.176621601,-0.04542869
0.624973595,0.164807677,0.673244059,-0.723651409,-0.005668251,-0.003773431,-0.003838976,0.133135095,-0.235172197,0.281308889,-0.739631832,0.176575139,-0.045517158
0.629972458,0.165584221,0.672786295,-0.72269243,-0.008462276,-0.003955045,-0.004992893,0.133166447,-0.235147133,0.281306028,-0.739693522,0.176529005,-0.045613017
0.634972394,0.16508691,0.67299819,-0.722355068,-0.007907243,-0.002912481,-0.002289655,0.133190557,-0.235127851,0.281303823,-0.739746153,0.176493645,-0.0456938
0.639973104,0.166882291,0.67478168,-0.722104967,-0.008080895,-0.002235127,-0.001357554,0.133198559,-0.235121459,0.281303078,-0.739806831,0.176466122,-0.045787893
0.644975126,0.166737348,0.673323333,-0.721673429,-0.007789685,-0.003613557,-0.001020655,0.133204699,-0.235116541,0.281302512,-0.739862025,0.176435202,-0.045868061
0.649971962,0.166719526,0.67117846,-0.720316231,-0.006885297,-0.001658478,-0.000659612,0.133159176,-0.235165223,0.281248719,-0.739908636,0.176412493,-0.045949806
0.654969871,0.167264536,0.672537863,-0.721883059,-0.005926853,-0.002523242,0.000430214,0.133124128,-0.23520267,0.281207293,-0.739952207,0.176391557,-0.046022274
0.659968793,0.166150302,0.672292709,-0.721519649,-0.006042794,-0.001854312,0.000637911,0.13311252,-0.235215083,0.281193584,-0.739995837,0.176374361,-0.046097402
0.664968431,0.167059168,0.673230886,-0.721102238,-0.0044632,-0.000932968,-0.000168893,0.133103594,-0.235224649,0.281183034,-0.74003619,0.176355556,-0.046183955
0.66996938,0.165402055,0.67320025,-0.71923691,-0.005574026,-0.001326579,0.000337115,0.133210272,-0.235173747,0.281020284,-0.740085721,0.176332861,-0.046267744
0.674971163,0.164431989,0.672624707,-0.720939398,-0.003501485,-0.003805876,0.000987547,0.133403212,-0.235079914,0.280734062,-0.740117848,0.17630057,-0.046331663
0.679968238,0.165607214,0.673097134,-0.721929252,-0.003265087,-0.000982244,0.001459919,0.133467183,-0.235048801,0.280639172,-0.740151882,0.176293045,-0.046404511
0.684966683,0.166746855,0.675015211,-0.72101599,-0.003597634,-0.001120259,0.0032113,0.133516401,-0.23502484,0.280566156,-0.740189731,0.176286936,-0.046477843
0.689965546,0.169665784,0.675391078,-0.722347379,-0.003259958,-0.000473961,0.002325401,0.133532718,-0.235016912,0.280541927,-0.740225255,0.17628473,-0.04655331
0.694965243,0.168669939,0.672570527,-0.723946214,-0.001899956,-0.002096755,0.002925358,0.133291423,-0.235274851,0.280604422,-0.740239441,0.176269278,-0.046605676
0.699966192,0.166236326,0.671288252,-0.721219301,-0.002475865,-0.001578738,0.003094531,0.133211419,-0.235360384,0.280625165,-0.740258873,0.176259577,-0.046662729
0.704968214,0.166796327,0.673355818,-0.721557736,-0.002296337,-0.002461032,0.004810457,0.133149862,-0.235426188,0.280641109,-0.740283608,0.176257223,-0.046723854
0.709965587,0.165608197,0.673572183,-0.721585751,-0.001428312,-0.001874001,0.004726751,0.133129448,-0.235448018,0.280646414,-0.740304053,0.176250517,-0.046785202
0.714969337,0.167726874,0.671748579,-0.722302914,-0.002971184,-0.001926729,0.004095426,0.133397937,-0.235013768,0.280639857,-0.740323901,0.17623882,-0.046842203
0.719968259,0.168713793,0.672293782,-0.723967016,0.00055226,-0.002688197,0.002945947,0.13355729,-0.234758168,0.280635029,-0.740330398,0.176233366,-0.046901312
0.724968195,0.167736873,0.670083106,-0.722285748,-0.000893768,-0.002188506,0.005040682,0.133679897,-0.234561503,0.280631334,-0.74034667,0.176227346,-0.046957031
0.729969144,0.168139949,0.671155274,-0.723763227,-0.003667117,-0.002150664,0.005932674,0.133720547,-0.234496295,0.280630112,-0.740374684,0.176231012,-0.047005825
0.734971166,0.169979692,0.672929943,-0.724160552,-0.003708965,-0.001404702,0.00667156,0.133727238,-0.234647572,0.280600637,-0.740398884,0.176242828,-0.04705606
0.739968002,0.168830484,0.674052417,-0.722250104,-0.004555464,-0.000363637,0.005929634,0.133704662,-0.234900877,0.280562073,-0.740439892,0.176240742,-0.047122933
0.744965911,0.16813466,0.67403096,-0.723054349,-0.003833822,-0.003005324,0.005627899,0.133687288,-0.235095769,0.28053242,-0.740470052,0.176241353,-0.047170561
0.749964774,0.166784063,0.672575176,-0.722518027,-0.00321249,-0.000119699,0.006347815,0.133681536,-0.235160396,0.280522585,-0.740496814,0.176248446,-0.047226332
0.754965007,0.167702317,0.673665702,-0.722271204,-0.003630047,-0.000748185,0.004567198,0.133677095,-0.235210121,0.280515015,-0.740531087,0.17624785,-0.047288161
0.759966195,0.166737512,0.675523162,-0.722203374,-0.004029955,-2.55E-05,0.003717938,0.133625865,-0.235172912,0.280733347,-0.740564704,0.176245958,-0.047358684
0.764968216,0.168102533,0.672911286,-0.720603704,-0.005461616,-0.000100212,0.005557012,0.133586437,-0.235144287,0.280901343,-0.740612566,0.176251978,-0.047421642
0.769965053,0.168072969,0.673794806,-0.720384419,-0.004753079,-0.001568603,0.003389039,0.133573368,-0.235134795,0.280957043,-0.740647733,0.176244169,-0.047490153
0.774962962,0.165593266,0.67350632,-0.720491409,-0.004655506,-0.000120673,0.005455094,0.133563325,-0.235127509,0.280999899,-0.740692019,0.176247299,-0.047556199
0.779961884,0.167233795,0.673235238,-0.721101105,-0.004193109,-1.23E-06,0.006105038,0.133559361,-0.235068023,0.280950874,-0.740716696,0.176254153,-0.047613665
0.78496182,0.165842324,0.673385561,-0.721040666,-0.003230491,-0.000510028,0.007148103,0.133555666,-0.234964564,0.280849218,-0.740744829,0.176257342,-0.047671147
0.789962471,0.165820703,0.673287809,-0.721274793,-0.002404376,-0.000907537,0.006010742,0.133554444,-0.234930262,0.280815482,-0.740773201,0.176257119,-0.047732458
0.794964492,0.166840509,0.674153388,-0.721543789,-0.00403776,-0.000641878,0.00591638,0.13355349,-0.234903872,0.280789554,-0.740802824,0.176261023,-0.047794517
0.799961627,0.166873991,0.674284101,-0.721333027,-0.003044927,-0.000719448,0.004824548,0.133553177,-0.234895125,0.280780941,-0.740835309,0.176264346,-0.047857892
0.804959476,0.166428804,0.674523532,-0.720331371,-0.00301641,-0.001604566,0.007064159,0.133362994,-0.235023513,0.280340135,-0.740867913,0.176272571,-0.047911867
0.809958398,0.166006595,0.672613502,-0.72215569,-0.002793001,-0.00109519,0.005495157,0.133299932,-0.235066071,0.280193985,-0.740886092,0.176269278,-0.047958486
0.814958334,0.166966707,0.672701716,-0.722532511,-0.000660956,-0.001373771,0.00590807,0.133251399,-0.235098824,0.280081511,-0.740900576,0.176277012,-0.048011418
0.819959283,0.167840317,0.67401427,-0.721194744,-0.001453497,-0.001813217,0.005233749,0.13323532,-0.235109687,0.280044198,-0.740924835,0.176278174,-0.048072014
0.824961305,0.165921137,0.674520493,-0.721096396,-0.001910571,-0.00096399,0.004403133,0.133367449,-0.235118344,0.280288279,-0.740942955,0.17626819,-0.048135273
0.829958379,0.166365683,0.673157275,-0.721312463,-3.88E-05,-0.000259319,0.006189122,0.133447036,-0.23512128,0.280436695,-0.740953505,0.176278949,-0.04818904
0.834956288,0.167610735,0.673862338,-0.721368253,0.001689043,0.000563083,0.006750541,0.133508265,-0.235123545,0.280550897,-0.740963042,0.176286891,-0.048247803
0.839955211,0.168305695,0.672399759,-0.721944571,0.000468374,-0.000946854,0.005836831,0.133528575,-0.235124305,0.280588776,-0.740973473,0.17628774,-0.04829919
0.844954908,0.168084651,0.671772659,-0.719569266,0.000934848,-0.001595975,0.00513658,0.133544743,-0.235181645,0.280712456,-0.740976751,0.176289231,-0.048357245
0.849961996,0.169438511,0.672008693,-0.720413387,0.002504295,-0.00207999,0.005701803,0.133550644,-0.235257909,0.280848801,-0.740977645,0.176293135,-0.048413113
0.854963958,0.169128031,0.671500802,-0.721178114,0.001415002,-0.003615819,0.004502073,0.133555204,-0.235316575,0.280953676,-0.740980268,0.1762878,-0.048455302
0.859961092,0.16934903,0.669123709,-0.721729398,0.001913799,-0.001985498,0.003958186,0.133556709,-0.235336035,0.280988455,-0.740981221,0.176285565,-0.048508309
0.864959002,0.168493882,0.670789182,-0.722274542,0.002971389,-0.003281693,0.003708908,0.133557856,-0.235351011,0.281015217,-0.740973055,0.17627351,-0.048559714
0.869958162,0.168945178,0.671544075,-0.721956491,0.001476537,-0.003252278,0.00214503,0.133700296,-0.235106111,0.280908257,-0.740985274,0.176255047,-0.048617106
0.874958098,0.16863063,0.672918856,-0.721192956,0.001637198,-0.00526663,0.001645988,0.133809894,-0.234917685,0.280825973,-0.740988731,0.176236629,-0.048676781
0.879959047,0.168476328,0.671850979,-0.720039546,0.001882469,-0.004126514,0.001323599,0.133846238,-0.234855205,0.280798674,-0.740995824,0.17621845,-0.048747923
0.884961009,0.169092342,0.672889292,-0.721618652,0.002853584,-0.003742713,0.003459183,0.133874193,-0.234807134,0.280777693,-0.740990043,0.176203877,-0.048807528
0.889958143,0.167531148,0.672197938,-0.722501397,0.002750773,-0.005106966,0.000374675,0.133884609,-0.234849945,0.280646175,-0.740989387,0.176178291,-0.048862807
0.894956052,0.167034477,0.674227118,-0.721700013,0.002595721,-0.003980823,0.000439584,0.133893803,-0.234942317,0.280419022,-0.740989923,0.176150098,-0.048927072
0.899954915,0.166461736,0.672971606,-0.721001923,0.004603188,-0.00440755,0.001162056,0.133896843,-0.234972939,0.280343711,-0.740977645,0.176124007,-0.048988137
0.904954851,0.165337577,0.6710186,-0.721896827,0.003328741,-0.003547706,0.004162355,0.133899182,-0.234996513,0.280285776,-0.740967155,0.17610538,-0.049034297
0.909955561,0.16527909,0.673704147,-0.721210897,0.003215699,-0.004575713,0.003369446,0.133899957,-0.235004336,0.280266553,-0.740964293,0.176079705,-0.049088061
0.914957583,0.167606473,0.674460232,-0.721506298,0.004345991,-0.004741025,0.003178105,0.133706883,-0.235004589,0.280475199,-0.740954101,0.176060081,-0.049153626
0.919954419,0.167087823,0.673972666,-0.722086847,0.001935944,-0.00304748,0.00267389,0.133642852,-0.235004678,0.28054437,-0.740961671,0.176042199,-0.049211249
0.924952328,0.165393353,0.673824608,-0.723067582,0.001716273,-0.00368873,0.001246868,0.133593589,-0.235004738,0.280597597,-0.740962863,0.176015899,-0.049274474
0.929950953,0.165896371,0.673795342,-0.723387718,0.001874034,-0.004487651,0.002851733,0.133577257,-0.235004768,0.28061524,-0.740962863,0.175993428,-0.049329665
0.934950888,0.166861668,0.673569918,-0.724294126,0.000410416,-0.003206301,0.002079043,0.133610547,-0.234852001,0.280791551,-0.740972042,0.175981715,-0.049393103
0.939951599,0.168096974,0.672947109,-0.722436309,-0.000513732,-0.000692888,0.001756041,0.133632928,-0.234763533,0.280890256,-0.740985751,0.175971642,-0.04946563
0.944953859,0.168165773,0.673483551,-0.721050084,0.002768134,-0.003894891,0.002460629,0.133650154,-0.234695464,0.280966222,-0.74098587,0.175951749,-0.049528047
0.949951231,0.166254193,0.672559261,-0.719849885,0.002135287,-0.004248147,0.001070805,0.133655861,-0.234672889,0.280991405,-0.740990996,0.175928146,-0.049596477
0.954949141,0.166470408,0.673625231,-0.722899318,0.001767195,-0.003681735,0.003174581,0.133826882,-0.234773979,0.281008929,-0.740992546,0.175908625,-0.04965125
0.959948003,0.166265637,0.675032079,-0.721123099,0.003518383,-0.003012103,0.003329729,0.134051606,-0.234926939,0.281012803,-0.740990281,0.1758935,-0.049713183
0.964947939,0.166601777,0.675463736,-0.719948709,0.002735021,-0.001907212,0.002489873,0.134224534,-0.235044628,0.281015813,-0.74099803,0.175885871,-0.049787961
0.969948947,0.165337473,0.672689497,-0.720552266,0.002953626,-0.0047689,0.004119008,0.134281874,-0.235083655,0.281016797,-0.74099499,0.175863028,-0.049834371
0.97495091,0.166483477,0.673205793,-0.720780432,0.005417014,-0.003724115,0.004499637,0.134325981,-0.23511368,0.281017542,-0.740980506,0.175853819,-0.049890149
0.979948044,0.167511761,0.674603462,-0.720697939,0.004121853,-0.003893281,0.002210718,0.134047806,-0.23491706,0.28080067,-0.740976632,0.175829291,-0.049959365
0.984952092,0.168526635,0.67308116,-0.722046196,0.004184795,-0.003383101,0.003430482,0.133833766,-0.234765798,0.280633807,-0.740961313,0.175819576,-0.050017264
0.989950955,0.168866396,0.673251808,-0.721393466,0.005466936,-0.003495634,0.003280355,0.133762792,-0.234715626,0.280578494,-0.740954101,0.175809801,-0.05007137
0.994950891,0.167416409,0.673847377,-0.722236156,0.005142365,-0.004531608,0.002103407,0.133708179,-0.234677032,0.280535907,-0.740938187,0.175784558,-0.050130799
0.999951899,0.170244351,0.673494041,-0.719293475,0.004129561,-0.005005196,0.001032941,0.1338,-0.234666079,0.280550987,-0.740932167,0.175761729,-0.050196063
1.004953623,0.168845803,0.67182827,-0.721064746,0.005496976,-0.004388075,0.000806609,0.133981794,-0.234659523,0.280592084,-0.740917444,0.175741613,-0.050256599
1.009950757,0.168636367,0.670490384,-0.721088827,0.00559861,-0.007110803,-0.000955394,0.134042069,-0.234657347,0.280605733,-0.740895748,0.175702915,-0.05030641
1.014948606,0.167869866,0.672933221,-0.722043097,0.005047163,-0.006229482,-0.000392767,0.134088442,-0.234655663,0.280616224,-0.740885735,0.1756666,-0.050366361
1.019947767,0.165770262,0.672652006,-0.721689522,0.005724106,-0.006061938,0.001098039,0.13410382,-0.234655112,0.280619681,-0.740866184,0.175631851,-0.050420154
1.024947762,0.165538371,0.672087491,-0.720858276,0.004950457,-0.005479742,-0.000337586,0.133990183,-0.234855816,0.280480593,-0.740851164,0.175593525,-0.050480522
1.029948711,0.164918765,0.672970951,-0.721189737,0.006610753,-0.006608126,-0.000611132,0.133952498,-0.234922364,0.280434459,-0.740834892,0.175547302,-0.050537985
1.034950614,0.165964633,0.671875238,-0.721617043,0.008178241,-0.007781787,-0.000707639,0.133923516,-0.23497355,0.280398965,-0.7408005,0.175503626,-0.050583739
1.039947748,0.167440578,0.671767175,-0.722808838,0.007992494,-0.008848899,-0.000421253,0.133913904,-0.234990522,0.280387223,-0.740764141,0.175460845,-0.050626207
1.044946194,0.168060258,0.673060715,-0.722029269,0.009520139,-0.007379151,-0.00112268,0.133903056,-0.234798625,0.280596375,-0.740728199,0.175418794,-0.050684057
1.049945354,0.168039292,0.672429442,-0.720897079,0.008849911,-0.006132103,-0.001625925,0.133898601,-0.234684274,0.280719727,-0.740704536,0.175377756,-0.05075651
1.05494523,0.166400015,0.673031867,-0.721480131,0.009131808,-0.007132499,0.000102918,0.133895174,-0.234596297,0.280814648,-0.740671515,0.175336644,-0.050812993
1.059946299,0.167510003,0.674280226,-0.722241998,0.007979238,-0.008264373,-0.002460812,0.133894026,-0.234567121,0.280846119,-0.740643024,0.175282314,-0.050876718
1.064948201,0.167122409,0.672935367,-0.721992731,0.008456965,-0.006005173,-0.001896624,0.133975655,-0.234546259,0.280868739,-0.740611017,0.175242484,-0.050947096
1.069945097,0.164573058,0.673826456,-0.723126948,0.008219337,-0.007688667,-0.00129654,0.134085923,-0.234540954,0.28087467,-0.740581274,0.175188974,-0.051005855
1.074942946,0.164090216,0.673155725,-0.721645594,0.009678819,-0.007813533,-0.001356369,0.134170771,-0.234536871,0.2808792,-0.740546823,0.17514123,-0.051068205
1.079941869,0.164056018,0.672858,-0.722962499,0.008496773,-0.005887495,-0.000770424,0.134198904,-0.234535515,0.280880719,-0.740515769,0.175098717,-0.051129192
1.084941864,0.164613709,0.671809018,-0.723195732,0.007905409,-0.006542096,-0.000220755,0.134220555,-0.234534472,0.280881882,-0.740484416,0.175060481,-0.051185217
1.089942813,0.1647131,0.672332466,-0.722808003,0.008196995,-0.005994905,-0.000738455,0.134133011,-0.234684467,0.280885816,-0.740455925,0.175019205,-0.051244162
1.094945312,0.166090429,0.672285914,-0.723134637,0.007110749,-0.006562304,-0.000418889,0.134065643,-0.234799892,0.280888826,-0.740431964,0.174981996,-0.051296577
1.099942684,0.166559041,0.673292577,-0.723327518,0.006931027,-0.007065058,0.000730271,0.134043306,-0.234838158,0.280889839,-0.740405202,0.174945042,-0.051349763
1.10494101,0.166136026,0.672731698,-0.722311378,0.008754782,-0.005786583,-0.000230524,0.134026125,-0.234867603,0.280890584,-0.740375578,0.174904913,-0.051407125
1.109939933,0.16680865,0.673423409,-0.721031964,0.006546661,-0.006762125,-0.000201431,0.134073853,-0.234735787,0.280731708,-0.740360677,0.174872503,-0.051464416
1.114940166,0.166954741,0.672139943,-0.722131491,0.005813023,-0.007708497,0.000573531,0.134164587,-0.234491229,0.280448526,-0.74034059,0.17482774,-0.051509179
1.119947314,0.16744414,0.67234832,-0.721396506,0.005288378,-0.006911481,-0.000549914,0.134194672,-0.234410122,0.280354649,-0.740324736,0.174793378,-0.05156599
1.124949455,0.16633372,0.673147023,-0.721696556,0.007938845,-0.007037153,-0.000982173,0.134217814,-0.234347731,0.280282408,-0.740295172,0.17475228,-0.051630042
1.129946589,0.167893559,0.673150837,-0.72279048,0.006962396,-0.007902952,-0.002192762,0.134225503,-0.234327048,0.280258447,-0.740271688,0.174706787,-0.051687609
1.134944797,0.166453928,0.671102703,-0.723076999,0.008877934,-0.007660282,-0.0005627,0.134487271,-0.234246671,0.28045404,-0.740232348,0.174662247,-0.051737782
1.139943719,0.166205898,0.672413528,-0.723028541,0.008881339,-0.006996736,-0.004435238,0.134574071,-0.234220013,0.280518889,-0.7402004,0.174607411,-0.051808927
1.144943595,0.166701123,0.672142982,-0.720972121,0.008188408,-0.006714247,-0.003092104,0.134640858,-0.234199509,0.280568779,-0.740175009,0.174560681,-0.051874869
1.149944782,0.164850131,0.671838939,-0.720753789,0.008398507,-0.008109294,-0.002929151,0.134663001,-0.234192714,0.280585319,-0.740151942,0.174510717,-0.051943898
1.154947042,0.164672539,0.672150373,-0.721121132,0.009476917,-0.007395293,-0.001608213,0.134732902,-0.234493345,0.280545384,-0.740117192,0.174466312,-0.052001115
1.159944415,0.163832188,0.670267403,-0.721033335,0.008913051,-0.007925136,-0.003206885,0.134769157,-0.234668732,0.280519098,-0.740075827,0.174412757,-0.052054826
1.164942384,0.163366705,0.671301901,-0.721541345,0.00966307,-0.006251424,-0.00187778,0.134797052,-0.234803677,0.280498892,-0.74004674,0.174367502,-0.052111581
1.169941306,0.164307684,0.671771169,-0.722633421,0.009713384,-0.007210497,-0.00195816,0.13480629,-0.23484841,0.280492187,-0.740011096,0.174315944,-0.052169327
1.174940944,0.164433628,0.671642721,-0.722491205,0.00726403,-0.006967773,-0.000118708,0.134756207,-0.234737128,0.280549079,-0.739984691,0.174276307,-0.052215852
1.179941893,0.16712527,0.671043754,-0.723739922,0.006786772,-0.006909237,-0.00077188,0.134681925,-0.234553322,0.280630529,-0.739959896,0.174240336,-0.05226792
1.184943914,0.166536838,0.671010256,-0.723064005,0.006062551,-0.006021804,0.000847543,0.134624779,-0.23441188,0.280693203,-0.739939868,0.174206078,-0.052317407
1.189941049,0.167597473,0.670476556,-0.723586679,0.004648177,-0.005552028,-0.001014217,0.134605825,-0.234364986,0.280713975,-0.739925742,0.174171612,-0.052376587
1.194938898,0.165797591,0.671262383,-0.724558115,0.004333016,-0.007776693,-0.000510088,0.134591252,-0.234328911,0.280729979,-0.739911318,0.174123064,-0.052420948
1.19993782,0.163440391,0.670983672,-0.723487318,0.003944402,-0.004593016,-0.000386053,0.134488285,-0.234214082,0.280680895,-0.739901304,0.174087837,-0.052480344
1.204937935,0.162906662,0.671256185,-0.722474635,0.002939958,-0.004887362,0.000112343,0.134409055,-0.234125733,0.280643135,-0.739903629,0.174047559,-0.052543316
1.20993948,0.163771942,0.67307651,-0.722544253,0.003904876,-0.005018467,0.000185086,0.134382784,-0.234096453,0.280630618,-0.739897251,0.174019963,-0.05261194
1.214941382,0.164612666,0.673217416,-0.722110868,0.003948539,-0.004720273,-0.000413748,0.134362563,-0.234073922,0.280620992,-0.739889979,0.1739849,-0.052671954
1.219938517,0.164685562,0.6712358,-0.721025765,0.0038221,-0.004265953,0.001348502,0.134441912,-0.234327078,0.280650377,-0.739881933,0.173962697,-0.052732054
1.224936485,0.161852896,0.673650384,-0.720437706,0.002570748,-0.004824493,0.002011481,0.13458997,-0.234785393,0.280705929,-0.739884317,0.173935473,-0.05278828
1.229935408,0.162362382,0.672612309,-0.721273601,0.003809996,-0.003586139,0.002558271,0.134639069,-0.23493737,0.280724347,-0.739879668,0.17391187,-0.052842449
1.234935284,0.163913742,0.672722459,-0.721451998,0.005023255,-0.00445132,0.002086856,0.134676844,-0.235054299,0.280738533,-0.739865541,0.173885554,-0.052888036
1.239935994,0.165723592,0.674567282,-0.721438706,0.005076574,-0.004873431,0.002525449,0.134689361,-0.235093072,0.280743212,-0.739857852,0.17386809,-0.052940972
1.244938016,0.168408647,0.673190415,-0.723045647,0.005629976,-0.005199782,0.002701321,0.134631008,-0.234916717,0.281038761,-0.739838302,0.173849776,-0.052989017
1.249934793,0.166665241,0.671828389,-0.722190142,0.00604674,-0.004977343,0.003265186,0.134611666,-0.234858245,0.281136781,-0.739824414,0.173836768,-0.053035695
1.254938841,0.166394457,0.672940612,-0.724349916,0.005139576,-0.004486714,0.002907971,0.13459678,-0.234813258,0.281212181,-0.739805937,0.173818603,-0.053083587
1.259937763,0.165202886,0.671832561,-0.723851502,0.004331192,-0.003345247,0.002893207,0.134591848,-0.234798327,0.281237185,-0.739803076,0.173799723,-0.053131357
1.264937997,0.165785536,0.672491491,-0.722632289,0.004172707,-0.004907783,0.001754084,0.134874985,-0.234490052,0.281027019,-0.739789248,0.173772067,-0.053183921
1.269938707,0.165634692,0.672108889,-0.724142969,0.003969168,-0.005118335,0.001979436,0.135039851,-0.234314397,0.280900568,-0.739782095,0.173749,-0.053235676
1.274940729,0.164946228,0.671896935,-0.723432899,0.004556238,-0.004098497,0.003114926,0.13516672,-0.234179229,0.280803263,-0.739766657,0.17372939,-0.05328675
1.279937506,0.163945422,0.673196852,-0.723378718,0.003924193,-0.005883267,0.003329862,0.135208786,-0.234134406,0.280770987,-0.739762306,0.173701942,-0.053328529
1.284935474,0.164109692,0.673016608,-0.722316265,0.00366838,-0.005642531,0.004020045,0.134914517,-0.234324619,0.280692458,-0.739755392,0.173677206,-0.053370938
1.289934278,0.165560961,0.671629071,-0.722856462,0.001539383,-0.005778446,0.003009045,0.134487569,-0.234614268,0.28061226,-0.739762306,0.173654482,-0.053406738
1.294934273,0.165065542,0.670944095,-0.721934438,0.003507491,-0.004228381,0.002755255,0.134159073,-0.234837145,0.280550569,-0.739754617,0.1736359,-0.053450003
1.299935222,0.165379375,0.671411097,-0.721266568,0.001185148,-0.004198676,0.004444394,0.134050146,-0.234911039,0.280530095,-0.739761353,0.173625544,-0.053485166
1.304937243,0.16534093,0.671166539,-0.721723258,0.002491905,-0.005688582,0.003989884,0.133966327,-0.234967902,0.28051433,-0.739765286,0.17360273,-0.053522795
1.309934378,0.16410628,0.671788812,-0.720919967,-8.95E-05,-0.005384961,0.00534742,0.134224549,-0.234686941,0.280610412,-0.739779055,0.173584044,-0.053566959
1.314932466,0.164031535,0.672074199,-0.720999241,5.37E-05,-0.004427639,0.003082177,0.134423241,-0.234470755,0.280684352,-0.739789903,0.173561022,-0.053622287
1.319931388,0.164464265,0.672833323,-0.722265244,0.001354712,-0.003485127,0.002556705,0.134489134,-0.234399065,0.280708849,-0.739792347,0.173546568,-0.053675197
1.324931026,0.165206805,0.672138572,-0.72379601,0.001558823,-0.002119595,0.004129951,0.134539828,-0.234343916,0.280727714,-0.739793897,0.173539892,-0.053724967
1.329931974,0.163779303,0.672178507,-0.723768055,0.001760414,-0.004406187,0.003881047,0.134447023,-0.234352306,0.280736387,-0.739794731,0.173521444,-0.053762678
1.334933996,0.166691855,0.67071265,-0.72281158,0.001151401,-0.004568289,0.003243333,0.134264797,-0.234385744,0.280745536,-0.739797175,0.173508301,-0.053810354
1.33993113,0.163904458,0.673674285,-0.723379552,8.32E-05,-0.003205586,0.005149138,0.134204373,-0.234396845,0.280748576,-0.739806116,0.173495874,-0.053862311
1.34492898,0.164849162,0.673758984,-0.723685622,-0.00204471,-0.003376504,0.004457075,0.134157881,-0.234405383,0.280750871,-0.739825428,0.17348595,-0.053910486
1.349927902,0.163755491,0.673178852,-0.7228719,-0.000465029,-0.002391278,0.005118696,0.134142458,-0.234408215,0.280751646,-0.739837468,0.173477471,-0.053960636
1.354927897,0.16145511,0.673178256,-0.723363817,0.001588844,-0.000382902,0.005271514,0.134452909,-0.234482691,0.280893296,-0.73984015,0.173469916,-0.054017372
1.359928846,0.163891941,0.673029423,-0.721909285,0.001592491,-0.000994686,0.006601093,0.134555846,-0.234507382,0.280940264,-0.739840329,0.173469394,-0.05406367
1.364930868,0.164630651,0.674819469,-0.722114384,0.002355522,-0.002440706,0.007680637,0.134635046,-0.234526396,0.280976385,-0.739846647,0.173472211,-0.054109365
1.369927883,0.164231196,0.672917187,-0.723321736,0.001657825,-0.000994847,0.008083565,0.134661317,-0.234532699,0.280988365,-0.739846945,0.173483983,-0.054146718
1.374925852,0.164265692,0.672688961,-0.722979963,8.28E-05,-0.002547985,0.007875332,0.134536132,-0.234486014,0.280779362,-0.73985523,0.17348896,-0.054181028
1.379924774,0.164340466,0.674487889,-0.722736776,0.000919409,-0.001766389,0.008564658,0.134458646,-0.234457776,0.28065607,-0.739858925,0.173502713,-0.054224148
1.38492465,0.163302153,0.673607826,-0.723148286,-0.000720881,-0.000534018,0.009803635,0.134399027,-0.23443605,0.280561209,-0.739877224,0.173518732,-0.054261461
1.389931798,0.163405538,0.67360425,-0.721949816,-0.000719315,-0.000523646,0.008919527,0.134379268,-0.234428838,0.280529737,-0.73988235,0.173532993,-0.054301299
1.394934058,0.164408907,0.675014257,-0.721261263,-0.000339203,0.001029369,0.009704106,0.134309456,-0.234451041,0.280506909,-0.739905357,0.173553377,-0.05434522
1.399931192,0.164863601,0.674365282,-0.720666528,0.001959078,0.000866473,0.010091387,0.13423124,-0.234486386,0.28050071,-0.739910066,0.173570067,-0.054391205
1.404929042,0.166241556,0.674200773,-0.721857727,0.002940253,0.001856113,0.01058969,0.134171069,-0.234513596,0.280495971,-0.739904821,0.173601553,-0.05443649
1.409927726,0.165843949,0.673588872,-0.721627116,0.001290096,-0.00091727,0.009437955,0.134151116,-0.234522611,0.280494392,-0.739910543,0.173622251,-0.054473042
1.414927602,0.166311249,0.673515201,-0.721936941,0.002671085,0.000323341,0.010173466,0.134135768,-0.23452954,0.2804932,-0.739905,0.173647821,-0.054516315
1.419928551,0.166870371,0.672935843,-0.721107841,0.003246181,-0.000127604,0.007764462,0.134277791,-0.234685868,0.280601889,-0.73989743,0.17365934,-0.054564606
1.424930573,0.1662765,0.673635125,-0.721868992,0.003742945,0.000928742,0.009368313,0.134387076,-0.23480615,0.280685544,-0.739899814,0.173684373,-0.054604188
1.429927468,0.166553959,0.67211014,-0.722546697,0.004877647,-0.00161884,0.009473015,0.134423316,-0.234846041,0.28071329,-0.739884079,0.173699543,-0.054632045
1.434925318,0.167229056,0.671547771,-0.722176135,0.004562819,-0.001366292,0.008950425,0.134451181,-0.234876722,0.280734628,-0.739866734,0.173715681,-0.054663029
1.43992424,0.164740384,0.67016536,-0.72383523,0.004706422,-0.00098071,0.009233241,0.134431794,-0.23480022,0.280709982,-0.739855528,0.173728064,-0.054684896
1.444924116,0.163974598,0.670700192,-0.723910689,0.003421643,-0.001694425,0.00866475,0.13438794,-0.234653696,0.280658931,-0.739847064,0.173734546,-0.054714464
1.449925065,0.164169461,0.672391593,-0.722896159,0.003869786,-0.001714526,0.006598179,0.134373397,-0.234605104,0.280642003,-0.739834785,0.173741505,-0.054753702
1.454927087,0.164706752,0.672781467,-0.723017275,0.005956097,-0.001966093,0.008327722,0.134362206,-0.234567717,0.280628979,-0.739814162,0.173747435,-0.054791514
1.459924221,0.16551502,0.67176044,-0.723112166,0.003390651,-0.002638555,0.00692663,0.134358481,-0.234555319,0.280624658,-0.739806592,0.17375055,-0.054820292
1.464922071,0.166556463,0.670223892,-0.723455846,0.002264861,-0.000500733,0.008710535,0.13435638,-0.234612539,0.280695319,-0.739796877,0.173764467,-0.054854728
1.469920993,0.165504828,0.671425343,-0.722336411,0.002478745,-0.001503567,0.00579136,0.134355679,-0.234631509,0.280718774,-0.739791691,0.173766553,-0.05489248
1.474921465,0.165877402,0.672607183,-0.723672211,0.001938588,-0.000479567,0.008120777,0.134355128,-0.234646097,0.280736804,-0.739794731,0.173782811,-0.0549227
1.479922891,0.164461434,0.673280299,-0.722221553,9.40E-05,-0.001723476,0.007865564,0.134354949,-0.23465094,0.280742794,-0.73980695,0.173785999,-0.054963406
1.484924912,0.167356133,0.673405766,-0.719975471,-0.000671313,-0.00092496,0.006962856,0.134354264,-0.234604433,0.280691713,-0.739822984,0.17379874,-0.055014491
1.489922047,0.165305495,0.672839999,-0.722950757,-0.000816092,7.34E-05,0.006824362,0.134353891,-0.234576583,0.280660987,-0.739838243,0.173807725,-0.055063806
1.494919896,0.164438784,0.673211873,-0.724218488,0.001195565,-0.000190742,0.006440124,0.134353608,-0.23455514,0.280637354,-0.739836574,0.173812434,-0.055107772
1.499918818,0.164104536,0.672391057,-0.722986519,0.000931697,-0.001336233,0.00804979,0.134353504,-0.234548032,0.280629516,-0.73984164,0.173821539,-0.055145375
1.504918814,0.16404441,0.672671199,-0.723407149,-0.000307819,-0.000690471,0.007325938,0.134327322,-0.23462905,0.280562341,-0.739853919,0.173825368,-0.055182274
1.509919763,0.164744467,0.671664178,-0.721467555,0.001088225,-0.000781298,0.005611691,0.13429229,-0.234743118,0.280478477,-0.739860773,0.173828214,-0.055229109
1.514921784,0.161536083,0.672519088,-0.721563816,0.001834611,-0.002936036,0.00855826,0.134265348,-0.234830916,0.280413926,-0.739858568,0.173826948,-0.055250689
1.519918799,0.16235657,0.673699379,-0.722588599,0.001186239,-0.000611023,0.008500169,0.134256423,-0.234860018,0.280392528,-0.73986423,0.173840791,-0.055287138
1.524923086,0.164151549,0.67467618,-0.72299695,0.001892482,0.000123149,0.008195467,0.134249553,-0.234882414,0.280376047,-0.739868283,0.173853889,-0.055328943
1.529922843,0.164297074,0.674428761,-0.723898351,0.003576083,0.001449529,0.008970307,0.134002537,-0.234731421,0.280538887,-0.739866078,0.173875988,-0.055375148
1.534922719,0.165122539,0.673046589,-0.721388936,0.002708578,0.000956514,0.009013515,0.133812472,-0.234615251,0.280664206,-0.739863336,0.173895761,-0.055425525
1.539923668,0.166502833,0.673476398,-0.724780917,0.003193097,5.32E-05,0.008848706,0.13374944,-0.234576732,0.28070575,-0.739850223,0.173914805,-0.055462424
1.54492569,0.166576892,0.671956837,-0.723249137,0.002471371,0.001529837,0.009471543,0.133700952,-0.234547094,0.280737728,-0.739847422,0.17394425,-0.05549657
1.549922824,0.166100457,0.672219694,-0.721943259,0.003788335,0.001152568,0.008238112,0.133960783,-0.234600484,0.280712396,-0.739838481,0.173957944,-0.055537127
1.554920673,0.166678667,0.673155069,-0.721055686,0.004396534,4.48E-05,0.007625902,0.134439722,-0.234705508,0.280656546,-0.739833117,0.173972026,-0.055582698
1.559919834,0.165800631,0.671316028,-0.721662581,0.005750169,-0.00079395,0.00835457,0.134598523,-0.234740332,0.280638039,-0.739816427,0.173985839,-0.055618301
1.564919829,0.167518273,0.671468318,-0.72212714,0.006204002,-0.001556191,0.005281151,0.134720713,-0.234767139,0.280623794,-0.739794791,0.173990056,-0.055657115
1.569920778,0.167409673,0.669397593,-0.72349143,0.005692522,-0.002968204,0.005027447,0.134761229,-0.23477602,0.280619055,-0.739770353,0.173990071,-0.055691592
1.5749228,0.166938081,0.670449555,-0.723264873,0.007356297,-0.00332141,0.003444109,0.134404778,-0.23464188,0.280474871,-0.739746869,0.173972905,-0.055735733
1.579919815,0.166342035,0.671783209,-0.721984386,0.005985301,-0.005783825,0.000735031,0.134286597,-0.2345974,0.280427068,-0.739737153,0.173946247,-0.055792835
1.584918022,0.167721182,0.671600997,-0.721022785,0.006544284,-0.003868749,-0.000515216,0.134195656,-0.234563172,0.280390263,-0.739718556,0.173918515,-0.05584646
1.589917183,0.166824833,0.669472873,-0.722079992,0.007246852,-0.004937637,-0.000590639,0.134165511,-0.234551832,0.280378073,-0.73968643,0.173881322,-0.055888072
1.594917178,0.165199578,0.671003461,-0.722145796,0.00710948,-0.005461205,-0.001600517,0.134288564,-0.234645873,0.28053233,-0.739665747,0.173836529,-0.055941984
1.599917769,0.165773332,0.671171725,-0.721911132,0.008106458,-0.00615519,-0.003138598,0.134365559,-0.234702498,0.280624002,-0.739633799,0.173783883,-0.055998325
1.604919791,0.166160956,0.671603858,-0.722799897,0.006894107,-0.008023188,-0.003516742,0.134424806,-0.234746054,0.280694544,-0.739612639,0.173730418,-0.056054622
1.609916687,0.163723648,0.673435509,-0.723533094,0.006474859,-0.007364979,-0.005269992,0.134444445,-0.234760508,0.280717939,-0.739596069,0.1736743,-0.056114957
1.614915013,0.162619263,0.675117135,-0.722442627,0.006367485,-0.007103143,-0.003711571,0.134459406,-0.234743655,0.280641705,-0.739580512,0.173615769,-0.056177881
1.619913936,0.161146224,0.675445616,-0.722959995,0.004431792,-0.005659507,-0.003570185,0.134464234,-0.234709874,0.280521423,-0.739570498,0.173562914,-0.056245085
1.624913931,0.161482677,0.674536169,-0.723516822,0.005908302,-0.00307886,0.000602273,0.13446793,-0.234683886,0.280428886,-0.73955363,0.173531771,-0.056295305
1.62991488,0.163979709,0.676222801,-0.721328378,0.00622488,-0.004404621,-2.95E-05,0.134469166,-0.234675273,0.28039819,-0.739541769,0.173498288,-0.056359891
1.63491714,0.164051861,0.678754449,-0.721307099,0.006482963,-0.003427608,0.000619597,0.13447012,-0.234668642,0.280374587,-0.739525795,0.173478395,-0.056426801
1.639914513,0.162917137,0.677448153,-0.721156836,0.008403677,-0.002468777,0.002100118,0.134323627,-0.234513432,0.280147433,-0.739504993,0.173459068,-0.056494847
1.644912601,0.163084805,0.67634362,-0.721782565,0.008178877,-0.002777054,0.00326273,0.134210899,-0.234394014,0.279972672,-0.739479423,0.17344223,-0.056548186
1.649911523,0.165525451,0.675799608,-0.722482145,0.0086635,-0.002877862,0.005036335,0.134173527,-0.234354421,0.279914707,-0.739457607,0.173432797,-0.056594197
1.654911518,0.165842101,0.675890028,-0.722157598,0.01013393,-0.003359863,0.004984886,0.134144768,-0.234323949,0.279870123,-0.739417136,0.17343308,-0.056634814
1.659918904,0.163087189,0.672801554,-0.723393142,0.010899545,-0.002968757,0.005970354,0.134326562,-0.234286174,0.280132979,-0.739371717,0.173419192,-0.056668699
1.664921403,0.162813187,0.673375726,-0.724530816,0.011859125,-0.003099169,0.006187712,0.134659901,-0.234229133,0.280615985,-0.739321291,0.173415929,-0.05670445
1.669919252,0.162591845,0.674005806,-0.723561704,0.012649788,-0.002968671,0.006919289,0.134770423,-0.234210223,0.280776143,-0.739269793,0.17341055,-0.05674145
1.674917102,0.164049327,0.67280978,-0.721167445,0.013077207,-0.002464954,0.007825607,0.134855464,-0.234195679,0.280899376,-0.739218473,0.173415869,-0.056779038
1.679916024,0.164398506,0.672817767,-0.721950829,0.01200851,-0.003073591,0.007995165,0.134883672,-0.234190851,0.280940235,-0.739171028,0.173420295,-0.056815039
1.684916019,0.164966807,0.67088306,-0.723303854,0.013874626,-0.002879979,0.008213392,0.134521946,-0.234317183,0.28068766,-0.739111543,0.173421338,-0.056843407
1.689917445,0.165134355,0.671418786,-0.724156916,0.013096155,-0.001418514,0.007974955,0.134402007,-0.234359086,0.280603886,-0.739055812,0.173429474,-0.0568651
1.694919467,0.163387746,0.670236051,-0.724291861,0.011016224,-0.002033481,0.008054786,0.134309709,-0.234391317,0.280539453,-0.73901248,0.173433065,-0.056886673
1.699916601,0.161791116,0.672631741,-0.725102246,0.010500734,-0.002399808,0.006933119,0.134279117,-0.234402001,0.280518085,-0.738973975,0.173431501,-0.05691966
1.704914451,0.162666276,0.672970593,-0.722936511,0.007394384,-0.00232261,0.008063863,0.134302676,-0.234358415,0.280720592,-0.738943279,0.173431963,-0.056951087
1.709913373,0.16483146,0.67211324,-0.723740041,0.008535252,-0.001337804,0.010158205,0.134322152,-0.234331146,0.280841917,-0.738909602,0.17344597,-0.056980528
1.714913249,0.164862409,0.670458078,-0.725769818,0.008951989,-0.002410235,0.009352507,0.134337142,-0.23431015,0.280935287,-0.738867462,0.173454747,-0.057002507
1.719914198,0.164978236,0.669230759,-0.725812554,0.008583206,-0.002395981,0.008899311,0.134342104,-0.234303191,0.280966252,-0.738827467,0.173466057,-0.057018619
1.72491622,0.166526943,0.668492258,-0.724126518,0.00426421,-0.00296479,0.007837228,0.134264067,-0.234325916,0.280898064,-0.738804996,0.173472792,-0.057035711
1.729913116,0.167663321,0.669727743,-0.723372459,0.006545591,-0.003250019,0.008533216,0.134155676,-0.234361753,0.2807827,-0.738779306,0.173484743,-0.057056241
1.734910965,0.167743668,0.669232607,-0.723560333,0.006813568,-0.003644909,0.006138444,0.134072274,-0.234389335,0.280693948,-0.738751769,0.173483789,-0.057079036
1.739909649,0.167359069,0.670019269,-0.723562479,0.007164361,-0.003016876,0.007009685,0.134044617,-0.234398484,0.280664504,-0.738731503,0.173483431,-0.057102844
1.744909525,0.168181241,0.670538783,-0.725975037,0.006924615,-0.005580882,0.005319829,0.134023339,-0.234405518,0.280641854,-0.7386989,0.173468053,-0.057124399
1.749910235,0.166230276,0.672887325,-0.724409223,0.006567131,-0.00741966,0.005369523,0.134258822,-0.234462276,0.28074047,-0.738678753,0.1734519,-0.057153445
1.754912257,0.165519521,0.673283219,-0.722383797,0.00967999,-0.005461105,0.004035939,0.13444002,-0.234505937,0.280816346,-0.738643229,0.173428237,-0.057191178
1.759909153,0.163878486,0.67200911,-0.72192651,0.008095114,-0.006850495,0.005539778,0.134500101,-0.23452042,0.280841529,-0.738617241,0.173395768,-0.057220288
1.764907002,0.165435553,0.672811151,-0.723194957,0.007594948,-0.007719295,0.00561076,0.13454634,-0.234531552,0.280860901,-0.738589346,0.173379779,-0.057243712
1.769905925,0.165826485,0.672828496,-0.724529922,0.010605235,-0.0054432,0.005263025,0.13458778,-0.234448776,0.280928433,-0.738541782,0.173366666,-0.057272933
1.774906397,0.167473823,0.67170155,-0.726249933,0.00902198,-0.008811621,0.006459794,0.134646088,-0.234297618,0.281042188,-0.73849988,0.173350975,-0.057283893
1.779907346,0.168428451,0.671666384,-0.723279059,0.00735702,-0.009905929,0.006079336,0.13466543,-0.234247506,0.281079918,-0.738473713,0.173325345,-0.057303902
1.784909368,0.167257622,0.672933996,-0.722386181,0.008140511,-0.00989073,0.002902215,0.134680301,-0.234208956,0.281108946,-0.738448739,0.173292994,-0.057336215
1.789906383,0.16737555,0.670600176,-0.721133113,0.009145389,-0.00825014,0.003920823,0.134685233,-0.234196171,0.281118542,-0.738414288,0.173271701,-0.05736427
1.794911027,0.164380088,0.669453204,-0.726867318,0.006817652,-0.009143984,0.003964043,0.134369329,-0.234315604,0.281060368,-0.738380551,0.17323339,-0.057368211
1.799910426,0.166156426,0.668997765,-0.726996183,0.005972771,-0.008928151,0.004925549,0.134264588,-0.234355211,0.281041086,-0.738350272,0.173207998,-0.05737127
1.804910302,0.168329239,0.670474648,-0.725977898,0.004309449,-0.010806632,0.002944611,0.134184003,-0.234385684,0.281026244,-0.738333344,0.173172265,-0.057377949
1.809911251,0.16809912,0.67392081,-0.720428526,0.005816881,-0.010008068,0.003078428,0.134157285,-0.234395787,0.281021327,-0.738325596,0.173136294,-0.057417564
1.814913034,0.163777471,0.67466408,-0.720602036,0.004876052,-0.010767851,0.00069232,0.134328455,-0.234255597,0.280957043,-0.738313437,0.173074871,-0.057460282
1.819910169,0.162643015,0.669073045,-0.724277318,0.0085882,-0.011609092,0.002024252,0.134432659,-0.234172508,0.280920744,-0.738274097,0.173026606,-0.057469103
1.824908018,0.169014215,0.666082501,-0.727621973,0.005832712,-0.010727345,0.003302175,0.134512842,-0.234108567,0.280892819,-0.738241196,0.172999337,-0.057461523
1.82990694,0.170121402,0.6670596,-0.725825846,0.004336043,-0.01348393,-0.000390478,0.134539425,-0.234087363,0.28088358,-0.738223374,0.172941715,-0.057470784
1.834906578,0.170225531,0.670106113,-0.724247038,0.002015082,-0.014010436,-0.000985934,0.134589642,-0.2342439,0.280940413,-0.738223612,0.172887653,-0.057486884
1.839907527,0.167085111,0.668399394,-0.724014759,0.001837603,-0.014842167,-0.002719263,0.134636298,-0.234470099,0.2810238,-0.738225341,0.172813922,-0.057506844
1.844909787,0.16678521,0.67071259,-0.724203706,-0.000903359,-0.014439625,-0.002158814,0.13467218,-0.234644145,0.281087935,-0.738241076,0.172746524,-0.057527386
1.84990716,0.165433556,0.670015633,-0.723724008,-0.000136993,-0.013893588,-0.00403326,0.134684086,-0.234701857,0.281109184,-0.738247335,0.172662541,-0.057553116
1.854905128,0.167117253,0.66817683,-0.725061655,-0.002011905,-0.014562441,-0.005584878,0.13469325,-0.234746248,0.281125575,-0.738268316,0.172577187,-0.057579149
1.859904051,0.168806344,0.667971909,-0.725983858,-0.002170465,-0.017045135,-0.007569636,0.134693488,-0.234509796,0.280852616,-0.738276422,0.172480509,-0.057594441
1.864903927,0.170136362,0.66678822,-0.725730777,-0.001404881,-0.015872302,-0.010222514,0.134693667,-0.234327853,0.280642569,-0.738285601,0.172383279,-0.057621323
1.869904876,0.168567702,0.665744185,-0.727263927,-0.003881959,-0.018046577,-0.011756099,0.134693742,-0.234267533,0.280572921,-0.738305032,0.172274381,-0.057646476
1.874907136,0.167394623,0.666085541,-0.727716863,-0.006242586,-0.019137971,-0.012945856,0.134693787,-0.234221116,0.280519366,-0.73834455,0.172152653,-0.057668645
1.879904509,0.165900603,0.668439567,-0.72545898,-0.008501695,-0.019883135,-0.013938838,0.134776548,-0.234235555,0.280562907,-0.738398075,0.172020078,-0.057711475
1.884902358,0.163387403,0.669702947,-0.724443436,-0.009911397,-0.018011389,-0.014247299,0.13492389,-0.234276846,0.280658454,-0.738459945,0.171890795,-0.057763118
1.88990128,0.160128281,0.672192812,-0.725699842,-0.013230731,-0.01687769,-0.014864388,0.134972751,-0.23429054,0.280690134,-0.738543391,0.171761334,-0.057828002
1.894901276,0.158806443,0.672999024,-0.726206124,-0.01364745,-0.017466258,-0.009370312,0.135010332,-0.234301075,0.280714512,-0.738623559,0.171648115,-0.057869978
1.899901986,0.159310877,0.675504267,-0.723474383,-0.016108546,-0.016098522,-0.007927898,0.135022789,-0.234304562,0.280722588,-0.738720059,0.171542227,-0.05792442
1.904903889,0.162383378,0.674776852,-0.72211355,-0.015523886,-0.015379606,-0.009776114,0.134971246,-0.234509617,0.280585825,-0.738816142,0.17143631,-0.057981744
1.909900784,0.163014695,0.672002971,-0.724460781,-0.013784211,-0.014534231,-0.010111274,0.134954169,-0.234577611,0.280540466,-0.738890111,0.171340302,-0.058023583
1.914898634,0.165553093,0.672325611,-0.724395454,-0.013574158,-0.016476229,-0.009445576,0.134941027,-0.234629914,0.280505568,-0.738971233,0.171240404,-0.05805653
1.919897556,0.16634196,0.671150208,-0.721112549,-0.012925522,-0.015559435,-0.010781942,0.134936675,-0.234647259,0.280494004,-0.739051878,0.171143204,-0.058114324
1.924897552,0.160561532,0.670990288,-0.721939623,-0.013536482,-0.012049857,-0.010806556,0.134931743,-0.234558627,0.280539095,-0.739137352,0.171043694,-0.058178842
1.929904342,0.158572137,0.670968473,-0.724178553,-0.015548626,-0.014744916,-0.011712878,0.134929717,-0.234503999,0.280567378,-0.739230335,0.170922264,-0.058235079
1.934906602,0.158742055,0.670480907,-0.725443184,-0.018676871,-0.012583856,-0.010550123,0.134928152,-0.234461978,0.280589163,-0.739331186,0.170825705,-0.058287319
1.939903736,0.163493723,0.673041105,-0.72225672,-0.017989434,-0.010522228,-0.009697588,0.13492763,-0.234448045,0.280596405,-0.739443719,0.170742676,-0.058362991
1.944901586,0.163193375,0.677040756,-0.718214989,-0.015899137,-0.009128753,-0.010389695,0.135036662,-0.234410062,0.280662119,-0.739551544,0.170661494,-0.058461074
1.949900508,0.163094476,0.677594841,-0.719286799,-0.015970219,-0.010567531,-0.009309625,0.13518317,-0.234369978,0.280744582,-0.739658833,0.170575529,-0.058548491
1.95490098,0.159997165,0.678868234,-0.718213856,-0.013071455,-0.009103697,-0.008445423,0.135295898,-0.234339133,0.280808032,-0.73975122,0.170499131,-0.058642186
1.959901929,0.157078683,0.680095196,-0.717884183,-0.009218141,-0.006369314,-0.007193025,0.135333285,-0.234328911,0.280829072,-0.739829123,0.170431539,-0.058743231
1.964904189,0.155189425,0.679798484,-0.718263507,-0.007243958,-0.007220912,-0.003960267,0.135362044,-0.234321028,0.280845255,-0.739898503,0.170370236,-0.058834076
1.969901323,0.152043372,0.679421544,-0.717670381,-0.004607499,-0.006616232,-0.00288956,0.135807753,-0.234327868,0.280732036,-0.739948988,0.170307502,-0.058912002
1.974899411,0.150582984,0.682146311,-0.719496787,-0.001275482,-0.004446571,0.003337592,0.136150703,-0.234333128,0.280644923,-0.739982367,0.170280427,-0.058983061
1.979898334,0.150951415,0.6834113,-0.718832791,0.001574479,-0.001379022,0.006516272,0.136264428,-0.234334886,0.280616015,-0.739995897,0.170266882,-0.059054002
1.984898567,0.153497532,0.684557259,-0.718051672,0.003107285,-0.000489193,0.011760673,0.136351913,-0.234336212,0.280593783,-0.740010798,0.170279235,-0.059113275
1.989899516,0.15497154,0.682940841,-0.718502104,0.0086685,0.001725239,0.01390771,0.136078835,-0.234332234,0.280435741,-0.73998636,0.170309946,-0.05916556
1.994901538,0.154189512,0.681411982,-0.717429459,0.012220576,0.002335171,0.016160892,0.135563254,-0.234324709,0.280161798,-0.739946365,0.170346349,-0.05920944
1.999898672,0.155690238,0.677978218,-0.719105959,0.014694955,0.00352383,0.017740121,0.135392293,-0.23432222,0.280070961,-0.739881516,0.17040588,-0.059234925
2.004896402,0.157634929,0.676701307,-0.720673859,0.017621877,0.004394475,0.021650959,0.135260761,-0.234320298,0.280001074,-0.739802659,0.170477718,-0.059237596
2.00989604,0.158364698,0.677591085,-0.718270957,0.020106629,0.003377621,0.021770475,0.135217145,-0.234319657,0.279977888,-0.739719391,0.170544505,-0.059259422
2.014895916,0.159923881,0.675702214,-0.717410564,0.0206476,0.003867328,0.02667759,0.135630831,-0.234124258,0.280095637,-0.739622831,0.170636132,-0.059253834
2.019896746,0.160557643,0.677123845,-0.719005287,0.024941675,0.004152024,0.027414165,0.135767996,-0.234059468,0.280134678,-0.739508212,0.1707284,-0.059255779
2.024898767,0.164078534,0.674053788,-0.718809128,0.02595818,0.005387533,0.026119418,0.135873541,-0.234009609,0.280164719,-0.739384949,0.17082715,-0.059252977
2.029896021,0.166357592,0.670553446,-0.721879184,0.026429217,0.005576643,0.027036507,0.135908544,-0.233993083,0.280174673,-0.739252925,0.170929909,-0.059230708
2.034893751,0.16681397,0.66702038,-0.725390851,0.025951995,0.005931173,0.025177181,0.13589029,-0.234232128,0.280296296,-0.739112258,0.171035483,-0.059193082
2.039892673,0.16371268,0.6683954,-0.726034164,0.025547963,0.002894531,0.026404165,0.135873049,-0.234373689,0.280364841,-0.738978326,0.171121836,-0.059152935
2.044892788,0.162446544,0.669806004,-0.724106133,0.024117202,0.006503367,0.025867729,0.135859802,-0.234482616,0.280417562,-0.738862276,0.171213955,-0.05914313
2.049893618,0.159377262,0.676043034,-0.722863257,0.022697473,0.007195218,0.025655849,0.135855407,-0.234518722,0.280435026,-0.738759637,0.171308517,-0.059141472
2.054895639,0.158925399,0.678704262,-0.723118424,0.021779953,0.007972931,0.028323004,0.135906994,-0.234574944,0.280604243,-0.73866415,0.171420172,-0.059146758
2.059892416,0.161127582,0.675806284,-0.722510159,0.024356637,0.006658923,0.02813399,0.135979533,-0.234622285,0.280817419,-0.738545954,0.171523601,-0.059132777
2.064896584,0.158815324,0.678580165,-0.720664799,0.026387088,0.009009229,0.031307299,0.136035353,-0.234658703,0.280981421,-0.738424659,0.171638727,-0.059133615
2.069895506,0.161558017,0.678049564,-0.71940589,0.028808849,0.008443514,0.031138245,0.13605386,-0.234670773,0.281035781,-0.73829478,0.171763584,-0.059130058
2.074895382,0.163980156,0.673457801,-0.722493768,0.033351772,0.006901134,0.031379592,0.136068091,-0.234680071,0.281077623,-0.738136411,0.171887308,-0.059108675
2.079895973,0.167213514,0.673508883,-0.721653879,0.034929696,0.008966805,0.030009395,0.135780394,-0.234526321,0.280985177,-0.737968206,0.172015682,-0.059096608
2.084897995,0.165506795,0.674312413,-0.721293271,0.037132386,0.00581953,0.029369267,0.135559037,-0.234408021,0.280914038,-0.73779285,0.172125727,-0.059081033
2.089895248,0.166764364,0.67336458,-0.719063878,0.038905255,0.007420366,0.028727097,0.135485649,-0.234368801,0.280890465,-0.737607718,0.172242835,-0.05908164
2.094892979,0.167226836,0.673117697,-0.72211802,0.041716088,0.005696547,0.02609949,0.135429174,-0.234338611,0.280872315,-0.737410545,0.172342718,-0.059071593
2.099891901,0.163427263,0.670136452,-0.724050522,0.041687842,0.003341836,0.02580604,0.135328114,-0.234327585,0.28080526,-0.737194836,0.17242752,-0.05904606
2.104892015,0.160762861,0.669740915,-0.725414574,0.045145661,0.003431655,0.024924465,0.135167107,-0.234318063,0.280692011,-0.736971974,0.172507465,-0.059017599
2.109892845,0.160669625,0.66685015,-0.727404594,0.043963581,0.003265611,0.02690433,0.135113731,-0.234314904,0.28065443,-0.736742139,0.172589153,-0.058969345
2.114894867,0.164251015,0.666416764,-0.725662768,0.042877629,0.003804716,0.02594498,0.135072663,-0.234312475,0.280625552,-0.736526668,0.172679648,-0.058931079
2.119891882,0.167854115,0.669906557,-0.723484159,0.044731379,0.002423128,0.026524786,0.135059044,-0.23431167,0.280615956,-0.736303806,0.172768041,-0.058896072
2.124889851,0.169242635,0.67073375,-0.724599063,0.043647382,0.002179818,0.024017418,0.13484934,-0.233965531,0.281121194,-0.736090064,0.172854662,-0.058882955
2.129888773,0.170608804,0.66703999,-0.726233482,0.044575084,-0.00044899,0.024316452,0.134779811,-0.233850747,0.281288743,-0.735856473,0.172930598,-0.05884577
2.134888887,0.171514273,0.665514827,-0.72803241,0.043400366,-0.000972366,0.021842593,0.134726301,-0.233762428,0.281417668,-0.735625207,0.17299974,-0.058807656
2.139890194,0.169331267,0.666790068,-0.728328764,0.043330215,-0.001416383,0.020094778,0.134708568,-0.233733147,0.281460404,-0.7354092,0.173050955,-0.058777425
2.144892216,0.167864487,0.66648972,-0.728476822,0.043177418,-0.002882263,0.017158361,0.134793043,-0.23381345,0.281547666,-0.73518616,0.173087552,-0.058746982
2.149889231,0.167349637,0.665718257,-0.728702128,0.041316271,-0.002870529,0.015243941,0.134845346,-0.233865529,0.281590074,-0.734975338,0.173115715,-0.058726825
2.154887199,0.167098016,0.668813944,-0.727277219,0.04019814,-0.003822474,0.013366998,0.134885579,-0.233905599,0.281622708,-0.734779894,0.173138067,-0.058724102
2.159886122,0.166637704,0.671144366,-0.728089869,0.041254148,-0.002897991,0.013696721,0.134898916,-0.233918875,0.281633526,-0.734582722,0.173161551,-0.058726396
2.164886236,0.165045947,0.670246661,-0.727688074,0.040158838,-0.002801457,0.012676376,0.134851992,-0.233783394,0.281703889,-0.734385848,0.173177883,-0.058731802
2.169887304,0.162139118,0.669826627,-0.726898432,0.042041052,-0.002233269,0.012325249,0.134778753,-0.233591557,0.281789809,-0.734181762,0.173191428,-0.058745407
2.174889326,0.161459953,0.66916132,-0.726140082,0.040115438,-0.001137238,0.015389284,0.134722397,-0.233443946,0.281855911,-0.733991861,0.173222601,-0.058754392
2.179886341,0.163059324,0.669576108,-0.726269484,0.043102905,-0.00152382,0.013309347,0.134703711,-0.233394995,0.281877846,-0.733784974,0.173241049,-0.058764003
2.18488431,0.160791531,0.667430341,-0.726838887,0.042518392,-0.001042788,0.013931658,0.134689331,-0.23335734,0.281894714,-0.733570635,0.173264787,-0.058764622
2.189883232,0.161721334,0.666736305,-0.728556275,0.04267969,0.000239417,0.014405446,0.134492263,-0.23344259,0.281905144,-0.733359933,0.173301235,-0.058764737
2.194883108,0.165056571,0.664607406,-0.728476822,0.04500157,-0.001223393,0.011521875,0.134340629,-0.23350817,0.281913161,-0.73313427,0.173326984,-0.058766998
2.199890137,0.162698984,0.66514498,-0.7244699,0.045732614,0.000395517,0.009935588,0.134290352,-0.233529925,0.281915814,-0.732916832,0.173343956,-0.058788497
2.204892159,0.159804165,0.6641137,-0.725987852,0.044486959,-0.000745735,0.010467173,0.134251669,-0.233546659,0.28191784,-0.73270613,0.17335321,-0.058804147
2.20988965,0.158812895,0.664431989,-0.727109134,0.045952413,0.000264498,0.011617412,0.134349167,-0.233582869,0.28194803,-0.732481658,0.173370197,-0.058811389
2.214887381,0.15717639,0.668755531,-0.725217521,0.043919742,-0.000284674,0.01498648,0.134535745,-0.233641729,0.282001108,-0.732277155,0.173393652,-0.058820322
2.219886541,0.155385524,0.671987176,-0.72140646,0.048177157,0.000171031,0.015679751,0.134597614,-0.233661249,0.282018691,-0.732054591,0.173416123,-0.058845893
2.224886417,0.153867155,0.670825899,-0.721684754,0.049536914,0.000235,0.018833255,0.134645224,-0.23367627,0.282032222,-0.731825531,0.173449948,-0.058857419
2.229887486,0.156733617,0.666289747,-0.725516737,0.049799446,0.002027548,0.022136677,0.134661004,-0.233681247,0.282036722,-0.73157084,0.173506528,-0.058835223
2.234889507,0.16008389,0.66391176,-0.72875756,0.0501584,0.002166259,0.023269309,0.134600639,-0.233142436,0.282255113,-0.731315851,0.173574775,-0.058810461
2.239886522,0.158234164,0.666476488,-0.729288101,0.049575701,0.002460014,0.024446715,0.134580627,-0.232963771,0.282327533,-0.731071711,0.173637688,-0.058791727
2.244884491,0.157171249,0.670808136,-0.726558208,0.047088157,0.003434946,0.024991374,0.134565219,-0.232826307,0.282383263,-0.730846345,0.17371048,-0.058788568
2.249883413,0.156360105,0.667171478,-0.727784872,0.048565663,0.002989417,0.028213153,0.134560108,-0.232780725,0.282401741,-0.730604351,0.173790693,-0.058751702
2.254883289,0.153779522,0.662613451,-0.727491617,0.046647288,0.005554072,0.031471081,0.134652287,-0.232745007,0.282689691,-0.730370045,0.173886761,-0.058712181
2.259884357,0.154778585,0.660229564,-0.732780337,0.042884331,0.006381933,0.033909831,0.134706631,-0.232732996,0.282852888,-0.730140865,0.174000159,-0.05864146
2.264886379,0.155614138,0.661877811,-0.735103905,0.040089373,0.006504664,0.036545768,0.134748429,-0.232723758,0.282978475,-0.72993499,0.174118757,-0.058567848
2.269883156,0.157927886,0.663209856,-0.733369827,0.034832947,0.007258635,0.039340772,0.134762302,-0.232720688,0.283020109,-0.729750395,0.174250171,-0.058494441
2.274881601,0.156316668,0.668675065,-0.734370649,0.035501208,0.006372283,0.041692469,0.134416327,-0.23276934,0.283028364,-0.729570329,0.174383894,-0.058419228
2.279880762,0.156063199,0.666958511,-0.727370858,0.034115121,0.009633463,0.046446599,0.133941963,-0.232836887,0.283007115,-0.729399443,0.174545065,-0.058349971
2.284880638,0.158124238,0.673185885,-0.731681883,0.03282208,0.011853171,0.049924795,0.133576989,-0.232888862,0.282990724,-0.729241014,0.174737468,-0.058289759
2.289881706,0.156736642,0.672227263,-0.727980971,0.032211315,0.01537415,0.057561979,0.133455962,-0.232906103,0.2829853,-0.72907567,0.174958155,-0.058192015
2.294883728,0.156237766,0.679580629,-0.72793287,0.03014484,0.017824447,0.060751092,0.133362845,-0.23291935,0.282981128,-0.728939652,0.175198555,-0.058132913
2.299880981,0.154154062,0.676890314,-0.727615356,0.030036753,0.023437215,0.066195101,0.133621544,-0.232877627,0.283083826,-0.728788018,0.175476462,-0.058053013
2.304879189,0.15892747,0.675336301,-0.732579529,0.029115772,0.026746664,0.072395608,0.133820578,-0.23284553,0.283162862,-0.728640199,0.175794646,-0.057945784
2.309878111,0.160503671,0.672296882,-0.730112612,0.026715534,0.031021036,0.077952385,0.133886576,-0.232834876,0.283189058,-0.72849977,0.176147729,-0.057829101
2.314877748,0.162924409,0.67305094,-0.73401016,0.023186866,0.032284874,0.080964178,0.133937359,-0.23282668,0.283209234,-0.728375494,0.176512286,-0.057700094
2.319878578,0.1651586,0.67331785,-0.734064043,0.018990031,0.038370606,0.087476805,0.133762404,-0.232877582,0.283251554,-0.728270352,0.176935345,-0.057567697
2.324880838,0.16606532,0.672505081,-0.735462606,0.014371381,0.040016018,0.087105989,0.133433849,-0.232970968,0.283320129,-0.728182197,0.177355349,-0.057438679
2.329878569,0.168110594,0.670188189,-0.74045682,0.010962764,0.043574743,0.091241799,0.133324906,-0.233001933,0.283342868,-0.728106141,0.177813023,-0.057290401
2.334882498,0.165070996,0.663412809,-0.745701432,0.005008367,0.045130379,0.09247034,0.133241087,-0.233025745,0.283360362,-0.728052676,0.178267911,-0.057122312
2.339881659,0.16961658,0.662567616,-0.749152839,-0.0049379,0.050027851,0.095316596,0.133213297,-0.233033642,0.283366174,-0.728044391,0.178756118,-0.05694066
2.344881773,0.172096089,0.66535598,-0.752923012,-0.016603179,0.048981983,0.098808713,0.13273859,-0.232828736,0.283377051,-0.728091717,0.179256096,-0.056751203
2.349882603,0.1691553,0.666260064,-0.756584346,-0.033502754,0.051867813,0.107170023,0.132581174,-0.232760802,0.283380657,-0.72820586,0.17978844,-0.05654639
2.354884624,0.162524745,0.671684623,-0.768877447,-0.057286654,0.037684631,0.138074294,0.132460073,-0.232708529,0.283383429,-0.728412628,0.180355951,-0.056164563
2.359881878,0.137879357,0.677229106,-0.79407829,-0.107112899,-0.033527829,0.213952586,0.132419914,-0.232691199,0.283384353,-0.728759646,0.180853069,-0.05517846
2.364879847,0.116675057,0.668760657,-0.787372291,-0.154653817,-0.123829395,0.326591343,0.132393673,-0.233032033,0.283499211,-0.729216039,0.181341618,-0.053383715
2.369878769,0.103839129,0.678861201,-0.763612151,-0.186845317,-0.183293834,0.436841279,0.132386118,-0.233232692,0.283565551,-0.729734957,0.181988671,-0.051054396
2.374878645,0.052617833,0.689620018,-0.777188122,-0.257470638,-0.245664388,0.560664535,0.132380322,-0.233387083,0.283616602,-0.730480909,0.182719275,-0.048122559
2.379879713,0.002848093,0.672697306,-0.797513187,-0.38877058,-0.323334038,0.750032187,0.132378399,-0.233438268,0.28363353,-0.731662989,0.183715597,-0.044025354
2.384881735,-0.004431414,0.678978801,-0.775603652,-0.546019793,-0.324017614,0.91936022,0.131835923,-0.234019041,0.283162415,-0.733636856,0.185313717,-0.03929298
2.38987875,0.025267437,0.690555215,-0.790307701,-0.689133883,-0.251796424,0.989823759,0.131110504,-0.234757558,0.282517999,-0.736284852,0.187516317,-0.034667831
2.394876719,0.041092463,0.643003047,-0.877246916,-0.838249147,-0.168194354,1.007519722,0.130552337,-0.235325798,0.282022148,-0.739542902,0.190104812,-0.030044246
2.399875641,0.005856554,0.59093827,-0.916808486,-0.968756258,-0.095078357,1.07154882,0.130367264,-0.235514224,0.281857729,-0.743359566,0.193035975,-0.025139619
2.404875517,-0.054510694,0.633243501,-0.888777852,-1.04770422,0.033812206,1.164063573,0.130224854,-0.235659197,0.281731248,-0.747577488,0.196721807,-0.020618184
2.409876585,-0.074075229,0.706247211,-0.883972943,-1.077118754,0.223945946,1.260669589,0.128959537,-0.238189772,0.279481351,-0.752145231,0.201476216,-0.01658348
2.414879084,-0.048027277,0.844834805,-0.839775622,-1.055592656,0.396328986,1.334948659,0.127985969,-0.240136862,0.277750194,-0.756822646,0.207153395,-0.013311593
2.419876575,-0.01552397,0.900584936,-0.805500329,-1.06548202,0.58095938,1.399924755,0.12766315,-0.240782484,0.277176172,-0.761647224,0.213743553,-0.010772766
2.424874544,0.013986864,0.892495215,-0.861691535,-1.143883944,0.695415556,1.522455335,0.127414748,-0.241279244,0.276734531,-0.766843796,0.221287951,-0.007964381
2.429873466,0.074894749,0.88191992,-0.939224839,-1.22829926,0.669160306,1.710014939,0.125332311,-0.243664056,0.275337517,-0.772058368,0.229379147,-0.003968437
2.434873343,0.099767596,0.86513716,-0.97241503,-1.401254296,0.643637061,1.887963176,0.121707633,-0.24774389,0.272998154,-0.777958751,0.23802574,0.000848037
2.439874649,0.025296159,0.922866225,-1.002801538,-1.440859914,0.581537902,2.139819145,0.120505758,-0.249096677,0.272222459,-0.783847451,0.247203186,0.006832657
2.444876909,-0.097394571,1.150667191,-0.908327281,-1.31240344,0.570618153,2.249061823,0.119580999,-0.250137568,0.271625608,-0.789163232,0.256449729,0.012291904
2.449873924,-0.221984655,1.193941951,-0.855933368,-1.157109857,0.652642131,2.298150063,0.11927437,-0.250482678,0.271427721,-0.793772936,0.265925646,0.01732754
2.454872131,-0.303410381,1.239231706,-0.832976639,-0.943724155,0.788920164,2.31957984,0.111406557,-0.256235778,0.267018318,-0.797384381,0.275899112,0.021876022
2.459871054,-0.334433675,1.330994248,-0.840579689,-0.726821303,0.948102891,2.27550149,0.108797736,-0.258143395,0.265556216,-0.800162196,0.286187649,0.025364293
2.464871168,-0.377473801,1.431248307,-0.993128777,-0.447581321,1.036496162,2.158776283,0.106790431,-0.259611189,0.264431238,-0.801646471,0.296220124,0.02820755
2.469878197,-0.406624347,1.490569115,-1.144330025,-0.110893682,1.011507273,1.936422467,0.106124841,-0.260097891,0.264058232,-0.801396906,0.305067182,0.030657781
2.474880219,-0.397711933,1.498017073,-1.3489995,0.177192926,0.886994064,1.665067554,0.09783145,-0.264695227,0.262757719,-0.799568176,0.312405616,0.033143237
2.479877472,-0.507571578,1.385163188,-1.422119975,0.401696831,0.650535226,1.3753196,0.093156017,-0.267264545,0.262075692,-0.796392679,0.317520738,0.03605672
2.484875202,-0.685419202,1.167014956,-1.352058172,0.513309717,0.443721026,1.117318273,0.089558594,-0.269241512,0.261550933,-0.792631507,0.320783019,0.039145622
2.489874125,-0.869824052,0.944254398,-1.260833979,0.556439817,0.266161621,0.915597558,0.088365756,-0.269897014,0.261376947,-0.788580179,0.322551012,0.04251999
2.494874001,-1.01105988,0.749184906,-1.167828679,0.540472329,0.131365076,0.778124034,0.083958924,-0.270758569,0.262128651,-0.784544885,0.323280394,0.046135433
2.499875069,-1.097954988,0.623736858,-1.11171031,0.500186205,0.015483662,0.698700309,0.07897938,-0.271404445,0.263270944,-0.780645669,0.323327094,0.05006589
2.50487709,-1.143335819,0.554068804,-1.078323007,0.448000014,-0.104212783,0.650530159,0.075147964,-0.271901399,0.264149845,-0.776887178,0.322767675,0.054403428
2.509874105,-1.163453579,0.526502371,-1.074441075,0.390264302,-0.225986555,0.609612823,0.073877536,-0.272066176,0.264441282,-0.773318529,0.321631998,0.059105176
2.514872074,-1.157868624,0.527864099,-1.086948037,0.337654024,-0.376569539,0.555448592,0.072900034,-0.272192955,0.264665544,-0.769907057,0.319758952,0.064202793
2.519870996,-1.139676452,0.551205397,-1.100105524,0.298171043,-0.548875868,0.475065082,0.069907039,-0.272166342,0.266664922,-0.766614377,0.316970408,0.06958849
2.524870872,-1.12724793,0.562197804,-1.10893774,0.273942143,-0.738971829,0.371418923,0.067604125,-0.272145867,0.268203288,-0.763369322,0.313105553,0.075263597
2.529871941,-1.128544211,0.567480564,-1.091285586,0.260043085,-0.927857935,0.254062951,0.066840522,-0.272139102,0.268713385,-0.760154247,0.308127433,0.081135243
2.534873962,-1.13875711,0.557580829,-1.068820238,0.247600228,-1.098915339,0.135463923,0.066252984,-0.272133857,0.269105881,-0.757006884,0.302108228,0.087124765
2.539870977,-1.147379041,0.540920198,-1.033900976,0.232782632,-1.24529314,0.023054121,0.065564349,-0.272346467,0.269967914,-0.753968477,0.295172632,0.093153164
2.544868946,-1.146488667,0.531939328,-1.002599716,0.214940891,-1.363958001,-0.081334457,0.064535171,-0.272726804,0.271371275,-0.751083434,0.287481487,0.09912993
2.549868345,-1.132720351,0.53212142,-0.976094663,0.200911224,-1.464781404,-0.178937748,0.064193912,-0.272852927,0.271836609,-0.748367667,0.279137969,0.105010852
2.554868221,-1.114524245,0.540854752,-0.957406104,0.193479016,-1.549226642,-0.266283959,0.063931338,-0.272949994,0.272194654,-0.745774686,0.270225823,0.110765085
2.559868813,-1.094537735,0.550851822,-0.943923652,0.185367391,-1.613732576,-0.356299639,0.063844271,-0.27298215,0.272313356,-0.743334651,0.260817528,0.116309993
2.564870834,-1.06098783,0.554291964,-0.9430632,0.177552819,-1.665900469,-0.439676583,0.06711451,-0.272590995,0.273287296,-0.741022587,0.251012862,0.121670634
2.569867849,-1.028888464,0.552137136,-0.950917006,0.159255087,-1.711229801,-0.52493912,0.068198852,-0.272461265,0.273610204,-0.738875747,0.240803018,0.126873121
2.574865818,-0.992088854,0.560356557,-0.963204741,0.128084645,-1.753012657,-0.608760834,0.069033183,-0.272361457,0.273858666,-0.736971796,0.230217382,0.131881505
2.57986474,-0.948988676,0.588205695,-0.986669838,0.081750274,-1.793884754,-0.702825189,0.069309831,-0.272328377,0.27394107,-0.735431015,0.2192408,0.136621237
2.584864855,-0.893913865,0.627900541,-1.011597157,0.026659258,-1.839243412,-0.811517298,0.073396906,-0.272570759,0.275034547,-0.734303653,0.207809031,0.140995637
2.589865685,-0.838540792,0.678339303,-1.030020595,-0.014718769,-1.889162302,-0.940260589,0.075710781,-0.272717386,0.275652021,-0.733533442,0.195840642,0.144924343
2.594867945,-0.791222036,0.738016784,-1.040775418,-0.042568419,-1.93780911,-1.086415768,0.077491157,-0.272830218,0.27612713,-0.733081162,0.18327269,0.148289114
2.599865198,-0.750592887,0.79882443,-1.040492177,-0.052368328,-1.980161428,-1.246749163,0.078081496,-0.27286765,0.276284665,-0.732861042,0.170076147,0.150999501
2.604869127,-0.719252944,0.849871159,-1.033975601,-0.046444103,-2.00994277,-1.412973166,0.081644207,-0.272876412,0.2756567,-0.732785821,0.156270295,0.153013021
2.609868288,-0.688413799,0.886753142,-1.021232128,-0.025507171,-2.028534651,-1.57943213,0.085960113,-0.272859126,0.274692982,-0.732754111,0.141922355,0.15431045
2.614868164,-0.654513955,0.90808636,-1.008185387,-0.002406086,-2.036033392,-1.738135934,0.089280918,-0.272845834,0.273951471,-0.732721627,0.127116621,0.154950723
2.619869232,-0.613447726,0.916238666,-0.988718092,0.019182637,-2.038922787,-1.884750247,0.090382032,-0.272841424,0.273705602,-0.732674301,0.111912675,0.154966757
2.624871492,-0.574557722,0.91216737,-0.975127816,0.034110542,-2.040418625,-2.012565374,0.091229267,-0.272838026,0.273516417,-0.73261261,0.096386775,0.154481083
2.629868746,-0.530755222,0.894890547,-0.95691818,0.035568904,-2.043115139,-2.12147069,0.099002793,-0.272016078,0.273519307,-0.732562721,0.080597982,0.153552905
2.634866953,-0.483367562,0.865789473,-0.948147833,0.018739955,-2.048826694,-2.204987288,0.104983993,-0.271383643,0.273521513,-0.732573271,0.064640053,0.152379915
2.639866114,-0.432749838,0.832603812,-0.94034481,-0.011909493,-2.061654806,-2.261914015,0.106967248,-0.271173924,0.273522258,-0.732713759,0.048568629,0.151103616
2.64486599,-0.382133543,0.810100019,-0.930914283,-0.045305274,-2.07852602,-2.288238287,0.108493231,-0.271012545,0.273522824,-0.732987881,0.032473207,0.149804816
2.649867058,-0.335160851,0.793987215,-0.911295116,-0.086786225,-2.0903337,-2.292720318,0.114550568,-0.270503134,0.272001535,-0.733448029,0.016438829,0.148523614
2.65486908,-0.285579771,0.766844511,-0.899014473,-0.133154199,-2.088388443,-2.281861544,0.124824554,-0.269650131,0.269292533,-0.734097719,0.000580334,0.147297814
2.659866333,-0.250404656,0.739829481,-0.886447251,-0.172894925,-2.084318161,-2.255134106,0.128231212,-0.269367307,0.268394291,-0.734909415,-0.015073586,0.146201938
2.664864302,-0.227519184,0.71830231,-0.862552762,-0.206640884,-2.064097404,-2.210808754,0.130852401,-0.269149661,0.267703116,-0.735859036,-0.030462675,0.145216212
2.669863462,-0.207685769,0.710292101,-0.854614735,-0.235692218,-2.02794981,-2.155342102,0.131721541,-0.26907751,0.267473936,-0.736946642,-0.045434982,0.14429602
2.674863338,-0.193963617,0.70307225,-0.832758665,-0.256447673,-1.98068285,-2.086460114,0.146272987,-0.267366439,0.263640165,-0.738127232,-0.059955809,0.14345324
2.679864407,-0.183946848,0.702608645,-0.81436193,-0.277817369,-1.909068584,-2.003723145,0.151097983,-0.266799092,0.262368947,-0.73941946,-0.073878773,0.142644241
2.68486619,-0.171193108,0.708498299,-0.812340021,-0.30335331,-1.829569697,-1.920071721,0.154810488,-0.266362548,0.261390835,-0.740833819,-0.087160103,0.141860634
2.689863682,-0.142645687,0.737580121,-0.832896471,-0.35231173,-1.751850963,-1.838967085,0.156041488,-0.266217798,0.261066526,-0.742504597,-0.099792555,0.141096234
2.69486165,-0.084401242,0.775108576,-0.890431046,-0.423596442,-1.696989298,-1.773045301,0.167096779,-0.26480478,0.257905185,-0.744512796,-0.111858808,0.14041017
2.699860573,0.008974349,0.832302511,-0.974428415,-0.510682762,-1.68985033,-1.74347496,0.173263803,-0.264014125,0.256136388,-0.746946216,-0.123609498,0.139830232
2.704860449,0.149906248,0.928560555,-1.066193819,-0.606452048,-1.74793613,-1.775023699,0.178008899,-0.2634058,0.254775465,-0.74990499,-0.135426298,0.139270425
2.709861517,0.297860563,1.044870019,-1.143548608,-0.684698939,-1.878547788,-1.884391785,0.179582283,-0.263204068,0.254324198,-0.753308952,-0.147869125,0.138600975
2.714863777,0.40687722,1.142497659,-1.194409132,-0.722153842,-2.05688858,-2.053450823,0.186319321,-0.262545943,0.25123477,-0.756957054,-0.161390767,0.137805179
2.719861031,0.470360816,1.209008098,-1.214167356,-0.710811973,-2.248869419,-2.252948999,0.194126025,-0.261820555,0.247445151,-0.760555267,-0.176218346,0.136902198
2.724858761,0.489695251,1.237588763,-1.193709612,-0.639789283,-2.423675299,-2.45968914,0.200132757,-0.261262447,0.244529307,-0.763774216,-0.192366213,0.135790542
2.729857683,0.471590996,1.222009778,-1.134553313,-0.51367557,-2.560125113,-2.640691519,0.202124476,-0.261077374,0.24356246,-0.766330481,-0.209648043,0.134468853
2.734857798,0.436931849,1.143910766,-1.053055882,-0.341629356,-2.637033701,-2.764657974,0.203656971,-0.260934979,0.242818534,-0.767943203,-0.227688655,0.133044064
2.739864826,0.392700672,1.029032707,-0.9550156,-0.151735872,-2.668559313,-2.814610243,0.215565801,-0.257867783,0.236088052,-0.768487632,-0.246035576,0.131690443
2.744867086,0.366693616,0.886787593,-0.878065825,0.012077216,-2.6510818,-2.785710812,0.224728838,-0.255507737,0.230909407,-0.768111348,-0.264212281,0.130586371
2.749864101,0.374734551,0.754191995,-0.81643939,0.132199645,-2.601086378,-2.697053432,0.227767125,-0.254725218,0.229192257,-0.767077625,-0.281858116,0.129784852
2.754862309,0.429504067,0.639349818,-0.787074208,0.203500092,-2.539579868,-2.561060905,0.230104879,-0.254123122,0.227871016,-0.765690923,-0.298669159,0.12942785
2.759861231,0.516707599,0.564775288,-0.767470479,0.234813571,-2.497624636,-2.394026995,0.238104314,-0.250700861,0.223218441,-0.764258265,-0.31457746,0.129609063
2.764861107,0.611284435,0.545947254,-0.742456734,0.240239128,-2.477588177,-2.220480204,0.251564205,-0.244809061,0.215377137,-0.76303184,-0.32965377,0.130286157
2.769862413,0.703900397,0.553706408,-0.702258587,0.22379382,-2.472456694,-2.043044567,0.256027251,-0.242855459,0.212777108,-0.762219429,-0.343971908,0.131494924
2.774864674,0.791406453,0.560766518,-0.66881299,0.204640135,-2.475443363,-1.872803569,0.259461254,-0.24135229,0.210776553,-0.761788726,-0.357570827,0.133246198
2.779861689,0.863520682,0.554853797,-0.617513776,0.174973249,-2.478075266,-1.71489501,0.260599911,-0.240853861,0.210113212,-0.761829257,-0.37056601,0.135515764
2.784859896,0.917386174,0.545794487,-0.550151706,0.146557182,-2.464137077,-1.552293062,0.275412083,-0.232394889,0.200378567,-0.762344003,-0.382896423,0.138246268
2.789858818,0.948715031,0.529496133,-0.459230185,0.124635331,-2.408874273,-1.38878727,0.280323535,-0.229590058,0.197150737,-0.763254404,-0.394463658,0.141270548
2.794858694,0.972409725,0.509718895,-0.3629843,0.116143718,-2.307419777,-1.224167585,0.284102559,-0.227431923,0.194667146,-0.764443874,-0.405079663,0.144442156
2.799859762,1.00015831,0.476736605,-0.270999461,0.117102467,-2.157111645,-1.058934569,0.285355628,-0.226716325,0.193843633,-0.765769362,-0.414556086,0.147612572
2.804861784,1.02430892,0.469441235,-0.171316549,0.128750786,-1.973836064,-0.897824109,0.294267118,-0.221869037,0.185952052,-0.767150402,-0.422807693,0.150574625
2.809859037,1.03894937,0.477660567,-0.092311814,0.140749365,-1.73139441,-0.760887265,0.299188614,-0.219198525,0.181539357,-0.768482208,-0.429671586,0.153021663
2.814857006,1.035108685,0.439513922,-0.030555718,0.158110872,-1.429495096,-0.63851136,0.302975386,-0.217143759,0.178144082,-0.769416571,-0.435110062,0.154779002
2.819855928,1.066295624,0.421595037,-0.01194441,0.168548152,-1.074056983,-0.542270958,0.304230988,-0.216462433,0.17701827,-0.76990509,-0.438828975,0.155509636
2.824855804,1.108911872,0.413241923,-0.007836951,0.175013483,-0.719398141,-0.472533911,0.307930797,-0.214287773,0.173325881,-0.769862294,-0.440965027,0.15512909
2.829857111,1.160933971,0.418104589,-0.00391273,0.174765095,-0.365823954,-0.434446037,0.311914235,-0.21190241,0.16925168,-0.769333422,-0.441615164,0.153470859
2.834858894,1.223027706,0.438206613,-0.019431634,0.185171545,-0.03413818,-0.406321466,0.314979225,-0.210067034,0.166116849,-0.768254995,-0.440876186,0.150625706
2.839856386,1.282866001,0.460109562,-0.036768012,0.217570364,0.267065793,-0.379721165,0.315995514,-0.20945847,0.165077403,-0.766576171,-0.43886134,0.146704897
2.844854355,1.333639145,0.485366046,-0.045387648,0.272046208,0.539589167,-0.338128328,0.316777468,-0.208990216,0.164277613,-0.76428169,-0.435631782,0.14191547
2.849853516,1.377446055,0.503441334,-0.056673307,0.337614864,0.79327333,-0.27649042,0.319097608,-0.20725511,0.163568661,-0.761365175,-0.431190431,0.136416048
2.854853392,1.422945499,0.526056647,-0.066830508,0.413639516,1.013741732,-0.199706286,0.320882797,-0.20592007,0.163023189,-0.75790596,-0.425580472,0.13042362
2.859854698,1.484753251,0.566199839,-0.062856026,0.49979952,1.205679417,-0.112959996,0.321474731,-0.205477402,0.162842318,-0.753967524,-0.418844908,0.124035418
2.864856482,1.542672396,0.615693212,-0.036122061,0.594535172,1.378603697,-0.014333315,0.32193017,-0.205136791,0.162703156,-0.749618649,-0.411031097,0.117340364
2.869853735,1.590109944,0.650492907,-0.003228752,0.682533562,1.54607892,0.0942913,0.322203994,-0.204400837,0.164901093,-0.744898856,-0.402137697,0.110395975
2.874857664,1.623751879,0.673468292,0.034123257,0.748197436,1.712510586,0.2036677,0.322538823,-0.203204587,0.168861389,-0.739923477,-0.392194271,0.103261307
2.879856825,1.642723799,0.690481007,0.06727843,0.776100516,1.890498996,0.315938532,0.322649837,-0.202807933,0.170174539,-0.734908342,-0.381161571,0.095961593
2.884856939,0.110655099,0.081105322,-0.059389599,0.551441908,2.405597687,0.291505963,0.32273525,-0.202502742,0.171184927,-0.729214072,-0.371415198,0.088975511
2.889857531,0.385842353,-0.493476182,0.362970263,0.084731378,3.936291933,0.981600881,0.322763592,-0.202401534,0.17151995,-0.725250781,-0.353042811,0.078420877
2.894859552,0.169735759,0.001058146,0.226965383,-0.288755089,4.283299923,0.968967259,0.319342166,-0.201829523,0.181799561,-0.723556936,-0.33170706,0.066976137
2.899856567,-1.132717013,-0.06705863,0.222988918,-0.329005897,4.537227154,0.794838667,0.318207681,-0.201639861,0.185208097,-0.721429825,-0.315339476,0.053771399
2.904854774,-1.055416703,0.321391404,-0.08767768,-0.707749307,5.188877106,1.917913318,0.317334771,-0.201493934,0.187830716,-0.721896172,-0.290750444,0.043200791
2.909853697,-0.991440654,1.109309196,-0.900935471,-0.754790485,5.314446449,2.433057308,0.317045331,-0.20144555,0.188700333,-0.724696398,-0.26221773,0.034294773
2.914853811,-1.047905087,1.32049644,-1.917743325,-0.24572134,4.802728653,2.585047007,0.309084564,-0.204343125,0.201788828,-0.723155677,-0.236457601,0.028746886
2.919854879,-0.856081486,1.688773513,-1.750956535,-0.510917902,3.698410988,2.965348244,0.304530114,-0.20603013,0.209201917,-0.725518584,-0.213437378,0.02824053
2.924856901,-0.587384939,1.891969085,-0.816546977,-0.528122246,3.584004164,2.877863884,0.301025778,-0.207328185,0.214905784,-0.730281889,-0.19143559,0.025044464
2.929853678,0.098141328,1.218168497,-0.856444836,-0.514897287,4.186367035,2.869678736,0.299863815,-0.207758576,0.216797084,-0.73262012,-0.165439337,0.020369766
2.934851885,0.683529079,0.804793537,-1.117476344,-0.64329201,4.338610172,3.073825121,0.291614234,-0.212072521,0.224136814,-0.73478508,-0.136798531,0.017894756
2.939851046,0.680284739,0.749940157,-0.980246425,-0.721598864,4.726119041,3.254645824,0.281461567,-0.217519149,0.232504413,-0.737895727,-0.106983349,0.014469546
2.94485116,1.193835855,0.831446409,-1.420220733,-0.918923557,5.03010273,3.263600826,0.273649812,-0.221709982,0.238942713,-0.741445303,-0.074432291,0.010259395
2.949852228,1.831075907,1.134307861,-2.145528316,-0.937192678,4.746932983,3.009858608,0.271059543,-0.223099574,0.241077527,-0.744851589,-0.043043654,0.006993397
2.954854488,2.333246469,1.209279418,-2.550207615,-0.893635631,3.855576515,2.797923565,0.269066542,-0.224168763,0.242720142,-0.747669578,-0.01554792,0.006819886
2.959851503,2.388618231,1.274106503,-2.560081959,-0.738435566,2.820130825,2.61538744,0.252476752,-0.233017445,0.251882851,-0.749977887,0.007241019,0.009397053
2.96484971,1.980469108,1.184800982,-2.247374773,-0.574059248,1.911583066,2.512083292,0.239712045,-0.239825889,0.258932918,-0.751732707,0.025200088,0.014252247
2.969848633,1.515074134,0.977241039,-1.925488949,-0.47595343,1.141135335,2.451223373,0.235479504,-0.242083445,0.261270583,-0.752583921,0.039484207,0.021284761
2.974848509,0.900113165,1.070388079,-1.38536191,-0.454192549,0.645630479,2.323954582,0.232222855,-0.243820488,0.263069272,-0.75437969,0.050518747,0.028084161
2.979849577,0.395302504,1.207850218,-0.843190491,-0.404505074,0.473367631,2.192439556,0.223626956,-0.247896016,0.265322417,-0.756823361,0.05976221,0.033295028
2.98485136,0.080506377,1.342195392,-0.407606304,-0.353676945,0.481019974,1.984703541,0.209413111,-0.254570454,0.268731326,-0.759446621,0.068043806,0.036551837
2.989848614,-0.018592013,1.422438741,-0.137910321,-0.210214481,0.699378669,1.808101654,0.204700053,-0.256783545,0.269861639,-0.761868179,0.076535568,0.037485518
2.994846582,-0.009853513,1.537897706,-0.15327175,0.060330492,0.851798773,1.635355473,0.201073691,-0.25848639,0.27073133,-0.762949884,0.08518783,0.037153956
2.999845743,0.070341423,1.456142545,-0.211914986,0.373112321,0.93814373,1.511503816,0.199871257,-0.259051025,0.271019727,-0.762289882,0.093680933,0.036515757
3.004845619,0.232891649,1.485332608,-0.489107132,0.75804776,0.917478859,1.384213448,0.189496174,-0.264692366,0.271777153,-0.759260178,0.102052823,0.036160462
3.009852886,0.389383644,1.397346258,-0.735011399,1.151764393,0.7331025,1.243444204,0.186055988,-0.266562909,0.272028327,-0.753709853,0.109275818,0.036756422
3.014855146,0.541961133,1.148963451,-0.876005054,1.334056735,0.532001555,1.068092227,0.183409005,-0.268002182,0.272221565,-0.746869802,0.115390129,0.038345419
3.019852638,0.634401023,0.930324495,-1.058073401,1.396305799,0.368620634,0.912563026,0.182531327,-0.268479437,0.27228564,-0.739280701,0.120492868,0.040715899
3.024850368,0.661267221,0.807213247,-1.017429113,1.325399518,0.243037075,0.748735666,0.176287323,-0.269515961,0.27625373,-0.73225677,0.124537282,0.043096494
3.029849768,0.555971026,0.721805632,-1.114236712,1.150121093,0.106861502,0.575183511,0.172838941,-0.270025283,0.278539181,-0.725971758,0.127330229,0.045574982
3.034849882,0.580158234,0.749930859,-1.097842932,0.944861412,0.013531055,0.426756233,0.170185655,-0.270417154,0.280297667,-0.720893681,0.129303977,0.047635596
3.03985095,0.417229891,0.570803463,-1.016641736,0.790697992,-0.081352822,0.323372602,0.169305876,-0.270547092,0.280880749,-0.716439247,0.130249083,0.049873922
3.044852972,0.279030979,0.651935518,-0.858123064,0.669888318,-0.056837454,0.278742701,0.167150468,-0.269533336,0.283473849,-0.712971449,0.131087974,0.05133041
3.049850225,0.214928031,0.727684021,-0.803332329,0.579204202,-0.024906132,0.217040822,0.164944887,-0.268074095,0.286496133,-0.710160255,0.131770849,0.051992267
3.054848433,0.22786352,0.704117298,-0.805564702,0.525054276,-0.008443189,0.173891142,0.163247854,-0.266951293,0.288821548,-0.707525015,0.132439122,0.052585952
3.059847355,0.235272557,0.659654081,-0.800848901,0.503383815,-0.020997776,0.14411588,0.162685141,-0.266579002,0.289592594,-0.704915166,0.132971317,0.053277589
3.064847469,0.221732274,0.626780272,-0.802429378,0.477542073,-0.023002923,0.109195858,0.162252173,-0.266292542,0.290185899,-0.702393711,0.133351117,0.053914975
3.069848299,0.211792871,0.608261824,-0.806737542,0.44605881,-0.018045081,0.077906236,0.161559254,-0.265261352,0.291760564,-0.700054467,0.133648351,0.054421209
3.074850321,0.161467463,0.595981419,-0.795096278,0.411913395,-0.026028955,0.055356644,0.16102612,-0.264467895,0.292972177,-0.697877765,0.133733436,0.054888122
3.079847336,0.097568378,0.597937524,-0.774035275,0.372723162,-0.006330776,0.045340337,0.160849333,-0.2642048,0.293373913,-0.695953786,0.133760944,0.055200212
3.084845543,0.048019089,0.613113344,-0.780754626,0.327098489,0.027423177,0.05456502,0.160713315,-0.264002353,0.293683052,-0.694288135,0.133894786,0.055421587
3.089844465,0.027049275,0.625735164,-0.788416386,0.280723363,0.059373036,0.073409982,0.16057685,-0.263437241,0.294501543,-0.692875326,0.134186551,0.055598836
3.094844341,0.017604809,0.638461411,-0.780029416,0.237672061,0.091607921,0.103112787,0.160379454,-0.262498856,0.295855314,-0.691682816,0.134710163,0.055735625
3.099845409,0.061679877,0.64523375,-0.770509064,0.202653274,0.126842827,0.131765276,0.160314009,-0.262187719,0.296304196,-0.690716863,0.135533124,0.05583363
3.10484767,0.098326795,0.642271936,-0.77365917,0.183968097,0.150137022,0.143669844,0.160263658,-0.261948317,0.296649605,-0.689803958,0.136553973,0.055911139
3.109844685,0.149082273,0.611142814,-0.796959519,0.153389111,0.167279199,0.14165096,0.160246968,-0.261868924,0.296764106,-0.688973725,0.137705714,0.056051105
3.114843369,0.178143531,0.565977275,-0.839516044,0.102554701,0.178833798,0.126796693,0.159449786,-0.261109978,0.297811687,-0.688322484,0.138893858,0.056258932
3.119842291,0.196278244,0.532169878,-0.849032938,0.042880442,0.177011013,0.104238987,0.159185454,-0.260858327,0.298159033,-0.687927961,0.139984474,0.056515459
3.124842405,0.197911784,0.509563446,-0.879929543,-0.034030065,0.179467678,0.074036919,0.158982068,-0.260664672,0.29842627,-0.687892854,0.141010195,0.056706727
3.129843473,0.202730507,0.509093523,-0.861800849,-0.106559604,0.182797164,0.043542195,0.158914626,-0.260600477,0.298514903,-0.688297868,0.141935557,0.056712158
3.134845734,0.197473913,0.513539374,-0.857181549,-0.172344655,0.185095713,0.022383053,0.158277601,-0.260381579,0.299253941,-0.689040899,0.142804027,0.056602098
3.139848709,0.184102878,0.530778408,-0.845715106,-0.230037123,0.190325573,0.005263488,0.157921582,-0.260267079,0.299664974,-0.690113187,0.143613055,0.05634743
3.144846678,0.17606397,0.54709363,-0.833798885,-0.289307505,0.19494082,-0.002928037,0.157647654,-0.260178953,0.299981236,-0.691518307,0.144393012,0.055988152
3.1498456,0.172236621,0.568535388,-0.822182834,-0.337223709,0.187150255,0.003816956,0.157556817,-0.260149717,0.300086111,-0.693189263,0.145172,0.055606239
3.154845476,0.165111035,0.592426479,-0.801302195,-0.380001068,0.172243938,0.023199439,0.15749377,-0.260562032,0.299889892,-0.695105374,0.145944923,0.055273142
3.159846306,0.161871582,0.608439624,-0.776877701,-0.41364482,0.156398997,0.046046495,0.157479763,-0.261137158,0.299545616,-0.697210908,0.146709174,0.055013016
3.164848566,0.158664346,0.611925066,-0.77061969,-0.438609928,0.141715959,0.061218161,0.157468989,-0.261579692,0.299280763,-0.699419677,0.147475943,0.054837167
3.169846296,0.153225526,0.61448133,-0.7623564,-0.459765106,0.126435429,0.074120432,0.157465398,-0.261726439,0.299192935,-0.701709151,0.148199856,0.054753851
3.174844265,0.145839304,0.619621038,-0.764022231,-0.475879669,0.12001615,0.081422701,0.157462642,-0.26183933,0.299125373,-0.70408392,0.14891313,0.054699697
3.179843187,0.14306967,0.620485604,-0.763704598,-0.494009286,0.11438708,0.086723499,0.156464085,-0.263034135,0.298033118,-0.706529856,0.14962177,0.054713681
3.184843063,0.142315492,0.63176775,-0.75528872,-0.505607724,0.115323916,0.088905454,0.155695766,-0.263953447,0.297192723,-0.70906347,0.150339097,0.054681212
3.189844131,0.138464391,0.64986527,-0.744216979,-0.516745329,0.117822811,0.0899349,0.155441001,-0.264258295,0.296914041,-0.711681843,0.151057497,0.054571155
3.194846392,0.137391672,0.66618526,-0.734211981,-0.518624067,0.126304999,0.091671467,0.155244976,-0.26449284,0.296699643,-0.714334846,0.151822135,0.054377723
3.199843884,0.136639789,0.690131903,-0.723477244,-0.513131857,0.134340227,0.086312003,0.154942155,-0.265092492,0.295762688,-0.717006505,0.152588904,0.054072339
3.204841614,0.129351839,0.699051201,-0.706558168,-0.500116885,0.141597584,0.086724259,0.15446867,-0.266081572,0.294166297,-0.719632983,0.153375357,0.053700242
3.209841013,0.124579541,0.713103831,-0.700026274,-0.477487117,0.150604069,0.087509997,0.154311672,-0.266409516,0.293636948,-0.722175121,0.154181436,0.053262167
3.214840889,0.12306498,0.715550721,-0.695519149,-0.448616028,0.155943841,0.091638565,0.154190868,-0.266661853,0.293229669,-0.724563599,0.155022249,0.052803151
3.219841719,0.127427995,0.721440971,-0.684996784,-0.413876653,0.156846061,0.098901242,0.154150799,-0.266745538,0.293094635,-0.726782084,0.155895635,0.052352045
3.22484374,0.130599111,0.735367298,-0.672670066,-0.380174786,0.162474185,0.106136598,0.153569534,-0.268629849,0.291850179,-0.728856683,0.156823725,0.051874228
3.229840994,0.129263461,0.739562988,-0.659786999,-0.337219983,0.1703417,0.108150579,0.153376803,-0.269254655,0.291437566,-0.730737507,0.157774687,0.05132439
3.234838963,0.126274496,0.742388308,-0.65869987,-0.290034145,0.172752842,0.111742489,0.153228492,-0.269735426,0.291120082,-0.732360482,0.158744454,0.050805386
3.239837885,0.115291789,0.736291349,-0.664843261,-0.239656866,0.17709893,0.117043287,0.153179318,-0.269894809,0.29101482,-0.733727396,0.159723952,0.050294794
3.244838238,0.099978194,0.743459463,-0.661771059,-0.19248049,0.178901494,0.125364959,0.15233238,-0.270871162,0.290187597,-0.734859705,0.160704523,0.049826525
3.249839544,0.087680817,0.750935793,-0.667802513,-0.149786368,0.187507838,0.13275896,0.151851341,-0.271406144,0.289728642,-0.735787034,0.161725387,0.049340546
3.254841805,0.087695204,0.756436169,-0.667520463,-0.113589838,0.194523707,0.140548795,0.151481211,-0.271817774,0.289375514,-0.736537158,0.162797645,0.048848104
3.259839058,0.093637504,0.736509323,-0.682660162,-0.086089052,0.199563146,0.146937951,0.151358485,-0.271954268,0.28925842,-0.737100601,0.163920686,0.048446804
3.264837027,0.110497452,0.705167055,-0.700714052,-0.052373309,0.189159319,0.161881715,0.151159406,-0.272404641,0.288986474,-0.737412214,0.165082917,0.048265949
3.269836903,0.130245984,0.694971204,-0.715909183,-0.041548237,0.173360914,0.170484424,0.150987864,-0.27290222,0.288712949,-0.737630486,0.166253284,0.048245035
3.274842978,0.143289506,0.678437591,-0.716490388,-0.041230895,0.164965257,0.168350846,0.150855884,-0.273285091,0.288502455,-0.737871587,0.167387247,0.048250731
3.279843807,0.159305498,0.672067344,-0.729636192,-0.025773905,0.156560168,0.172208562,0.150812119,-0.273412049,0.288432658,-0.737975657,0.168550342,0.048339751
3.284846067,0.152912438,0.660058916,-0.721520424,-0.026543358,0.143835336,0.164663315,0.150778443,-0.273509711,0.288378954,-0.738090694,0.169586867,0.048442163
3.289843082,0.157702014,0.650677919,-0.731770158,-0.028504793,0.133257791,0.159595013,0.149321064,-0.273971647,0.288283885,-0.738174438,0.170601726,0.048624013
3.294841051,0.157163545,0.651496768,-0.73300308,-0.028537238,0.116602525,0.154983148,0.148199722,-0.27432704,0.28821075,-0.738270104,0.171522215,0.048836194
3.299839973,0.155974999,0.660874546,-0.724050164,-0.024389595,0.105019175,0.146023273,0.147827908,-0.274444908,0.288186491,-0.738376677,0.172361478,0.049011085
3.304839849,0.153562099,0.666689456,-0.715154648,-0.014636189,0.098009758,0.136923105,0.147541821,-0.274535567,0.288167804,-0.738439202,0.173145041,0.049128659
3.309840918,0.156202286,0.675917923,-0.70715344,-0.003636779,0.093992867,0.124399006,0.147173434,-0.274702668,0.288356274,-0.738463163,0.17387563,0.049186043
3.314842939,0.181493491,0.677665234,-0.704532802,0.000194535,0.095385149,0.10464368,0.146613389,-0.274969816,0.288698137,-0.738513589,0.174596891,0.049146459
3.319839954,0.194584206,0.660507381,-0.718068123,0.018722814,0.085621268,0.081557408,0.146427691,-0.275058389,0.288811505,-0.738395214,0.175218225,0.049138486
3.324837923,0.200318679,0.654657602,-0.720643282,0.025494108,0.076713964,0.064454406,0.146284804,-0.275126547,0.288898736,-0.738255858,0.175750092,0.049103294
3.329837084,0.205628306,0.66203928,-0.716851771,0.041530915,0.062987298,0.04803142,0.146237433,-0.275149167,0.288927644,-0.738064647,0.17619063,0.049030613
3.33483696,0.201577127,0.672006607,-0.709510684,0.063795991,0.051493138,0.031299561,0.145623684,-0.275290191,0.288962483,-0.73778218,0.176515281,0.048878655
3.339838028,0.194860369,0.675629675,-0.705468297,0.087161832,0.037089072,0.021001356,0.145420164,-0.275336951,0.288974047,-0.73739028,0.176742837,0.048729785
3.34484005,0.189588487,0.671016991,-0.705631733,0.112825446,0.026904132,0.022024289,0.145263582,-0.275372922,0.288982958,-0.736845076,0.176924452,0.048647966
3.349837065,0.185902834,0.669664562,-0.719465673,0.12883912,0.015721487,0.021315755,0.145211652,-0.275384843,0.288985908,-0.736192644,0.177070335,0.048637059
3.354835272,0.181838781,0.646384478,-0.728108048,0.142770052,0.002547163,0.023947315,0.145271197,-0.275646567,0.289319813,-0.735433459,0.177157432,0.048760053
3.359834433,0.185284853,0.645383537,-0.736533701,0.139842838,-0.011336259,0.029302267,0.145315543,-0.275795847,0.289512575,-0.734671295,0.177227423,0.048962235
3.364834309,0.175978616,0.651215732,-0.723151267,0.146583483,-0.020200806,0.039862607,0.145349681,-0.275910705,0.289660931,-0.733894765,0.177289575,0.049195278
3.369835377,0.153731078,0.660801351,-0.711735666,0.145222217,-0.022273505,0.051991481,0.145360991,-0.275948793,0.289710104,-0.733156085,0.177343577,0.049436361
3.37483716,0.125123307,0.672695875,-0.707459509,0.156566992,-0.0178154,0.072294064,0.144979537,-0.275651395,0.290002227,-0.732360601,0.177432194,0.049680255
3.379834414,0.106437452,0.669413984,-0.705673039,0.167475104,-0.016964186,0.107408248,0.14445962,-0.275223345,0.290355474,-0.731487751,0.177620173,0.050078176
3.384833097,0.108731426,0.669568956,-0.708261073,0.173309088,-0.010726203,0.147427887,0.144059584,-0.274893969,0.290627301,-0.730538368,0.177987382,0.050625145
3.38983202,0.110169701,0.668468833,-0.710240841,0.16924344,0.003876879,0.176544085,0.143926933,-0.274784774,0.290717423,-0.729608655,0.178494334,0.051226549
3.394831896,0.105208755,0.63155973,-0.746207476,0.139967591,0.02684503,0.209644124,0.143824875,-0.274700731,0.290786773,-0.728724957,0.179218799,0.052075826
3.399832726,0.083707258,0.639351726,-0.774354935,0.11072059,0.038771171,0.236619949,0.143642589,-0.274466097,0.290920526,-0.727965951,0.180006132,0.053003069
3.404834747,0.088874102,0.660300016,-0.756588221,0.079465613,0.056542095,0.273809999,0.14350234,-0.274285555,0.291023463,-0.727438688,0.180989072,0.053888913
3.409837723,0.088320598,0.702096701,-0.735613704,0.070472769,0.064637557,0.30885905,0.143455833,-0.274225712,0.291057587,-0.727003038,0.182127222,0.054724447
3.414836168,0.070561245,0.707723916,-0.728370488,0.064704902,0.068665162,0.350928754,0.143420056,-0.274179697,0.291083843,-0.726570368,0.183380872,0.055700988
3.419835091,0.078329682,0.692300916,-0.73617208,0.051746629,0.076616302,0.388493359,0.142993882,-0.274095654,0.291444123,-0.72612536,0.184785977,0.05687613
3.424834967,0.085425526,0.676054358,-0.769241333,0.035232622,0.081346467,0.415850252,0.142247051,-0.273961484,0.292076766,-0.725694716,0.186331332,0.058238368
3.429836035,0.091150448,0.678365588,-0.771585584,0.008583214,0.099446133,0.441426516,0.141999424,-0.27391699,0.292286575,-0.725397646,0.188011989,0.059633598
3.434838533,0.103464678,0.679387331,-0.778912365,-0.023915859,0.124148846,0.465278924,0.141808882,-0.273882776,0.292447984,-0.725251973,0.18989259,0.060998682
3.439836264,0.089798845,0.686237574,-0.763740242,-0.04881556,0.151364788,0.490369231,0.141745701,-0.273871422,0.292501509,-0.72530067,0.191915631,0.062330678
3.444834232,0.107755661,0.681506038,-0.775601447,-0.073960438,0.203697145,0.526938617,0.140034974,-0.274638712,0.292657018,-0.725419819,0.194321305,0.063642032
3.449833155,0.139274463,0.685881674,-0.79258728,-0.118085273,0.205146551,0.562448502,0.139467731,-0.274893135,0.292708576,-0.72571522,0.196906075,0.065147847
3.454833508,0.114098899,0.706879377,-0.760106504,-0.174859658,0.213685453,0.599190474,0.139031276,-0.275088876,0.292748243,-0.726380885,0.199530751,0.066632792
3.459834337,0.089428335,0.700111151,-0.777157724,-0.210794345,0.237532228,0.643878877,0.138886556,-0.275153786,0.292761415,-0.727143526,0.202371642,0.068272166
3.464836359,0.045563791,0.690717399,-0.792636037,-0.230804086,0.293709248,0.69166404,0.137481943,-0.276193708,0.292752773,-0.727950394,0.205505759,0.070010617
3.469833612,0.053396679,0.646554828,-0.816331625,-0.253246129,0.392617017,0.750699639,0.13669619,-0.276783526,0.292745262,-0.728762507,0.20925343,0.071714371
3.474831581,0.076746859,0.608534575,-0.875525534,-0.342558682,0.432986528,0.822963536,0.136091605,-0.277237356,0.292739481,-0.729933321,0.21344839,0.073820375
3.479830503,0.046981338,0.660892844,-0.826188505,-0.409079224,0.514722586,0.906337202,0.135891125,-0.277387828,0.292737544,-0.731614828,0.218117133,0.075766027
3.484830379,0.031955417,0.653980255,-0.817150652,-0.425688624,0.69492662,0.966693521,0.134042844,-0.278194368,0.292401224,-0.733375847,0.223663807,0.077183425
3.489831924,0.085768029,0.655902088,-0.878826797,-0.462153018,0.883928835,1.037520409,0.13172175,-0.279158384,0.291952044,-0.73535192,0.230358616,0.078402251
3.494834423,0.099608414,0.597805858,-0.889555037,-0.552404225,1.05200386,1.119858027,0.129935816,-0.279900163,0.291606426,-0.737678051,0.237870127,0.079508886
3.499832392,0.093625769,0.639878213,-0.917202353,-0.66479975,1.19929564,1.225687504,0.129343629,-0.280146092,0.291491836,-0.740730107,0.246276349,0.080462143
3.504830122,0.054906137,0.67377001,-0.878356934,-0.757314265,1.389830351,1.326839209,0.128887981,-0.280335337,0.291403681,-0.744388223,0.255599082,0.080902047
3.509829283,0.022691771,0.723053634,-0.917170227,-0.83467859,1.622874737,1.440557957,0.123929329,-0.282744437,0.290998369,-0.748580873,0.266137868,0.080924153
3.514829397,-0.031272613,0.710390866,-0.916166842,-0.871673584,1.855919361,1.55752933,0.120113976,-0.284598053,0.290686518,-0.752945721,0.277806044,0.080563836
3.519830704,-0.009058979,0.685819149,-0.917062163,-0.970259428,2.112818718,1.714692354,0.118848875,-0.285212696,0.290583134,-0.757939219,0.291026115,0.07989756
3.524832726,0.011007829,0.809604168,-0.993093371,-1.00257349,2.297858715,1.86655879,0.117875472,-0.285685599,0.290503561,-0.763250113,0.305423826,0.07895463
3.529830217,-0.060470309,0.772643328,-0.873963237,-1.028820157,2.529139996,1.994367003,0.113264561,-0.287753284,0.289893597,-0.768792093,0.32079941,0.077446379
3.534827948,-0.041673176,0.751819193,-0.868045092,-1.152291179,2.8720963,2.169767618,0.105380788,-0.291276455,0.288834095,-0.775306344,0.338236541,0.075202316
3.539827108,-0.033892024,0.806257784,-0.957204044,-1.227769494,3.112086535,2.33818984,0.102766685,-0.292444676,0.288482785,-0.782307982,0.357007682,0.072750881
3.544833422,-0.089724898,0.805909395,-0.927372098,-1.321803093,3.350769997,2.499073029,0.100755304,-0.293343514,0.288212508,-0.789949417,0.376959026,0.069779985
3.549834967,-0.130676821,0.828321397,-0.930537105,-1.449560642,3.624657154,2.676589727,0.100088373,-0.293641567,0.288122863,-0.798630118,0.398443252,0.066154391
3.554836988,-0.164363831,0.856213212,-0.955349922,-1.573053122,3.845959663,2.879632473,0.084022008,-0.299122512,0.285632491,-0.808107018,0.421266377,0.062289007
3.559834003,-0.182986572,0.866233408,-0.92018795,-1.726093054,4.079022408,3.109842062,0.078694709,-0.300939888,0.284806728,-0.818603992,0.445565134,0.057986263
3.564832211,-0.213351622,0.913884819,-0.930076241,-1.866603494,4.336937904,3.408238411,0.074595712,-0.302338243,0.284171373,-0.83010149,0.471819639,0.053294115
3.569831133,-0.258671045,0.935187578,-0.906734645,-2.0115242,4.611474514,3.726278543,0.073236562,-0.302801907,0.2839607,-0.842645347,0.499903142,0.04816895
3.574831009,-0.335426867,0.927552938,-0.878561139,-2.16686058,4.934800148,4.120471478,0.055081826,-0.308135629,0.280604869,-0.856245279,0.530483902,0.042680498
3.579832077,-0.384163439,0.911036491,-0.85296452,-2.37828064,5.231789589,4.5571661,0.0448284,-0.311135769,0.278701812,-0.871258259,0.563458681,0.036961023
3.584834337,-0.2823475,1.118941903,-0.956066906,-2.512831211,5.472655296,5.072590828,0.036939085,-0.313444167,0.277237535,-0.88717854,0.599164367,0.031026369
3.589831352,-0.309293568,1.160270214,-0.964146972,-2.628084421,5.579301357,5.605740547,0.034323137,-0.31420958,0.276751995,-0.903282583,0.636891484,0.025960434
3.594829559,-0.363917142,1.167991281,-0.841518164,-2.749004126,5.818192482,6.209181786,0.018995956,-0.317129314,0.270779252,-0.920116186,0.677653313,0.020858876
3.599828482,-0.11272949,1.452795744,-1.02262938,-2.80968523,6.153252602,6.756726742,0.000487584,-0.320447803,0.263152629,-0.938203216,0.721669495,0.014717191
3.604828835,0.217484444,1.668154359,-1.467820883,-2.839201212,6.135456562,7.075011253,-0.013753353,-0.323001146,0.257284492,-0.955663621,0.766493917,0.010097926
3.609829903,0.543248177,1.644391298,-1.556399822,-2.672369957,5.946771622,7.276571274,-0.018475378,-0.3238478,0.255338728,-0.971684337,0.811463118,0.006772633
3.614832163,0.912120283,1.792448759,-1.523490548,-2.384630442,5.888045311,7.37407732,-0.022108655,-0.32449922,0.253841579,-0.986812413,0.856791615,0.002305748
3.619829178,1.361621857,1.978299022,-1.734632373,-2.201577902,5.893393517,7.23481226,-0.054493748,-0.325267255,0.238469511,-1.002857089,0.901434064,-0.003957925
3.624827147,1.686432004,2.465242386,-1.924880385,-1.940845966,5.529462814,7.049701691,-0.079411879,-0.325858206,0.226641744,-1.017723322,0.943448246,-0.010078196
3.629826546,1.903662205,3.058789492,-1.897198796,-1.62416923,5.046106815,6.742082119,-0.08767426,-0.326054156,0.222719893,-1.031470895,0.981969774,-0.017321544
3.63482666,1.782098055,3.31307435,-1.759327054,-1.250235796,4.49253273,6.468624592,-0.094031595,-0.326204926,0.219702289,-1.042214155,1.017137289,-0.023786379
3.639827728,1.683782816,3.558139563,-1.799342752,-0.828981519,4.088847637,6.133140087,-0.114204764,-0.322530061,0.210058853,-1.050553679,1.049512148,-0.029637951
3.64482975,1.460839152,3.372286081,-1.59390986,-0.329581678,3.669434071,5.668733597,-0.147993386,-0.315936148,0.193899617,-1.055974841,1.078510284,-0.035018515
3.649826765,0.996595681,2.955656052,-1.321942449,0.318643272,3.56810689,5.391330719,-0.159197062,-0.313749731,0.188541517,-1.059506893,1.106733799,-0.042088792
3.654824734,0.265025079,2.280620098,-1.280309439,1.076364636,3.648118973,5.026851177,-0.167817533,-0.312067419,0.184418827,-1.061054111,1.133912086,-0.050537042
3.659823895,-0.64420867,1.67195034,-1.280116796,1.88835609,3.660701275,4.366585732,-0.170675918,-0.311509609,0.183051825,-1.062014222,1.158468008,-0.061883789
3.664824009,-0.803981006,1.18201673,-1.411759615,2.077598095,3.063979626,3.701803446,-0.204050243,-0.297232956,0.171242997,-1.058795333,1.178505301,-0.069608092
3.669825315,0.748669744,1.021028399,-1.684125662,1.018633485,2.279984951,3.141526699,-0.215116531,-0.292499065,0.167327419,-1.054465652,1.195697188,-0.067379989
3.674827337,1.251995325,1.843955994,-3.097608089,0.514692187,0.666393876,2.22102809,-0.223631293,-0.288856685,0.164314643,-1.036971688,1.202141523,-0.045645185
3.679830313,0.24041079,1.922236919,-2.153803587,0.322643697,-0.662437081,1.337909341,-0.22645463,-0.287648916,0.163315669,-1.012904286,1.200158596,-0.020042742
3.68482852,-0.290758193,1.441638947,-1.589316487,-0.05308903,-1.00191009,0.921080351,-0.243718684,-0.277107239,0.161298215,-0.994132042,1.197696924,0.001984198
3.689827919,-0.584481239,1.189772964,-1.239309192,-0.267640024,-1.239074349,0.69091934,-0.253177613,-0.271233231,0.160320237,-0.975930095,1.194038391,0.02431912
3.694827795,-0.850783527,1.077853441,-0.961243272,-0.330226809,-1.330100536,0.534352958,-0.260455608,-0.266713589,0.159567744,-0.959561586,1.189730763,0.044537291
3.699829102,-1.003004193,0.98194927,-0.755860388,-0.301079959,-1.382994294,0.391478509,-0.262868851,-0.26521495,0.159318224,-0.944213271,1.18478477,0.063134342
3.704830885,-1.034143686,0.861766756,-0.66293925,-0.274091899,-1.391162634,0.263011724,-0.266580105,-0.263492674,0.16078338,-0.929989874,1.179415703,0.080427751
3.7098279,-0.951360226,0.810949206,-0.700280488,-0.250186145,-1.407927155,0.157976821,-0.269680738,-0.262347639,0.162940234,-0.9164294,1.173612118,0.097161517
3.71482563,-0.834265888,0.814557493,-0.758931279,-0.204412147,-1.481613755,0.032395698,-0.272066444,-0.261466652,0.164599791,-0.902986288,1.166967869,0.113711305
3.719824553,-0.759009004,0.794097006,-0.784760654,-0.15890488,-1.602515459,-0.135737598,-0.272857487,-0.2611745,0.165150076,-0.889717579,1.159188271,0.129965305
3.724824905,-0.744206309,0.74039197,-0.779083967,-0.149048716,-1.745192766,-0.335956007,-0.27346614,-0.260949731,0.165573478,-0.877022743,1.150144696,0.14571768
3.729825735,-0.747869074,0.683562696,-0.76483202,-0.162183121,-1.899418592,-0.553345323,-0.273134798,-0.261709809,0.169901788,-0.865190506,1.139755249,0.16071488
3.734827995,-0.742298126,0.642506599,-0.76048398,-0.172561094,-2.047919989,-0.774302244,-0.272879839,-0.26229462,0.173232138,-0.854243398,1.127997279,0.174972162
3.739825249,-0.716654718,0.636907518,-0.75494957,-0.175100029,-2.189706087,-0.994040966,-0.27279529,-0.262488544,0.174336419,-0.844376504,1.114916086,0.188154235
