Time,inertial-6253.76535:scaledAccelX,inertial-6253.76535:scaledAccelY,inertial-6253.76535:scaledAccelZ,inertial-6253.76535:scaledGyroX,inertial-6253.76535:scaledGyroY,inertial-6253.76535:scaledGyroZ,inertial-6253.76535:scaledMagX,inertial-6253.76535:scaledMagY,inertial-6253.76535:scaledMagZ,inertial-6253.76535:roll,inertial-6253.76535:pitch,inertial-6253.76535:yaw
0,0.416069388,0.247709259,-0.87590605,0.006005118,-0.004024035,0.003694181,-0.354144603,-0.06076356,0.29073748,-0.268077821,0.425148606,-3.055005789
0.004999936,0.41621089,0.246953323,-0.875026345,0.006099867,-0.002990279,0.00486294,-0.354123861,-0.060713638,0.290756315,-0.268045396,0.42514509,-3.054950714
0.010001152,0.417616993,0.245392755,-0.874474406,0.005518712,-0.004915074,0.003453684,-0.354079843,-0.0606726,0.291119128,-0.268020689,0.425139904,-3.054900408
0.015003392,0.418054968,0.24666816,-0.874305785,0.005952592,-0.004754303,0.003721047,-0.354036957,-0.060656343,0.291590661,-0.267992169,0.425132036,-3.05484128
0.020000512,0.41470924,0.246846899,-0.876457989,0.006165781,-0.002330941,0.003344794,-0.354003966,-0.060643833,0.291953474,-0.267962158,0.425125539,-3.054799318
0.024998656,0.416561276,0.246011212,-0.875867546,0.006874684,-0.005091988,0.001722454,-0.353993028,-0.060639687,0.292073756,-0.26793173,0.42510879,-3.054755688
0.029997569,0.417170137,0.245675206,-0.875022769,0.006096907,-0.005571523,0.002035884,-0.353984594,-0.060636494,0.292166322,-0.267899185,0.425094575,-3.054704428
0.034997504,0.417663962,0.24644734,-0.87484777,0.005750605,-0.00695943,0.004969695,-0.354235351,-0.060636912,0.291499853,-0.267865628,0.425079465,-3.054642677
0.039998721,0.416683167,0.244771838,-0.874676287,0.005829712,-0.006300956,0.002611539,-0.354428262,-0.060637232,0.290987045,-0.267835945,0.425055772,-3.054605961
0.045000959,0.417649657,0.24643597,-0.875001669,0.007955392,-0.007590308,0.002834535,-0.354492247,-0.060637336,0.290817022,-0.267794192,0.425028086,-3.054555416
0.049998078,0.416922629,0.246778741,-0.876243055,0.007717283,-0.005865568,0.002034767,-0.354541481,-0.060637418,0.29068619,-0.267761201,0.425011694,-3.054516315
0.054996222,0.415533423,0.246004596,-0.877431393,0.007306391,-0.006976873,0.002388912,-0.354327112,-0.060637154,0.291161627,-0.267727554,0.424982488,-3.05446744
0.059995137,0.413022429,0.244800374,-0.877189815,0.005960678,-0.00664894,0.001644356,-0.353928924,-0.060636654,0.29205206,-0.267702758,0.424959004,-3.054427862
0.064995326,0.416295618,0.244678378,-0.87650007,0.005717653,-0.007527292,0.001893776,-0.353796899,-0.060636491,0.292347312,-0.267670989,0.424928218,-3.054381609
0.069996543,0.417912513,0.246639743,-0.877025485,0.005089561,-0.005839336,0.000457862,-0.353695303,-0.06063636,0.292574495,-0.26765278,0.42490831,-3.054338932
0.074998528,0.416764855,0.245002896,-0.875989139,0.003882278,-0.006650282,0.000644921,-0.353661627,-0.060636319,0.292649806,-0.267638445,0.424883723,-3.054299593
0.079995647,0.41554606,0.245080844,-0.876144826,0.003559646,-0.006754127,-0.00017253,-0.353632629,-0.060646411,0.291599929,-0.267623723,0.424856156,-3.054271698
0.084993534,0.41369909,0.247221917,-0.876278758,0.003503051,-0.00555407,3.85E-05,-0.353623033,-0.060649756,0.291251779,-0.267613262,0.42483151,-3.054229498
0.089992449,0.414762318,0.247917339,-0.875601351,0.004435466,-0.00551598,0.000591311,-0.353615642,-0.060652331,0.290983915,-0.267606467,0.424809188,-3.054193497
0.094992638,0.417758286,0.246331796,-0.874807417,0.003174304,-0.004672792,0.00194238,-0.353613168,-0.060653184,0.290895104,-0.267595142,0.424810231,-3.054151535
0.100000001,0.416436255,0.245540455,-0.873348176,0.003679917,-0.00535342,0.001186384,-0.353762299,-0.060804419,0.290787548,-0.267587632,0.424797118,-3.054118156
0.105002239,0.417595118,0.246478319,-0.87500006,0.003209305,-0.00529632,-2.54E-05,-0.353849113,-0.060891826,0.290742159,-0.26757732,0.424779236,-3.054086447
0.109999619,0.416387081,0.244778976,-0.876906574,0.002350939,-0.004943951,-0.000338193,-0.35391593,-0.060959078,0.290707231,-0.267567098,0.424759984,-3.054059982
0.114997506,0.415061891,0.245806381,-0.875617146,0.003225038,-0.006362658,0.00052095,-0.353938073,-0.060981378,0.290695637,-0.267553926,0.424732208,-3.054028749
0.119996414,0.417766422,0.246389389,-0.87600702,0.002433575,-0.008110134,-0.000747539,-0.354013532,-0.060968421,0.290687531,-0.267555386,0.424709231,-3.054006338
0.124996863,0.416133523,0.24509573,-0.875821471,0.004299235,-0.006808409,-0.000386753,-0.354097486,-0.060933758,0.290685654,-0.267532945,0.424680173,-3.053967237
0.129998073,0.416617662,0.243728042,-0.874316692,0.004136024,-0.008319214,0.001350724,-0.354162067,-0.060907088,0.290684193,-0.267510355,0.424649477,-3.053932905
0.135000318,0.416309416,0.245239794,-0.876797974,0.003073652,-0.009799602,-3.81E-05,-0.354183495,-0.060898244,0.290683717,-0.267503828,0.42461288,-3.053904533
0.139997691,0.416976899,0.24392052,-0.875201821,0.004309318,-0.009395068,-0.000331154,-0.354199976,-0.060891438,0.290683359,-0.267484426,0.424571753,-3.053879738
0.144995585,0.416007131,0.245048597,-0.875618994,0.004225536,-0.008359932,-0.000552744,-0.354208231,-0.060831323,0.291428626,-0.267467946,0.424541295,-3.053843021
0.149994493,0.41229853,0.246706158,-0.87470907,0.00587242,-0.007797857,-0.000614674,-0.354214579,-0.060785066,0.292002052,-0.267447859,0.424499482,-3.053808689
0.154994681,0.415030599,0.245897263,-0.8760584,0.003943525,-0.006833406,0.000441697,-0.354216695,-0.060769729,0.292192191,-0.267434835,0.424472541,-3.053768635
0.159995645,0.416071534,0.245303258,-0.876964986,0.002552885,-0.007723273,-0.001091533,-0.354218304,-0.060757928,0.29233849,-0.267427057,0.424435616,-3.053737879
0.164997891,0.41578269,0.243412957,-0.877183914,0.004158235,-0.007124909,0.000532434,-0.354159504,-0.060759466,0.291912436,-0.267403662,0.42440778,-3.053704977
0.16999501,0.416793853,0.245245963,-0.877067387,0.003372755,-0.0084081,-0.001683349,-0.354054272,-0.06076616,0.291104764,-0.267396033,0.424372435,-3.053683519
0.174992889,0.415664732,0.24180834,-0.878673553,0.002988812,-0.007558806,-0.001119354,-0.354019374,-0.060768381,0.29083696,-0.267374754,0.424341559,-3.053667068
0.179991812,0.415052056,0.245261118,-0.875772834,0.003002791,-0.007666759,-0.001852293,-0.353992522,-0.060770091,0.290630877,-0.267373413,0.424307406,-3.053646088
0.184992,0.415910542,0.247033492,-0.876506627,0.003761444,-0.007772085,-0.001548331,-0.353983611,-0.060770657,0.29056254,-0.267367661,0.424274504,-3.053620577
0.189992964,0.413690597,0.247926891,-0.875523269,0.004871293,-0.007812289,-0.000530333,-0.353841752,-0.060771056,0.290798903,-0.267358035,0.424239337,-3.05357933
0.194995195,0.414449036,0.246366113,-0.876466334,0.003100806,-0.008911878,-0.001281857,-0.353794724,-0.060771186,0.290877253,-0.267351985,0.424195886,-3.053550482
0.199992314,0.413894892,0.247519746,-0.876615345,0.003860496,-0.008267649,-0.000496583,-0.353758544,-0.06077129,0.290937573,-0.267342865,0.424163699,-3.053519487
0.204990461,0.415491939,0.246904224,-0.875671804,0.005037216,-0.007532523,-0.001547471,-0.353746533,-0.060771324,0.29095757,-0.26732409,0.424140483,-3.053488255
0.209989637,0.415048271,0.247609481,-0.878057897,0.005512461,-0.006658999,0.000667846,-0.353634089,-0.060971487,0.29163146,-0.267298728,0.424109846,-3.053448439
0.214990333,0.414751261,0.246613041,-0.878552377,0.005584288,-0.006643433,0.000197426,-0.353571266,-0.061087385,0.292017847,-0.26727891,0.424079716,-3.053418398
0.219991297,0.413580239,0.247083768,-0.87662375,0.00542762,-0.007095281,0.000437819,-0.353522927,-0.061176561,0.292315155,-0.26725772,0.424051225,-3.053376675
0.224993542,0.413113147,0.246332169,-0.875699759,0.004125784,-0.006860511,-0.000413723,-0.353506893,-0.061206128,0.292413712,-0.267240226,0.424020648,-3.053346157
0.229996547,0.412440926,0.246239051,-0.876324654,0.00592218,-0.007618773,0.00048046,-0.353494316,-0.061174322,0.292115152,-0.267217994,0.423989743,-3.05331254
0.234994695,0.413800985,0.24754867,-0.876088321,0.003603009,-0.006346345,0.003005505,-0.353489906,-0.061108761,0.291638583,-0.267201662,0.423960179,-3.053266048
0.239993855,0.413631916,0.24719198,-0.87616241,0.00577895,-0.007970363,0.00300155,-0.353486538,-0.061058313,0.291271895,-0.26717332,0.423937738,-3.053221703
0.244993791,0.41379106,0.247211948,-0.876175344,0.006931677,-0.006888791,0.004066407,-0.353485435,-0.061041586,0.291150302,-0.267146289,0.423912436,-3.053179502
0.249995008,0.41443494,0.245993286,-0.875774562,0.00724276,-0.005903281,0.001846569,-0.353484571,-0.061028715,0.291056752,-0.267108947,0.423892438,-3.053140163
0.254996985,0.414544463,0.244218513,-0.877443969,0.005770794,-0.005480394,0.001668737,-0.353234559,-0.060766943,0.29180786,-0.267078161,0.423877835,-3.053099871
0.259994119,0.413934052,0.246242777,-0.87561816,0.007214279,-0.005804457,0.002090457,-0.353042215,-0.060565528,0.292385787,-0.267051816,0.423856497,-3.053051949
0.264991999,0.412212253,0.246520892,-0.876816809,0.006183258,-0.00582363,0.00109135,-0.352978438,-0.060498741,0.292577416,-0.267031282,0.423832655,-3.053010702
0.269991159,0.413372904,0.246926069,-0.87526685,0.005170135,-0.004936368,0.00195773,-0.352929354,-0.060447354,0.292724848,-0.267011791,0.423820734,-3.052958488
0.274991095,0.413951844,0.246143237,-0.875867367,0.005236872,-0.004478866,0.002042243,-0.352997005,-0.060577214,0.292378336,-0.266983449,0.423810154,-3.052924156
0.279992312,0.414819419,0.246333525,-0.875885546,0.006149787,-0.003331677,0.003664804,-0.353133887,-0.060825672,0.291711867,-0.266958356,0.423804998,-3.052884817
0.284994304,0.415456921,0.245924845,-0.877307296,0.004453238,-0.003499922,0.003072921,-0.353179276,-0.060908053,0.291490883,-0.266934037,0.423795104,-3.052841902
0.289991438,0.415266633,0.246913701,-0.876500368,0.00518284,-0.003515684,0.005150998,-0.353214204,-0.060971443,0.29132086,-0.266913027,0.423795462,-3.05279398
0.294989556,0.414936095,0.24711673,-0.876289189,0.005174697,-0.003988171,0.004492824,-0.353225797,-0.060992461,0.291264474,-0.266889185,0.42378664,-3.052743912
0.299989253,0.415913731,0.246612579,-0.876399457,0.004185143,-0.003310981,0.004000878,-0.353505701,-0.061199404,0.292044878,-0.266872436,0.42378515,-3.052700043
0.304989189,0.416656613,0.248197958,-0.875399828,0.004648535,-0.003424183,0.00475502,-0.353598535,-0.061268024,0.292303652,-0.26685667,0.423782974,-3.052645445
0.309990406,0.415556699,0.247397602,-0.87469697,0.005609279,-0.002745032,0.004847465,-0.353669941,-0.061320823,0.292502761,-0.266833127,0.423781514,-3.052597523
0.314992398,0.414847076,0.245398521,-0.875754654,0.005352371,-0.001411923,0.003340892,-0.353693604,-0.061338332,0.292568773,-0.266806185,0.423787296,-3.052560568
0.319989502,0.418610305,0.247360587,-0.876363635,0.004459483,-0.002806276,0.004064705,-0.353660345,-0.061305355,0.292223096,-0.266791791,0.423785716,-3.052509308
0.32498765,0.41720888,0.246905312,-0.874199927,0.004526211,-0.003611688,0.002612499,-0.353636593,-0.061282925,0.292010367,-0.266778797,0.423785061,-3.052474022
0.329986572,0.417136818,0.244897172,-0.874273181,0.004578925,-0.002789719,0.003390216,-0.353618294,-0.06126567,0.291846693,-0.266754985,0.423778385,-3.052437305
0.334986746,0.414591312,0.245753467,-0.877297461,0.003193286,-0.004085795,0.000584858,-0.353612244,-0.061259948,0.291792423,-0.266742319,0.423767626,-3.052403927
0.339987725,0.415146202,0.245860055,-0.877050579,0.004276076,-0.00516725,0.001509775,-0.35337612,-0.061174896,0.291545898,-0.266728103,0.423751652,-3.052368641
0.344989687,0.413153917,0.245290458,-0.877517641,0.00610812,-0.004878888,0.002314497,-0.353064418,-0.061065365,0.291257679,-0.266701967,0.423731327,-3.052334547
0.349986553,0.413752586,0.246048674,-0.876620233,0.003699837,-0.00383622,0.002969167,-0.352824599,-0.060981087,0.29103592,-0.266683459,0.423722416,-3.052298784
0.354985476,0.415192008,0.24678807,-0.878603756,0.003654861,-0.004067982,0.002063421,-0.352745086,-0.060953144,0.290962398,-0.266673386,0.423706919,-3.052261114
0.359984398,0.414442301,0.245405614,-0.87759304,0.003576901,-0.005116754,0.00075436,-0.352683872,-0.060931642,0.290905803,-0.266656756,0.423687994,-3.052233458
0.364990473,0.413353533,0.245185912,-0.876875639,0.003696767,-0.00294463,0.000742433,-0.352970153,-0.060918581,0.290892899,-0.266634107,0.423677862,-3.052207947
0.369991422,0.413768917,0.24406293,-0.877350867,0.004105086,-0.003049545,0.002054366,-0.353190422,-0.060908534,0.290883005,-0.266617656,0.423673034,-3.052176714
0.374993652,0.414366364,0.243383676,-0.874781013,0.002435873,-0.005237764,0.000884546,-0.353263468,-0.060905199,0.290879697,-0.266609102,0.423652202,-3.052155256
0.379990786,0.414843112,0.245211124,-0.875113845,0.001699525,-0.003895459,-4.85E-05,-0.353319675,-0.060902636,0.290877193,-0.266610414,0.423638493,-3.052131176
0.384989172,0.413404435,0.244235396,-0.877299905,-0.000249386,-0.005052425,0.001224111,-0.353426248,-0.060924761,0.291351795,-0.266612798,0.423623681,-3.052104473
0.389988363,0.414006263,0.246377558,-0.876992464,0.001887997,-0.0035942,0.00211424,-0.353597194,-0.06096502,0.292197704,-0.266606897,0.423616648,-3.052072525
0.394988298,0.414246976,0.246566474,-0.877669036,0.003342777,-0.003802181,0.000277066,-0.353653878,-0.060978372,0.292478204,-0.266604215,0.423596501,-3.052043915
0.399989516,0.414556235,0.246431559,-0.876720905,0.003312085,-0.005261404,0.000937384,-0.353697479,-0.060988642,0.292694032,-0.26659292,0.423581302,-3.052008867
0.404991478,0.412708282,0.24601236,-0.876107395,0.002269962,-0.004175073,0.000128343,-0.353711963,-0.060992047,0.292765617,-0.266596794,0.423567086,-3.05198288
0.409988612,0.415094197,0.248965338,-0.87818414,0.000416537,-0.005771162,0.000150026,-0.353383482,-0.061066397,0.293106437,-0.266599238,0.423545122,-3.051943302
0.414987266,0.415375233,0.246004984,-0.876401603,0.003222766,-0.00580086,-8.08E-06,-0.353274584,-0.061091051,0.293219447,-0.2665869,0.423517585,-3.051907301
0.419986427,0.413897604,0.245644569,-0.877250552,0.002562648,-0.006267675,0.001000929,-0.35319075,-0.06111002,0.29330641,-0.266576707,0.423501492,-3.051868916
0.424986362,0.41455856,0.245483741,-0.875460029,0.004004996,-0.007415642,0.000517193,-0.353162944,-0.061116312,0.293335229,-0.26656571,0.423472762,-3.051838636
0.429987341,0.415766776,0.24418807,-0.876634121,0.002814172,-0.005847744,-0.000318071,-0.35334149,-0.061229315,0.292265505,-0.266551822,0.423455626,-3.051819324
0.434989303,0.413276851,0.244496658,-0.876735389,0.002781626,-0.006801194,-2.39E-06,-0.353450149,-0.06129355,0.29164058,-0.266543716,0.423421949,-3.051804304
0.439986676,0.412706703,0.247150183,-0.874610841,0.003081225,-0.007552752,-0.000960111,-0.353533745,-0.061342973,0.291159749,-0.266543061,0.42339319,-3.051780939
0.444984823,0.411809295,0.246410146,-0.87646395,0.002353362,-0.005323124,0.00060576,-0.353561461,-0.061359361,0.291000307,-0.266538382,0.423371524,-3.051751375
0.449984014,0.411418915,0.246160284,-0.876924276,0.005162301,-0.002889737,0.000561614,-0.353237838,-0.061257519,0.291442782,-0.266517729,0.423361272,-3.051728249
0.45498395,0.412672222,0.247682095,-0.877088428,0.004916861,-0.003203131,-0.000415987,-0.352782667,-0.061108336,0.292159379,-0.266507536,0.423346102,-3.051691771
0.459984899,0.415193915,0.247947648,-0.878205478,0.002796274,-0.004956888,0.002197809,-0.35243243,-0.060993548,0.292710751,-0.26649937,0.423333168,-3.051640511
0.464986891,0.415031075,0.247428104,-0.877852798,0.001261941,-0.003469791,0.001916445,-0.35231629,-0.060955487,0.292893589,-0.266491055,0.423332155,-3.051606894
0.469983995,0.414873779,0.246779621,-0.878614426,0.002604606,-0.004292083,0.001837233,-0.352226943,-0.060926206,0.293034256,-0.2664814,0.423319399,-3.051577806
0.474982411,0.414093107,0.245728076,-0.877357423,0.002304848,-0.003953512,0.001799643,-0.35250482,-0.060810082,0.292910159,-0.266476035,0.423304886,-3.051537752
0.479981303,0.414309174,0.246361375,-0.8780967,0.00265474,-0.004595038,0.002275114,-0.352718621,-0.060720731,0.292814672,-0.26646933,0.423294008,-3.051496506
0.484981239,0.415306687,0.245960549,-0.877618611,0.002428535,-0.004614105,0.000715053,-0.352789521,-0.0606911,0.292783022,-0.266456097,0.423279762,-3.051463604
0.489981949,0.414394408,0.244843215,-0.877639353,0.002454129,-0.005025949,0.003090683,-0.352844059,-0.060668305,0.292758644,-0.266434461,0.423264384,-3.051413298
0.49498418,0.414683074,0.241814092,-0.876987576,0.000690826,-0.006884123,0.002277651,-0.35285899,-0.060809329,0.292353481,-0.266429693,0.42324248,-3.051393509
0.499987215,0.414689183,0.243152454,-0.877384007,-3.27E-05,-0.005136915,0.001807196,-0.352867335,-0.061068077,0.291640192,-0.266428083,0.423224449,-3.051371098
0.504985332,0.414881259,0.245523229,-0.876904488,-0.001845808,-0.007533408,0.003447965,-0.352870107,-0.061153874,0.291403681,-0.266433835,0.423202753,-3.051326275
0.509984255,0.411536962,0.246158406,-0.877181947,-0.003777049,-0.006667588,0.002433462,-0.352872223,-0.061219886,0.291221678,-0.266457379,0.42317906,-3.051293135
0.51498419,0.412300527,0.246329442,-0.876619637,-0.003948908,-0.007388114,0.00558089,-0.352872908,-0.061241776,0.291161329,-0.266471028,0.423150867,-3.051227808
0.519985139,0.412920922,0.246360824,-0.875273407,-0.004066698,-0.006447238,0.004869879,-0.353154331,-0.060834657,0.292398423,-0.266495824,0.423124135,-3.05116725
0.5249874,0.413365304,0.245228454,-0.875747681,-0.005222308,-0.006684036,0.00613031,-0.353247643,-0.060699664,0.292808622,-0.266520649,0.423105776,-3.051099062
0.529984772,0.414045781,0.24437657,-0.878207982,-0.005511827,-0.007346589,0.00404177,-0.353319407,-0.060595799,0.293124259,-0.266544312,0.423084378,-3.051052332
0.53498292,0.413729548,0.245280534,-0.877086818,-0.004860924,-0.007360452,0.005827349,-0.353343219,-0.060561359,0.293228894,-0.266554296,0.423064798,-3.050984383
0.53998208,0.413348496,0.245114163,-0.875949562,-0.00488563,-0.008055684,0.004551383,-0.352745533,-0.060750902,0.293299884,-0.266576439,0.423031658,-3.050930738
0.544982255,0.413399428,0.245266497,-0.876330495,-0.005908062,-0.007930967,0.004207394,-0.352394909,-0.060867209,0.293321073,-0.266599387,0.42300576,-3.050876379
0.549983203,0.413543135,0.246650785,-0.877301872,-0.004976757,-0.007194667,0.003039251,-0.352125138,-0.060956698,0.293337375,-0.266626984,0.422974229,-3.050830126
0.554985464,0.410544306,0.243333966,-0.876415014,-0.004446476,-0.008660386,0.004022243,-0.352035701,-0.06098637,0.293342769,-0.266650379,0.422935456,-3.050793171
0.559982836,0.411784798,0.241717458,-0.878516555,-0.011063548,-0.010457509,0.006743298,-0.352111816,-0.061006851,0.293299884,-0.266683042,0.422899544,-3.050732851
0.564980745,0.412183851,0.243116945,-0.880637586,-0.021821264,-0.009419142,0.014897831,-0.35228321,-0.061011273,0.293238223,-0.266760737,0.422873467,-3.050626278
0.569979906,0.412478805,0.243342951,-0.880477488,-0.035077032,-0.01207349,0.024034722,-0.352415085,-0.061014678,0.293190777,-0.266891301,0.422849059,-3.050464153
0.574979842,0.411296874,0.242863819,-0.875946343,-0.047524273,-0.013399517,0.026057877,-0.352458805,-0.061015807,0.293175042,-0.267081738,0.422822595,-3.050295353
0.579980791,0.412957042,0.238644242,-0.878109872,-0.051488075,-0.017332481,0.029313765,-0.352492452,-0.061016679,0.293162942,-0.267261803,0.422786653,-3.050114632
0.584983051,0.415736854,0.236899033,-0.877561927,-0.051496085,-0.019479278,0.02522625,-0.352705091,-0.061071273,0.292373598,-0.267447203,0.422740459,-3.049957752
0.589980662,0.418454081,0.236679807,-0.875939786,-0.054821853,-0.020101937,0.021409476,-0.352868706,-0.061113279,0.291766256,-0.267662585,0.422686726,-3.049832582
0.594978571,0.418827266,0.23266834,-0.878686428,-0.058232617,-0.023838684,0.019405736,-0.352922946,-0.061127208,0.291564852,-0.267881334,0.422614396,-3.049725294
0.599977493,0.412814081,0.23442775,-0.881893218,-0.069395103,-0.027495151,0.024279397,-0.352964699,-0.061137922,0.29140988,-0.268147498,0.422515213,-3.049583197
0.604977667,0.410132259,0.237081498,-0.88107872,-0.078131326,-0.032935917,0.034377161,-0.352978498,-0.061196946,0.291633248,-0.268442512,0.422392964,-3.049361706
0.609978855,0.40709272,0.24536562,-0.879068553,-0.088165849,-0.036754731,0.046649914,-0.352989018,-0.061298449,0.292082906,-0.268779039,0.422272772,-3.049035549
0.614981115,0.413416028,0.249050364,-0.880135179,-0.093003713,-0.041370876,0.056396447,-0.352992535,-0.061332107,0.292232007,-0.269112974,0.422151595,-3.048644304
0.619978726,0.413232803,0.248847291,-0.87705797,-0.096532144,-0.043926053,0.061701711,-0.352995187,-0.061358005,0.292346716,-0.269444138,0.422022343,-3.048227072
0.624976873,0.41173169,0.243342265,-0.879496872,-0.099677883,-0.04923138,0.067544639,-0.352996081,-0.061366592,0.292384773,-0.269760579,0.421873331,-3.047796488
0.629976094,0.409153014,0.23991555,-0.883187115,-0.109761365,-0.057879224,0.079235747,-0.352928102,-0.061506443,0.292822391,-0.270095199,0.421694517,-3.047306776
0.634982646,0.410063446,0.240105823,-0.878102601,-0.124563918,-0.064052328,0.092401907,-0.352905571,-0.061552815,0.292967498,-0.270486593,0.421509713,-3.046716213
0.639984131,0.416172534,0.246275663,-0.876628399,-0.13223888,-0.066679992,0.094082341,-0.352888227,-0.061588492,0.293079138,-0.270911962,0.421328068,-3.046094656
0.644986391,0.417622775,0.243457004,-0.875671208,-0.13508451,-0.06488689,0.085820928,-0.352882504,-0.06160032,0.293116152,-0.271368563,0.421147496,-3.045548201
0.649983466,0.415543765,0.246120811,-0.870829523,-0.133300051,-0.063330084,0.073265411,-0.352572531,-0.061417188,0.292478323,-0.271846116,0.420953691,-3.045053005
0.654981613,0.413909763,0.249336168,-0.875896931,-0.1278705,-0.058647268,0.058667343,-0.352394164,-0.061308894,0.292101949,-0.272348821,0.420762479,-3.044661045
0.659980536,0.413863897,0.253147095,-0.873950124,-0.119563878,-0.053607859,0.046260495,-0.352256924,-0.061225571,0.29181233,-0.272829831,0.420575321,-3.044316053
0.66498071,0.416370183,0.255963683,-0.874538422,-0.113911733,-0.050831236,0.033710968,-0.352211416,-0.061197944,0.291716307,-0.27331996,0.420391172,-3.044042349
0.669981718,0.416572988,0.255313158,-0.873090982,-0.105135724,-0.048365094,0.023520041,-0.352318913,-0.061348259,0.291597277,-0.273780286,0.420201838,-3.043828964
0.674984217,0.416502923,0.25455004,-0.870557487,-0.100246467,-0.042994678,0.011952547,-0.352498233,-0.061571117,0.291512311,-0.2742486,0.42003414,-3.04368329
0.679981589,0.413616329,0.25500083,-0.871619046,-0.095526695,-0.039696969,0.005416154,-0.352636248,-0.061742593,0.291446954,-0.274703026,0.419856876,-3.043573618
0.684979737,0.409091681,0.255100518,-0.87668407,-0.090105057,-0.044721916,0.003768536,-0.352681994,-0.061799448,0.291425288,-0.275125921,0.419650555,-3.043473244
0.6899786,0.408630371,0.250685692,-0.882321298,-0.09455359,-0.052038766,0.015936211,-0.352717191,-0.061843198,0.291408598,-0.275538862,0.419417053,-3.043306112
0.694978535,0.413117409,0.248386681,-0.878052235,-0.101047546,-0.057190768,0.020266745,-0.352673382,-0.062214006,0.29162544,-0.27595675,0.419176131,-3.043105364
0.699980021,0.415001035,0.242361978,-0.87517637,-0.108650751,-0.056125592,0.019663692,-0.352639645,-0.062499318,0.291792274,-0.276421785,0.418952733,-3.042944908
0.704982281,0.414927304,0.244039342,-0.874408185,-0.109342128,-0.058118828,0.014495651,-0.352628469,-0.062593922,0.291847587,-0.276896298,0.418703169,-3.042788506
0.709979415,0.413308859,0.247419432,-0.876369596,-0.112321377,-0.053164512,0.006388573,-0.352619886,-0.062666714,0.291890174,-0.277420193,0.418470323,-3.042678595
0.714977562,0.411456555,0.250425816,-0.876646221,-0.114011995,-0.053611811,0.001832661,-0.352499753,-0.06278006,0.291903019,-0.277964532,0.418223172,-3.042597055
0.719976425,0.413116336,0.257673413,-0.877251565,-0.114316262,-0.049550653,0.000794558,-0.352288723,-0.062957466,0.291911602,-0.278527617,0.417993486,-3.042498112
0.724976361,0.411511987,0.262697905,-0.873319387,-0.109397046,-0.048712179,-0.000700123,-0.352218747,-0.063016295,0.291914463,-0.279067755,0.41776827,-3.04239583
0.729977608,0.407994449,0.265274167,-0.874298811,-0.104251876,-0.047201023,-0.003059056,-0.352164924,-0.063061558,0.291916668,-0.279597998,0.417539001,-3.042303801
0.734979868,0.405822515,0.26720956,-0.876577795,-0.097768322,-0.045035694,-0.005541799,-0.352147073,-0.063076563,0.291917413,-0.280093312,0.417314947,-3.042230129
0.739977241,0.406448483,0.26714462,-0.874341846,-0.09112709,-0.040129922,-0.005802169,-0.351720601,-0.063501909,0.292031258,-0.280563354,0.417120278,-3.042163372
0.74497509,0.408365935,0.273490429,-0.874823928,-0.083814189,-0.037375037,-0.008257991,-0.351579189,-0.063642941,0.292068988,-0.281007856,0.416931242,-3.042088985
0.749974251,0.406952798,0.273645461,-0.874638319,-0.074807376,-0.036956687,-0.00773804,-0.351470381,-0.063751452,0.292098045,-0.281408101,0.416750371,-3.042021513
0.754974186,0.408110648,0.271683753,-0.876570284,-0.070168003,-0.035802644,-0.005146842,-0.35143429,-0.063787438,0.292107701,-0.281772792,0.416580588,-3.041942358
0.759975672,0.407337219,0.267996073,-0.874723434,-0.066075601,-0.039379917,0.000856864,-0.350996017,-0.064072244,0.29276827,-0.282091737,0.416395277,-3.041839838
0.764977694,0.407005697,0.265163243,-0.874200881,-0.062224779,-0.036819279,0.003141653,-0.350749105,-0.0642303,0.293148935,-0.282391012,0.416235834,-3.041739464
0.769980907,0.402667314,0.263640404,-0.872683465,-0.059385765,-0.035087775,0.002574808,-0.350559145,-0.064351916,0.293441832,-0.282671988,0.416067302,-3.041641474
0.774979055,0.400893688,0.261874765,-0.875224531,-0.059280135,-0.031068055,0.000277932,-0.350496173,-0.064392246,0.293538958,-0.282956481,0.415911525,-3.041575909
0.779978216,0.399579138,0.262509048,-0.87891525,-0.054009642,-0.024946837,0.00112933,-0.350503355,-0.064595848,0.293641627,-0.283217132,0.415790141,-3.041514635
0.784978151,0.401032209,0.268155009,-0.876255631,-0.050164111,-0.020837553,0.002380269,-0.350561857,-0.064837389,0.293703854,-0.283471525,0.415690005,-3.041440964
0.789979398,0.401930183,0.270257205,-0.873902798,-0.044596858,-0.018144781,-9.43E-05,-0.350606889,-0.065023229,0.293751776,-0.283713788,0.415599883,-3.041377306
0.794981658,0.401598066,0.271567136,-0.87462467,-0.038806111,-0.012495177,-0.000272608,-0.350621819,-0.065084852,0.293767631,-0.283928692,0.415537238,-3.041326761
0.799978733,0.399115711,0.270332187,-0.875845075,-0.03354409,-0.010571128,-0.000240498,-0.350633293,-0.065132268,0.29377985,-0.284110308,0.415485889,-3.041275501
0.804976881,0.401795119,0.270623296,-0.876729846,-0.026532849,-0.00586558,0.001279974,-0.350732744,-0.065605819,0.293747097,-0.284256041,0.415453345,-3.04123354
0.809975803,0.403367668,0.270369798,-0.875041604,-0.019157689,-0.001584606,0.001329128,-0.350809276,-0.06597019,0.293721884,-0.284370065,0.415454566,-3.041195393
0.814975739,0.40309599,0.27229026,-0.87478286,-0.012701533,0.002890504,0.001966552,-0.350834668,-0.066091001,0.29371354,-0.284447521,0.415477306,-3.041154146
0.819977462,0.403826654,0.271289706,-0.872915924,-0.006772393,0.003340513,0.003827267,-0.350854188,-0.066183962,0.293707073,-0.284492403,0.415500939,-3.041103363
0.824979722,0.40369913,0.270240605,-0.874009848,0.001068337,0.005949003,0.006109426,-0.350831687,-0.066187494,0.293579459,-0.284492314,0.415536255,-3.041056395
0.829976857,0.402382016,0.269639999,-0.873800397,0.007441639,0.006763597,0.007234508,-0.350785106,-0.066162623,0.293354362,-0.28446877,0.415580511,-3.04100585
0.834975004,0.399972975,0.268694997,-0.874451697,0.01320954,0.008888297,0.009872227,-0.350769639,-0.066154383,0.293279737,-0.284406811,0.415634394,-3.040943146
0.839973867,0.399585336,0.270136833,-0.875344932,0.021048665,0.012279161,0.012907135,-0.350757748,-0.066148035,0.293222308,-0.284302294,0.415704101,-3.040873528
0.844974339,0.399484396,0.273480237,-0.873558462,0.027869098,0.012262721,0.015657788,-0.350753814,-0.066145934,0.293203264,-0.28416419,0.41577667,-3.040774345
0.849975288,0.400556713,0.273187637,-0.87411201,0.034170181,0.016467672,0.018531336,-0.350411266,-0.066086255,0.29283151,-0.283989608,0.415881246,-3.040667295
0.854977548,0.39960748,0.273690939,-0.870412648,0.040280376,0.018154839,0.020798054,-0.350297689,-0.066066466,0.292708248,-0.283781528,0.415992677,-3.040546894
0.859974682,0.40057534,0.273814946,-0.86998421,0.046099,0.020341963,0.018438639,-0.350210279,-0.06605123,0.292613417,-0.283555627,0.416117609,-3.040444374
0.86497277,0.401464254,0.268421382,-0.875404418,0.0522529,0.023624033,0.019787213,-0.350181311,-0.066046178,0.292581975,-0.283284903,0.416256011,-3.040365458
0.869971693,0.402506143,0.26382947,-0.876925349,0.054026514,0.027039083,0.019196695,-0.350572348,-0.065824583,0.293177694,-0.283004522,0.416413307,-3.040308714
0.874971926,0.401747495,0.267840356,-0.877881944,0.056600805,0.030912574,0.018809069,-0.350804299,-0.065697238,0.293528616,-0.282720685,0.416578114,-3.040230751
0.879973352,0.403621465,0.268784404,-0.878810823,0.055531744,0.031570334,0.020637659,-0.350982755,-0.065599255,0.293798625,-0.282439619,0.416759133,-3.040153265
0.884975374,0.403875142,0.266576082,-0.877090573,0.053299043,0.033055186,0.024915967,-0.351041943,-0.065566771,0.293888152,-0.282162547,0.416946858,-3.040048599
0.889972508,0.408630997,0.263212651,-0.876279771,0.049230732,0.034473915,0.027570022,-0.351263165,-0.065339595,0.293509632,-0.281903625,0.417164505,-3.039943457
0.894970357,0.408442587,0.258035541,-0.877224267,0.045925658,0.034829047,0.027919801,-0.351513654,-0.065060392,0.292932928,-0.281642467,0.417372555,-3.039857149
0.89996928,0.408185035,0.257618129,-0.878450394,0.045448601,0.033073604,0.027899588,-0.351706415,-0.064845562,0.292489171,-0.281386644,0.417564452,-3.039763212
0.904975355,0.407967448,0.261029869,-0.87781918,0.045818437,0.0344854,0.026239069,-0.351770341,-0.064774327,0.292342037,-0.28114152,0.417769045,-3.039668322
0.909976602,0.408182859,0.25999698,-0.875644267,0.047027633,0.03570563,0.026332099,-0.351819515,-0.064719521,0.292228848,-0.280881524,0.417982042,-3.039571285
0.914978564,0.408999592,0.261833668,-0.875211596,0.047748867,0.034203611,0.027341913,-0.351631939,-0.064655051,0.292099059,-0.280621052,0.418189645,-3.039467573
0.919975936,0.410371065,0.261048347,-0.873132765,0.049783424,0.034721572,0.027531277,-0.351487607,-0.064605452,0.291999191,-0.280357867,0.418403596,-3.039364338
0.924973845,0.410689682,0.259334445,-0.872033417,0.049757164,0.035009179,0.026082369,-0.351439744,-0.064589001,0.291966081,-0.280087233,0.418618381,-3.03927207
0.929973006,0.408090353,0.257618904,-0.871013224,0.049257282,0.036073431,0.024466166,-0.351402909,-0.06457635,0.29194057,-0.279825568,0.418834418,-3.03919673
0.93497318,0.405137181,0.258123428,-0.87446326,0.050595667,0.036212012,0.02527211,-0.351510495,-0.064364038,0.292256057,-0.279551595,0.419035017,-3.039112091
0.939974427,0.406092405,0.260354638,-0.877787709,0.04938022,0.038625237,0.0262898,-0.351714402,-0.063990235,0.292826325,-0.279279023,0.419257164,-3.039013386
0.944976389,0.405749172,0.261823386,-0.875965476,0.050207026,0.038507123,0.026363676,-0.351782024,-0.063866287,0.29301542,-0.279011071,0.419480711,-3.038912535
0.949973762,0.406590611,0.261600792,-0.876985252,0.050812595,0.041272052,0.026739789,-0.351834059,-0.06377092,0.293160915,-0.278738439,0.419715792,-3.038814783
0.954971671,0.408195078,0.261542559,-0.87728554,0.053867787,0.040811107,0.028393464,-0.351851314,-0.0637393,0.293209136,-0.278447747,0.419954181,-3.038705587
0.959970832,0.408874035,0.266972929,-0.878924429,0.053661309,0.042993098,0.02864914,-0.351731509,-0.063579269,0.293533683,-0.278173387,0.420207173,-3.038579464
0.964971006,0.40666008,0.268649727,-0.879017353,0.053851191,0.045809675,0.029030064,-0.351691782,-0.063526213,0.293641299,-0.277899861,0.420459807,-3.038459301
0.969971955,0.405365646,0.266805142,-0.878870547,0.055393633,0.047759615,0.032491576,-0.351661235,-0.063485384,0.29372412,-0.277598381,0.420730263,-3.038326025
0.974973977,0.407991737,0.263092935,-0.880426884,0.057660516,0.050379112,0.034347203,-0.351651102,-0.063471846,0.293751568,-0.27729255,0.421012133,-3.038198709
0.979971051,0.412127763,0.259501249,-0.876863003,0.058273517,0.049769454,0.033443775,-0.351800323,-0.063007884,0.292805195,-0.276977837,0.421302855,-3.038083315
0.984969199,0.414459199,0.254958242,-0.874986112,0.05848204,0.053727213,0.033904403,-0.351888657,-0.062741809,0.292252004,-0.276658237,0.421622753,-3.037978172
0.989968121,0.416581988,0.251544058,-0.87594229,0.058664668,0.051454995,0.030429928,-0.351956636,-0.062537074,0.291826367,-0.276339531,0.421928436,-3.037903786
0.994968295,0.41768086,0.250690311,-0.873277128,0.059469309,0.051898502,0.025805935,-0.351979166,-0.062469192,0.291685224,-0.276023805,0.422227681,-3.037842274
0.999969304,0.417563885,0.248116791,-0.873118401,0.055206377,0.054471325,0.021528844,-0.35220018,-0.06246645,0.292079538,-0.275735348,0.422528058,-3.037824631
1.004971504,0.419768155,0.245948032,-0.873072803,0.055989437,0.053020336,0.016836874,-0.352478862,-0.062515445,0.292717397,-0.275451958,0.422827601,-3.037830353
1.009968638,0.420623839,0.246942461,-0.870735586,0.056087885,0.053219203,0.014841776,-0.35269326,-0.062553145,0.293208182,-0.275180817,0.423121303,-3.037834167
1.014966726,0.419236243,0.249124303,-0.870683134,0.056169715,0.052950695,0.010090378,-0.352764368,-0.062565647,0.293370932,-0.274923772,0.423407823,-3.037859678
1.019965649,0.416479975,0.251650512,-0.870018125,0.053235859,0.050805345,0.008888128,-0.352819055,-0.062575266,0.293496162,-0.274682581,0.423680991,-3.037880659
1.024965882,0.415826887,0.251944691,-0.869896352,0.054700732,0.050966907,0.005021845,-0.352637112,-0.06227614,0.293530375,-0.274443567,0.423936397,-3.037917137
1.029966831,0.415221781,0.253725737,-0.871347904,0.055860959,0.049720265,0.003969074,-0.352497131,-0.062045984,0.29355666,-0.274198353,0.424191058,-3.037950277
1.034969091,0.413589567,0.255091935,-0.873465955,0.05756209,0.048059788,0.002544247,-0.352450699,-0.061969668,0.293565392,-0.273949862,0.424421787,-3.037985563
1.039972067,0.413345665,0.252272964,-0.87690872,0.058347162,0.050221547,0.003271848,-0.352414995,-0.06191095,0.293572098,-0.273682982,0.424671561,-3.038035631
1.044970036,0.413451135,0.254658252,-0.87983048,0.057059139,0.049509004,0.005617484,-0.352604657,-0.061865166,0.292855293,-0.273429573,0.424913406,-3.038068295
1.049969196,0.410299629,0.259922653,-0.883539498,0.053204786,0.048460118,0.009811913,-0.352954358,-0.061803337,0.291576684,-0.273195803,0.425149888,-3.038069487
1.054969311,0.406063139,0.264197528,-0.884293199,0.044644885,0.051907584,0.022419838,-0.353070289,-0.061782837,0.291152745,-0.272990346,0.425411791,-3.037991285
1.05997026,0.403191745,0.265354455,-0.884547234,0.038327862,0.051329553,0.034662083,-0.353159517,-0.06176706,0.290826499,-0.272790521,0.425679952,-3.037846327
1.064972281,0.407027841,0.265892506,-0.881722569,0.031142434,0.054691061,0.043064393,-0.353189111,-0.06176183,0.290718347,-0.272613913,0.425997198,-3.037660837
1.069969654,0.409622431,0.262375772,-0.878860414,0.030777924,0.058556143,0.048069511,-0.353760719,-0.061340317,0.290641069,-0.272417128,0.426333368,-3.037457943
1.074967504,0.414487362,0.25643006,-0.877116799,0.031051515,0.059907865,0.050064452,-0.353950262,-0.061200548,0.290615439,-0.272200793,0.426689863,-3.037264347
1.07996726,0.417558223,0.253188521,-0.876772404,0.030557409,0.060324874,0.049608052,-0.354096115,-0.061093006,0.29059571,-0.271988869,0.427048057,-3.037082195
1.084967375,0.418413341,0.251903564,-0.876335323,0.032698445,0.058786023,0.049353525,-0.354144484,-0.061057348,0.290589154,-0.271762758,0.427407593,-3.036900997
1.089968443,0.421835393,0.250805348,-0.876404345,0.033762146,0.060051758,0.04580738,-0.353826106,-0.061030015,0.291323215,-0.271537066,0.427773327,-3.03673315
1.094970345,0.422634423,0.249252051,-0.87550956,0.03750639,0.060410079,0.043159027,-0.35363254,-0.061020978,0.291749507,-0.271300524,0.428128958,-3.036593676
1.09996748,0.424809128,0.247291267,-0.877434671,0.041246597,0.060369335,0.039213501,-0.353483588,-0.061014023,0.292077482,-0.271046966,0.428480804,-3.036475897
1.104965329,0.433118135,0.243095189,-0.881094337,0.041636404,0.055789769,0.031653937,-0.353434205,-0.061011717,0.29218623,-0.270793051,0.428824216,-3.03640461
1.10996449,0.438211709,0.242514119,-0.88267827,0.045186535,0.05416429,0.023950912,-0.353661776,-0.060658406,0.292121559,-0.270542711,0.429141998,-3.036372423
1.114964962,0.44233048,0.244874299,-0.883205771,0.048657719,0.051963765,0.018508201,-0.354005098,-0.060186766,0.291950524,-0.270291269,0.429445982,-3.036345482
1.119966149,0.446807981,0.247176662,-0.881574869,0.052385557,0.044742011,0.011152841,-0.354269236,-0.059823874,0.291818947,-0.270038754,0.42971471,-3.036349058
1.124968171,0.44800663,0.249872804,-0.885814548,0.053686429,0.040306341,0.00538195,-0.354356825,-0.059703544,0.291775316,-0.269801557,0.429948509,-3.036379337
1.129965067,0.440432757,0.254909277,-0.886140525,0.050445333,0.038682986,0.002704683,-0.354424208,-0.059610959,0.291741759,-0.269583672,0.430159003,-3.036401272
1.134963155,0.415296078,0.261194587,-0.901661336,0.039740019,0.030340472,0.017184241,-0.354854077,-0.059479084,0.290771991,-0.269390345,0.430286527,-3.036355019
1.139962673,0.390278578,0.258430839,-0.907389939,0.005982598,0.028771011,0.054036371,-0.355184823,-0.059377618,0.29002583,-0.269275457,0.430414021,-3.036102057
1.144962788,0.378426105,0.263273984,-0.906478345,-0.040417232,0.02893566,0.105619088,-0.355294496,-0.059343971,0.289778411,-0.269290626,0.430612177,-3.035541773
1.149963737,0.380428761,0.262290329,-0.90654546,-0.077184953,0.024002234,0.156907916,-0.355378896,-0.059318084,0.289588034,-0.269376338,0.430870146,-3.034707785
1.154965758,0.38021192,0.250604808,-0.906393945,-0.094500937,0.0169627,0.2185096,-0.355524898,-0.059217788,0.289800286,-0.269378901,0.431176066,-3.033571482
1.159962893,0.368354648,0.252421528,-0.901368201,-0.11056941,0.021076605,0.254843414,-0.355756611,-0.059047878,0.290242046,-0.269369423,0.43149665,-3.032206059
1.164960742,0.381380528,0.243733481,-0.906856358,-0.122438736,0.051282667,0.278059989,-0.355833441,-0.05899154,0.290388525,-0.269387573,0.432067245,-3.030841112
1.169960141,0.380376667,0.23905845,-0.908300817,-0.134810492,0.087746978,0.287657589,-0.355892569,-0.058948193,0.290501237,-0.269446343,0.432801843,-3.029506683
1.174966574,0.361673951,0.246805757,-0.920896232,-0.144063845,0.141921863,0.286856651,-0.355912149,-0.058933821,0.290538609,-0.269625098,0.433786452,-3.028251648
1.179967761,0.346603602,0.248935819,-0.919886112,-0.167177722,0.20490995,0.279553533,-0.355590463,-0.05872637,0.290500283,-0.269955248,0.435026586,-3.027125359
1.184970021,0.33713904,0.229258075,-0.946726084,-0.204914376,0.262744635,0.272447228,-0.35548377,-0.058657583,0.290487558,-0.270469427,0.436500669,-3.02624774
1.189967155,0.322022766,0.189012304,-0.986818314,-0.285987228,0.323306769,0.275929332,-0.355401695,-0.058604654,0.290477782,-0.271363229,0.438255817,-3.025607824
1.194965243,0.284991801,0.187246799,-1.008417845,-0.365113318,0.396340221,0.294735938,-0.355374485,-0.058587104,0.290474534,-0.272646636,0.440285325,-3.024967194
1.199964404,0.255780011,0.250530899,-1.004626632,-0.405563593,0.502466857,0.325306118,-0.35637933,-0.058102846,0.289565116,-0.274270594,0.44282794,-3.024116039
1.204964638,0.270559996,0.222795293,-1.039650321,-0.480454832,0.625383675,0.330739766,-0.356966347,-0.057825789,0.289039165,-0.276210845,0.446023703,-3.023568153
1.209965825,0.263353497,0.238811448,-1.07251811,-0.570190668,0.730973959,0.359559625,-0.357418001,-0.057612609,0.288634479,-0.2786901,0.449712813,-3.023075342
1.214967847,0.219565079,0.336441249,-1.063010573,-0.592760503,0.876941144,0.387486547,-0.357567787,-0.057541925,0.288500279,-0.281501949,0.454036534,-3.022335052
1.219964981,0.241787151,0.389873326,-1.04954493,-0.56000334,1.041524887,0.393435925,-0.358633399,-0.057686046,0.286872715,-0.284271389,0.459239155,-3.021692753
1.224962831,0.270065129,0.374876291,-1.084561944,-0.555380702,1.178740978,0.408569872,-0.359945089,-0.057934009,0.28479597,-0.28696841,0.465157956,-3.021370888
1.22996223,0.269115299,0.334116757,-1.106211662,-0.57783699,1.277663827,0.440502077,-0.360954374,-0.058124799,0.283198029,-0.28970474,0.471523464,-3.021202087
1.234962225,0.286261141,0.311371714,-1.125710011,-0.6120947,1.385691047,0.521357954,-0.361289024,-0.058188062,0.282668173,-0.292471528,0.478504866,-3.020816326
1.239963174,0.286515921,0.34899646,-1.169449091,-0.619668067,1.472726941,0.633732617,-0.361546516,-0.058236737,0.282260507,-0.295076787,0.48606801,-3.019844055
1.244965076,0.269701958,0.349177718,-1.140952229,-0.663543165,1.549246192,0.721424341,-0.36453855,-0.058020834,0.279063523,-0.29774946,0.494040281,-3.018554688
1.249962211,0.315098703,0.368296027,-1.20207572,-0.692137957,1.602916598,0.839363933,-0.36684069,-0.057854708,0.276603699,-0.300346017,0.502507389,-3.016780853
1.254960895,0.355918825,0.410568893,-1.259533167,-0.70430845,1.591956854,0.926285207,-0.367604047,-0.057799622,0.275788069,-0.302716672,0.510994434,-3.014373779
1.259960294,0.30390501,0.385940999,-1.192101121,-0.746669412,1.589394331,0.98476541,-0.368191391,-0.05775724,0.275160491,-0.305134594,0.519431949,-3.011734247
1.264960527,0.273080885,0.325939149,-1.155120015,-0.833297014,1.616291404,1.021942854,-0.370907545,-0.057261754,0.271581948,-0.307831109,0.528115273,-3.009164333
1.269961715,0.261159927,0.350747675,-1.171478033,-0.891708553,1.604914427,1.084153295,-0.375546962,-0.056393705,0.265420437,-0.310746759,0.536765218,-3.006234169
1.274963737,0.338231742,0.42241171,-1.227006078,-0.861073434,1.551501036,1.155330658,-0.377085298,-0.056105878,0.263377398,-0.313216448,0.545342445,-3.002569675
1.279960871,0.138900638,0.446348339,-1.297413468,-0.815762222,1.449717164,1.144191742,-0.378268957,-0.055884413,0.261805445,-0.315327495,0.552951038,-2.998983383
1.28495872,0.028170675,0.529381156,-1.304613948,-0.718421698,1.34145534,1.07364893,-0.378661424,-0.05581098,0.261284202,-0.31725651,0.559644818,-2.99552393
1.289958715,0.055123359,0.644031644,-1.403884411,-0.568051338,1.207937956,0.992182314,-0.384817123,-0.05332876,0.25426358,-0.318618447,0.565571189,-2.99221468
1.294958591,0.076284587,0.745158374,-1.464120269,-0.390682995,1.078808904,0.932799637,-0.386858225,-0.052505702,0.251935661,-0.319295049,0.570721149,-2.988810778
1.29995954,0.010869725,0.788630307,-1.528460503,-0.151658311,0.910607576,0.857177734,-0.388428718,-0.051872414,0.250144511,-0.318740189,0.574777484,-2.985495329
1.304961562,-0.147359774,0.709290266,-1.562921524,0.065455168,0.70487076,0.743710458,-0.388949484,-0.051662426,0.249550596,-0.317006946,0.577369809,-2.982823133
1.309964538,-0.290205449,0.538829148,-1.539384961,0.213510945,0.508254826,0.651367188,-0.39197731,-0.049140468,0.244949117,-0.314298511,0.578727424,-2.980730057
1.314962745,-0.404584229,0.370365679,-1.50868094,0.270941347,0.340169042,0.599204659,-0.393631369,-0.047720145,0.242397785,-0.311030716,0.579160511,-2.978939772
1.319961905,-0.495780259,0.247962222,-1.47378397,0.244038656,0.193785161,0.572531581,-0.394904047,-0.046627309,0.240434706,-0.307719767,0.578822315,-2.977220535
1.32496202,-0.564437449,0.175160512,-1.438057303,0.167761013,0.048130061,0.5635584,-0.395326048,-0.046264946,0.239783794,-0.304644495,0.577734768,-2.97539115
1.329962969,-0.610239983,0.155915692,-1.40537405,0.090885863,-0.090228222,0.572100401,-0.396312863,-0.044153493,0.238627121,-0.301833272,0.575983763,-2.973231792
1.334964991,-0.641345859,0.180327624,-1.374485254,0.038082965,-0.226098329,0.588819385,-0.397307754,-0.04160535,0.237582266,-0.299196422,0.573576927,-2.97062397
1.339962125,-0.658184409,0.221736595,-1.348212957,0.028587546,-0.360994309,0.604489207,-0.398073256,-0.039644726,0.236778319,-0.296525657,0.570542634,-2.967589855
1.344960213,-0.67286998,0.253798217,-1.328820944,0.055542506,-0.494983703,0.614503443,-0.398327082,-0.038994621,0.236511752,-0.293634057,0.566868186,-2.964234829
1.349959373,-0.683814645,0.267265797,-1.315363884,0.103215784,-0.626169622,0.616585135,-0.398522407,-0.038494408,0.236306652,-0.290406495,0.562551856,-2.96064806
1.354959607,-0.682946801,0.271475524,-1.306627035,0.158352092,-0.764612913,0.613068104,-0.396277219,-0.035708837,0.237348884,-0.286822677,0.557554901,-2.956827164
1.359960794,-0.67492944,0.268672794,-1.29853487,0.202233627,-0.907758176,0.605144083,-0.394549698,-0.033565529,0.23815079,-0.282955706,0.551882923,-2.952849627
1.364963055,-0.659284234,0.260604709,-1.289536834,0.235539928,-1.048981905,0.590951562,-0.393976867,-0.032854848,0.238416687,-0.278906643,0.545531154,-2.948791981
1.369960189,-0.645848572,0.243616611,-1.272079825,0.247355446,-1.191494465,0.566924512,-0.39353615,-0.032308023,0.23862128,-0.274793684,0.538485825,-2.944705248
1.374958038,-0.632486522,0.236464292,-1.253200293,0.241963297,-1.319347739,0.533221364,-0.391216248,-0.030323802,0.240744606,-0.270783424,0.530803204,-2.940618992
1.379957199,-0.614259303,0.241360381,-1.237332225,0.230015188,-1.442891598,0.488559365,-0.387233198,-0.026974054,0.244456783,-0.266976088,0.522510111,-2.936594248
1.384957194,-0.592993975,0.267416,-1.216493487,0.218256891,-1.548178911,0.437138736,-0.385912508,-0.02586334,0.245687678,-0.263439775,0.513680518,-2.932683229
1.389958382,-0.563103139,0.306795061,-1.203808904,0.219110146,-1.633938313,0.372365326,-0.384896308,-0.025008721,0.246634766,-0.260164827,0.504395247,-2.928966045
1.394960403,-0.52417624,0.341182142,-1.209866643,0.227277383,-1.707114458,0.291789293,-0.384559363,-0.024725346,0.246948808,-0.257128179,0.494716883,-2.925559998
1.399957538,-0.476594657,0.364727676,-1.218510985,0.238808632,-1.767760992,0.191656411,-0.377052814,-0.019708913,0.253176212,-0.254360646,0.48468703,-2.922543049
1.404955387,-0.428646803,0.37910679,-1.242736578,0.245412931,-1.82228303,0.074914508,-0.374563783,-0.01804556,0.255241096,-0.251880586,0.474301487,-2.92013216
1.409954786,-0.371730447,0.39483583,-1.280455351,0.232831702,-1.883605599,-0.062240347,-0.372648656,-0.016765721,0.256829888,-0.249836728,0.463519275,-2.918400526
1.414954782,-0.3023884,0.411434442,-1.314738631,0.206961229,-1.953917265,-0.214416802,-0.372013628,-0.016341351,0.257356703,-0.248313978,0.452299237,-2.917390347
1.419955969,-0.226136833,0.429926753,-1.345675588,0.175109684,-2.034188986,-0.383300334,-0.364275306,-0.013388212,0.26443699,-0.247364402,0.440587044,-2.91707015
1.424957991,-0.160279274,0.453152657,-1.368489504,0.144360557,-2.127422094,-0.557441235,-0.359915465,-0.011759044,0.268436432,-0.2469441,0.428291678,-2.917469501
1.429955125,-0.112620704,0.476418853,-1.377604961,0.117695399,-2.222242117,-0.74006778,-0.356560856,-0.010505509,0.2715137,-0.247046545,0.415393651,-2.918638229
1.434953213,-0.083196387,0.491435081,-1.373536229,0.103042983,-2.310917616,-0.911247551,-0.355448544,-0.01008986,0.272534072,-0.247541696,0.40191862,-2.920533657
1.439952374,-0.069143273,0.499423116,-1.352586627,0.101360545,-2.383749485,-1.070773482,-0.349413931,-0.009433726,0.276603818,-0.248307765,0.387956917,-2.923062563
1.444958448,-0.06125319,0.502204955,-1.329195976,0.113647513,-2.442129135,-1.206494689,-0.342190742,-0.008877019,0.281265497,-0.249199927,0.373616576,-2.926094294
1.449959636,-0.050805941,0.486456066,-1.299831152,0.131747872,-2.481116772,-1.322347283,-0.336632997,-0.008448672,0.284852326,-0.25010553,0.359029442,-2.929626465
1.454961658,-0.03536858,0.449920624,-1.272879958,0.143183291,-2.511721611,-1.416698217,-0.33479014,-0.008306639,0.286041677,-0.250979781,0.34425655,-2.933612823
1.459958792,-0.016935775,0.403985471,-1.252226949,0.13808535,-2.53009367,-1.489493251,-0.333372205,-0.008197355,0.286956757,-0.251847953,0.32939297,-2.937960625
1.464956641,-0.000100369,0.358004689,-1.233691454,0.10995356,-2.536550283,-1.544327617,-0.323303789,-0.009247025,0.294721514,-0.2528072,0.314510942,-2.94254446
1.46995604,0.019313332,0.326282948,-1.219684005,0.070310801,-2.540020227,-1.582663655,-0.315556824,-0.010054674,0.300695956,-0.253909439,0.299637854,-2.947291374
1.474956274,0.046012431,0.306668818,-1.209659219,0.023044791,-2.530288696,-1.60883224,-0.312988073,-0.010322475,0.302676976,-0.255195707,0.284853607,-2.952126503
1.479957223,0.086988389,0.301137358,-1.202471614,-0.019679211,-2.516686678,-1.627612829,-0.311011583,-0.01052853,0.304201216,-0.256647527,0.270222843,-2.956996679
1.484959245,0.134267405,0.311330616,-1.19475472,-0.041675702,-2.499445677,-1.635757208,-0.304343909,-0.011783599,0.307992309,-0.2581608,0.255770564,-2.961802483
1.489956379,0.175641522,0.343017071,-1.177407742,-0.028914088,-2.48034668,-1.632651687,-0.293134212,-0.013949273,0.314231694,-0.25958693,0.241494343,-2.966422319
1.494954705,0.223852023,0.379490912,-1.159420371,0.015722446,-2.457338333,-1.61744976,-0.289417297,-0.014667369,0.316300571,-0.260741293,0.227477133,-2.970821619
1.499953866,0.260010958,0.402378172,-1.13581717,0.083355263,-2.425941706,-1.601944804,-0.286557406,-0.015219895,0.317892402,-0.261500478,0.213707119,-2.97504878
1.5049541,0.271581143,0.394305646,-1.112383962,0.156179935,-2.38500905,-1.580504179,-0.285609096,-0.015403102,0.318420231,-0.261773258,0.20021084,-2.979207039
1.509955049,0.287445426,0.365950048,-1.090471387,0.224594235,-2.326776981,-1.55456388,-0.270406604,-0.018059714,0.326270789,-0.261589229,0.187103525,-2.983334064
1.514957309,0.30094257,0.332829416,-1.063607335,0.270466119,-2.257832766,-1.518735886,-0.26536572,-0.018940596,0.328873903,-0.261064112,0.174439833,-2.987416744
1.519954443,0.315306723,0.304313838,-1.044162631,0.293896616,-2.186684132,-1.471393466,-0.261487126,-0.019618375,0.330876797,-0.260318011,0.162257925,-2.991387129
1.524952888,0.338379145,0.280355841,-1.047712684,0.288223267,-2.113988876,-1.413501501,-0.260201067,-0.019843115,0.331540912,-0.25949344,0.150568455,-2.995213509
1.529952049,0.383335888,0.257869869,-1.076209068,0.250840664,-2.057411909,-1.346415639,-0.249199674,-0.020930937,0.336738676,-0.258747667,0.139340535,-2.998818636
1.534952164,0.45743233,0.234974697,-1.116495252,0.176791832,-2.028681278,-1.276407719,-0.243074358,-0.021518033,0.339621931,-0.258262664,0.128466338,-3.002155542
1.539953351,0.563093126,0.236185476,-1.179046512,0.073413767,-2.047425508,-1.201966763,-0.238361344,-0.021969762,0.341840386,-0.258196741,0.117781624,-3.005084276
1.544955373,0.691246986,0.26303342,-1.24894762,-0.052577134,-2.131899118,-1.136416197,-0.236798599,-0.022119546,0.342575997,-0.258733332,0.106962577,-3.007475376
1.549952507,0.819159746,0.295161247,-1.296886683,-0.179323629,-2.270059109,-1.098198652,-0.230233386,-0.022432271,0.345482171,-0.259898037,0.095699616,-3.009370565
1.554950714,0.905295074,0.317775071,-1.314428091,-0.287040293,-2.440078974,-1.083041549,-0.222648695,-0.022735098,0.348805636,-0.261560321,0.083734304,-3.010859251
1.559949875,0.928002059,0.338287681,-1.305502415,-0.372362137,-2.619661808,-1.082187295,-0.216812775,-0.022968106,0.351362795,-0.26362443,0.070915997,-3.01203227
1.564949751,0.903583705,0.362779915,-1.248297453,-0.421409339,-2.784671307,-1.089449406,-0.214877695,-0.023045367,0.352210701,-0.265944868,0.057250522,-3.012870312
1.5699507,0.840224028,0.382535249,-1.161041379,-0.427006125,-2.905154705,-1.095676422,-0.213388786,-0.023104811,0.352863103,-0.268297851,0.042932231,-3.013488293
1.574952722,0.749899566,0.404504538,-1.048992634,-0.394715846,-2.968320131,-1.084101915,-0.203237206,-0.024239492,0.357468158,-0.27052322,0.0282111,-3.013760328
1.579956532,0.670139432,0.388989896,-0.939916492,-0.332673043,-2.963835239,-1.068128228,-0.195426241,-0.025112553,0.361011416,-0.272389591,0.013482247,-3.013948202
1.584955335,0.620560944,0.351308912,-0.855140507,-0.270197034,-2.898289919,-1.043872595,-0.19283627,-0.025402043,0.362186283,-0.273872495,-0.000886165,-3.014157057
1.589954615,0.600175202,0.307295024,-0.791261375,-0.226559088,-2.798975229,-1.020723104,-0.190843463,-0.025624786,0.363090277,-0.275067717,-0.014714746,-3.014462471
1.594954491,0.596468329,0.270128459,-0.74036932,-0.207737789,-2.671096087,-0.99972707,-0.183243245,-0.026622359,0.3656829,-0.276134312,-0.027862499,-3.014882565
1.599955678,0.611157954,0.240493909,-0.71245718,-0.20341,-2.535435915,-0.981087983,-0.170378551,-0.028323943,0.36999619,-0.277144641,-0.040263869,-3.015433073
1.6049577,0.643685818,0.220810741,-0.705568016,-0.217122748,-2.40446353,-0.961520076,-0.166112855,-0.028888157,0.371426374,-0.278190911,-0.051935285,-3.016096354
1.609955072,0.689786553,0.208008394,-0.703503847,-0.244702846,-2.285052776,-0.943041742,-0.162830696,-0.02932228,0.372526824,-0.279357195,-0.062916994,-3.016832829
1.614953756,0.72857213,0.20041503,-0.695079863,-0.272125751,-2.178580999,-0.925865293,-0.161742389,-0.029466227,0.372891724,-0.280638754,-0.073307328,-3.017604113
1.619952679,0.746809304,0.212237358,-0.669750988,-0.281659693,-2.080634594,-0.904204845,-0.146710083,-0.030643083,0.375357866,-0.281988382,-0.083168805,-3.01831007
1.624952793,0.738124549,0.24036631,-0.624679446,-0.260666966,-1.986250401,-0.876305759,-0.141725644,-0.031033307,0.376175612,-0.283279687,-0.092574388,-3.018848181
1.629953742,0.719649911,0.269953698,-0.580390155,-0.206511393,-1.878912568,-0.845094681,-0.137890473,-0.031333558,0.376804769,-0.284332812,-0.1014449,-3.01924634
1.634956002,0.694399893,0.28723076,-0.537078619,-0.127808169,-1.756278157,-0.808463752,-0.136618808,-0.031433113,0.377013385,-0.284999907,-0.109711729,-3.019552708
1.639953136,0.682733774,0.27922222,-0.512164176,-0.043694545,-1.622942924,-0.772106946,-0.126594692,-0.032177482,0.378936589,-0.285200357,-0.117281429,-3.019880772
1.644951344,0.691486716,0.250083745,-0.496721566,0.018515598,-1.486288667,-0.745815516,-0.121032521,-0.032589544,0.380010456,-0.285020351,-0.124133073,-3.020359278
1.649950266,0.709978521,0.21312277,-0.484730363,0.050534543,-1.355314016,-0.736344695,-0.116752811,-0.032906596,0.380836695,-0.284611911,-0.130310014,-3.021107674
1.654950142,0.738818347,0.192468435,-0.476919115,0.051861707,-1.232303143,-0.741980672,-0.115333736,-0.033011727,0.381110668,-0.284157097,-0.135851547,-3.022103548
1.659951091,0.756869137,0.191453338,-0.467971295,0.043152105,-1.118292212,-0.753457427,-0.110356644,-0.033185888,0.38244319,-0.283737838,-0.140840352,-3.023301601
1.664953589,0.764985323,0.202386662,-0.447171092,0.032205667,-1.006392956,-0.766432047,-0.104788512,-0.033337694,0.384016156,-0.283377886,-0.145314723,-3.024628162
1.669950962,0.764169574,0.219588488,-0.429287106,0.034251899,-0.888970435,-0.782221019,-0.100504212,-0.033454496,0.385226429,-0.282999516,-0.149249434,-3.026133776
1.674949646,0.768873632,0.237151071,-0.410640717,0.05711446,-0.757868886,-0.79842937,-0.099083625,-0.033493225,0.385627747,-0.282482833,-0.152553678,-3.027834654
1.679948568,0.784249067,0.256798357,-0.392362803,0.106507249,-0.623238742,-0.813621461,-0.097990572,-0.033523023,0.385936558,-0.281695962,-0.155192018,-3.029711246
1.684948683,0.776153803,0.277714789,-0.373191863,0.178558677,-0.490180701,-0.824944079,-0.093143463,-0.032899644,0.38655898,-0.280533463,-0.157233059,-3.031732082
1.689949751,0.749403834,0.301061064,-0.355836213,0.272182524,-0.348436773,-0.826202929,-0.089413941,-0.032419994,0.387037903,-0.278889775,-0.158642963,-3.033863544
1.694952488,0.727824092,0.300544202,-0.349836826,0.374334842,-0.201826826,-0.822192609,-0.088177308,-0.032260951,0.38719672,-0.276677907,-0.159353942,-3.036207199
1.699950099,0.710203469,0.291240692,-0.343961895,0.464526653,-0.052200779,-0.810069025,-0.087225802,-0.032138579,0.387318909,-0.273966223,-0.15934144,-3.038748741
1.704947948,0.683090091,0.291780591,-0.349158525,0.538327873,0.092450321,-0.790754855,-0.085615531,-0.031506553,0.388199747,-0.270887315,-0.158642516,-3.041388035
1.709947109,0.654575765,0.300635874,-0.359629899,0.588328183,0.230889246,-0.761501908,-0.08306732,-0.030422205,0.389727175,-0.267587811,-0.157274842,-3.044034481
1.714953184,0.648954988,0.300954938,-0.388231248,0.613080144,0.353674591,-0.728575647,-0.08222238,-0.030062657,0.390233636,-0.264171451,-0.155241683,-3.046706438
1.719954491,0.672435641,0.291683048,-0.409033418,0.60277611,0.453191161,-0.697313309,-0.081572257,-0.029786007,0.390623331,-0.260814011,-0.152639195,-3.049398899
1.724956632,0.6999228,0.282443374,-0.424622744,0.560463369,0.526341558,-0.677931964,-0.081356689,-0.029694276,0.390752524,-0.257680625,-0.149603426,-3.052121162
1.729954004,0.713821709,0.275969446,-0.437347025,0.489553452,0.578145266,-0.658178151,-0.081579588,-0.026284399,0.39181295,-0.254943252,-0.146283299,-3.054788589
1.734952211,0.731101632,0.275997192,-0.437918335,0.39772892,0.625727236,-0.645188808,-0.081653498,-0.025153747,0.392164558,-0.252700984,-0.14270024,-3.057449102
1.739951372,0.755898714,0.283719957,-0.426047295,0.307914019,0.669822991,-0.629206598,-0.081710368,-0.024283789,0.392435074,-0.250968099,-0.138837755,-3.060018063
1.744951248,0.78462553,0.301470906,-0.40523085,0.22733207,0.71673888,-0.604406595,-0.081729226,-0.023995327,0.392524779,-0.249702945,-0.134670153,-3.062422037
1.749952197,0.831487477,0.320636898,-0.376436591,0.169454381,0.769866467,-0.567408562,-0.084121175,-0.021885863,0.393101305,-0.248789966,-0.130108908,-3.064566135
1.754954457,0.896596789,0.328367472,-0.356031299,0.12816824,0.823439002,-0.51722914,-0.08550261,-0.020719334,0.393418044,-0.248124644,-0.125111863,-3.066466331
1.759952188,0.981041729,0.328332335,-0.339196414,0.090961419,0.867413878,-0.453983605,-0.086565524,-0.01982177,0.393661767,-0.247695088,-0.119671576,-3.068055153
1.764950037,1.067666054,0.321688503,-0.313471973,0.04791211,0.90572989,-0.378972054,-0.086917967,-0.019524155,0.393742591,-0.247539833,-0.113828026,-3.069295168
1.769949198,1.02799952,0.281159908,-0.375483036,-0.031233419,0.96480751,-0.30055806,-0.089311764,-0.018907702,0.393692076,-0.247656018,-0.107654616,-3.070322514
1.774949074,0.08248134,-0.375293106,-0.543263376,-0.850424886,1.322050929,-0.048143625,-0.092245929,-0.018312583,0.393561721,-0.250674516,-0.101878777,-3.074384451
1.779950023,0.994532049,0.09259361,0.023946293,-0.986033738,1.88174057,-0.022459835,-0.094503574,-0.017854679,0.393461406,-0.256600469,-0.08994627,-3.07499814
1.784952521,-0.617734909,0.185809299,-0.08741454,-0.896279573,2.108505964,-0.149178192,-0.095252164,-0.017702848,0.393428147,-0.260707259,-0.0813004,-3.077497482
1.789949894,-0.909455359,0.27574116,-0.123575956,-1.025647879,2.646614552,0.02680961,-0.095828153,-0.017586023,0.393402547,-0.266047925,-0.070507199,-3.079623461
1.794948101,-0.069345906,0.510761857,-0.888628185,-0.900507569,3.242930412,0.125066787,-0.101917915,-0.019327313,0.392870605,-0.271006912,-0.053491306,-3.081611633
1.799947023,-0.174611568,0.475596219,-1.644424915,-0.60923928,3.104278803,0.230427399,-0.106603578,-0.020667117,0.39246133,-0.273496836,-0.038058143,-3.084309578
1.804947257,-0.510589123,0.378217876,-1.610016227,-0.454854846,2.928251505,0.499582916,-0.108157255,-0.021111371,0.39232561,-0.275460422,-0.024462366,-3.085517406
1.809948206,-0.56279099,0.475246042,-1.580425978,-0.288528293,2.971573353,0.640405834,-0.1093527,-0.021453194,0.392221183,-0.27681163,-0.010241501,-3.085550785
1.814950347,-0.400491923,0.657752633,-1.427496552,-0.145944595,3.072410345,0.714423954,-0.116575465,-0.022776367,0.391361028,-0.27792418,0.004888103,-3.084644794
1.81994772,-0.145442039,0.456809551,-1.215062499,-0.165923372,3.366634607,0.713146031,-0.129035428,-0.025017785,0.389864475,-0.278800786,0.0219659,-3.084926128
1.824945927,0.284367681,0.122524165,-1.133716106,-0.345988363,3.656673908,0.652572691,-0.133166909,-0.025760997,0.389368236,-0.280119717,0.041278895,-3.087044716
1.829944849,0.573621213,-0.089653865,-1.094339728,-0.61187011,3.90936327,0.57912147,-0.136345819,-0.02633285,0.388986409,-0.282837093,0.061974525,-3.090616226
1.834945083,0.899658442,-0.003544045,-1.29022181,-0.709978759,4.114647865,0.511484742,-0.137399882,-0.026522465,0.388859779,-0.286136448,0.084169939,-3.094491243
1.839946032,1.129798651,-0.016071878,-1.496067762,-0.845837533,4.00978899,0.520544887,-0.156869605,-0.02628462,0.384164065,-0.290002167,0.105976202,-3.098453999
1.844948173,1.168442249,-0.094049871,-1.661076307,-0.945336342,3.804064512,0.596599221,-0.163325399,-0.026205756,0.382607043,-0.294159561,0.126615539,-3.102236748
1.849951267,1.281713367,-0.154141545,-1.808187366,-0.956690431,3.53230238,0.790800393,-0.168292686,-0.026145075,0.381409049,-0.297896832,0.146327525,-3.10499239
1.854949594,1.349731922,-0.116152778,-1.860199928,-1.08262825,3.055143833,0.96261549,-0.169939741,-0.026124954,0.381011784,-0.302163899,0.164000764,-3.106041193
1.859948516,1.14683044,0.017424401,-1.652971864,-1.110667944,2.660546541,1.103243947,-0.188074961,-0.027730722,0.374513805,-0.306827605,0.179380417,-3.105164766
1.864949226,0.966057539,0.198361665,-1.399342656,-1.125905156,2.361375809,1.21813643,-0.198262289,-0.028664347,0.37082687,-0.311672807,0.193352595,-3.102551222
1.869950175,0.680226982,0.496430606,-1.132040858,-1.088139772,2.208906889,1.23972559,-0.206100732,-0.029382708,0.367990017,-0.316990614,0.206182167,-3.098484755
1.874952197,0.537739813,0.712089777,-0.969733357,-1.044812679,2.165881634,1.198972583,-0.208699808,-0.029620903,0.367049366,-0.322392583,0.218721822,-3.093936682
1.879949331,0.4684349,1.01149261,-0.850565434,-0.938087225,2.178853512,1.055983305,-0.217183203,-0.030394634,0.364215523,-0.328097403,0.230958939,-3.089308262
1.884947419,0.507691085,1.248730302,-0.848121107,-0.750100017,2.185160875,0.889521837,-0.226534158,-0.031246604,0.361148059,-0.333256245,0.243119776,-3.085023165
1.88994658,0.522251964,1.335878968,-0.804112673,-0.502197862,2.185617447,0.704894602,-0.233729079,-0.031902142,0.358787835,-0.337491333,0.254896909,-3.08144021
1.894946575,0.544002116,1.235703707,-0.771240175,-0.265982717,2.170485258,0.543979406,-0.23611477,-0.032119501,0.358005226,-0.34057194,0.266357094,-3.079169273
1.899947762,0.691559136,1.002772689,-0.839376211,-0.064451367,2.115540266,0.477547377,-0.237950414,-0.032286745,0.35740307,-0.342106193,0.277794003,-3.07796669
1.904949784,0.674536109,0.685709715,-0.918611348,0.089449145,1.999405026,0.449581325,-0.247429848,-0.03277101,0.353080183,-0.342357218,0.288435578,-3.077762127
1.909947157,0.771252275,0.425985277,-1.050208569,0.205578461,1.841734886,0.511116207,-0.254723608,-0.033143621,0.349754006,-0.341417968,0.298607051,-3.077825308
1.914945006,0.957661986,0.268552661,-1.168747663,0.270699382,1.588441133,0.591126561,-0.257142097,-0.03326717,0.348651141,-0.339523077,0.308008671,-3.077353001
1.919944406,0.905589938,0.214705348,-1.187441587,0.275522798,1.299209356,0.611757278,-0.259002954,-0.033362236,0.34780252,-0.337481439,0.315773845,-3.076371908
1.924944639,0.779818296,0.219657868,-1.09475255,0.27176857,1.088094234,0.625297427,-0.264067501,-0.032285735,0.345252514,-0.335443914,0.322351098,-3.074801922
1.929945827,0.68651104,0.325999945,-1.057507873,0.273627847,0.971760929,0.616867304,-0.272461474,-0.030337056,0.340996563,-0.333590388,0.328301221,-3.07271719
1.934947848,0.658544958,0.520953059,-1.043588758,0.295057416,0.873905897,0.544105172,-0.275244772,-0.02969091,0.339585364,-0.332062244,0.333639085,-3.070211649
1.939944983,0.637247682,0.613406539,-1.011054635,0.321193963,0.801691771,0.435135454,-0.277386338,-0.029193746,0.338499546,-0.33069703,0.338398039,-3.0679214
1.94494307,0.580052555,0.539570391,-0.99084872,0.344468176,0.747922719,0.343187332,-0.278096437,-0.029028896,0.338139534,-0.329145223,0.342697263,-3.066338062
1.949942231,0.512157917,0.394553661,-0.977285922,0.360541523,0.701628625,0.307110518,-0.284591794,-0.02547903,0.336306572,-0.327281177,0.346648335,-3.065268278
1.954942465,0.469885111,0.291226685,-0.990303695,0.360020518,0.66559732,0.302540749,-0.286745518,-0.024301961,0.335698783,-0.325219214,0.35038963,-3.064447403
1.959943414,0.497090936,0.28666237,-0.9971053,0.347189188,0.606940925,0.295323282,-0.288402647,-0.023396287,0.335231125,-0.323227733,0.353902042,-3.063459396
1.964945436,0.504117191,0.296883851,-0.988199055,0.321022093,0.553286433,0.265736371,-0.288952112,-0.023095982,0.335076064,-0.321426004,0.357094258,-3.062457085
1.96994257,0.465174884,0.284771472,-0.958359718,0.285176158,0.519522071,0.234250978,-0.292104393,-0.020843022,0.332661122,-0.319875538,0.360020727,-3.061604023
1.974940658,0.418696582,0.265824497,-0.944904089,0.246488005,0.503646612,0.216601565,-0.29382503,-0.019595658,0.331292331,-0.318483114,0.362779707,-3.060841084
1.979939818,0.385898083,0.244117081,-0.950671434,0.200738728,0.498988658,0.200124308,-0.295148939,-0.018635897,0.330239117,-0.317334861,0.365470529,-3.060250282
1.984946132,0.384842455,0.22833252,-0.966720819,0.157951713,0.498769939,0.188904941,-0.295587927,-0.018317658,0.329889894,-0.31637615,0.368129134,-3.0597682
1.989947438,0.398359805,0.219065771,-0.968680322,0.111324467,0.493526906,0.175741404,-0.297096223,-0.017298946,0.329385966,-0.31565538,0.370767057,-3.05933857
1.994949579,0.384850174,0.219538033,-0.957199633,0.07086619,0.490828484,0.164586797,-0.298776627,-0.016180813,0.328981668,-0.315154761,0.373344928,-3.05892849
1.999946713,0.361187309,0.228244647,-0.942032695,0.022568412,0.504081964,0.154939368,-0.3000696,-0.015320487,0.328670561,-0.314978063,0.375936598,-3.058556557
2.004944801,0.322449207,0.232305184,-0.923569679,-0.015535828,0.51970017,0.148534581,-0.300498307,-0.015035219,0.328567386,-0.315017879,0.378547013,-3.058235168
2.009944439,0.324789315,0.253913462,-0.91554004,-0.037669532,0.542430103,0.147725865,-0.300828189,-0.014815724,0.328488022,-0.315224171,0.38128078,-3.057868242
2.014944553,0.356655449,0.275036633,-0.921478331,-0.056422379,0.553801775,0.141453013,-0.302523673,-0.014218293,0.326687425,-0.315551877,0.384109735,-3.057479858
2.019945383,0.408153921,0.271463722,-0.938273251,-0.088853016,0.541977763,0.12714003,-0.303828239,-0.01375861,0.325302005,-0.316060603,0.386925042,-3.057205439
2.024947405,0.441129833,0.255025774,-0.939179063,-0.11334309,0.514744222,0.111898772,-0.30426079,-0.013606188,0.324842602,-0.316669881,0.389610887,-3.056996346
2.029944658,0.420423687,0.243034929,-0.922548711,-0.131913051,0.485020161,0.103971675,-0.304593652,-0.013488909,0.324489146,-0.317353845,0.39209646,-3.056802511
2.034942389,0.402097732,0.270034611,-0.903467357,-0.135770246,0.464154392,0.103763968,-0.305779606,-0.013201453,0.323941469,-0.31810528,0.394454062,-3.056456566
2.039941549,0.394435078,0.316197962,-0.89069736,-0.129721314,0.44404161,0.102610476,-0.3077797,-0.012728932,0.323084772,-0.318894982,0.396700621,-3.055927515
2.044941664,0.399482608,0.345075637,-0.882238865,-0.115540139,0.428408176,0.099920489,-0.308442891,-0.012572253,0.322800696,-0.319656432,0.398886561,-3.055316448
2.049942493,0.425434679,0.359611005,-0.886144102,-0.102397762,0.400798768,0.09485478,-0.308953166,-0.0124517,0.322582126,-0.320356727,0.40097332,-3.054646015
2.054944515,0.450121969,0.325598031,-0.886158645,-0.103427336,0.36253646,0.084218062,-0.309122354,-0.012411727,0.322509646,-0.320971727,0.402889371,-3.054079771
2.05994153,0.412925065,0.253101528,-0.870201409,-0.118335731,0.340213925,0.080795169,-0.311278403,-0.0127015,0.320222765,-0.321543008,0.404628575,-3.053744555
2.064939499,0.377945423,0.224804863,-0.879573643,-0.144951344,0.332341194,0.081198744,-0.311993301,-0.012797584,0.319464475,-0.322204649,0.406295538,-3.053475857
2.069939137,0.357123107,0.232161224,-0.887276173,-0.179160967,0.334703207,0.081173114,-0.312543333,-0.012871513,0.318881065,-0.323071629,0.407940924,-3.053181887
2.074939251,0.337907821,0.256879002,-0.889505208,-0.207475215,0.340888709,0.085625626,-0.312725723,-0.012896026,0.318687588,-0.324130744,0.409597397,-3.052803993
2.079940319,0.333901256,0.292528093,-0.891433418,-0.218401641,0.348758787,0.096907407,-0.314345092,-0.013090002,0.318613321,-0.325288594,0.41128698,-3.052278519
2.084942341,0.364644259,0.318359762,-0.897779346,-0.214225262,0.352087617,0.107964903,-0.315248013,-0.013197654,0.318607152,-0.326417953,0.413069129,-3.051644802
2.089939356,0.360242784,0.322859526,-0.885974407,-0.208038628,0.355260253,0.117848553,-0.315942794,-0.013280484,0.318602413,-0.327481687,0.414853841,-3.050937891
2.094937563,0.350079954,0.333099931,-0.870911121,-0.190114021,0.366102397,0.130917221,-0.316173166,-0.013307949,0.318600833,-0.328506052,0.416712046,-3.050164223
2.099937201,0.359181285,0.353166103,-0.872195065,-0.157365248,0.371574759,0.144223303,-0.317156106,-0.01361212,0.317646623,-0.329323798,0.41862756,-3.049277544
2.104937315,0.376229882,0.366480976,-0.862567961,-0.121274881,0.365734994,0.16320315,-0.318294466,-0.013998394,0.316369206,-0.329983354,0.420583725,-3.048251152
2.109938145,0.392547727,0.373493254,-0.855140746,-0.083132774,0.356962651,0.182547003,-0.319170386,-0.014295605,0.315386325,-0.330362171,0.422527045,-3.04708147
2.114940166,0.425597161,0.375485778,-0.85624969,-0.060500938,0.344562441,0.194327861,-0.319460809,-0.014394155,0.315060437,-0.330610037,0.424488246,-3.045813799
2.119943142,0.451304734,0.358066618,-0.8465029,-0.045782078,0.330784321,0.196400464,-0.319684267,-0.014469982,0.31480968,-0.330754966,0.426431775,-3.044557095
2.124941349,0.463392615,0.337782502,-0.843941569,-0.039462771,0.315342188,0.193252817,-0.320936769,-0.014218369,0.314614654,-0.330835819,0.428309917,-3.043353081
2.129940748,0.49305889,0.316875041,-0.858345866,-0.036965609,0.28157109,0.191959426,-0.321900487,-0.014024769,0.314464569,-0.330842197,0.430062294,-3.042155743
2.134940863,0.47857672,0.287349552,-0.853314936,-0.04573505,0.254274637,0.18490383,-0.322220027,-0.013960575,0.314414829,-0.330820739,0.431627572,-3.041020632
2.139941931,0.474686116,0.290321946,-0.856606722,-0.061965473,0.241816863,0.178978369,-0.322465897,-0.013911181,0.314376533,-0.330934525,0.433130831,-3.039880753
2.144943953,0.468117863,0.28878364,-0.851059675,-0.072737999,0.23121047,0.164137438,-0.323129207,-0.013602129,0.3134498,-0.331117541,0.434559315,-3.038813353
2.149940968,0.453064799,0.290255815,-0.848319292,-0.073389649,0.223298892,0.148361787,-0.324227899,-0.013068396,0.31181249,-0.331332684,0.435888916,-3.037815094
2.154939175,0.446404874,0.291140705,-0.859644115,-0.087819867,0.219421208,0.131664321,-0.324592203,-0.012891419,0.311269581,-0.331652522,0.437163651,-3.036925077
2.159938812,0.459042102,0.285882831,-0.857234299,-0.095472738,0.207320228,0.116250575,-0.324872494,-0.012755248,0.310851872,-0.332027525,0.438389689,-3.036085367
2.164938927,0.447387397,0.283407867,-0.860986292,-0.108198158,0.197367758,0.103234001,-0.324965447,-0.012710096,0.310713381,-0.33247,0.439496517,-3.035322666
2.169939995,0.445494801,0.276746243,-0.864018023,-0.115250051,0.185446084,0.090029716,-0.326059878,-0.012446832,0.311207175,-0.332963645,0.440539747,-3.034629583
2.174942255,0.439005524,0.280778229,-0.862415493,-0.118019037,0.178361923,0.079321072,-0.326422781,-0.012359538,0.311370909,-0.333496034,0.441512614,-3.033959627
2.17993927,0.443861187,0.286354363,-0.85473913,-0.118559241,0.168461949,0.070032328,-0.326701999,-0.012292372,0.311496913,-0.334057689,0.442445457,-3.033288002
2.184937239,0.443383366,0.289713949,-0.850242972,-0.111343369,0.152748287,0.062154714,-0.326794595,-0.012270101,0.311538696,-0.334575832,0.443291605,-3.032612562
2.189936399,0.436593324,0.294145584,-0.856440842,-0.11806117,0.146198854,0.058976416,-0.327475458,-0.012301374,0.310573936,-0.335145593,0.444073796,-3.031955481
2.194936514,0.442634523,0.291321784,-0.855465829,-0.128198877,0.132838339,0.057290941,-0.32785207,-0.012323722,0.310007364,-0.335755587,0.444817066,-3.031285763
2.19993782,0.442198515,0.291545838,-0.845927417,-0.131734669,0.118441656,0.057098638,-0.328141868,-0.012340917,0.309571415,-0.336373389,0.445483953,-3.030587673
2.204939842,0.435160309,0.304433703,-0.835247517,-0.13717851,0.117940933,0.051813226,-0.328237951,-0.012346619,0.309426874,-0.337070733,0.446130902,-3.029851198
2.209936857,0.43925789,0.317260653,-0.833642483,-0.132799223,0.114021622,0.046904355,-0.328627914,-0.012465793,0.308774889,-0.337770045,0.446765065,-3.029114246
2.214934826,0.437999904,0.31524533,-0.837003589,-0.12715292,0.108942792,0.045736495,-0.329075873,-0.012621058,0.30801335,-0.338418514,0.447358549,-3.028406858
2.219933987,0.445248127,0.316150367,-0.840954065,-0.120030724,0.109201968,0.042687088,-0.329420567,-0.012740524,0.307427406,-0.339038432,0.447969437,-3.027714014
2.224934101,0.443899214,0.321349442,-0.833481729,-0.107177109,0.115499437,0.036469005,-0.329534858,-0.012780137,0.307233125,-0.339631289,0.448592484,-3.027041912
2.229935408,0.44360733,0.323526591,-0.832183003,-0.086599365,0.114628412,0.035085432,-0.329622805,-0.012810617,0.307083637,-0.340108722,0.449218869,-3.026361704
2.234937429,0.445501417,0.318563163,-0.833169162,-0.082285441,0.119256541,0.030524297,-0.329906255,-0.01286843,0.306864023,-0.340587854,0.449865729,-3.025749445
2.239934683,0.448464572,0.305718303,-0.840365231,-0.07838089,0.112970002,0.027433323,-0.330124348,-0.012912914,0.306695044,-0.341004252,0.450463265,-3.025182247
2.244932652,0.462084651,0.28950119,-0.847075462,-0.082255334,0.114278592,0.019045118,-0.330196679,-0.012927664,0.306639016,-0.341436595,0.451078653,-3.024707556
2.249932051,0.479236603,0.259657979,-0.847381473,-0.092717692,0.117555611,0.000225811,-0.33025232,-0.012939014,0.306595922,-0.341920346,0.451716691,-3.02442503
2.254938126,0.481216758,0.236885771,-0.843571305,-0.11388211,0.110234901,-0.018842131,-0.330559343,-0.013025264,0.30646354,-0.342515111,0.452281833,-3.024282694
2.259939432,0.459634125,0.224686354,-0.841265976,-0.146578595,0.104461014,-0.031664636,-0.33108741,-0.013175035,0.306242317,-0.34328109,0.45275718,-3.024231195
2.264941216,0.438792616,0.229816407,-0.852338135,-0.183341786,0.105617091,-0.039761949,-0.331262499,-0.013224696,0.306168973,-0.344277114,0.453186512,-3.024229765
2.269938469,0.429670572,0.248609111,-0.869880497,-0.216507033,0.103369981,-0.041370176,-0.331397235,-0.013262908,0.306112528,-0.345465064,0.453580916,-3.02419734
2.274936438,0.40579477,0.271563113,-0.874748766,-0.242036849,0.113802172,-0.038649954,-0.331441909,-0.013275579,0.306093842,-0.346813977,0.453979045,-3.024118662
2.279935598,0.39649421,0.286742598,-0.881007731,-0.260388732,0.127080411,-0.039054159,-0.332481533,-0.014085447,0.305466622,-0.348280013,0.454430759,-3.024053574
2.28493619,0.388295442,0.283409983,-0.885727525,-0.281911105,0.149987817,-0.041673694,-0.332826257,-0.014353985,0.305258662,-0.349858224,0.454966187,-3.024078846
2.289937258,0.397882879,0.264247537,-0.886996567,-0.307168812,0.164826348,-0.045356035,-0.333091497,-0.014560605,0.305098623,-0.351543814,0.455589175,-3.024215698
2.29493928,0.405268341,0.256324738,-0.87853986,-0.334387332,0.183292329,-0.042114511,-0.333179444,-0.014629117,0.305045575,-0.353366137,0.456332326,-3.024371386
2.299936533,0.411577046,0.269288123,-0.866842687,-0.356140822,0.197693855,-0.036508489,-0.333127141,-0.015862262,0.304533094,-0.355333745,0.457169652,-3.02447319
2.30493474,0.401703835,0.274495035,-0.8525756,-0.374141425,0.21166718,-0.029460857,-0.333080113,-0.01656325,0.304246455,-0.357396305,0.458058536,-3.024546862
2.309934139,0.393214196,0.274027169,-0.842242062,-0.39207086,0.233125716,-0.025403949,-0.333043933,-0.017102612,0.304025918,-0.359571874,0.459050775,-3.024651766
2.314934254,0.388816804,0.273376942,-0.848003745,-0.411105633,0.258999974,-0.023066197,-0.333031923,-0.017281454,0.303952813,-0.361834049,0.460158497,-3.024800539
2.319935322,0.381244898,0.280560523,-0.851962507,-0.41747725,0.293550372,-0.02241474,-0.33350867,-0.017903673,0.303761959,-0.364182591,0.461411923,-3.025020361
2.324937582,0.379472256,0.295594603,-0.850077868,-0.424760431,0.3251293,-0.020949546,-0.334156781,-0.018598668,0.303562939,-0.366607547,0.462810069,-3.025271177
2.329934835,0.376823306,0.316161573,-0.848436177,-0.421006233,0.357619762,-0.021233708,-0.334655464,-0.019133419,0.303409815,-0.369073331,0.464348376,-3.025538683
2.334933043,0.370790869,0.337261349,-0.841225386,-0.411124706,0.393167615,-0.018208835,-0.334820837,-0.019310733,0.303359061,-0.371559054,0.466038287,-3.025802374
2.339932442,0.360018194,0.362054408,-0.840429485,-0.396439314,0.431000322,-0.014157256,-0.334948033,-0.019447165,0.303319991,-0.37403506,0.467893362,-3.026070595
2.344932795,0.359433174,0.379381478,-0.847707808,-0.366443783,0.465664327,-0.006867137,-0.335680932,-0.020971712,0.301932991,-0.376387447,0.469904572,-3.026390076
2.349934101,0.362145424,0.398926586,-0.841861784,-0.335276812,0.494457096,0.005669002,-0.336244822,-0.022144746,0.300865799,-0.378624678,0.472073078,-3.02664423
2.354936123,0.343614668,0.431027323,-0.827925622,-0.285424739,0.530300736,0.035605893,-0.336431801,-0.022533704,0.300511926,-0.380636126,0.474416852,-3.026705265
2.359933138,0.33559826,0.474068761,-0.838963091,-0.236565098,0.56987673,0.066808417,-0.336575687,-0.022832979,0.300239652,-0.382410228,0.476983041,-3.026613951
2.364931107,0.387644559,0.477089703,-0.878806174,-0.181075618,0.577889323,0.102016553,-0.337484896,-0.023414992,0.299424022,-0.383805513,0.479717314,-3.026415348
2.369930267,0.354436129,0.46716249,-0.879491031,-0.148463786,0.584395587,0.145287663,-0.339055598,-0.024350977,0.29806298,-0.384904236,0.482466012,-3.026055098
2.374930382,0.390457094,0.471118927,-0.894900203,-0.122085653,0.609055161,0.174147144,-0.339576423,-0.024661331,0.297611654,-0.385846615,0.485422045,-3.025577307
2.379931688,0.384407252,0.413255811,-0.888402641,-0.114564128,0.630003154,0.192037761,-0.339977145,-0.024900127,0.297264427,-0.386612177,0.488529921,-3.025254726
2.38493371,0.398479015,0.407012433,-0.898390889,-0.114891127,0.664647222,0.196497768,-0.340110034,-0.024979308,0.297149271,-0.387441099,0.491807818,-3.025007248
2.389936686,0.360817373,0.399968415,-0.895444632,-0.076211542,0.740358949,0.199406654,-0.342783153,-0.025214594,0.294838458,-0.388118476,0.495394021,-3.024919748
2.394934893,0.396611512,0.353239655,-0.939888,-0.111739926,0.795789301,0.19198148,-0.343669504,-0.025292609,0.294072241,-0.388934851,0.499288529,-3.025246382
2.399934053,0.437607259,0.360807419,-0.930407882,-0.166587725,0.830355585,0.204264566,-0.34435153,-0.025352638,0.293482691,-0.390096784,0.503380597,-3.025486708
2.404933929,0.487580031,0.388828546,-0.913271129,-0.196320578,0.900329232,0.209032103,-0.34457767,-0.025372542,0.293287218,-0.391594321,0.507913232,-3.025713205
2.409934998,0.425304532,0.37810114,-0.902187169,-0.198979348,0.994945347,0.206378102,-0.347103089,-0.024851991,0.290982336,-0.393137693,0.512746751,-3.026248693
2.414937019,0.421546102,0.347658992,-0.948088884,-0.240669191,1.073460221,0.218026787,-0.348522365,-0.024546783,0.289684922,-0.39487493,0.517960668,-3.027115107
2.419934511,0.383212119,0.366155535,-0.93731451,-0.279784411,1.162018418,0.251465082,-0.349614382,-0.024311949,0.288686663,-0.39687264,0.523544908,-3.02788353
2.424932241,0.38964203,0.40829286,-0.931891918,-0.301673114,1.286817551,0.288469523,-0.34997645,-0.024234081,0.288355678,-0.399127007,0.529822886,-3.028605938
2.429931164,0.397046536,0.396563947,-0.934559762,-0.342721432,1.392337799,0.315099657,-0.352167517,-0.024062684,0.28676632,-0.401615322,0.536654294,-3.02956295
2.434931755,0.376475364,0.440747231,-0.913966477,-0.334646434,1.497330546,0.367116332,-0.354822546,-0.023893431,0.284893423,-0.404201716,0.543974578,-3.030346632
2.439932585,0.358701915,0.390283495,-0.936314762,-0.327425033,1.652760029,0.407963485,-0.356865406,-0.023763202,0.283452362,-0.406598479,0.552089632,-3.031475067
2.444934845,0.412268668,0.323054343,-0.987455666,-0.419301182,1.771978617,0.45876959,-0.357542783,-0.02372002,0.282974541,-0.40937081,0.56095165,-3.032921553
2.449932098,0.383797646,0.40677163,-0.945398569,-0.456549287,1.889288545,0.511577845,-0.358063966,-0.023686796,0.28260687,-0.41265747,0.570315242,-3.034001112
2.454930067,0.375793725,0.385205865,-0.953179657,-0.466400683,2.047189236,0.541386127,-0.362005264,-0.023595305,0.277774125,-0.416019797,0.58046937,-3.035537481
2.459928989,0.379941791,0.36426726,-0.965153754,-0.499560475,2.19892621,0.579762399,-0.365037829,-0.02352491,0.27405563,-0.419619948,0.591380477,-3.037387371
2.464929581,0.386440784,0.379995614,-0.938940585,-0.498729229,2.373355389,0.622244775,-0.366043359,-0.023501568,0.272822648,-0.423447013,0.603162825,-3.039370775
2.46993041,0.40370965,0.35788843,-0.958619595,-0.528321624,2.563112736,0.65285176,-0.366817057,-0.023483606,0.271873951,-0.427578449,0.61591053,-3.041847229
2.474932671,0.382503152,0.323085964,-0.957323909,-0.592709839,2.732881784,0.689106703,-0.370784551,-0.02289057,0.267737389,-0.43218267,0.629393458,-3.044783354
2.479929924,0.391669571,0.396645039,-1.011199713,-0.615315974,2.924585819,0.749848843,-0.377589613,-0.021840636,0.260689944,-0.437274963,0.643821239,-3.047886848
2.484927893,0.312698662,0.409058332,-0.929321051,-0.589095771,3.153214931,0.796128869,-0.379846036,-0.021492498,0.258353144,-0.44253993,0.659268856,-3.051272869
2.489926815,0.314076543,0.352011383,-0.97114253,-0.610880554,3.410412788,0.823302686,-0.38158223,-0.021224631,0.25655514,-0.448275298,0.6759606,-3.055704594
2.494927168,0.339494467,0.304728031,-0.988290846,-0.675218761,3.625194073,0.865322948,-0.382157892,-0.021135811,0.255958945,-0.454598337,0.693697214,-3.060762167
2.499928236,0.363970071,0.319260746,-0.992630839,-0.765261292,3.874658823,0.897215962,-0.392218769,-0.019922517,0.241796032,-0.462032616,0.712556481,-3.066576958
2.504930496,0.340836138,0.374159992,-1.013464689,-0.816230178,4.147789478,0.942983568,-0.395554781,-0.019520212,0.237099871,-0.470481247,0.732599497,-3.073168039
2.509927988,0.33301273,0.401998669,-1.027777553,-0.832185507,4.447301388,1.010989189,-0.398121595,-0.019210666,0.233486488,-0.479727536,0.754037201,-3.080621243
2.514925718,0.342191458,0.390656382,-1.070474863,-0.856386781,4.745872974,1.081299067,-0.39897272,-0.019108025,0.232288361,-0.489717126,0.776843309,-3.089099646
2.519924641,0.332545221,0.376683593,-1.123626471,-0.910257578,5.040375233,1.171293139,-0.408515811,-0.016624887,0.218830034,-0.500697732,0.801000774,-3.098675489
2.524931431,0.23387897,0.37667039,-1.097186565,-1.018684387,5.425954342,1.283244848,-0.413879544,-0.015206606,0.211265326,-0.513422072,0.826933086,-3.109504461
2.529933214,0.158714473,0.414821088,-1.120140076,-1.116609931,5.841247082,1.419919133,-0.418006569,-0.014115336,0.205444798,-0.528092623,0.854743004,-3.121859312
2.534935236,0.204122007,0.539220154,-1.168121576,-1.183539391,6.257283688,1.605008602,-0.419375002,-0.013753492,0.203514814,-0.544586062,0.884625375,-3.135484457
2.539932728,0.221804857,0.639157772,-1.196210146,-1.262688756,6.664179802,1.806911111,-0.425820798,-0.011503837,0.190699115,-0.563215852,0.916456103,3.13246417
2.544930458,0.358776927,0.736005008,-1.261463284,-1.293078661,7.03937912,2.004743576,-0.43339622,-0.008770104,0.175023809,-0.584084809,0.950220942,3.115097523
2.54992938,0.676433742,0.812520683,-1.320624471,-1.325309753,7.330553055,2.164512873,-0.439224988,-0.006666682,0.16296272,-0.607417524,0.985440373,3.095384598
2.554929495,1.027815938,0.857787669,-1.468307972,-1.346046448,7.432021618,2.300149202,-0.441157699,-0.005969228,0.158963501,-0.632952094,1.021171451,3.073281288
2.559930801,1.084858775,0.865310133,-1.3917346,-1.330103397,7.575220585,2.439613104,-0.442644805,-0.005432584,0.155886367,-0.661346853,1.057533026,3.048583984
2.564933062,1.541859627,0.848724127,-1.703916311,-1.388938546,7.51605463,2.487969637,-0.452621162,0.002040904,0.128945619,-0.692484021,1.093344092,3.02017498
2.569930553,1.850333691,0.956442297,-1.774987817,-1.395326138,7.18528223,2.566759348,-0.460297287,0.007791245,0.108216554,-0.725178123,1.127262115,2.990899086
2.574928284,1.879768848,1.066304088,-1.622534513,-1.321374655,6.961033344,2.631865978,-0.462842524,0.00969795,0.101343185,-0.760523677,1.160132647,2.95949316
2.579927444,1.937610745,1.19078505,-1.658663988,-1.264185548,6.744524479,2.662781477,-0.464800954,0.011165029,0.096054591,-0.799663782,1.191543341,2.924310446
2.584927797,2.028667927,1.190589309,-1.646085143,-1.104103684,6.452713013,2.768709183,-0.467781663,0.017410085,0.07883089,-0.839847088,1.221763611,2.887307167
2.589929104,1.930198073,1.057696581,-1.772279978,-0.953073978,6.066594601,2.799316406,-0.472432435,0.028038073,0.049935736,-0.880528569,1.250046015,2.848309278
2.594931364,1.696817994,1.002887368,-1.553658009,-0.862953663,5.86180687,2.880972385,-0.473974526,0.031562112,0.04035465,-0.925179064,1.277541637,2.80577302
2.599928856,1.534747124,0.982837141,-1.6530509,-0.731595874,5.620755196,2.887077808,-0.475161076,0.034273621,0.032982655,-0.974032283,1.303525209,2.758053303
2.604926825,1.301096916,0.851712286,-1.560190797,-0.700899422,5.354452133,2.808320761,-0.475554526,0.035172705,0.03053824,-1.028971076,1.327861309,2.704220772
2.609925747,1.058919072,0.621000528,-1.56104207,-0.77839601,4.94285965,2.678730726,-0.473366946,0.052702446,-0.001320514,-1.088153124,1.349928617,2.645994902
2.614925861,0.644677758,0.345240265,-1.478541374,-0.969153762,4.419356823,2.437496901,-0.472641587,0.058514975,-0.011884273,-1.1511482,1.369185448,2.584927797
2.619926691,0.106356405,0.077592418,-1.688705087,-1.360170007,3.656741619,2.139801979,-0.472083479,0.06298732,-0.020012368,-1.208344221,1.384613514,2.530672789
2.624928951,-0.029792659,0.116960764,-1.589097857,-1.805553079,2.944439411,2.08375001,-0.471898437,0.064470261,-0.02270749,-1.259133577,1.397798538,2.486505032
2.629926205,1.443873405,0.660057068,-1.76523602,-1.936227202,2.575451851,1.894765973,-0.466979861,0.077724561,-0.040852673,-1.310227633,1.409142494,2.443314075
2.634924173,2.562088013,1.20994699,-2.80822134,-1.915744424,1.444806933,1.560149312,-0.464167058,0.085116893,-0.0508462,-1.324184656,1.41570878,2.435783863
2.639923096,1.527140021,1.359342456,-2.567779541,-1.671784163,0.1817846,1.246383071,-0.462002784,0.0908048,-0.058535542,-1.298220754,1.418470621,2.469042778
2.644923449,0.44123739,1.190961719,-1.885684967,-1.410998344,-0.505530953,0.997896373,-0.461285174,0.092690796,-0.061085183,-1.26108861,1.419591069,2.513556242
2.649924278,0.001879673,0.997118413,-1.490365028,-1.105028987,-0.864869237,0.783061326,-0.457868785,0.099336371,-0.065852806,-1.218739748,1.419446707,2.562060833
2.654926538,-0.061868779,0.908694386,-1.384627342,-0.749218643,-1.147816658,0.579097807,-0.453847706,0.106777959,-0.070263058,-1.16971457,1.417716265,2.615317345
2.659929514,-0.162789404,0.801692843,-1.323756933,-0.440294266,-1.395614505,0.392598629,-0.450753748,0.112503745,-0.073656447,-1.115855217,1.414320827,2.671691895
2.664927721,-0.299430221,0.641056657,-1.16084218,-0.268096,-1.515489578,0.245446444,-0.449727863,0.114402309,-0.074781634,-1.063314676,1.409926534,2.725902557
2.669926643,-0.396202475,0.489860386,-1.040379286,-0.176348969,-1.533204913,0.134405732,-0.448938519,0.115863129,-0.075647384,-1.01557982,1.404966831,2.77478838
2.674926758,-0.461143285,0.37985009,-0.95256561,-0.109535336,-1.530180812,0.029163934,-0.449046314,0.120212711,-0.072592184,-0.972490489,1.399448633,2.818702698
2.679928064,-0.484399676,0.298238426,-0.897633672,-0.067442276,-1.538594604,-0.072918534,-0.449129283,0.12355943,-0.070241421,-0.933379531,1.393321157,2.858298779
2.684930325,-0.450720847,0.235955551,-0.881320357,-0.056081541,-1.572600484,-0.170527041,-0.449156791,0.124669135,-0.069461949,-0.89748013,1.386522055,2.89446497
2.689927578,-0.362751991,0.209865078,-0.900666893,-0.065601945,-1.63914907,-0.254865706,-0.449177951,0.125522986,-0.0688622,-0.864125729,1.378992319,2.928053141
2.694925547,-0.261441499,0.22176671,-0.922867,-0.057736874,-1.753392816,-0.323078275,-0.450414151,0.126113117,-0.066175908,-0.831985235,1.370572209,2.960417271
2.699924707,-0.18310757,0.241923869,-0.947166681,-0.019718226,-1.892193556,-0.3817994,-0.452608168,0.126877621,-0.061593808,-0.800970554,1.361239433,2.991516352
2.704924822,-0.124631524,0.253000051,-0.956495762,0.048526354,-2.073734283,-0.43211484,-0.453335673,0.127131119,-0.060074471,-0.769979477,1.350847125,3.022241354
2.709926128,-0.068596609,0.253375024,-0.982936382,0.133654878,-2.276293516,-0.473067611,-0.45389545,0.127326161,-0.058905441,-0.738982797,1.339380026,3.05252862
2.71492815,-0.008941724,0.249517485,-0.990445018,0.227036491,-2.49310112,-0.510955393,-0.454081059,0.127390832,-0.058517814,-0.708015323,1.326760173,3.082338095
2.719925404,0.051703524,0.232876539,-1.017201185,0.322352976,-2.735840559,-0.54230088,-0.458210826,0.12499705,-0.051933426,-0.676925719,1.312902451,3.11175108
2.724923611,0.102284051,0.214715317,-1.026718259,0.40947178,-2.976194859,-0.570052743,-0.459580183,0.124203309,-0.049750172,-0.646244824,1.297820807,3.140357018
2.729922771,0.147507861,0.192889541,-1.027200341,0.48973757,-3.222202778,-0.591635823,-0.460633814,0.123592585,-0.048070304,-0.616076887,1.281498313,-3.115119934
2.734922647,0.17907536,0.16558437,-1.018080235,0.552774727,-3.463980675,-0.612322092,-0.460983187,0.123390079,-0.047513291,-0.586820185,1.263957977,-3.088599205
2.739924431,0.204170167,0.138367146,-1.000473142,0.600243449,-3.693541765,-0.628044486,-0.465167284,0.120423548,-0.038902517,-0.558706522,1.24525857,-3.063366413
2.744926691,0.222181574,0.119138502,-0.980016232,0.630598128,-3.905305147,-0.63626647,-0.467523515,0.118744381,-0.03402264,-0.531990707,1.225494862,-3.039607286
2.749924183,0.242823526,0.109407939,-0.958854318,0.644873321,-4.094454288,-0.638107479,-0.46933645,0.117452376,-0.030267909,-0.506861746,1.204791784,-3.017393112
2.754921913,0.263823062,0.112591736,-0.940199256,0.649002135,-4.263198853,-0.634703755,-0.469937623,0.117023967,-0.029022912,-0.483373523,1.183234215,-2.996717215
2.759920835,0.299782932,0.127652556,-0.923276305,0.64884758,-4.415401936,-0.631630957,-0.473023355,0.114255346,-0.021332845,-0.46152252,1.160891652,-2.97752142
2.76492095,0.338272452,0.143926322,-0.919963419,0.6513592,-4.559986591,-0.632112443,-0.476691753,0.110877849,-0.011994318,-0.441233873,1.137792587,-2.959766865
2.76992178,0.389292896,0.169205189,-0.917442322,0.654941142,-4.702489376,-0.641758084,-0.479514331,0.108279094,-0.004808956,-0.422462881,1.113934517,-2.943416834
2.77492404,0.44274047,0.182316452,-0.92035675,0.653716147,-4.83436203,-0.669092119,-0.480450243,0.107417397,-0.002426427,-0.405269355,1.089360476,-2.928577423
2.779921055,0.493579,0.192764029,-0.924177468,0.64582938,-4.968365669,-0.711065054,-0.481170356,0.10675437,-0.000593232,-0.389631927,1.064021111,-2.915222406
2.784919262,0.540592194,0.207669929,-0.925103366,0.631222069,-5.101800442,-0.764253616,-0.484798014,0.1011796,0.015763108,-0.375512123,1.03794539,-2.90319705
2.789924383,0.588233709,0.222607031,-0.929266155,0.606533706,-5.229169846,-0.826347172,-0.48758924,0.096890196,0.0283482,-0.362919688,1.01114285,-2.892542362
2.794930935,0.635657966,0.2423224,-0.93025893,0.57693553,-5.350799084,-0.895593345,-0.488514781,0.09546791,0.032521177,-0.351780891,0.983664036,-2.883156538
2.799932718,0.666018069,0.26303792,-0.920992553,0.547667623,-5.452842712,-0.966661394,-0.489226907,0.094373561,0.035732001,-0.342026502,0.955612838,-2.874963045
2.804934978,0.67837131,0.288121343,-0.908416212,0.527327776,-5.528895378,-1.045515895,-0.489555269,0.090284534,0.04755608,-0.333588123,0.927114189,-2.867925406
2.809931993,0.694383442,0.324837774,-0.885910809,0.519580722,-5.580180168,-1.126463771,-0.489901215,0.083370574,0.067533374,-0.326332927,0.89829725,-2.861940384
2.814930201,0.69332242,0.347562551,-0.864006698,0.526972771,-5.609143734,-1.210213542,-0.490015924,0.08107803,0.074157462,-0.320047021,0.869264245,-2.857025146
2.819929123,0.690485179,0.362195224,-0.857060075,0.539633572,-5.6115098,-1.290494442,-0.490104198,0.079314075,0.079254247,-0.314577103,0.840160191,-2.853111982
2.824929237,0.694537163,0.362587482,-0.856242537,0.545712709,-5.585187435,-1.377133965,-0.490133435,0.078729182,0.080944248,-0.30990684,0.811115623,-2.850193977
2.829930544,0.713512123,0.36018151,-0.862020731,0.539539635,-5.53912878,-1.464999318,-0.485662907,0.067254975,0.109980077,-0.306005836,0.782234192,-2.848175287
2.834932566,0.73377043,0.352176219,-0.882096827,0.519175887,-5.481406689,-1.562095642,-0.48418057,0.063450344,0.119607806,-0.302901924,0.753550112,-2.847148657
2.839929581,0.76205194,0.341599375,-0.903219461,0.47881186,-5.421985149,-1.663139582,-0.483040005,0.060522944,0.12701568,-0.300592929,0.725074291,-2.847035885
2.844927549,0.786232173,0.340592235,-0.934788525,0.424100071,-5.359299183,-1.772474289,-0.482661813,0.059552271,0.129471987,-0.299141228,0.696797669,-2.84781146
2.849926472,0.822037399,0.342352837,-0.977943778,0.361368537,-5.300870895,-1.887675047,-0.473863035,0.049185667,0.152193516,-0.298504889,0.668689668,-2.849390745
2.854926586,0.860036433,0.353602201,-1.011640191,0.299103707,-5.235589027,-2.010487556,-0.468840271,0.043367866,0.164882362,-0.298672706,0.640778065,-2.851770878
2.859927893,0.915813744,0.365958869,-1.076894283,0.253237456,-5.194653034,-2.130115747,-0.464975595,0.038891461,0.174645573,-0.299406767,0.612973034,-2.854875565
2.864930153,0.967823923,0.39063251,-1.125373244,0.221310452,-5.160568237,-2.247271538,-0.463694125,0.037407171,0.177882865,-0.300604463,0.585236549,-2.858563185
2.869927406,1.021585703,0.411219031,-1.169824719,0.205959544,-5.139300823,-2.36293745,-0.456012517,0.030410755,0.191324487,-0.302093357,0.557512045,-2.862752676
2.874925613,1.079881549,0.433467507,-1.207208633,0.208637878,-5.131963253,-2.475897551,-0.446713626,0.022187373,0.206824154,-0.30372259,0.529761732,-2.86736536
2.879924774,1.135160685,0.439853877,-1.247447848,0.221909851,-5.123756409,-2.593387604,-0.439558744,0.015860036,0.218750089,-0.305399537,0.501990974,-2.872484207
2.88492465,1.191063881,0.434644282,-1.281818628,0.25039497,-5.114207268,-2.714790821,-0.437186331,0.013762011,0.2227045,-0.306999326,0.474209279,-2.878120184
2.889925957,1.245046973,0.419371068,-1.323554754,0.279958159,-5.098296165,-2.826726437,-0.435360909,0.012147724,0.225747153,-0.308456242,0.446451783,-2.884272575
2.894928217,1.306153059,0.420033604,-1.362407565,0.302680939,-5.085712433,-2.924422026,-0.419180155,0.001071375,0.245354399,-0.309783638,0.418757915,-2.890770197
2.89992547,1.377945304,0.433374941,-1.394629002,0.328754365,-5.078587055,-3.005341291,-0.406730175,-0.007451123,0.260440856,-0.310941964,0.391133636,-2.897495031
2.904923677,1.463383555,0.461244017,-1.417633414,0.361940682,-5.075710773,-3.067035675,-0.402601987,-0.010277022,0.265443236,-0.311859637,0.363624126,-2.904300928
2.909922838,1.546342969,0.506285846,-1.437309504,0.413353741,-5.077076435,-3.111574411,-0.399425626,-0.012451358,0.269292235,-0.312426686,0.336235285,-2.911066055
2.914922714,1.626065016,0.560139656,-1.445193648,0.485760152,-5.074603081,-3.134028435,-0.387123019,-0.018611485,0.279407561,-0.312520355,0.309007347,-2.917670012
2.919924021,1.701423764,0.630296648,-1.44175458,0.588873684,-5.071816444,-3.123415709,-0.366282105,-0.028851122,0.296128333,-0.311980367,0.282020807,-2.923928976
2.924932003,1.771010041,0.696084559,-1.414236546,0.72112602,-5.063466072,-3.078029633,-0.359371662,-0.032246392,0.301672608,-0.310617536,0.255343735,-2.929680586
2.929935217,1.848364115,0.734137475,-1.364487886,0.866675556,-5.036750793,-2.996039867,-0.35405454,-0.034858823,0.305938572,-0.308314741,0.229168132,-2.934874058
2.934933186,1.927911639,0.707136989,-1.328070879,0.995550573,-5.00014925,-2.87684989,-0.352291465,-0.035725053,0.307353079,-0.305017471,0.203616023,-2.939547062
2.939932108,2.006021976,0.653518736,-1.268512487,1.05812645,-4.979718208,-2.7158041,-0.321600378,-0.044956576,0.323362797,-0.301068962,0.178647429,-2.943514585
2.944931984,2.007184029,0.55101037,-1.197236776,1.033423781,-4.939828396,-2.521558285,-0.311423779,-0.048017576,0.328671306,-0.29690975,0.154244319,-2.946842909
2.94993329,1.967824936,0.451484233,-1.103588939,0.919549167,-4.876631737,-2.298700094,-0.303593606,-0.050372809,0.332755864,-0.293023556,0.130512282,-2.949436903
2.954935789,1.940972924,0.375780016,-0.994001627,0.735685587,-4.783731461,-2.059575319,-0.300997257,-0.05115376,0.33411023,-0.289872527,0.107631445,-2.951187134
2.959933281,1.955332398,0.307834923,-0.888018906,0.508138418,-4.677186966,-1.807313085,-0.277279854,-0.054136347,0.343533754,-0.287706614,0.085768931,-2.951925039
2.96493125,1.999411345,0.249780044,-0.769556522,0.237161934,-4.565471649,-1.543504596,-0.264041007,-0.055714674,0.348732442,-0.286760658,0.06495972,-2.951568365
2.969930172,2.037621975,0.202585205,-0.656805873,-0.056659762,-4.463893414,-1.272706866,-0.253854632,-0.056929089,0.35273248,-0.287215292,0.045119379,-2.950043917
2.974930286,2.072983265,0.109005079,-0.545074165,-0.380782574,-4.335371017,-1.012064457,-0.250477016,-0.057331767,0.354058802,-0.289179325,0.026359601,-2.947591305
2.979931116,2.108552217,0.035408981,-0.439447463,-0.723430097,-4.231518745,-0.731773138,-0.236617088,-0.058670878,0.358061939,-0.292791307,0.008585741,-2.943917751
2.984933853,2.111106634,-0.035991788,-0.322375715,-1.09574151,-4.115273476,-0.457656413,-0.220665812,-0.060152825,0.362396926,-0.29829517,-0.008219762,-2.939015627
2.989931822,2.122266293,-0.101198383,-0.211257711,-1.451637268,-3.98130846,-0.202361986,-0.208392382,-0.06129308,0.365732431,-0.305637419,-0.023946676,-2.933044434
2.994929552,2.131983757,-0.121339515,-0.110947773,-1.756340504,-3.847698689,0.037757788,-0.20432274,-0.061671168,0.366838396,-0.314623773,-0.038593512,-2.925857544
2.999928474,2.125674009,-0.097042575,-0.009028818,-1.988081455,-3.689718008,0.270276159,-0.20119144,-0.061962083,0.367689371,-0.324964643,-0.052094586,-2.917378426
3.004928589,2.113512754,-0.061043449,0.069069445,-2.138977766,-3.510191202,0.498979926,-0.18425642,-0.06703306,0.370790839,-0.336267233,-0.064303443,-2.907695055
3.009929657,2.139125109,-0.026324891,0.158837691,-2.194747686,-3.308514357,0.713290513,-0.171226069,-0.070934832,0.373177201,-0.34806782,-0.07505317,-2.896807671
3.014932394,2.14150548,0.023898829,0.22695145,-2.153080463,-3.09418869,0.916481555,-0.166905448,-0.072228588,0.373968482,-0.359838456,-0.084319159,-2.884858847
3.019930363,2.134085417,0.09728539,0.321134061,-2.008413076,-2.871855736,1.099915862,-0.163581029,-0.073224045,0.374577314,-0.371155411,-0.092142969,-2.871820927
3.02492857,2.066034079,0.18355304,0.415219456,-1.755794883,-2.597536564,1.263976336,-0.155261546,-0.077480562,0.375730127,-0.381448358,-0.098403923,-2.858007431
3.029927731,1.963724494,0.258894145,0.499415576,-1.409628749,-2.258800983,1.413618684,-0.141562596,-0.084725909,0.377578706,-0.390165925,-0.102860034,-2.843723059
3.034927607,1.859268665,0.317192614,0.55743593,-1.007013559,-1.855378866,1.555499196,-0.137020275,-0.087128334,0.37819165,-0.396957278,-0.105238169,-2.829275608
3.03992939,1.785666347,0.35361746,0.576297224,-0.588927388,-1.419379354,1.676689029,-0.133525282,-0.08897683,0.378663272,-0.40166533,-0.105374306,-2.814967871
3.044931889,1.732057452,0.379301608,0.564766526,-0.198033482,-0.972296596,1.779333472,-0.132366404,-0.08958976,0.378819644,-0.404384077,-0.10326495,-2.800987005
3.04992938,1.683829904,0.397236794,0.520110071,0.145957321,-0.531722367,1.863274574,-0.121891707,-0.095870875,0.37928617,-0.405316889,-0.099003799,-2.787506819
3.054927588,1.671196222,0.409194946,0.437273651,0.423145115,-0.115836747,1.916807532,-0.118418492,-0.097953573,0.379440874,-0.404735625,-0.092717841,-2.7746315
3.059932709,1.66585362,0.421566159,0.319068998,0.617467463,0.25374186,1.939130902,-0.115746096,-0.099556074,0.379559904,-0.403036147,-0.084710613,-2.762447119
3.064932585,0.250449598,0.956755519,0.333004087,1.158561945,1.097673655,2.145937681,-0.114859983,-0.100087434,0.379599363,-0.399815232,-0.075610586,-2.751208305
3.069933653,1.899792671,0.929355264,0.696738958,1.641026855,2.432129383,2.45871973,-0.114063181,-0.097597688,0.378716975,-0.393360615,-0.055095918,-2.737803459
3.07493639,1.989664793,0.91926527,0.939296961,2.492632866,2.891789198,2.426096201,-0.113770522,-0.096054874,0.378198534,-0.382992089,-0.032488313,-2.724946499
3.07993412,0.428662926,0.227958366,1.107210517,2.90068388,3.325315475,2.347621679,-0.113545343,-0.094867773,0.37779963,-0.368772328,-0.012352327,-2.718334913
3.084932327,-0.104381859,-0.377351224,0.742744803,2.921951056,3.934428215,2.185515404,-0.113470681,-0.094474159,0.377667367,-0.353322744,0.009381048,-2.716806173
3.08993125,0.900351644,-0.222827509,-0.382422149,2.422528744,4.391016006,1.842979789,-0.119670309,-0.088379525,0.376599818,-0.340610266,0.035677303,-2.715498924
3.094931126,0.712560236,-0.242243513,-1.481644869,1.576471329,4.324864864,1.320998788,-0.12803559,-0.080518268,0.375271916,-0.331857443,0.059627876,-2.718420506
3.099932194,0.382223666,0.593593121,-1.825841904,1.333560348,4.285638332,0.881426096,-0.134472102,-0.074469566,0.374250144,-0.326242149,0.081057295,-2.721108913
3.104934931,0.461604118,1.129767537,-2.283056974,1.278860092,4.133616447,0.610429049,-0.136606321,-0.07246393,0.373911351,-0.321006477,0.102206796,-2.722956896
3.109932899,0.097725958,0.712994099,-2.087347031,1.138356209,3.947887182,0.493489325,-0.138248459,-0.070920721,0.3736507,-0.31586653,0.120660797,-2.727610111
3.114930868,0.682750225,0.242493391,-1.732464671,1.159240127,4.241640568,0.530544579,-0.156175554,-0.061183706,0.369233638,-0.310008407,0.142852575,-2.731802225
3.11992979,0.574835122,-0.718897939,-1.580002666,1.062700272,4.331305981,0.6767537,-0.169969231,-0.053691737,0.365835011,-0.302838922,0.165227041,-2.738639832
3.124930143,0.813656926,-1.325181246,-1.406327248,0.610211551,4.568700314,0.956103206,-0.174542949,-0.051207542,0.364708096,-0.297081649,0.189680859,-2.745552063
3.129930973,1.43981111,-1.331883788,-1.760518074,0.151874483,4.531503677,1.119729161,-0.178062111,-0.049296126,0.363840997,-0.293785334,0.215556607,-2.750305653
3.134933472,1.779543877,-1.145774126,-1.880123615,-0.133002266,4.266177654,1.313576221,-0.188564047,-0.046145719,0.359270632,-0.291870743,0.240241468,-2.752759933
3.139931202,2.104817867,-0.5698241,-2.034558296,-0.282551736,3.861833811,1.527201533,-0.20608376,-0.041176997,0.351423383,-0.291200936,0.263599545,-2.751407146
3.144929647,2.315999269,0.217649847,-2.0693326,-0.316428572,3.313512325,1.585031033,-0.211892962,-0.039529461,0.348821402,-0.291588396,0.284402102,-2.746194124
3.149928808,2.232221842,1.063807368,-1.754577041,-0.247648641,2.759186745,1.425181031,-0.216362759,-0.038261797,0.346819341,-0.293247789,0.301846683,-2.73844099
3.154928684,1.705705166,1.662208676,-1.284363866,-0.107723556,2.391602039,1.009779215,-0.217844859,-0.037841465,0.346155494,-0.295716077,0.315975428,-2.731223583
3.159929514,1.096963167,1.807816029,-0.913519859,0.135010272,2.316102266,0.636008859,-0.239438564,-0.034221299,0.336908132,-0.297978103,0.32846725,-2.726674318
3.164931774,0.758168817,1.550390482,-0.783633113,0.429484427,2.26990819,0.326247633,-0.246598616,-0.033020925,0.33384189,-0.29842031,0.340120584,-2.724796057
3.169929266,0.614527106,1.007280469,-0.952462792,0.603154719,2.164969444,0.139023691,-0.252107799,-0.032097314,0.331482619,-0.297225416,0.350787699,-2.725889683
3.174926996,0.633160889,0.39809221,-1.101543427,0.74607724,1.976696372,0.204107404,-0.253934532,-0.031791065,0.330700338,-0.293944538,0.360733628,-2.727912188
3.179926157,0.586014628,-0.091675811,-1.133471012,0.803900659,1.774470448,0.422537208,-0.263994128,-0.029037375,0.324972183,-0.289001763,0.370010942,-2.729587793
3.184926271,0.722070396,-0.13188687,-1.13680768,0.832963645,1.554943085,0.61717397,-0.269471169,-0.027501205,0.321804315,-0.283554614,0.378795981,-2.729413509
3.189927101,0.773315966,0.135727465,-1.005670071,0.840117931,1.338180304,0.646594226,-0.273685396,-0.026319224,0.319366872,-0.278561234,0.386575818,-2.727516174
3.19493556,0.889216125,0.511344671,-1.033657312,0.843849242,1.138621092,0.526612043,-0.275082737,-0.025927301,0.318558663,-0.274476826,0.393357515,-2.724982023
3.199939013,0.878910601,0.543089807,-1.069635868,0.846682906,0.923289955,0.383118153,-0.279400617,-0.023666209,0.316233188,-0.270495564,0.398729146,-2.723105907
3.204937458,0.898407996,0.348596126,-1.161424398,0.844734609,0.681867003,0.319130898,-0.284102261,-0.020940484,0.313744217,-0.266042054,0.4028503,-2.721982241
3.209936619,0.770891786,0.001407743,-1.140718579,0.796388626,0.466200888,0.364477456,-0.287719876,-0.018843226,0.31182912,-0.260856152,0.405821294,-2.721369743
3.214936495,0.612836778,-0.034192674,-1.031234026,0.708785534,0.349287927,0.402298719,-0.288919419,-0.018147815,0.311194122,-0.256068915,0.40811184,-2.720304966
3.219937563,0.585467756,0.152400568,-1.025070071,0.603408694,0.302545339,0.353427172,-0.289842367,-0.017612742,0.310705543,-0.252408713,0.41017288,-2.718870878
3.2249403,0.644935846,0.262709469,-1.016355872,0.511988342,0.224994555,0.277512997,-0.293208033,-0.013771639,0.308498979,-0.249555692,0.411852717,-2.717376471
3.22993803,0.508115053,0.241925254,-0.936032057,0.45870313,0.209393069,0.252560973,-0.295797676,-0.010816171,0.30680117,-0.246935502,0.413207531,-2.716260195
3.234935999,0.372948706,0.216700107,-0.932861209,0.432501256,0.224933252,0.25943926,-0.29665637,-0.009836193,0.306238204,-0.24433358,0.414494991,-2.715399742
3.239934921,0.306124985,0.245358691,-0.927060962,0.430069834,0.257881224,0.27987951,-0.297317058,-0.009082167,0.305805057,-0.241762027,0.415892661,-2.714431763
3.244934797,0.340950847,0.290875256,-0.903313696,0.449468106,0.295059502,0.290213257,-0.297960967,-0.007408002,0.305204988,-0.239196345,0.417581916,-2.713174582
3.249935865,0.423623502,0.296227485,-0.917483866,0.462271452,0.304759473,0.283211946,-0.298886031,-0.004679813,0.304281741,-0.236547425,0.419447988,-2.711834431
3.254938364,0.478386104,0.208704814,-0.940397143,0.448754132,0.286788285,0.267693937,-0.299192756,-0.003775197,0.303975612,-0.23381269,0.421254218,-2.710788965
3.259935856,0.455287397,0.101172075,-0.943265676,0.41423887,0.27057299,0.247020155,-0.299428761,-0.003079156,0.303740054,-0.231080964,0.42287907,-2.710187197
3.264933825,0.435851902,0.069378175,-0.974361539,0.362567544,0.255100161,0.226366982,-0.299507022,-0.002848362,0.303661972,-0.228637367,0.424365997,-2.709806204
3.269932985,0.398671687,0.109862313,-0.972473562,0.298020542,0.260534436,0.211707354,-0.300825655,-0.000133698,0.304005712,-0.226671755,0.425774634,-2.709370136
3.2749331,0.371115953,0.174326479,-0.956703544,0.244383886,0.280420929,0.204755917,-0.301262885,0.000766434,0.304119706,-0.225133926,0.42725262,-2.708822489
3.279933929,0.375218928,0.206101984,-0.95527339,0.200402766,0.304931313,0.208357096,-0.301599294,0.001459023,0.304207414,-0.223861948,0.428876758,-2.708197832
3.284936905,0.419823468,0.204068407,-0.93552655,0.178151056,0.306330204,0.223930791,-0.301710844,0.001688673,0.304236501,-0.222639322,0.430624515,-2.70740366
3.289934874,0.416966259,0.212581739,-0.918268561,0.16070646,0.306732088,0.221788332,-0.302679747,0.003147078,0.303032786,-0.221514329,0.432357073,-2.706563473
3.294933081,0.413798273,0.196539134,-0.91947037,0.145605162,0.300594896,0.205533743,-0.303219557,0.00394782,0.302330285,-0.220461667,0.433999419,-2.70588994
3.299932003,0.414545864,0.164354652,-0.919626653,0.127273217,0.298122972,0.184070066,-0.303634882,0.004563936,0.301789761,-0.219499156,0.435614586,-2.70543313
3.304932117,0.433640808,0.137085915,-0.917789519,0.110097542,0.294345915,0.161482111,-0.303772599,0.004768228,0.301610529,-0.218623102,0.437234074,-2.705119371
3.309932947,0.45713827,0.130076647,-0.920464873,0.083420336,0.28549841,0.133575812,-0.304611921,0.005518744,0.301430285,-0.217925891,0.438813388,-2.704906225
3.314935207,0.467090636,0.112983301,-0.913758039,0.052599277,0.278167993,0.097016521,-0.30562976,0.006365909,0.301327825,-0.217448875,0.440322071,-2.704908848
3.319932938,0.466793537,0.102656163,-0.916564584,0.022425119,0.283868879,0.053351551,-0.306412935,0.007017746,0.301248997,-0.217199072,0.441810697,-2.705204487
3.324930906,0.468073964,0.102511801,-0.908811808,-0.004935106,0.297040671,-0.007980463,-0.306672603,0.007233882,0.301222861,-0.2172786,0.443308294,-2.705833435
3.329935789,0.460886121,0.126137495,-0.900761127,-0.029812973,0.311772794,-0.057212174,-0.306872398,0.007400184,0.301202774,-0.217629269,0.444814146,-2.706678152
3.334935904,0.448531002,0.164696008,-0.895918489,-0.045306217,0.318520725,-0.087141633,-0.307608008,0.008118129,0.299709618,-0.218216017,0.44629693,-2.707607508
3.339936733,0.426936537,0.208697885,-0.889356017,-0.049624462,0.316265553,-0.100559875,-0.308174044,0.00867054,0.298560739,-0.218923628,0.447706282,-2.708498478
3.344939709,0.401049554,0.247711942,-0.880750477,-0.041498143,0.317489982,-0.099091589,-0.308361709,0.008853708,0.298179775,-0.219657332,0.449078202,-2.70931077
3.349938154,0.387614608,0.274086028,-0.872919321,-0.020236701,0.31968978,-0.072060592,-0.308506131,0.008994645,0.29788667,-0.220277667,0.450474858,-2.709910631
3.354936123,0.386396557,0.312012792,-0.865801752,0.012916738,0.312744558,-0.023410344,-0.309158266,0.00867701,0.297880113,-0.220621854,0.451883674,-2.710099697
3.359935284,0.391646683,0.329036295,-0.860513091,0.049594857,0.308356494,0.018696394,-0.310271084,0.008064182,0.297966719,-0.220704705,0.453344673,-2.710040092
3.36493516,0.390170813,0.327248096,-0.858460248,0.090696201,0.303339034,0.064121798,-0.310640067,0.007860979,0.297995418,-0.220457017,0.454807401,-2.709733725
3.369936466,0.398249865,0.300746471,-0.853122771,0.125907406,0.301730514,0.099641956,-0.310923964,0.007704628,0.298017502,-0.219898179,0.456336558,-2.709296227
3.374938726,0.42082727,0.266377509,-0.862129092,0.144609451,0.289494544,0.126929328,-0.311018109,0.007652785,0.298024833,-0.219096139,0.457867205,-2.708754539
3.37993598,0.430837154,0.207912743,-0.868043602,0.146768779,0.273673803,0.141028404,-0.312242776,0.007887359,0.295950562,-0.218150973,0.459340423,-2.708304167
3.384934425,0.443987727,0.159141853,-0.88075155,0.132560521,0.256513804,0.150954887,-0.312648863,0.007965139,0.295262754,-0.21716848,0.460753709,-2.707901716
3.389933348,0.45385924,0.137362137,-0.890433371,0.109511018,0.238072097,0.153420135,-0.31296128,0.008024986,0.294733554,-0.21625413,0.462088466,-2.70749712
3.394933462,0.447635829,0.146755457,-0.887354314,0.082080342,0.226020709,0.153597862,-0.313064873,0.00804483,0.294558078,-0.215509996,0.463342577,-2.707036257
3.39993453,0.435776591,0.159565896,-0.886354446,0.063087724,0.224456757,0.151779518,-0.313661784,0.008674906,0.293592364,-0.214912683,0.464565068,-2.706585407
3.40493679,0.410531908,0.189939857,-0.876669765,0.058719397,0.239527956,0.146051973,-0.313987702,0.009035963,0.293066591,-0.214401439,0.465814263,-2.70611763
3.409933805,0.40010643,0.191926956,-0.877980709,0.05510243,0.271140695,0.143074214,-0.314238459,0.009313772,0.292662054,-0.213919342,0.467228472,-2.70574522
3.414932489,0.411173254,0.19588691,-0.881721735,0.051426191,0.302186012,0.125679716,-0.314321607,0.009405888,0.292527914,-0.213523716,0.468799323,-2.70546627
3.41993165,0.42870608,0.167164639,-0.885734081,0.037985332,0.322299898,0.109156616,-0.314944774,0.010011027,0.292628884,-0.21320568,0.470472217,-2.705388546
3.424931526,0.450763136,0.158730254,-0.88363868,0.02363243,0.320628196,0.108936347,-0.315715253,0.010750427,0.292868227,-0.21290721,0.472163409,-2.705261946
3.429932594,0.466721684,0.154698938,-0.876486719,0.007551662,0.307884902,0.109345704,-0.316308081,0.011319346,0.293052405,-0.212713987,0.473808378,-2.705092907
3.434935093,0.463675916,0.168473765,-0.871447444,-0.003303263,0.295840532,0.115610391,-0.316504657,0.011507988,0.29311344,-0.212592229,0.475380599,-2.704809427
3.439932585,0.460403651,0.193086609,-0.86159879,-0.00990919,0.280677289,0.12804082,-0.316655904,0.011653136,0.293160439,-0.212498978,0.476880789,-2.704366684
3.44493103,0.453241736,0.203917623,-0.857669115,-0.018775474,0.27033633,0.140603423,-0.317779332,0.01191778,0.292272896,-0.212426797,0.478331506,-2.7038517
3.449929953,0.444283992,0.214312464,-0.853619874,-0.021128351,0.257193416,0.156126693,-0.318643719,0.012121405,0.291589975,-0.212339178,0.479719102,-2.703204155
3.454930067,0.417274654,0.221437886,-0.865683198,-0.003352213,0.269262433,0.17409575,-0.318930358,0.012188924,0.291363537,-0.212117493,0.481138706,-2.702532768
3.459931135,0.450166166,0.197782353,-0.871721447,-0.002978345,0.264498264,0.19176209,-0.319150895,0.012240876,0.291189313,-0.211773723,0.482633084,-2.701777458
3.464940071,0.454077482,0.204755157,-0.864738703,-0.00087631,0.257950515,0.20731312,-0.319720238,0.012581495,0.290589273,-0.21142973,0.484088451,-2.700877905
3.469943762,0.445212156,0.218887374,-0.864582598,0.005405727,0.25525412,0.222741291,-0.320660055,0.013170579,0.289579272,-0.211028442,0.485530436,-2.699867725
3.474942684,0.431750953,0.21600683,-0.868641555,0.008354559,0.254911959,0.244411349,-0.320971668,0.013365909,0.289244384,-0.2105373,0.486970216,-2.698792696
3.479941845,0.429724693,0.229838386,-0.868712425,0.018320289,0.255847782,0.272937834,-0.321211427,0.013516203,0.288986713,-0.209951147,0.488436401,-2.697497845
3.484941721,0.425618917,0.240423068,-0.868166387,0.041684695,0.263421953,0.301074266,-0.32129094,0.013566037,0.288901269,-0.209203094,0.489963859,-2.696053743
3.489942789,0.429410517,0.237609118,-0.868899167,0.05532911,0.2711896,0.319569141,-0.322504848,0.013880443,0.286930531,-0.208309829,0.491560668,-2.69452548
3.494945049,0.446869552,0.208204836,-0.872236669,0.059449192,0.27825278,0.333650142,-0.322907358,0.013984694,0.286277056,-0.207309946,0.49322921,-2.692990541
3.499942303,0.449967355,0.181892499,-0.867066264,0.055533748,0.291462988,0.35501948,-0.323217064,0.014064909,0.285774261,-0.206229076,0.494994968,-2.69141221
3.50494051,0.469825953,0.173354208,-0.869615376,0.038112439,0.299291581,0.36020267,-0.323319763,0.014091507,0.285607547,-0.205230623,0.496823132,-2.689801931
3.509939671,0.462269008,0.171179369,-0.870195866,0.024284352,0.301655859,0.365206569,-0.324080586,0.015497429,0.284862489,-0.204302445,0.498635322,-2.688176155
3.514939547,0.447459072,0.176191211,-0.877788544,0.015916614,0.312628925,0.371234506,-0.324501574,0.016306441,0.28446281,-0.203405932,0.500475824,-2.686549187
3.519940853,0.450610727,0.182591856,-0.883323669,0.008188521,0.327548027,0.37874791,-0.324825495,0.016928922,0.284155279,-0.20252724,0.50240171,-2.684868336
3.524943113,0.438657373,0.189196676,-0.883894265,0.000450118,0.351178825,0.393161744,-0.324932903,0.017135324,0.284053296,-0.201689631,0.50443244,-2.683146477
3.529940367,0.438746721,0.183836222,-0.888751924,0.000250137,0.380110562,0.411779612,-0.325689375,0.017853709,0.283533037,-0.200779632,0.5066365,-2.681359768
3.534938335,0.432791829,0.176159859,-0.897886515,-0.012256149,0.40336135,0.429061651,-0.326619685,0.018656183,0.282915026,-0.19986853,0.508939385,-2.679563522
3.539938211,0.428991258,0.192748651,-0.904393673,-0.032460287,0.428097874,0.445375562,-0.327335507,0.019273631,0.28243947,-0.199085265,0.511361361,-2.677642584
3.544938326,0.424512893,0.204101205,-0.908052742,-0.043500345,0.465521455,0.464390278,-0.327572852,0.019478366,0.282281816,-0.198340192,0.513976693,-2.675656319
3.549939156,0.427086264,0.203153864,-0.914166272,-0.044474229,0.507607222,0.483790874,-0.327755481,0.019635895,0.282160491,-0.19754535,0.516820431,-2.673608065
3.554941416,0.438921183,0.192047849,-0.916079402,-0.049952012,0.555139184,0.510577261,-0.328447402,0.021025965,0.28198573,-0.196669236,0.519949377,-2.671459436
3.559938669,0.431256741,0.214249492,-0.910446048,-0.048579693,0.600307584,0.526141226,-0.32897979,0.022095529,0.281851232,-0.19584392,0.52328831,-2.669203758
3.564936638,0.424468011,0.222922936,-0.911851883,-0.04351769,0.649639964,0.545426905,-0.329156339,0.022450177,0.281806648,-0.194954216,0.526862979,-2.666900873
3.56993556,0.420198113,0.221173212,-0.921120107,-0.047974944,0.701832235,0.564584136,-0.329292178,0.022723055,0.281772345,-0.194028452,0.5306952,-2.664566755
3.574936152,0.420257211,0.217373535,-0.93800503,-0.055149518,0.754982054,0.577278316,-0.330329955,0.023461463,0.280801028,-0.193133026,0.534777582,-2.662276268
3.579936981,0.428783268,0.214037389,-0.945403993,-0.058247153,0.823454797,0.590276122,-0.33213231,0.024684772,0.279083043,-0.192224786,0.539213419,-2.659964561
3.584939241,0.430430144,0.20051524,-0.948295176,-0.060551748,0.898849368,0.60040307,-0.332729906,0.025090398,0.278513402,-0.191302389,0.544018745,-2.657716751
3.589936733,0.424317837,0.181737646,-0.972726226,-0.066086695,0.986967385,0.604277432,-0.333189756,0.025402501,0.278075099,-0.190374196,0.549243689,-2.655632257
3.594934702,0.417556196,0.178216785,-0.972814858,-0.07133238,1.079520464,0.612054527,-0.333342224,0.025505988,0.277929783,-0.189487934,0.554888368,-2.653606653
3.599939823,0.423989534,0.18191494,-0.981243432,-0.064233325,1.188363314,0.615818083,-0.336609274,0.028321393,0.273708045,-0.188610002,0.561091959,-2.651667356
3.604939938,0.432977766,0.14652656,-0.99028182,-0.069725223,1.302110434,0.613778651,-0.337692559,0.029254928,0.272308201,-0.187729821,0.567869782,-2.649953127
3.609941244,0.445172787,0.102616601,-0.990629971,-0.08769796,1.416802168,0.600908935,-0.33852607,0.02997322,0.271231115,-0.186949044,0.575198889,-2.648501396
3.614943743,0.457315147,0.074788786,-1.00615418,-0.122836746,1.534544468,0.579880238,-0.338802457,0.030211391,0.270873964,-0.186419442,0.583081841,-2.647352219
3.619941235,0.441083163,0.069538958,-0.997965693,-0.14403142,1.652048707,0.543659449,-0.342199624,0.032166205,0.267876357,-0.186185658,0.59146142,-2.646575689
3.624938965,0.442941368,0.069081001,-1.002420545,-0.165651605,1.787789226,0.500648856,-0.344114095,0.033252761,0.266208649,-0.186273217,0.600466251,-2.646222115
3.629937887,0.453252643,0.069728769,-1.017660022,-0.189068466,1.913971305,0.459658265,-0.345587134,0.03408879,0.26492548,-0.18670173,0.610040843,-2.646272898
3.634937763,0.431916028,0.074274056,-0.985256374,-0.212383121,2.061563253,0.426791102,-0.346075565,0.034366004,0.264500022,-0.187458768,0.620289028,-2.646631479
3.639939785,0.448388308,0.099344328,-0.989260256,-0.23781088,2.205585718,0.397326708,-0.348915517,0.035006873,0.261374831,-0.188601106,0.631244004,-2.64731288
3.644942045,0.442534178,0.085993759,-0.980928063,-0.274715871,2.356174469,0.386619568,-0.352342039,0.035650536,0.257517278,-0.190071791,0.642894268,-2.648327351
3.649939537,0.429618508,0.095608048,-0.98350966,-0.331021428,2.502898693,0.38499105,-0.354978502,0.036145788,0.254549146,-0.191941634,0.655218363,-2.649544954
3.654937267,0.421515077,0.131552845,-0.967063665,-0.385847479,2.664046764,0.395554662,-0.355852723,0.036310006,0.253564984,-0.194310039,0.668319762,-2.650816441
3.659936428,0.4125202,0.165484354,-0.978025556,-0.434860408,2.837385416,0.419987798,-0.356525362,0.03643636,0.252807736,-0.197049573,0.682261705,-2.652170181
3.664936543,0.394963503,0.206193447,-0.987132967,-0.478800952,3.026008129,0.464072913,-0.362309456,0.037337754,0.245546073,-0.200109512,0.69711405,-2.653591633
3.669937372,0.363978475,0.202817291,-0.990749419,-0.516702414,3.212738991,0.52601707,-0.366759926,0.038031314,0.239958718,-0.20326139,0.712864339,-2.655018091
3.674939632,0.357131064,0.216048047,-0.980211139,-0.576291203,3.433456659,0.595103681,-0.368235618,0.038261283,0.238106057,-0.206695229,0.729755759,-2.656291246
3.679937363,0.365351319,0.233650848,-0.978169978,-0.638416886,3.66170764,0.689347267,-0.369371086,0.038438231,0.236680567,-0.210389763,0.747861624,-2.657327414
3.684935093,0.330720246,0.252033144,-0.989550591,-0.665013492,3.890720367,0.79865694,-0.373655021,0.038955566,0.230596945,-0.214017704,0.767128289,-2.658184767
3.689934254,0.337033421,0.311544478,-1.020185828,-0.659480035,4.097951889,0.920091569,-0.380902261,0.039817397,0.220242471,-0.217397392,0.787453175,-2.658582211
3.694934368,0.331138372,0.309237868,-0.988804162,-0.663075924,4.344069958,1.057837009,-0.383305281,0.040103164,0.216809124,-0.220373407,0.809103668,-2.658421755
3.699935436,0.306898445,0.3390522,-1.040247917,-0.68005228,4.623213768,1.183204055,-0.385154247,0.040323041,0.214167401,-0.22328651,0.832161069,-2.658063173
3.704937935,0.286531001,0.392261624,-1.060252905,-0.662873745,4.945764542,1.318495035,-0.385767341,0.040395949,0.213291451,-0.225894675,0.856821656,-2.657304287
3.709935427,0.301046818,0.449454755,-1.082095027,-0.614264727,5.287362576,1.444939613,-0.396949708,0.042933043,0.194371104,-0.228153437,0.883315802,-2.656401634
3.714933395,0.237736419,0.445397884,-1.001597285,-0.530902982,5.760314465,1.639374733,-0.400657594,0.043774296,0.188097477,-0.229372591,0.912358105,-2.654729128
