Time,inertial-6253.76535:scaledAccelX,inertial-6253.76535:scaledAccelY,inertial-6253.76535:scaledAccelZ,inertial-6253.76535:scaledGyroX,inertial-6253.76535:scaledGyroY,inertial-6253.76535:scaledGyroZ,inertial-6253.76535:scaledMagX,inertial-6253.76535:scaledMagY,inertial-6253.76535:scaledMagZ,inertial-6253.76535:roll,inertial-6253.76535:pitch,inertial-6253.76535:yaw
0,0.475158483,0.093883164,-0.876388788,0.001968008,-0.000612364,0.007368322,-0.284886748,-0.030887993,0.273690134,-0.086857274,0.492077738,-3.139634609
0.005001728,0.474675566,0.093195044,-0.877323687,0.005094445,0.001250109,0.007641277,-0.284843981,-0.0308886,0.273637742,-0.086840644,0.492087394,-3.139625072
0.010003968,0.477595538,0.091545224,-0.876181662,0.003549319,-0.000209223,0.006264411,-0.284894556,-0.030997034,0.274230897,-0.086837478,0.492103964,-3.139625788
0.015001344,0.479780763,0.09103106,-0.876242459,0.003154286,0.000724543,0.007029004,-0.284995496,-0.031141864,0.275066376,-0.086823612,0.492119223,-3.139623404
0.020005375,0.479126275,0.091327466,-0.875974655,0.005483286,0.001572201,0.008043915,-0.285073161,-0.031253301,0.275709212,-0.08680442,0.492141783,-3.139612198
0.025004543,0.478230566,0.090473898,-0.875586867,0.005126429,0.000314634,0.007798644,-0.28509891,-0.031290252,0.275922388,-0.086791389,0.492151976,-3.139615536
0.030004991,0.47863096,0.09043514,-0.874421597,0.005588114,0.001608394,0.00781347,-0.285118729,-0.031318683,0.27608639,-0.086773835,0.492177457,-3.139609575
0.035005953,0.477818102,0.092444055,-0.874318242,0.004180884,0.001087649,0.007865718,-0.285123974,-0.031332459,0.275664866,-0.086764194,0.492201477,-3.139597893
0.040007938,0.477421582,0.091508187,-0.874741793,0.004924289,0.001757595,0.007885327,-0.285127997,-0.031343058,0.275340527,-0.086745121,0.492215663,-3.139593124
0.045005057,0.478040248,0.09147837,-0.874063075,0.003959987,0.002703138,0.007793247,-0.285129339,-0.031346574,0.275233001,-0.086730689,0.492241025,-3.139582157
0.050003201,0.478594273,0.091332197,-0.875479162,0.005170418,0.002646997,0.007412458,-0.285130382,-0.031349279,0.275150239,-0.086718306,0.492268026,-3.139591932
0.055002369,0.477930844,0.092394851,-0.874421597,0.004463514,0.000567144,0.008153724,-0.285215557,-0.031178568,0.274792165,-0.086702436,0.492281854,-3.139576197
0.060002562,0.47764191,0.090016998,-0.874027908,0.00539742,0.002624347,0.006182001,-0.285366923,-0.03087369,0.274182379,-0.086686015,0.492304236,-3.139579535
0.065003522,0.475609481,0.090582587,-0.875131249,0.003703965,0.001716351,0.007026318,-0.28541711,-0.030772598,0.27398017,-0.08667881,0.492321491,-3.139570475
0.07000576,0.474183679,0.091745786,-0.875858366,0.003872601,0.001705667,0.008627091,-0.285455734,-0.030694816,0.273824573,-0.086663395,0.492336243,-3.139548779
0.075002879,0.476241738,0.091315627,-0.875314534,0.002631383,0.001319171,0.006776526,-0.285468549,-0.030669024,0.273772985,-0.086665168,0.492352307,-3.139546633
0.08000128,0.477796286,0.092197448,-0.875617981,0.004488125,0.001566949,0.006995715,-0.285279006,-0.030924782,0.273521721,-0.086660735,0.492378652,-3.139540434
0.085000448,0.477708846,0.092216007,-0.876039445,0.002342705,0.002383138,0.007858224,-0.285216153,-0.031009587,0.273438424,-0.086651288,0.492404521,-3.139537573
0.090000637,0.476654381,0.090641871,-0.874943376,0.003020864,0.002025768,0.005250509,-0.285167783,-0.031074839,0.273374349,-0.086650528,0.492422998,-3.139554739
0.095001854,0.475412577,0.090523042,-0.874840081,0.004686876,0.002594187,0.007505461,-0.28515175,-0.031096473,0.2733531,-0.086631477,0.492442101,-3.139552832
0.100004353,0.477301151,0.088743746,-0.876479447,0.004447846,0.002296853,0.006315166,-0.285093129,-0.031105367,0.274287611,-0.086619914,0.492465705,-3.139564991
0.105001725,0.479395062,0.090337537,-0.875441968,0.002831485,0.001666049,0.008635467,-0.285062224,-0.031106398,0.274832785,-0.086608149,0.492490947,-3.139558554
0.109999873,0.47809273,0.091075897,-0.875688076,0.004000969,0.002032377,0.008067776,-0.285038471,-0.031107189,0.275252253,-0.086595826,0.492512912,-3.139555454
0.114999041,0.477179885,0.091861539,-0.876675308,0.003313492,0.001182197,0.007023226,-0.285030603,-0.031107452,0.27539134,-0.086586006,0.492528707,-3.139550924
0.119998977,0.478413373,0.090466231,-0.875451267,0.004187786,0.002603562,0.007643149,-0.285081714,-0.030991236,0.275498152,-0.086576663,0.492553771,-3.139541626
0.125000194,0.477647305,0.090154372,-0.875529468,0.004990193,0.001435524,0.006767032,-0.28515628,-0.030835304,0.275533348,-0.086564071,0.492572427,-3.139544964
0.130002692,0.47940293,0.090537131,-0.875904441,0.002961161,0.00217764,0.006292034,-0.285213679,-0.030715326,0.275560409,-0.086560532,0.492598891,-3.139539719
0.135000318,0.478480339,0.090628654,-0.874717712,0.00178091,0.001596666,0.007466721,-0.285232723,-0.030675543,0.275569379,-0.086558983,0.492613852,-3.139534473
0.139998466,0.476634145,0.09259519,-0.875275314,0.003936344,0.00108451,0.008138923,-0.285247356,-0.030644933,0.275576293,-0.086549737,0.492626965,-3.139514923
0.144997627,0.477147996,0.094184093,-0.87499851,0.004543153,0.000499332,0.006920228,-0.285104156,-0.030641973,0.275099874,-0.08654388,0.492640764,-3.139487505
0.149997562,0.47665742,0.093854092,-0.874507129,0.003921384,0.001134917,0.00816459,-0.284993976,-0.030639697,0.274733275,-0.086531505,0.492654979,-3.139459133
0.155005187,0.47788766,0.090793096,-0.87532258,0.00618343,0.001581619,0.008283168,-0.284957439,-0.030638942,0.274611741,-0.086509123,0.492673486,-3.139445066
0.160007685,0.477425814,0.091280788,-0.875917017,0.00493244,0.000284328,0.009119622,-0.284929305,-0.030638361,0.274518222,-0.086489439,0.492682725,-3.139425039
0.165005565,0.475693971,0.090223879,-0.874699831,0.005096529,0.001915527,0.006837076,-0.285197854,-0.030605055,0.274372101,-0.086469553,0.492699444,-3.139417887
0.170003712,0.475940019,0.091437988,-0.876829565,0.004733681,0.000388246,0.009078288,-0.28568548,-0.030545944,0.274143308,-0.086446226,0.492709011,-3.139395714
0.175002873,0.477496237,0.092568897,-0.877550364,0.005066445,0.002627234,0.007815088,-0.285847157,-0.030526346,0.274067432,-0.08643131,0.492729425,-3.139382601
0.180003077,0.479261518,0.091091044,-0.874796033,0.003693283,0.002058277,0.008567659,-0.285971552,-0.030511266,0.274009049,-0.086418077,0.492754668,-3.139359236
0.185004547,0.478639275,0.090880126,-0.876143217,0.005352454,0.001399611,0.00715293,-0.286012799,-0.030506266,0.273989707,-0.086399607,0.492773652,-3.139354706
0.190006778,0.478439897,0.089193545,-0.874483287,0.005853021,0.000700366,0.008262252,-0.285846651,-0.030644353,0.273621231,-0.086376712,0.492793649,-3.139345646
0.195003897,0.478546798,0.089635015,-0.87529856,0.005519581,-0.00054789,0.006614628,-0.285791546,-0.030690139,0.273499042,-0.086358495,0.492803514,-3.139346123
0.200002044,0.478916854,0.088349812,-0.875979245,0.005229881,0.000473208,0.007608722,-0.285749167,-0.030725367,0.273405015,-0.08634188,0.492819637,-3.139355659
0.205000967,0.479335934,0.091000728,-0.875339985,0.003203431,0.001104595,0.00643901,-0.285735101,-0.030737048,0.273373842,-0.086331293,0.492837399,-3.139349222
0.210001662,0.479118198,0.091600858,-0.877389669,0.002289286,0.001311444,0.008256126,-0.28577438,-0.030692862,0.273508906,-0.086330205,0.492856026,-3.139334679
0.21500288,0.477330744,0.091555163,-0.876693368,0.003217698,0.001092558,0.008062786,-0.285799801,-0.030665055,0.273593038,-0.086318463,0.492866278,-3.13932538
0.220005125,0.479054779,0.092000417,-0.875974715,0.003285171,-0.000226442,0.007410427,-0.285819352,-0.030643659,0.273657739,-0.086311571,0.492877185,-3.139313936
0.225002244,0.475723505,0.091261551,-0.875580311,0.004170613,-4.58E-05,0.008076269,-0.285825849,-0.030636564,0.273679197,-0.086303279,0.492879212,-3.13929677
0.230000377,0.475652456,0.091426685,-0.876063645,0.00560219,0.00075088,0.008798921,-0.285719872,-0.030605244,0.273603171,-0.086284615,0.492886364,-3.139280319
0.234999552,0.47698769,0.091554143,-0.875442922,0.004877471,0.000435082,0.008251631,-0.285572827,-0.030568777,0.273484647,-0.086273998,0.49290368,-3.139266491
0.239999995,0.478681833,0.091641836,-0.876954913,0.00398016,0.002077516,0.008410792,-0.285459667,-0.030540718,0.273393452,-0.086258106,0.492928863,-3.139251709
0.245001212,0.478223503,0.091780454,-0.875504017,0.004882155,0.002202695,0.007269632,-0.285422146,-0.030531416,0.273363233,-0.086246222,0.492954582,-3.139234781
0.250003725,0.47956875,0.09197817,-0.876981437,0.003452246,0.002481158,0.007997689,-0.285393268,-0.030524256,0.273339957,-0.086239547,0.492974341,-3.139222383
0.255001098,0.47946009,0.090616331,-0.875341773,0.004243121,0.002804545,0.007352439,-0.285579354,-0.030760391,0.274607867,-0.086222634,0.493002117,-3.139225721
0.259999245,0.47819832,0.090221442,-0.875240982,0.002979595,0.00199912,0.00897949,-0.285722524,-0.030942081,0.275583446,-0.086205289,0.493018687,-3.139214516
0.264998406,0.476904899,0.089259245,-0.875034273,0.005236951,0.004213457,0.009301918,-0.285769999,-0.031002324,0.27590695,-0.086179346,0.493050754,-3.139208794
0.26999858,0.478238046,0.088979378,-0.875394046,0.004924766,0.002807635,0.006962813,-0.285806537,-0.031048678,0.276155859,-0.086164229,0.493072152,-3.139212132
0.274999797,0.476725787,0.090370283,-0.8745538,0.003744165,0.003680344,0.008059504,-0.28559646,-0.030985681,0.275812775,-0.086158924,0.493097514,-3.139212847
0.280001789,0.475604415,0.089492977,-0.875139058,0.004848934,0.003147312,0.00794331,-0.285210103,-0.030857967,0.27511844,-0.08613883,0.493120939,-3.139211893
0.284999162,0.476314157,0.090164363,-0.875500143,0.00252024,0.002725958,0.008915143,-0.285082012,-0.03081562,0.274888217,-0.086127222,0.493142128,-3.139201164
0.290003449,0.47864902,0.090330943,-0.877284527,0.003736887,0.002901891,0.007412955,-0.284983456,-0.030783035,0.274711072,-0.086114362,0.493171304,-3.139190197
0.295002878,0.477057964,0.091391645,-0.875038862,0.005735076,0.005192735,0.008204037,-0.284950763,-0.030772232,0.274652302,-0.08610148,0.493209273,-3.139175892
0.300002813,0.478229076,0.092584252,-0.87585628,0.00288884,0.003155743,0.008627731,-0.285122395,-0.030818632,0.275595307,-0.086095326,0.493238211,-3.139162302
0.30500403,0.478568912,0.09206257,-0.87591809,0.004045742,0.003957572,0.008117791,-0.285179317,-0.030834017,0.275907993,-0.086076774,0.493264586,-3.139135361
0.310006261,0.478854388,0.091276467,-0.875401616,0.003490951,0.002477597,0.008930442,-0.285223126,-0.030845856,0.276148587,-0.086068571,0.493295699,-3.139120817
0.315003633,0.47813949,0.092529863,-0.87533021,0.003133946,0.003527754,0.008774231,-0.28523764,-0.030849783,0.276228368,-0.08606039,0.493324876,-3.139101267
0.320001781,0.478527963,0.092147589,-0.875459135,0.004531286,0.002113801,0.008860112,-0.28534618,-0.030755635,0.275603086,-0.086052567,0.493344307,-3.139081001
0.32500121,0.480564058,0.092998937,-0.876914203,0.003859578,0.003599354,0.008551153,-0.285406262,-0.030700374,0.275225848,-0.086042307,0.493377477,-3.139066458
0.330001146,0.478638917,0.089597493,-0.875060081,0.004560378,0.002595676,0.00918099,-0.285452485,-0.030657856,0.274935573,-0.086019397,0.493405104,-3.139053345
0.335002363,0.47689563,0.09173438,-0.874528706,0.004314954,0.00385263,0.008136776,-0.285467803,-0.030643757,0.274839312,-0.086011983,0.49343431,-3.139033794
0.340004593,0.477300555,0.091321364,-0.874437332,0.003434203,0.004259638,0.008325685,-0.285285324,-0.030663585,0.274972051,-0.085996017,0.493460596,-3.139017344
0.345001996,0.476620942,0.091403641,-0.873983383,0.004944158,0.004195488,0.008864687,-0.285028905,-0.030701095,0.275224596,-0.085983269,0.493490785,-3.138995647
0.35000065,0.476735055,0.090357579,-0.873622298,0.004215808,0.002758563,0.008071418,-0.284831613,-0.030729955,0.275418878,-0.085964993,0.493515849,-3.138987303
0.354999542,0.479597449,0.091286346,-0.873069346,0.0059392,0.004584237,0.008810308,-0.284766167,-0.030739523,0.27548331,-0.085949712,0.493557602,-3.138970613
0.359999746,0.479137987,0.090600662,-0.874638438,0.004671904,0.003934755,0.007083081,-0.284715831,-0.030746887,0.275532901,-0.085935332,0.493581206,-3.138969898
0.365000695,0.477224112,0.090918384,-0.876335323,0.00482063,0.004398911,0.007670865,-0.285283238,-0.030747637,0.274503022,-0.085921027,0.493612438,-3.138960123
0.370003462,0.476680785,0.091910422,-0.875635326,0.005057763,0.003934352,0.007621054,-0.285719842,-0.030748216,0.273710608,-0.085910074,0.49363935,-3.138957977
0.375001341,0.477917045,0.092574909,-0.874880493,0.005579738,0.003994825,0.009499527,-0.285864592,-0.030748406,0.273447841,-0.085886121,0.493672341,-3.138933659
0.379999489,0.477660328,0.090649799,-0.874260128,0.006589073,0.004610095,0.009632339,-0.285975993,-0.030748555,0.273245692,-0.085858546,0.493698537,-3.138925791
0.384998411,0.478267759,0.089586712,-0.875157118,0.006073688,0.002959006,0.010532821,-0.285821587,-0.030632082,0.273714155,-0.085827552,0.493723512,-3.138904095
0.389998585,0.478227139,0.090747982,-0.875879586,0.005869732,0.004505778,0.008863024,-0.285509288,-0.030424641,0.274616092,-0.085805357,0.493761778,-3.138882637
0.394999802,0.479166895,0.089567699,-0.875061929,0.005823427,0.004668355,0.009501397,-0.285405725,-0.03035586,0.274915159,-0.085777529,0.493799776,-3.138865471
0.400002062,0.478382707,0.090607494,-0.875679791,0.004121047,0.004066507,0.008916817,-0.285326034,-0.030302934,0.275145292,-0.085761271,0.493825406,-3.138845444
0.404999167,0.476430446,0.091394439,-0.874734998,0.003321116,0.004784919,0.008664478,-0.285299629,-0.030285386,0.275221586,-0.085753471,0.493856281,-3.138828993
0.409997314,0.479297668,0.091533855,-0.874526978,0.003769476,0.002543564,0.008621723,-0.28540644,-0.030343264,0.274580896,-0.085742719,0.493884951,-3.138804436
0.414996237,0.478529215,0.091632538,-0.874405444,0.004356484,0.00191267,0.007973157,-0.285441846,-0.030362455,0.274368465,-0.085739426,0.493904471,-3.138797522
0.419996679,0.478974849,0.088003755,-0.876082182,0.003241245,0.002293312,0.00742494,-0.285469085,-0.030377222,0.274204999,-0.08572115,0.493923008,-3.138792753
0.425004035,0.479601324,0.087800011,-0.872983754,0.002642658,0.002089099,0.007982054,-0.285478115,-0.030382119,0.274150789,-0.085711725,0.49395293,-3.138792515
0.430006534,0.479601324,0.089045718,-0.874832928,0.004205876,0.001296689,0.009139718,-0.285633028,-0.03037918,0.274534911,-0.085694432,0.493968666,-3.13878274
0.435003906,0.479721814,0.089021638,-0.873731613,0.004185065,0.002266533,0.008534516,-0.285720974,-0.030376546,0.274767667,-0.085680142,0.49399668,-3.138772964
0.440001786,0.477261722,0.087622926,-0.876431048,0.004639397,0.001150374,0.009062972,-0.285788655,-0.03037452,0.274946749,-0.085653089,0.494008362,-3.138765812
0.445000947,0.479601949,0.08845751,-0.875412822,0.00438132,0.001040707,0.007433335,-0.285811096,-0.030373847,0.275006115,-0.085647039,0.494016856,-3.138761044
0.450001419,0.477943838,0.087509677,-0.875922978,0.001747706,-0.000240646,0.007366935,-0.285664529,-0.030229634,0.275347263,-0.085640714,0.494032323,-3.138764858
0.455002636,0.47837159,0.0883459,-0.874635816,0.003608151,-8.25E-05,0.006644085,-0.285450727,-0.03003691,0.275758356,-0.085627615,0.494042128,-3.138747931
0.460004866,0.477511048,0.090055451,-0.875137269,0.004145151,0.000801557,0.006405278,-0.285286218,-0.029888621,0.276074678,-0.085615106,0.494054139,-3.13873601
0.465002239,0.47729364,0.089327455,-0.875352919,0.002322973,0.003317511,0.006383436,-0.28523168,-0.02983945,0.276179582,-0.085613549,0.494076073,-3.138721704
0.470000118,0.478123456,0.091692448,-0.874843895,0.002411793,0.002346955,0.008472172,-0.285189688,-0.029801618,0.276260257,-0.08560624,0.494098902,-3.138693571
0.474999309,0.477623254,0.090182737,-0.874917626,0.002465999,0.002770683,0.007734935,-0.284973741,-0.030055935,0.275281399,-0.085602842,0.494124502,-3.138686895
0.479999483,0.476744533,0.090958975,-0.874601603,0.002837504,0.003340178,0.007107656,-0.284807593,-0.030251613,0.274528205,-0.085600376,0.494143099,-3.138682604
0.4850007,0.477394104,0.091692805,-0.874365628,0.003132782,0.00287165,0.008408234,-0.284752488,-0.030316494,0.274278462,-0.085594453,0.494165689,-3.138663769
0.49000293,0.478365213,0.091757059,-0.873767495,0.0039251,0.003929476,0.006400465,-0.284710109,-0.030366417,0.274086326,-0.085589245,0.494199753,-3.138657808
0.495000333,0.478868455,0.091007821,-0.874707222,0.003688188,0.002327116,0.006252761,-0.284890831,-0.030323183,0.273845553,-0.085580707,0.494224489,-3.138651133
0.499998212,0.477601796,0.090098336,-0.874383509,0.004090897,0.002404457,0.006453863,-0.285226822,-0.030229464,0.27348122,-0.08557456,0.49424544,-3.138647079
0.504997611,0.478837252,0.089179263,-0.874866486,0.002302319,0.000401785,0.006872923,-0.285338253,-0.03019839,0.273360401,-0.085573234,0.494259477,-3.138648272
0.509997845,0.479351938,0.088038601,-0.874975264,0.003429761,0.003138601,0.006874439,-0.285423964,-0.030174479,0.273267448,-0.085558146,0.49428156,-3.138651848
0.514999032,0.479918361,0.088092573,-0.873596013,0.004954317,0.00061207,0.007571075,-0.285452396,-0.030166551,0.273236632,-0.085537493,0.494297355,-3.138650179
0.520000994,0.479196936,0.089109354,-0.874293208,0.003550997,0.000839689,0.005640597,-0.285665452,-0.030362317,0.27286759,-0.08553268,0.494312972,-3.138655424
0.524998128,0.481357962,0.090303123,-0.875281811,0.00433957,0.000945533,0.005733922,-0.285736114,-0.030427229,0.272745222,-0.085529841,0.494333059,-3.138665199
0.529996276,0.479264259,0.091099024,-0.87608397,0.003349636,0.000357641,0.008904003,-0.285790473,-0.030477174,0.272651076,-0.085518874,0.494335234,-3.138646126
0.534995198,0.479488045,0.090190999,-0.874395728,0.002598083,0.001321745,0.006397549,-0.285808504,-0.030493734,0.272619843,-0.085516118,0.49436304,-3.138653755
0.539995372,0.480824858,0.092215076,-0.87470299,0.005477722,0.000976356,0.007140135,-0.285873652,-0.03054616,0.273707777,-0.085495874,0.494374901,-3.138632298
0.544996381,0.479846239,0.090422489,-0.875409245,0.003666562,0.001536359,0.008525871,-0.285907924,-0.030573362,0.274343669,-0.085484371,0.494387895,-3.138626337
0.549998581,0.479172319,0.089858718,-0.874903321,0.006535496,0.000911261,0.00751265,-0.285934299,-0.030594291,0.274832934,-0.085459389,0.49440667,-3.138622999
0.554995954,0.478390604,0.090388976,-0.875326812,0.004189835,0.000919049,0.007812262,-0.285943061,-0.030601231,0.274995148,-0.085448489,0.494420916,-3.138612747
0.560000241,0.478235483,0.088912681,-0.875476778,0.002935248,0.00217241,0.007249806,-0.285863817,-0.030671893,0.274458379,-0.085442364,0.494433641,-3.138621807
0.564999402,0.47903803,0.090808615,-0.875134051,0.004600948,0.001154075,0.006947321,-0.285750836,-0.030761195,0.273613274,-0.085432604,0.494446903,-3.138618946
0.569999635,0.47884801,0.090389922,-0.873969257,0.00389241,0.001867776,0.006885225,-0.285663903,-0.030829906,0.272963047,-0.085421436,0.494469106,-3.138622284
0.575000823,0.478760123,0.088979565,-0.874144554,0.004686296,-0.000849256,0.007064686,-0.285635084,-0.03085269,0.272747427,-0.085411184,0.494469851,-3.138636351
0.580003083,0.480406582,0.088537335,-0.874566197,0.003999688,0.000682092,0.006044666,-0.285612911,-0.030870222,0.272581518,-0.085395142,0.494486749,-3.138650179
0.585000455,0.481074333,0.089780241,-0.873009384,0.003456503,-0.000348096,0.007605121,-0.285510302,-0.030724142,0.272681564,-0.08538764,0.49450177,-3.138641596
0.589998841,0.479432285,0.089777403,-0.873076379,0.002282261,0.000888084,0.006497573,-0.285431355,-0.030611744,0.272758543,-0.085384265,0.49450922,-3.138643503
0.594998002,0.477150232,0.089055814,-0.875183284,0.003548639,0.000551941,0.006309823,-0.285405159,-0.030574474,0.272784054,-0.085371561,0.494517505,-3.13865447
0.599997938,0.476727128,0.089436792,-0.874633133,0.003897687,0.000185278,0.007652147,-0.285385013,-0.030545797,0.272803694,-0.085360676,0.494526803,-3.138650179
0.604999185,0.47871542,0.090499684,-0.875172079,0.00282487,-0.0006695,0.00641443,-0.285406917,-0.030588208,0.273381919,-0.085358441,0.494538426,-3.138645649
0.610001147,0.478685677,0.089479528,-0.875105202,0.00434706,0.000240074,0.007603666,-0.285452634,-0.030673338,0.274404943,-0.085336387,0.494549602,-3.138641119
0.614998519,0.478449762,0.089059226,-0.875418246,0.004618142,-0.000763833,0.007080715,-0.285467803,-0.030701565,0.274744123,-0.085319713,0.494554728,-3.138641596
0.619996428,0.4778153,0.088063665,-0.874864161,0.00259284,0.001056007,0.007973738,-0.285479456,-0.030723283,0.275005132,-0.085314751,0.49456808,-3.138646841
0.624995589,0.478023767,0.088887587,-0.874224782,0.00253978,-0.000428099,0.007981777,-0.28548333,-0.030730486,0.275091678,-0.08529444,0.494575411,-3.138638735
0.629996061,0.47929731,0.091340944,-0.874016643,0.002868334,0.002835831,0.007604957,-0.285620511,-0.030204628,0.273960263,-0.085296169,0.494596899,-3.138616323
0.634997785,0.480136961,0.090231284,-0.874945045,0.003667256,0.00140915,0.008199236,-0.285666019,-0.030030262,0.273585081,-0.085287422,0.494618416,-3.138602495
0.639999986,0.482314736,0.087950252,-0.874145627,0.003339402,0.001853711,0.006619241,-0.285701036,-0.029896101,0.273296416,-0.085277691,0.494640231,-3.138602734
0.644997358,0.482282788,0.086659238,-0.875729263,0.001991404,0.000394621,0.008073634,-0.28571263,-0.029851615,0.273200721,-0.085264824,0.494653881,-3.138597727
0.649995506,0.480656743,0.08670456,-0.874674439,0.002527791,0.00010442,0.006061965,-0.285575449,-0.02996338,0.274130642,-0.085262887,0.494670302,-3.138606787
0.654994667,0.47870028,0.088286825,-0.875977635,0.002288544,-0.001444667,0.006504972,-0.285493791,-0.030036563,0.27468732,-0.085262865,0.494666159,-3.138613462
0.6599949,0.479407668,0.090006791,-0.874587715,0.00105697,0.000400842,0.00692155,-0.285430998,-0.030092875,0.275115639,-0.0852625,0.494680405,-3.138602018
0.664996088,0.479930431,0.089453347,-0.873920739,0.000862619,0.000309302,0.005645826,-0.285410166,-0.030111546,0.275257647,-0.085266367,0.494697064,-3.138597488
0.669998348,0.480651647,0.088653646,-0.874040246,0.002059662,0.000334228,0.007554672,-0.285362601,-0.030276392,0.274737418,-0.085260354,0.494710803,-3.138592482
0.674995482,0.479471922,0.088921271,-0.87541908,0.004463987,0.002226055,0.007561503,-0.285315007,-0.030482797,0.273930073,-0.085252829,0.494730562,-3.138598204
0.679993331,0.479308158,0.091015823,-0.874924123,0.003580991,0.000879588,0.008395908,-0.28527841,-0.03064161,0.273308873,-0.08524137,0.494740397,-3.138585806
0.684992492,0.478682846,0.090232924,-0.874891818,0.002562511,0.000893771,0.007440872,-0.28526628,-0.030694271,0.273102909,-0.085239604,0.49476099,-3.138586283
0.689992726,0.479663193,0.091310635,-0.875057757,0.005246393,0.002197856,0.008303845,-0.285256922,-0.030734789,0.27294445,-0.085219309,0.494782269,-3.138575315
0.694999814,0.479332328,0.091482408,-0.875015974,0.003681289,0.001536586,0.008313257,-0.285702586,-0.030372657,0.274165511,-0.085209846,0.494798481,-3.138546944
0.700002313,0.47869724,0.090875626,-0.875815034,0.005371915,0.001829065,0.007712048,-0.286045492,-0.03009402,0.275105029,-0.085196003,0.494816661,-3.138527155
0.704999685,0.48159194,0.091059089,-0.874304473,0.00408905,0.00114835,0.008736402,-0.286159217,-0.030001629,0.275416553,-0.085178092,0.494836003,-3.138493299
0.709997833,0.480968088,0.08878684,-0.873055935,0.004242303,0.002979916,0.008751847,-0.286246717,-0.029930541,0.275656253,-0.085159793,0.494863838,-3.138483524
0.714997232,0.480986089,0.088782378,-0.873924553,0.003417179,0.000420405,0.007637912,-0.286162078,-0.030000022,0.275254101,-0.085149549,0.494879067,-3.138473988
0.719997466,0.480918378,0.088601068,-0.874971509,0.002443074,0.000999054,0.005968734,-0.285982013,-0.030147569,0.274457693,-0.085149817,0.494901955,-3.138477564
0.724998653,0.479493409,0.08893948,-0.875729024,0.003025737,0.002129561,0.007694419,-0.285922289,-0.030196493,0.274193615,-0.085137405,0.494919002,-3.138473272
0.730001152,0.480181187,0.090002596,-0.874353707,0.00197872,-0.000159263,0.005614986,-0.285876334,-0.030234138,0.273990422,-0.085143127,0.494921029,-3.138470888
0.734998524,0.479941547,0.089893252,-0.873958409,0.003075281,-0.000478652,0.007153912,-0.285861105,-0.030246619,0.273923039,-0.085139863,0.494932115,-3.138467073
0.73999691,0.480825722,0.088758968,-0.875984609,0.002704589,0.001441496,0.006002455,-0.286043197,-0.030256301,0.273453355,-0.085143097,0.494953841,-3.13847661
0.744996071,0.480401725,0.089536473,-0.874915898,0.000512354,-0.000986732,0.005632543,-0.286103576,-0.030259512,0.273297608,-0.085149698,0.494958401,-3.138479471
0.749996305,0.480769098,0.089370929,-0.874456525,0.00105737,-0.000141949,0.005353666,-0.286150038,-0.030261982,0.273177743,-0.085152581,0.494964361,-3.138487101
0.754997492,0.47930795,0.090459839,-0.873841941,0.000995836,0.000479019,0.006629433,-0.286165446,-0.030262802,0.273138016,-0.085155465,0.494980842,-3.138479233
0.759999752,0.479838639,0.090888515,-0.874350607,0.000876451,-2.41E-05,0.006335487,-0.286032408,-0.030114902,0.272997171,-0.085160092,0.494987071,-3.138464928
0.764997125,0.479837507,0.091347195,-0.872747183,0.003940275,0.000897002,0.006749995,-0.285952449,-0.030029107,0.272923172,-0.085145302,0.494999349,-3.138449669
0.769995272,0.480758071,0.089603133,-0.874234796,0.003118653,0.000173929,0.006623872,-0.285890907,-0.029963093,0.272866249,-0.085149512,0.495012939,-3.138455391
0.774994433,0.479668081,0.089209802,-0.875620723,0.002857856,-0.000690647,0.007263606,-0.285870492,-0.029941205,0.272847384,-0.085141174,0.495020866,-3.138448238
0.779994607,0.480888993,0.090932183,-0.874554515,0.004094234,0.001750168,0.008111855,-0.285661757,-0.029950922,0.273490101,-0.085133567,0.495044321,-3.138427258
0.784995854,0.479969889,0.090558022,-0.87465024,0.002553956,0.000436508,0.006191028,-0.285397887,-0.029980928,0.274365932,-0.085133001,0.495059192,-3.138416767
0.789997816,0.480216384,0.089720011,-0.87384814,0.003593495,0.001112702,0.008317129,-0.285194844,-0.030004015,0.275039822,-0.085125372,0.495077342,-3.138403416
0.794995189,0.481712282,0.088659361,-0.874060631,0.00432853,0.001691867,0.007546127,-0.285127521,-0.030011671,0.27526328,-0.085112251,0.495099932,-3.138392925
0.799993336,0.479706496,0.088760771,-0.874493599,0.004866829,-0.000352739,0.007435888,-0.285075724,-0.030017558,0.275435209,-0.085096456,0.49510929,-3.138390064
0.804992497,0.479198754,0.088251382,-0.874813437,0.00341805,0.000239378,0.0062078,-0.285353333,-0.029912759,0.275443822,-0.085089095,0.495122313,-3.138391733
0.809993446,0.480545968,0.090719774,-0.875477612,0.002967809,0.000621188,0.006499202,-0.285566956,-0.029832125,0.275450468,-0.085092835,0.495133162,-3.138371229
0.814994931,0.478641421,0.090249382,-0.876546025,0.003197655,0.000972322,0.006726033,-0.285637796,-0.029805386,0.275452673,-0.085083582,0.495149076,-3.138360262
0.819997191,0.480414778,0.089830726,-0.875884593,0.002355014,0.000491623,0.006593005,-0.285692304,-0.029784814,0.275454372,-0.085081682,0.495159417,-3.138349295
0.824994564,0.480080277,0.090257324,-0.874776959,0.003908392,0.001324647,0.00619683,-0.285817951,-0.029870035,0.274617255,-0.085074924,0.495180607,-3.138345003
0.829999387,0.480576068,0.089640036,-0.872923911,0.005673526,0.000588645,0.007628475,-0.286023408,-0.030028678,0.273126096,-0.085057072,0.495200276,-3.138338089
0.834999323,0.480117589,0.089614108,-0.873524606,0.003929709,0.000898745,0.007845862,-0.286091536,-0.030081283,0.272631645,-0.085047595,0.495216101,-3.13833046
0.839999497,0.481260896,0.088130936,-0.874263704,0.002518694,0.00065827,0.006479187,-0.286143929,-0.030121757,0.272251189,-0.085041404,0.495236009,-3.138340712
0.845000684,0.479435027,0.087893285,-0.874319017,0.003892801,0.001301741,0.006130246,-0.286161304,-0.030135177,0.272125036,-0.085027225,0.495241761,-3.138345957
0.850002944,0.481762826,0.089047268,-0.875127792,0.004517645,-0.000393213,0.005079539,-0.286046058,-0.030207787,0.272869408,-0.085019067,0.495257735,-3.13835454
0.855000317,0.47992751,0.088130213,-0.872750521,0.003290544,0.000589648,0.007011522,-0.286007851,-0.030231863,0.273116231,-0.085010163,0.495274037,-3.138359547
0.859998465,0.480757087,0.088434741,-0.874006927,0.005146519,-0.001606073,0.006599174,-0.285978436,-0.030250387,0.273306131,-0.084997132,0.495278776,-3.138358355
0.864997625,0.483789593,0.087776788,-0.876251221,0.004147761,-0.001189952,0.004818316,-0.285968691,-0.03025653,0.273369104,-0.084993385,0.495284408,-3.13837862
0.869997799,0.486490071,0.086934179,-0.873537481,0.004496707,-0.002150715,0.007261948,-0.285619199,-0.030218072,0.273304671,-0.084975772,0.495301753,-3.138389826
0.874998808,0.482247263,0.090387784,-0.873479962,0.003081263,-0.004177783,0.007820656,-0.285418689,-0.030194633,0.273255378,-0.084968694,0.495293885,-3.138360977
0.880001307,0.471799076,0.092780001,-0.874523997,0.003184768,-0.00323652,0.00668282,-0.285264403,-0.030176597,0.27321744,-0.084977277,0.495274037,-3.138340712
0.884998679,0.474021167,0.091487147,-0.876058221,0.005021965,-0.002034143,0.003646176,-0.285213232,-0.030170618,0.273204863,-0.084979758,0.495262295,-3.138347149
0.889996827,0.47925508,0.089794144,-0.875190318,0.004516431,0.000420586,0.006221087,-0.285314143,-0.030048808,0.273106486,-0.084966019,0.495275825,-3.138347387
0.894995987,0.479786158,0.091049865,-0.873158514,0.003009633,-0.000438673,0.006326518,-0.285489023,-0.029890226,0.272984415,-0.084967755,0.495283663,-3.13832593
0.899996161,0.480571717,0.089270696,-0.874042928,0.002628058,0.001690865,0.004413036,-0.28562358,-0.02976821,0.272890478,-0.084976569,0.49529922,-3.138329983
0.904997647,0.480695248,0.086960129,-0.874842227,0.001119982,0.001728377,0.007635885,-0.285668194,-0.029727751,0.272859365,-0.084967397,0.495320082,-3.13833046
0.909994245,0.479044557,0.089929596,-0.875205338,0.0014591,0.001935529,0.007953481,-0.285702527,-0.029696621,0.272835404,-0.0849635,0.495334744,-3.138309002
0.914991379,0.479411751,0.089333527,-0.8746261,0.001569891,0.002699106,0.006098867,-0.285616308,-0.029881155,0.273938268,-0.084973224,0.495357633,-3.138310671
0.919989228,0.480557233,0.086882479,-0.874540746,0.001239438,0.001926206,0.006388448,-0.285549968,-0.030023141,0.27478686,-0.084974699,0.495379329,-3.138329029
0.924988389,0.481794894,0.086771041,-0.874340773,0.00195031,0.00271847,0.006452043,-0.285527974,-0.030070219,0.275068253,-0.084976621,0.495409906,-3.138335466
0.9299891,0.482003719,0.087367587,-0.873765349,8.07E-05,0.001611882,0.004933572,-0.285511076,-0.030106444,0.275284737,-0.084988706,0.495432734,-3.138346672
0.934990585,0.480993062,0.089705803,-0.873692632,0.001919815,0.002763303,0.004861972,-0.285700977,-0.030028734,0.275299251,-0.084992431,0.495456964,-3.138342857
0.939986944,0.481272459,0.089335404,-0.874086976,0.001502612,0.001929768,0.004529805,-0.286044776,-0.029878221,0.275252491,-0.084996812,0.495477527,-3.138343096
0.944984078,0.481234193,0.090344563,-0.875265121,0.002681602,0.001800343,0.006648359,-0.28615877,-0.029828314,0.275236994,-0.085003331,0.495499313,-3.138328075
0.949982226,0.480493456,0.087833926,-0.874536216,0.001782943,0.00262909,0.00433876,-0.286246479,-0.029789915,0.275225073,-0.08501213,0.495520979,-3.138344526
0.954981625,0.479537368,0.087816834,-0.874317765,0.001727543,0.001865094,0.006145596,-0.286275566,-0.029777182,0.275221109,-0.08501035,0.495538473,-3.138348103
0.959981799,0.481011569,0.089185998,-0.873317003,0.002562333,0.001634504,0.006683418,-0.28636086,-0.029901719,0.275150537,-0.085005112,0.495555609,-3.138344288
0.964989185,0.480503947,0.091054969,-0.8745628,0.001572461,0.000577026,0.005534423,-0.286389142,-0.029943012,0.275127143,-0.085016459,0.495563358,-3.138330221
0.969991446,0.483586639,0.089847051,-0.873867035,0.001087445,-0.001364364,0.006671721,-0.286410898,-0.029974785,0.275109112,-0.085014977,0.495573819,-3.138326406
0.974989057,0.480312407,0.089965791,-0.873425126,0.001447788,-0.00042321,0.004854828,-0.28641811,-0.02998532,0.275103122,-0.085026063,0.495585471,-3.138330698
0.979987442,0.479060769,0.091196805,-0.873672366,0.001328761,-0.001240979,0.006660342,-0.286225647,-0.030004945,0.274248719,-0.085029967,0.495583594,-3.138314486
0.984986603,0.479721338,0.090652362,-0.873248696,0.001050057,-0.001527848,0.006207797,-0.286112815,-0.030014303,0.273755133,-0.085036963,0.495589346,-3.138308287
0.989986837,0.479016662,0.089235537,-0.873726666,0.002330049,0.000633195,0.006887447,-0.286026001,-0.030021504,0.273375362,-0.085037343,0.495606363,-3.138298273
0.994988263,0.479044706,0.090399213,-0.875694335,0.002092041,-0.001186973,0.0056717,-0.285997212,-0.030023891,0.273249447,-0.085041143,0.495611668,-3.138300419
0.999984622,0.478119254,0.090122566,-0.874129951,0.001824919,0.000793239,0.007608126,-0.286059588,-0.02993761,0.273153216,-0.085043371,0.495623291,-3.138291597
1.004982233,0.479958296,0.090412162,-0.873734951,0.003454899,2.61E-05,0.007835528,-0.286165535,-0.029820142,0.273121953,-0.085037105,0.495633602,-3.138270617
1.009980679,0.480032325,0.089610487,-0.873189867,0.001457925,0.000614745,0.007603315,-0.286247075,-0.029729757,0.273097873,-0.085028499,0.495650232,-3.138249874
1.014979601,0.47999993,0.089880578,-0.873898864,0.003095599,0.001325128,0.00662577,-0.286274105,-0.029699787,0.273089886,-0.085018277,0.495666981,-3.138240099
1.019979835,0.480995119,0.08933726,-0.874913394,0.003545804,0.002634846,0.006244342,-0.286294907,-0.029676728,0.273083746,-0.085011996,0.495688349,-3.13823843
1.02498126,0.482994854,0.09013959,-0.874833882,0.002040515,0.001612983,0.007782799,-0.286248595,-0.029926337,0.272819191,-0.085015021,0.495709509,-3.138226748
1.029978156,0.482073843,0.089432292,-0.873117208,0.001928713,0.000845709,0.00618752,-0.286212951,-0.030118393,0.272615641,-0.08500959,0.495736361,-3.138227701
1.03497529,0.4809044,0.089517444,-0.874574542,0.003515961,0.001693671,0.007621772,-0.286201149,-0.030182075,0.272548139,-0.085007399,0.495751649,-3.138225794
1.039973378,0.48249647,0.089975938,-0.875377953,0.004070167,0.001891959,0.00678368,-0.28619206,-0.030231075,0.272496194,-0.084995955,0.495777249,-3.138218403
1.044972539,0.480224907,0.088197932,-0.875684321,0.00288862,0.001937125,0.006707828,-0.286243677,-0.030331932,0.272571087,-0.084993549,0.495795041,-3.138235092
1.049973249,0.479315937,0.090592273,-0.875899792,0.002962592,0.001535878,0.008407391,-0.286338598,-0.030495087,0.272721857,-0.084994249,0.49581036,-3.138226748
1.054974437,0.4792656,0.090914793,-0.873684943,0.001262693,0.002904415,0.006858981,-0.286370069,-0.030549187,0.272771835,-0.084998332,0.495839924,-3.13822484
1.059971094,0.47928676,0.088935576,-0.873139501,0.001254451,0.005208757,0.0060471,-0.286394268,-0.030590812,0.27281031,-0.084999137,0.495868206,-3.138239145
1.064968228,0.479168445,0.090811528,-0.873970509,0.000188619,0.00533494,0.00673162,-0.286402285,-0.030604614,0.272823066,-0.085011669,0.495906353,-3.138235092
1.069966316,0.479688615,0.089828134,-0.874686241,0.001921762,0.006078693,0.006660491,-0.286672413,-0.030275395,0.272553086,-0.085006848,0.495946288,-3.138224363
1.074965477,0.479590595,0.089246958,-0.87488395,0.001606118,0.006333757,0.008750774,-0.286761999,-0.030166233,0.27246356,-0.085006259,0.495989621,-3.138218403
1.079965949,0.479492635,0.090557046,-0.875235617,0.004051766,0.006576757,0.00867144,-0.286830902,-0.030082241,0.272394687,-0.084996417,0.496034056,-3.138199806
1.084967136,0.481464326,0.08948151,-0.873670936,0.002103386,0.007722995,0.008056676,-0.286853731,-0.03005439,0.272371858,-0.084988751,0.496085674,-3.138197422
1.089963794,0.48127082,0.089946114,-0.873515487,0.001619222,0.008560938,0.010529786,-0.286381304,-0.030142048,0.272557527,-0.084989227,0.496145904,-3.138182163
1.094960928,0.480011255,0.092924282,-0.873871267,0.002546627,0.010693304,0.008454165,-0.286103398,-0.030198108,0.272669375,-0.084989905,0.496211618,-3.138152361
1.099964976,0.481167793,0.092457339,-0.873783231,0.002876834,0.01174328,0.008011963,-0.285889596,-0.030241242,0.272755444,-0.084992521,0.496279746,-3.138138056
1.104964375,0.480807453,0.088859424,-0.875039816,0.00034478,0.012630503,0.008286318,-0.285818696,-0.030255545,0.272783995,-0.084995262,0.496354938,-3.13814497
1.109964252,0.48026526,0.089223184,-0.875760138,0.001045343,0.011857202,0.008041499,-0.285931468,-0.030206202,0.272748441,-0.084997736,0.496418893,-3.138137341
1.114965558,0.479150504,0.090079121,-0.873612106,0.000973678,0.013293982,0.007628985,-0.286137551,-0.030128986,0.272678673,-0.085010089,0.496494681,-3.138134241
1.119961619,0.478340834,0.091648355,-0.872095942,0.000492257,0.014681269,0.008771527,-0.286296159,-0.030069573,0.272624969,-0.085021138,0.496580184,-3.138113022
1.12495923,0.478277028,0.091478296,-0.87241739,0.000728435,0.013734751,0.008898754,-0.28634873,-0.030049874,0.272607177,-0.085036986,0.496650577,-3.138094902
1.129957318,0.481007129,0.088952094,-0.876123011,0.001290128,0.014046207,0.010192753,-0.286389202,-0.030034715,0.272593498,-0.085031129,0.496733785,-3.138086557
1.134956598,0.482147187,0.089675255,-0.874803364,0.00336757,0.015138475,0.009586299,-0.286064237,-0.029926058,0.273533076,-0.085014999,0.49682188,-3.138068199
1.139956474,0.484218359,0.091154009,-0.872651994,0.001954357,0.015276821,0.01011169,-0.285814226,-0.029842453,0.274256021,-0.085018866,0.496918261,-3.13803792
1.144958258,0.481814206,0.092258647,-0.872863948,0.001930292,0.013757628,0.010596589,-0.285731316,-0.029814731,0.274495751,-0.0850145,0.497001946,-3.138004303
1.149954796,0.481885731,0.088906787,-0.872462571,0.001968345,0.01381789,0.01024752,-0.285667509,-0.0297934,0.274680167,-0.085009389,0.497084737,-3.137994051
1.154952168,0.482004136,0.088345997,-0.874253511,0.003876498,0.014193067,0.008917653,-0.285812914,-0.029728452,0.274413556,-0.084993526,0.497172385,-3.137983322
1.159950376,0.482196122,0.089764595,-0.874245524,0.001466561,0.01222151,0.008820974,-0.286093235,-0.029619955,0.273876995,-0.084992699,0.497246385,-3.137964487
1.164949775,0.480537534,0.089836083,-0.874484003,0.000626772,0.012392486,0.009160611,-0.286186188,-0.029583979,0.273699105,-0.084996186,0.497314066,-3.137946844
1.169950247,0.482046753,0.091093905,-0.875064731,0.002427694,0.011791022,0.008998482,-0.286257714,-0.029556299,0.273562223,-0.084996164,0.497384727,-3.137916565
1.174951673,0.483536273,0.09043929,-0.873223186,0.002463279,0.011568313,0.010236474,-0.286281437,-0.029547121,0.273516834,-0.084983334,0.497459948,-3.137892485
1.179948092,0.484309107,0.088949598,-0.872089028,0.003536688,0.011582883,0.00945481,-0.286303312,-0.029399328,0.274112821,-0.084969744,0.497530043,-3.137868166
1.184945464,0.484195739,0.088184081,-0.87306881,0.004540924,0.010339214,0.010119753,-0.286310554,-0.029350322,0.27431044,-0.084946923,0.497594029,-3.137843847
1.18994379,0.485382944,0.086312063,-0.871254146,0.003815075,0.009130981,0.010508132,-0.286316127,-0.029312616,0.274462491,-0.084918767,0.497660577,-3.137829065
1.194943547,0.485545218,0.086259112,-0.871835828,0.003698491,0.007814128,0.009947225,-0.286317974,-0.029300114,0.274512917,-0.084897012,0.497713089,-3.137814045
1.199943662,0.486436844,0.087201968,-0.87086153,0.005246758,0.005717716,0.008415763,-0.286309958,-0.029757649,0.273446321,-0.084871098,0.497755706,-3.137815714
1.204944849,0.484800637,0.086299859,-0.870552719,0.004638229,0.003394157,0.0066088,-0.286304951,-0.030024957,0.272819132,-0.084858142,0.497784734,-3.137835264
1.209941268,0.485969156,0.086836606,-0.870225847,0.005002356,0.002153177,0.006678604,-0.286301106,-0.030230632,0.272336543,-0.084842831,0.497819126,-3.137849569
1.214938402,0.485727996,0.085722812,-0.872228086,0.003331109,-0.000358056,0.007383275,-0.286299825,-0.030298831,0.272176534,-0.084828831,0.497827351,-3.13786602
1.219936967,0.484759241,0.085371777,-0.872489452,0.002528158,-0.002210114,0.006447853,-0.286329001,-0.03028788,0.272623837,-0.08481919,0.497827291,-3.137890816
1.224936247,0.483846486,0.087865308,-0.871470749,0.003951658,-0.003906011,0.006386514,-0.286369115,-0.030220293,0.273347378,-0.084810041,0.497819334,-3.137890816
1.229936361,0.483412564,0.088844471,-0.871952593,0.003912773,-0.004567025,0.005401647,-0.286399961,-0.030168287,0.273904085,-0.084808014,0.497813076,-3.1378901
1.234943748,0.483532161,0.088416934,-0.873116314,0.003955272,-0.006060216,0.00661974,-0.286410183,-0.030151045,0.274088681,-0.084795274,0.497789651,-3.137889385
1.239946485,0.484587789,0.09004344,-0.872161567,0.004523922,-0.006607132,0.005785584,-0.28641808,-0.030137777,0.274230719,-0.084787466,0.497772396,-3.137884378
1.244944096,0.483008891,0.087474778,-0.872371137,0.00452256,-0.007822974,0.004986693,-0.286610097,-0.03029546,0.272802681,-0.084772617,0.497739792,-3.137907743
1.249942541,0.482824892,0.088235311,-0.87256217,0.003984356,-0.008064944,0.004723,-0.286757857,-0.030416787,0.271703899,-0.084766112,0.497713596,-3.137929916
1.254941702,0.482422948,0.089038529,-0.873966038,0.003265461,-0.009793451,0.004736443,-0.286806852,-0.030457016,0.271339566,-0.084761813,0.497667938,-3.137945175
1.259941936,0.483621091,0.086847618,-0.873276711,0.002753756,-0.008350159,0.004112685,-0.286844552,-0.03048797,0.271059215,-0.084757224,0.497635365,-3.137974262
1.2649436,0.481618583,0.087451115,-0.87189281,-0.001990899,-0.007508977,0.003715014,-0.286749482,-0.03040619,0.271803975,-0.084779315,0.49761197,-3.137996674
1.269940495,0.487130582,0.078030109,-0.875826061,-0.008734798,-0.002796405,0.006606784,-0.286567569,-0.030250197,0.273224026,-0.084812462,0.4976165,-3.138048172
1.274937868,0.479963899,0.07974527,-0.870898604,-0.026732869,0.004903655,0.014284483,-0.286507249,-0.030198472,0.273694903,-0.084920533,0.497656882,-3.138047218
1.279936552,0.468216956,0.094174892,-0.863035202,-0.037437588,0.017558862,0.012656133,-0.286460847,-0.030158674,0.274057209,-0.085129552,0.497741669,-3.137963772
1.284935713,0.471418798,0.094913602,-0.877888024,-0.045712933,0.017747819,0.020190675,-0.286445469,-0.030145478,0.274177343,-0.08536768,0.497849047,-3.137895823
1.289936662,0.487333447,0.095287986,-0.86986357,-0.041909851,0.014904741,0.016312974,-0.286236584,-0.03001699,0.272859246,-0.085573606,0.497943133,-3.137798309
1.294938326,0.4923338,0.079951115,-0.872015297,-0.042181224,0.012305586,0.013314353,-0.286167324,-0.029974386,0.272422194,-0.085753016,0.498041749,-3.13782692
1.299935699,0.491365045,0.076256961,-0.872852921,-0.0463976,0.00989467,0.012467217,-0.286114037,-0.029941605,0.272085905,-0.08595366,0.498115957,-3.137869596
1.304933071,0.481370658,0.090599447,-0.872493923,-0.046680655,0.007481775,0.007479814,-0.286096364,-0.029930735,0.271974385,-0.086209439,0.498151451,-3.137853861
1.309931278,0.476553947,0.097971566,-0.877889633,-0.040499114,0.007231683,0.001425531,-0.286473125,-0.029966546,0.271790922,-0.086456582,0.498176664,-3.137839556
1.314930439,0.479877532,0.101587944,-0.875911176,-0.033222444,0.005842096,0.005092184,-0.286694646,-0.029989352,0.271705896,-0.086657099,0.498208314,-3.137800217
1.319930673,0.481672347,0.101926513,-0.873582006,-0.026949899,0.005980868,0.004976732,-0.286865085,-0.0300069,0.27164048,-0.086827196,0.498250484,-3.137757301
1.324932337,0.483422756,0.097690396,-0.875957906,-0.022512002,0.003839119,0.003998408,-0.286921591,-0.030012719,0.271618813,-0.086962774,0.498280287,-3.137743473
1.329928994,0.483938277,0.090122133,-0.87624979,-0.019916326,0.004778472,0.005997279,-0.286797285,-0.030134117,0.271780401,-0.087062716,0.498317301,-3.137752295
1.334926367,0.482558429,0.09051396,-0.873929143,-0.015890535,0.003101438,0.00388159,-0.286586851,-0.030292273,0.272013724,-0.087154172,0.498340607,-3.137766361
1.339924455,0.481375396,0.093829192,-0.873881876,-0.013819772,0.002758011,0.005427602,-0.286424935,-0.030413965,0.272193253,-0.087252662,0.498360455,-3.137761593
1.344923854,0.48075068,0.096645534,-0.873743773,-0.008809503,0.00027284,0.002869173,-0.286371261,-0.030454315,0.272252768,-0.087326489,0.498364568,-3.137756109
1.349924088,0.483888298,0.094329529,-0.873682141,-0.007276727,0.000778957,0.004868477,-0.286329955,-0.030485362,0.272298574,-0.087369822,0.498387069,-3.137744904
1.354925513,0.485944957,0.09314017,-0.87470001,-0.003715894,-0.002393791,0.004875637,-0.286464214,-0.030537315,0.273004532,-0.087405674,0.498383582,-3.13774538
1.359922171,0.485027909,0.092407525,-0.87469393,-0.001492527,-0.001175132,0.006564962,-0.286567509,-0.030577287,0.273547709,-0.087420531,0.498392999,-3.137733936
1.364925146,0.484672308,0.093933292,-0.873382986,0.000148793,-0.004763343,0.007737519,-0.286601782,-0.030590542,0.273727834,-0.087430447,0.498381227,-3.137706041
1.369923592,0.482357442,0.094704196,-0.873894751,0.004405119,-0.004375093,0.008086074,-0.286628127,-0.03060074,0.273866415,-0.087418757,0.498360723,-3.137685537
1.374922752,0.48011902,0.0945483,-0.875934303,0.005937499,-0.005504817,0.006196202,-0.286717713,-0.030693134,0.273464501,-0.08740095,0.498335779,-3.137670994
1.379923463,0.480347991,0.093314715,-0.87433821,0.009505206,-0.004087186,0.008145671,-0.286868453,-0.030854231,0.272702396,-0.087354578,0.498328298,-3.137653112
1.38492465,0.481957614,0.091092505,-0.873222351,0.009812875,-0.003738595,0.008323052,-0.286918432,-0.030907646,0.272449702,-0.087303743,0.498315811,-3.137651205
1.389921308,0.481692016,0.093721643,-0.872560501,0.011239376,-0.004692092,0.007590438,-0.286956906,-0.030948747,0.272255272,-0.087261386,0.498300046,-3.137633085
1.394918442,0.482369065,0.092865333,-0.87367177,0.010026747,-0.004300355,0.007750415,-0.286969662,-0.030962376,0.272190779,-0.087212563,0.498289347,-3.137619734
1.39991653,0.481030017,0.091561928,-0.875181794,0.01307185,-0.002468035,0.007038713,-0.286658049,-0.030709889,0.272061676,-0.087162383,0.498283386,-3.137609959
1.40491569,0.482682288,0.091298491,-0.874085009,0.012249835,-0.002321396,0.007144706,-0.286554724,-0.030626168,0.27201888,-0.087105207,0.498277336,-3.137606621
1.409916639,0.482159019,0.092050336,-0.873855889,0.0146442,-0.002993786,0.00850142,-0.286475211,-0.030561753,0.271985978,-0.087039039,0.498267114,-3.13759017
1.414918184,0.483427286,0.090379983,-0.873851597,0.015756126,-0.003342842,0.006455462,-0.286448866,-0.030540394,0.27197507,-0.086966045,0.498260587,-3.137591362
1.419914722,0.484086096,0.091258354,-0.874191523,0.015350351,-0.004047447,0.005625579,-0.286673307,-0.030518744,0.272024214,-0.086896949,0.498252332,-3.137590408
1.424911857,0.483173281,0.091876455,-0.873503804,0.016421404,-0.002865299,0.005320157,-0.286808282,-0.030510275,0.272054762,-0.086829878,0.498248339,-3.137591839
1.429910302,0.482271314,0.091447227,-0.872423887,0.017745925,-0.004039021,0.004731482,-0.286912143,-0.030503757,0.272078276,-0.086761266,0.498237282,-3.137599945
1.434909463,0.48368457,0.091623053,-0.872535467,0.016357429,-0.003766309,0.004195442,-0.286946565,-0.030501597,0.272086054,-0.086693674,0.498235017,-3.137602091
1.439910412,0.482096136,0.092221111,-0.872745097,0.016870206,-0.004019848,0.004838767,-0.286919445,-0.030357102,0.272059381,-0.086623624,0.498221934,-3.137588978
1.444911838,0.481565088,0.092735089,-0.871204972,0.016686972,-0.004777445,0.005251687,-0.286856383,-0.030165162,0.272017568,-0.086550355,0.498203754,-3.137571573
1.449908257,0.481103659,0.092333846,-0.870722115,0.016656894,-0.003521088,0.006410596,-0.286807865,-0.030017477,0.271985382,-0.086477183,0.498198181,-3.137550116
1.454905629,0.481396466,0.091787003,-0.870614409,0.017616814,-0.002761577,0.006124203,-0.286791801,-0.029968506,0.271974713,-0.086396232,0.498190045,-3.13753891
1.459903717,0.479984879,0.090864047,-0.869822145,0.018806502,-0.003214736,0.008210001,-0.286779404,-0.029930826,0.271966487,-0.086304098,0.498184174,-3.137514353
1.464903116,0.481721848,0.091444939,-0.871158659,0.019931979,-0.002917038,0.010020169,-0.286677808,-0.030064346,0.272862494,-0.086209014,0.498182267,-3.137480974
1.469903827,0.48056981,0.092498213,-0.868579209,0.017407568,-0.002614972,0.007857635,-0.286599636,-0.03016708,0.273551911,-0.086139277,0.498182118,-3.13745141
1.474905372,0.483546913,0.090748928,-0.87063235,0.020367548,-0.005971124,0.009013592,-0.286573708,-0.030201146,0.273780525,-0.086041287,0.498167098,-3.137437105
1.479901671,0.483915597,0.088441789,-0.86919713,0.017576508,-0.004077599,0.008849566,-0.28655377,-0.030227356,0.273956418,-0.08595331,0.498161316,-3.137422562
1.484899044,0.483911186,0.085568592,-0.868715644,0.01552198,-0.005310677,0.007657616,-0.286573052,-0.030269286,0.273475081,-0.085873693,0.498148054,-3.137439251
1.489897251,0.481795758,0.08411856,-0.871015191,0.012960854,-0.004550274,0.008514152,-0.286614031,-0.030335156,0.272559077,-0.085804097,0.498130858,-3.137454271
1.494896889,0.480199844,0.081648916,-0.871488154,0.002729898,-0.001891001,0.00795537,-0.28662762,-0.030356998,0.272255331,-0.085784167,0.498120964,-3.137495518
1.499903202,0.476948917,0.084038578,-0.870063603,-0.011189938,0.008275074,0.011304184,-0.286638081,-0.030373804,0.272021621,-0.085838996,0.498171508,-3.13749671
1.504904747,0.482378334,0.082659133,-0.873426497,-0.026141236,0.022508226,0.016454568,-0.286641538,-0.030379377,0.271944106,-0.085952327,0.498301536,-3.137478113
1.509901285,0.485699564,0.082499802,-0.867604673,-0.038852602,0.028824199,0.020948689,-0.286711514,-0.030246172,0.272024781,-0.086113669,0.498482317,-3.137439966
1.514898658,0.47021395,0.093046717,-0.867306173,-0.047561258,0.03336766,0.020895014,-0.2867347,-0.030202003,0.272051543,-0.086348154,0.498643726,-3.137333155
1.519897103,0.47767061,0.087000817,-0.871163249,-0.051214945,0.036410015,0.020318963,-0.286752552,-0.030168019,0.272072107,-0.086576499,0.49884209,-3.137284517
1.524896502,0.46960634,0.086472727,-0.866465747,-0.059799284,0.03847491,0.021495452,-0.286758482,-0.03015675,0.272078931,-0.086847067,0.499043494,-3.137238741
1.529897213,0.487408876,0.089878462,-0.86483109,-0.066283129,0.035919927,0.018580662,-0.286858857,-0.030249678,0.27187565,-0.087167807,0.499240339,-3.13718009
1.534898996,0.486432314,0.084219627,-0.867695272,-0.072434537,0.03714487,0.015823677,-0.286915869,-0.030305631,0.271756649,-0.087525271,0.499450356,-3.137181282
1.539895535,0.48836115,0.08527378,-0.87014842,-0.073536716,0.030241696,0.013378914,-0.286959738,-0.030348681,0.271665096,-0.08788339,0.499618918,-3.137181997
1.544892669,0.489735484,0.083619431,-0.869508922,-0.071884319,0.02311823,0.008512676,-0.286974281,-0.030362956,0.271634728,-0.088235185,0.499753654,-3.137217999
1.549890757,0.492127717,0.08104834,-0.86740607,-0.074933887,0.017533507,0.004324525,-0.286904335,-0.030340679,0.272270083,-0.088618748,0.499860764,-3.137281179
1.554890037,0.484920144,0.075552985,-0.865758419,-0.088251494,0.017439678,0.003979,-0.286799371,-0.030299751,0.27314499,-0.089036129,0.499960959,-3.137363434
1.559890389,0.473314077,0.072192013,-0.863373876,-0.118858077,0.034976557,0.005461646,-0.286718607,-0.030268259,0.273818165,-0.089634687,0.500131965,-3.137461901
1.564891934,0.472929478,0.072098449,-0.862761497,-0.149157882,0.052202594,0.00765293,-0.286691844,-0.030257817,0.274041384,-0.090392716,0.500410259,-3.137558222
1.569888473,0.489384741,0.079258785,-0.865977526,-0.169460416,0.058533993,0.003539488,-0.286671221,-0.030249784,0.274213135,-0.09126696,0.500743568,-3.137644053
1.574885607,0.505135596,0.082632929,-0.871180713,-0.178006068,0.05250109,-0.005676411,-0.286610007,-0.030556602,0.273849487,-0.092208236,0.501049817,-3.137771368
1.579884052,0.521946907,0.080058634,-0.87180984,-0.176965356,0.032923102,-0.015051886,-0.28656292,-0.03079268,0.273569703,-0.093142554,0.50126332,-3.137964487
1.584883213,0.527544379,0.081696779,-0.875315845,-0.169442043,0.012555449,-0.024498153,-0.286547303,-0.030870959,0.273476928,-0.094069272,0.501364648,-3.138202906
1.589883685,0.524315834,0.087314308,-0.869077742,-0.158802405,-0.010774614,-0.033878732,-0.286535293,-0.03093119,0.273405522,-0.094953001,0.501343429,-3.138442278
1.594885111,0.521773219,0.090365186,-0.871025622,-0.149319232,-0.032342944,-0.043125864,-0.286637872,-0.031211553,0.273056537,-0.095817499,0.501213253,-3.138722658
1.599881768,0.516856492,0.088299699,-0.869697213,-0.139557779,-0.05384241,-0.05310766,-0.286824584,-0.031690571,0.27245909,-0.096649922,0.500955403,-3.139065027
1.604878902,0.511970401,0.081350729,-0.870591283,-0.132508695,-0.071368501,-0.061736535,-0.286886513,-0.031849403,0.272260994,-0.097450919,0.500602365,-3.139491081
1.60987699,0.50510025,0.084693864,-0.865938306,-0.128611147,-0.084575929,-0.068821557,-0.286934137,-0.031971615,0.272108555,-0.098259635,0.500178516,-3.139909029
1.614876151,0.499505758,0.093394428,-0.863910437,-0.124922551,-0.094455622,-0.072146453,-0.286949933,-0.032012139,0.27205801,-0.099075086,0.499693722,-3.140303135
1.619876862,0.489926964,0.097313501,-0.863558292,-0.123761982,-0.100849301,-0.071668871,-0.287212402,-0.032649428,0.271609247,-0.099884719,0.499172211,-3.140681744
1.624878287,0.479201496,0.095847793,-0.861269474,-0.127049714,-0.102407835,-0.069754824,-0.287299454,-0.032860737,0.271460474,-0.100690395,0.498623967,-3.141064644
1.629874706,0.474937052,0.093662076,-0.861906588,-0.13681528,-0.096727215,-0.064962208,-0.28736642,-0.033023328,0.271345973,-0.101539314,0.498117,-3.141432762
1.63487792,0.479069173,0.10021235,-0.862118065,-0.14899829,-0.093406096,-0.06381803,-0.287388623,-0.033077236,0.271308005,-0.102458201,0.497628689,3.141429663
1.639876127,0.485983253,0.107437581,-0.865254879,-0.152625278,-0.095486745,-0.060185771,-0.287104398,-0.033682961,0.271279335,-0.103399724,0.497152925,3.141149282
1.644875765,0.48011291,0.112182781,-0.866245925,-0.149181843,-0.099608026,-0.05575154,-0.286935568,-0.03402343,0.271269947,-0.104307987,0.496630579,3.140906096
1.649875998,0.47765705,0.114704609,-0.870508611,-0.143050164,-0.099376537,-0.05590396,-0.286805689,-0.034285396,0.271262735,-0.105187893,0.496107161,3.140676022
1.654877424,0.475810766,0.115605496,-0.869082034,-0.134157941,-0.101166382,-0.051034816,-0.286762625,-0.034372259,0.271260351,-0.10600622,0.495578289,3.140474796
1.659873843,0.473158658,0.120022893,-0.872506917,-0.124757953,-0.102254659,-0.047696624,-0.286559433,-0.034728482,0.27149874,-0.106765077,0.49503988,3.140314579
1.664870858,0.472432554,0.12680243,-0.874140322,-0.115445316,-0.09847822,-0.044258103,-0.286320597,-0.035138417,0.271820039,-0.107491389,0.49452126,3.140188932
1.669869065,0.46992442,0.1296563,-0.875692666,-0.106174171,-0.09410505,-0.042552039,-0.286136806,-0.035453834,0.272067249,-0.108167008,0.494019628,3.140082836
1.674868941,0.469038397,0.129436895,-0.877279699,-0.096149348,-0.090784632,-0.03854965,-0.28607586,-0.035558421,0.272149205,-0.108788177,0.493537456,3.13998127
1.679869652,0.469033241,0.126439333,-0.879672527,-0.090057895,-0.086408675,-0.037892651,-0.286028981,-0.035638891,0.272212267,-0.109357662,0.493081659,3.139867544
1.684871197,0.466078162,0.1246612,-0.882798612,-0.081186242,-0.081193112,-0.033514615,-0.285425514,-0.035970487,0.273441464,-0.109872118,0.49263984,3.139766455
1.689867735,0.46465537,0.127383143,-0.885238826,-0.073238149,-0.073859729,-0.031229679,-0.284961134,-0.036225624,0.27438724,-0.11035309,0.492238432,3.139684677
1.694865108,0.462825119,0.135449782,-0.884586155,-0.063934259,-0.066499531,-0.026630636,-0.284807175,-0.036310222,0.27470085,-0.110792562,0.491871744,3.13967061
1.699863315,0.462248385,0.141979724,-0.884404659,-0.048920646,-0.057338275,-0.022311011,-0.284688711,-0.036375314,0.27494216,-0.111155882,0.491556823,3.139692545
1.704863191,0.458835691,0.145930663,-0.88560009,-0.034389716,-0.049774442,-0.018632114,-0.284701288,-0.036628157,0.2748456,-0.111438952,0.491277486,3.139744282
1.709863424,0.458951354,0.14732261,-0.888363659,-0.019702008,-0.040136151,-0.0097981,-0.284763336,-0.037056543,0.274592817,-0.111631691,0.491043866,3.139845371
1.71486485,0.454813957,0.148322552,-0.891130686,-0.000436737,-0.029734991,-0.003932512,-0.28478393,-0.037198588,0.274508983,-0.111710116,0.4908593,3.139968395
1.719861507,0.453285128,0.14968507,-0.889390647,0.015613467,-0.016456705,6.39E-05,-0.284799755,-0.037307885,0.274444491,-0.111709349,0.49074775,3.140110016
1.724858642,0.452415079,0.147228479,-0.887885869,0.034757774,-0.006935445,0.006283862,-0.284805,-0.037344124,0.274423093,-0.111584112,0.490679473,3.140274525
1.72985673,0.456623971,0.141799673,-0.88575846,0.051189892,0.00142806,0.009813994,-0.284542292,-0.03759231,0.272998571,-0.111366995,0.490679234,3.140412331
1.734856486,0.45951575,0.138159931,-0.88225019,0.065182224,0.007857372,0.012689726,-0.28445518,-0.037674606,0.272526234,-0.111073866,0.49071306,3.140552998
1.739856839,0.462335855,0.133578762,-0.878834486,0.077532716,0.012571346,0.014901096,-0.284388155,-0.037737925,0.272162795,-0.110702068,0.490767151,3.14068222
1.744858384,0.467095703,0.131787911,-0.877464712,0.088662222,0.014770237,0.017332993,-0.284365952,-0.037758917,0.272042304,-0.110272817,0.490847856,3.140814304
1.749854922,0.470464557,0.131090477,-0.874977648,0.101128444,0.017666619,0.018140305,-0.284552336,-0.037503377,0.273483992,-0.109773226,0.490943909,3.140961885
1.754852057,0.471520334,0.131343141,-0.874072671,0.113002785,0.019674044,0.020159984,-0.284664482,-0.037351415,0.274341732,-0.109212905,0.491055071,3.141130447
1.759850264,0.47206232,0.13025865,-0.873012483,0.123265274,0.019400204,0.023431366,-0.284750789,-0.037234485,0.275001705,-0.108598344,0.491168112,3.141309261
1.764849663,0.469373018,0.129774943,-0.8695485,0.133090138,0.022237984,0.023432022,-0.2847794,-0.037195716,0.275220543,-0.107935145,0.491292059,3.141476631
1.769856215,0.471594363,0.126457244,-0.869371772,0.141202152,0.021395618,0.021366889,-0.284413606,-0.03703225,0.275049537,-0.107228637,0.491410524,-3.141560793
1.774857759,0.472529739,0.120841593,-0.872400939,0.144592285,0.022506883,0.021442829,-0.283901244,-0.036843289,0.274650604,-0.106498674,0.491542429,-3.141447067
1.779854298,0.474903643,0.110971935,-0.871867836,0.146599978,0.026414819,0.017837664,-0.283507019,-0.036697894,0.27434364,-0.105755702,0.491683543,-3.141408205
1.78485167,0.471876711,0.10580384,-0.87395227,0.14526324,0.027158055,0.017306142,-0.283376306,-0.036649685,0.274241865,-0.105004504,0.491826087,-3.141371965
1.789850116,0.46983999,0.101019114,-0.873342514,0.141145825,0.032221757,0.014068053,-0.283275723,-0.036612593,0.274163574,-0.104290225,0.491989493,-3.141382694
1.794849277,0.4554905,0.097661033,-0.864892364,0.128107712,0.039871849,0.016969927,-0.283781946,-0.036342759,0.273404866,-0.103626929,0.49217844,-3.141387939
1.799849749,0.442265958,0.103048839,-0.868251085,0.112967223,0.05628863,0.014695213,-0.284171462,-0.036135137,0.272821069,-0.103071414,0.492432266,-3.141384602
1.804851174,0.440176547,0.107724525,-0.878896892,0.102901861,0.072834514,0.009406271,-0.284300625,-0.036066294,0.272627473,-0.10259527,0.492754519,-3.141409397
1.809847593,0.436554015,0.101003006,-0.87728858,0.090799697,0.087243535,0.010760196,-0.284400016,-0.036013324,0.272478521,-0.102166198,0.49314189,-3.141474247
1.814844966,0.429280043,0.098564826,-0.874394298,0.07999222,0.108327478,0.013859468,-0.284491539,-0.03581975,0.27263847,-0.10177917,0.493635029,-3.141530275
1.819843054,0.434616089,0.108278394,-0.88410449,0.069211192,0.130327299,0.01551793,-0.284621179,-0.03549283,0.272973269,-0.101476014,0.494247198,-3.141527653
1.824842811,0.439499825,0.120682366,-0.885897517,0.063510932,0.149867639,0.017881198,-0.284664154,-0.035384431,0.273084253,-0.101218909,0.494946033,-3.141474724
1.829842925,0.438046455,0.118461899,-0.88916713,0.056995805,0.167236015,0.019222399,-0.284697264,-0.035301026,0.273169667,-0.100988522,0.495735794,-3.141443253
1.83484447,0.446391135,0.108291656,-0.891794503,0.043332577,0.184782773,0.021926347,-0.284708232,-0.035273369,0.273197979,-0.100801766,0.496610552,-3.141448259
1.83984077,0.445150793,0.100179322,-0.889900446,0.034659367,0.203057498,0.027460855,-0.285694689,-0.034901626,0.272602379,-0.10063237,0.497592807,-3.141476154
1.844837904,0.446588546,0.099877045,-0.890970945,0.019855302,0.224876672,0.03103378,-0.286021769,-0.034778364,0.272404879,-0.100531392,0.498683184,-3.141486645
1.849835992,0.446338773,0.1077649,-0.896998346,0.015426405,0.247556493,0.038552567,-0.28627345,-0.034683522,0.272252917,-0.10046082,0.499891341,-3.14142251
1.85483551,0.432662547,0.12103077,-0.897182286,0.015951125,0.269841164,0.047414128,-0.286356896,-0.034652073,0.272202522,-0.100399122,0.501175225,-3.141263723
1.859835625,0.426173866,0.138019592,-0.897603095,0.025368415,0.291931421,0.060937699,-0.286664426,-0.034675859,0.271957487,-0.100284711,0.502563059,-3.140948057
1.86483717,0.420670956,0.142254859,-0.888859391,0.038710717,0.31421262,0.076775499,-0.286826611,-0.034695618,0.271825194,-0.100050554,0.504068017,-3.140565157
1.869833469,0.413287461,0.144792259,-0.888492703,0.043906778,0.339213639,0.093565322,-0.286951393,-0.034710821,0.271723419,-0.099765979,0.505702794,-3.140081167
1.87483108,0.419262379,0.141289562,-0.902632475,0.050993383,0.360686779,0.110424004,-0.286992759,-0.034715865,0.271689683,-0.099390171,0.50744468,-3.139540195
1.879829288,0.414649695,0.121433489,-0.915962994,0.039642364,0.377747595,0.132641271,-0.287108183,-0.034552254,0.270882666,-0.098961957,0.509245336,-3.139000893
1.884828687,0.407294691,0.09490148,-0.943549693,0.032545585,0.406714231,0.15244934,-0.28723076,-0.034329101,0.269827455,-0.098469436,0.511178195,-3.138468266
1.88982892,0.408887893,0.085769162,-0.947063506,0.009736212,0.431283623,0.177401811,-0.287325054,-0.034157403,0.26901558,-0.098034576,0.513236701,-3.137839317
1.894830346,0.437902719,0.056795735,-0.956125319,-0.032335725,0.459562451,0.193399981,-0.287356317,-0.034100469,0.268746346,-0.097699583,0.515495002,-3.137260199
1.899826646,0.424399376,-0.020258309,-0.991565347,-0.148643658,0.519913375,0.210938886,-0.287380397,-0.034056664,0.26853922,-0.097729839,0.518005848,-3.137007475
1.904829979,0.420061201,-0.064335622,-1.045061707,-0.325642049,0.62111938,0.224746704,-0.288617492,-0.033320148,0.267111331,-0.098696716,0.520981908,-3.136971474
1.909828305,0.391246021,-0.108318217,-1.074633598,-0.461041063,0.752931237,0.218206435,-0.289569348,-0.032753449,0.266012698,-0.100229204,0.524612486,-3.137187481
1.914827466,0.395259231,-0.069231302,-1.086350203,-0.607199728,0.877297997,0.211705908,-0.289884984,-0.032565542,0.265648395,-0.102737091,0.528824866,-3.137355328
1.9198277,0.384048253,-0.032701619,-1.118430495,-0.659069717,1.030336857,0.197484687,-0.290127814,-0.032420959,0.265368104,-0.10556861,0.533751965,-3.137451887
1.924829125,0.369236976,-0.00394676,-1.130704284,-0.737262189,1.192421556,0.176823631,-0.290982455,-0.032370321,0.263938814,-0.108946413,0.539433002,-3.137804747
1.929826021,0.350294054,0.071731105,-1.156123042,-0.718053222,1.371998429,0.155642152,-0.292422742,-0.032328635,0.261487812,-0.112532035,0.545936465,-3.138064384
1.934823155,0.343230426,0.092993177,-1.181163311,-0.667321622,1.577915549,0.140195727,-0.292900324,-0.032314815,0.260675102,-0.115917414,0.553454459,-3.138507843
1.939821601,0.328199804,0.089648545,-1.203696728,-0.638585508,1.776920676,0.141981363,-0.293267757,-0.032304179,0.26004979,-0.119193643,0.561890185,-3.139174938
1.944820762,0.313607067,0.102934584,-1.223725796,-0.642963648,1.994330764,0.155888587,-0.293389618,-0.032300651,0.259842455,-0.122562908,0.571366787,-3.139920473
1.949821234,0.270376176,0.136216179,-1.284513354,-0.717914104,2.251587629,0.215008438,-0.297029942,-0.033095635,0.253506929,-0.126349092,0.581998348,-3.14050436
1.954822659,0.215754464,0.284305811,-1.278876662,-0.764516711,2.554343939,0.346046388,-0.298237026,-0.033359237,0.251406193,-0.130456418,0.594137371,-3.139780283
1.959819317,0.190929621,0.353689611,-1.28700006,-0.785548389,2.898054838,0.48093155,-0.299165785,-0.03356206,0.249789804,-0.134460017,0.60807699,-3.138370514
1.964816332,0.189796135,0.366369158,-1.293308616,-0.805233121,3.218638897,0.648731828,-0.299473733,-0.033629313,0.249253839,-0.138091847,0.623662114,-3.136271954
1.969814777,0.169678554,0.30788061,-1.249941945,-0.889466345,3.549153328,0.836880744,-0.303689927,-0.034290615,0.240411863,-0.141496718,0.641066432,-3.133740425
1.974814415,0.280341923,0.295294344,-1.222401857,-0.964536548,3.800460577,0.998705208,-0.306072623,-0.034660727,0.235394105,-0.144864962,0.660007,-3.13043189
1.979814887,0.588682711,0.31957981,-1.345374584,-0.985984445,3.876189232,1.068935752,-0.307905912,-0.034945503,0.231533289,-0.148115754,0.679588258,-3.126744032
1.984816432,0.910003543,0.356268197,-1.481627584,-0.922213018,3.743054867,1.04452014,-0.30851379,-0.035039928,0.230253115,-0.151012048,0.698547661,-3.12315917
1.989812732,1.044401288,0.291664273,-1.485620141,-0.867452383,3.490612268,0.955626667,-0.312670439,-0.034152646,0.222422048,-0.153619513,0.716130793,-3.120314837
1.994809866,0.812279046,0.255278766,-1.290800095,-0.935959697,3.362463713,0.870717287,-0.317768604,-0.032890443,0.212921873,-0.156852975,0.732728601,-3.118019819
1.99980855,0.819835484,0.279263556,-1.192337394,-1.015727043,3.23734498,0.832992494,-0.321691304,-0.031919263,0.205612123,-0.160892069,0.749032259,-3.115744352
2.004808426,0.822813749,0.30072242,-1.214644432,-1.087734699,2.996316671,0.870289505,-0.322991967,-0.031597238,0.203188345,-0.164817482,0.763973892,-3.1128304
2.00980854,0.801836371,0.308156878,-1.199283004,-1.142243743,2.738402605,0.891657412,-0.323992759,-0.031349465,0.20132342,-0.168729007,0.777604997,-3.109494925
2.014810085,0.795231819,0.335015774,-1.26061511,-1.14385438,2.4483881,0.941642284,-0.329950154,-0.02897929,0.189207524,-0.172170371,0.789723933,-3.105447292
2.019806385,0.561719835,0.387728423,-1.301213026,-1.093932629,2.113133907,0.979165733,-0.33453396,-0.0271556,0.179885149,-0.17487593,0.79977113,-3.100636244
2.024803877,0.424127102,0.508671105,-1.245195985,-0.936949909,1.801553726,0.934626162,-0.336053878,-0.0265509,0.176794037,-0.177056581,0.808110416,-3.09531045
2.029802322,0.525539935,0.597077012,-1.334705234,-0.741502881,1.508651137,0.822595894,-0.337223351,-0.026085624,0.174415633,-0.178691611,0.814982235,-3.090373039
2.034801722,0.593066335,0.623927295,-1.318653822,-0.550375402,1.204407573,0.768737018,-0.339671642,-0.024528023,0.168245748,-0.179401025,0.82030791,-3.085432768
2.039808035,0.603206396,0.61645633,-1.391952872,-0.344002962,0.940171242,0.683471501,-0.343638897,-0.021910572,0.158057183,-0.179081425,0.82434386,-3.080729961
2.044809818,0.334745228,0.566008985,-1.401420116,-0.151066884,0.616783917,0.55265981,-0.344954371,-0.021042675,0.154678851,-0.17810902,0.826151609,-3.07697463
2.049806356,0.04337142,0.478679597,-1.312755942,0.028219964,0.370746553,0.429012328,-0.345966518,-0.020374887,0.152079448,-0.176496938,0.826461017,-3.074063778
2.054804325,-0.120832361,0.345347524,-1.268863559,0.166625142,0.189932883,0.326320529,-0.346302122,-0.020153461,0.151217535,-0.174239352,0.825784385,-3.072103977
2.059802532,-0.265134633,0.216209069,-1.207544327,0.220208213,0.073513426,0.246334985,-0.348874241,-0.016271597,0.145778939,-0.171784818,0.824449301,-3.070890188
2.064801931,-0.371326953,0.120443486,-1.162127733,0.215654224,0.00046276,0.187435851,-0.349727094,-0.014984445,0.143975601,-0.169483781,0.822713077,-3.070247889
2.069802284,-0.417099506,0.055585712,-1.142444015,0.162472725,-0.067614503,0.144088119,-0.350383312,-0.013994068,0.142588049,-0.167523339,0.820637703,-3.069979668
2.074803829,-0.422483921,0.010306949,-1.14317131,0.086478904,-0.156284899,0.11152216,-0.350600898,-0.013665678,0.142127961,-0.165967122,0.818094969,-3.069940567
2.079800129,-0.415016919,-0.004820613,-1.158211827,-0.002276937,-0.273993939,0.084868655,-0.350892156,-0.011145897,0.139582545,-0.164885014,0.814928353,-3.069909811
2.084797144,-0.414673656,0.001652445,-1.169909477,-0.068626657,-0.408950329,0.062001605,-0.351019382,-0.009749384,0.13819626,-0.164165378,0.811045408,-3.06986022
2.089795589,-0.430210829,0.015773242,-1.174162745,-0.097959049,-0.556779802,0.036318727,-0.351117283,-0.008674862,0.137129605,-0.163627326,0.806369364,-3.069771528
2.09479475,-0.451091319,0.031440794,-1.170373082,-0.102210157,-0.704521358,0.017316524,-0.351149708,-0.00831857,0.136775926,-0.163102478,0.800922751,-3.069595814
2.099794865,-0.455844462,0.03399637,-1.179466724,-0.091633037,-0.852669477,-0.006180848,-0.350884557,-0.007036691,0.136967212,-0.162517279,0.794715941,-3.069389343
2.10479641,-0.447259516,0.016340347,-1.182878256,-0.071583129,-1.006032228,-0.0342272,-0.350504071,-0.005595445,0.137497947,-0.161795154,0.787746191,-3.06926322
2.109792948,-0.435885429,-0.007893045,-1.180786729,-0.055405028,-1.153106928,-0.065876171,-0.350211322,-0.004486504,0.137906328,-0.160983101,0.78004086,-3.069268227
2.114790201,-0.421730101,-0.028812343,-1.183418632,-0.051634658,-1.296874523,-0.09727177,-0.350114256,-0.0041188,0.138041735,-0.160181329,0.771632075,-3.06940937
2.119788647,-0.398449183,-0.043738142,-1.198157191,-0.064514786,-1.434601903,-0.132831141,-0.350039572,-0.003835877,0.138145924,-0.159489945,0.762539268,-3.069676161
2.124787807,-0.365315348,-0.05452216,-1.210452914,-0.084908783,-1.580413342,-0.171910152,-0.34842518,-0.002238826,0.13934879,-0.158992946,0.7527318,-3.070068598
2.12978816,-0.320698589,-0.055450656,-1.214673042,-0.11142724,-1.724763036,-0.214906991,-0.347183019,-0.001010004,0.140274316,-0.158738121,0.742243171,-3.070584297
2.134789944,-0.272476256,-0.046859585,-1.21416688,-0.132721111,-1.880140781,-0.260873914,-0.346771151,-0.00060255,0.140581205,-0.158733174,0.731013536,-3.071204424
2.13978672,-0.224165469,-0.023606829,-1.217856169,-0.143624932,-2.034222364,-0.296490043,-0.346454203,-0.000289041,0.140817329,-0.158890963,0.719060659,-3.071817398
2.144784212,-0.177267402,0.011772335,-1.220732689,-0.137792811,-2.191180229,-0.325128973,-0.344895303,0.000535049,0.143892229,-0.159104556,0.706367016,-3.072263479
2.149782896,-0.123114973,0.044773962,-1.224836946,-0.109375075,-2.349101543,-0.34676227,-0.34222576,0.001897301,0.149288177,-0.15921858,0.692954361,-3.072570324
2.154782057,-0.058755055,0.068932511,-1.234411836,-0.069884911,-2.512074947,-0.36028865,-0.341340572,0.002348998,0.151077375,-0.159105957,0.678819239,-3.072709799
2.15978241,0.016348571,0.08217866,-1.242719889,-0.027794659,-2.681497812,-0.364611179,-0.340659499,0.002696548,0.152454033,-0.158721209,0.663953066,-3.072664976
2.164783955,0.103498071,0.086886153,-1.251332879,0.005098617,-2.858051538,-0.36384216,-0.340433657,0.002811789,0.152910516,-0.158072442,0.648353338,-3.072392225
2.169780493,0.184550807,0.090687171,-1.250572324,0.025561161,-3.041514397,-0.353571117,-0.335230917,0.004419171,0.160244003,-0.157212898,0.631969631,-3.071824789
2.174783707,0.255941421,0.097050294,-1.243201613,0.035176031,-3.221471548,-0.338039398,-0.33350578,0.004952148,0.162675649,-0.156202033,0.614851177,-3.070971251
2.179781914,0.311403453,0.10221801,-1.227865458,0.034953523,-3.394403458,-0.320009232,-0.332178414,0.005362238,0.164546639,-0.155102357,0.597005188,-3.069844007
2.184781551,0.352725714,0.10816475,-1.200556755,0.029862614,-3.552208185,-0.303199172,-0.331738263,0.005498216,0.165167019,-0.15396224,0.57851094,-3.068463802
2.189781666,0.381067008,0.119127847,-1.168956161,0.024595072,-3.685931444,-0.286524862,-0.326256186,0.006803374,0.174520537,-0.15282616,0.55948174,-3.0667696
2.194783211,0.409601271,0.132215559,-1.134946108,0.018039979,-3.796082735,-0.275481254,-0.323165685,0.007533215,0.179818437,-0.151721776,0.540031075,-3.064882994
2.19977951,0.435751349,0.146621823,-1.097529411,0.007806378,-3.8819592,-0.265614778,-0.320787758,0.008094778,0.183894798,-0.150705546,0.520285547,-3.062845945
2.204777002,0.466957688,0.159187958,-1.062185168,-0.007327681,-3.938391209,-0.263011277,-0.319999278,0.008280981,0.185246453,-0.149814293,0.500391781,-3.060718536
2.209775448,0.502655804,0.172282562,-1.034229994,-0.02954434,-3.970837116,-0.264725804,-0.315304697,0.009110075,0.191064075,-0.149134025,0.480459929,-3.05850482
2.214774847,0.537873924,0.183126032,-1.01170218,-0.061097272,-3.986516714,-0.278498709,-0.309625864,0.010076568,0.197810844,-0.148707494,0.460564643,-3.056298494
2.219774961,0.573507667,0.197824404,-0.994698703,-0.098923288,-3.979985714,-0.306575119,-0.305256426,0.010820219,0.203002021,-0.148629904,0.440789282,-3.054211617
2.224776506,0.615244269,0.213101551,-0.985601246,-0.145483747,-3.959652662,-0.349688739,-0.303807586,0.0110668,0.204723313,-0.148964062,0.421198428,-3.052334547
2.229772806,0.660643816,0.237154096,-0.981674135,-0.194212884,-3.931442022,-0.411745667,-0.302692801,0.011256527,0.206047744,-0.149760813,0.401819348,-3.050700188
2.23477006,0.708894789,0.263510436,-0.981159091,-0.238677666,-3.898514032,-0.490981817,-0.295371979,0.012686133,0.215114564,-0.151013434,0.382656127,-3.049324512
2.239768744,0.749558747,0.287513971,-0.98703748,-0.28026107,-3.858692646,-0.578007102,-0.289739072,0.013786118,0.222090855,-0.152693406,0.363714457,-3.048335552
2.244768143,0.785379827,0.307900757,-0.999231756,-0.314197987,-3.808536053,-0.675959945,-0.287871301,0.014150851,0.224404067,-0.154738128,0.345025122,-3.047787905
2.249768496,0.830007434,0.323668897,-1.012435913,-0.337025315,-3.760751247,-0.785674036,-0.286434203,0.01443149,0.226183921,-0.157100812,0.326595336,-3.047761917
2.254769802,0.879654408,0.341773003,-1.016118765,-0.348749071,-3.711606741,-0.900522172,-0.281416595,0.014622854,0.231309339,-0.15970248,0.308432519,-3.048181772
2.259766579,0.927267432,0.374500155,-1.016796708,-0.341529965,-3.665663719,-1.01273632,-0.27296412,0.014869503,0.239838868,-0.162450016,0.290505737,-3.048977375
2.264763832,0.972065806,0.406346679,-1.009453654,-0.308638483,-3.622423172,-1.126103401,-0.27016142,0.014951287,0.242667094,-0.165187165,0.272798687,-3.050181389
2.269762278,1.011810184,0.422283798,-0.992202818,-0.254591525,-3.571884155,-1.233183861,-0.268004954,0.015014214,0.244843215,-0.167733476,0.255345732,-3.051823378
2.274761438,1.056799889,0.415423304,-0.972140253,-0.185717955,-3.507366419,-1.336431265,-0.267289907,0.01503508,0.245564789,-0.169974253,0.238244131,-3.05396843
2.27976203,1.097257972,0.37625894,-0.954352856,-0.122633427,-3.430112123,-1.433878303,-0.257125586,0.013663904,0.254802853,-0.171858788,0.221546829,-3.056744337
2.284763336,1.135260344,0.300600111,-0.933158398,-0.078176782,-3.341588259,-1.521418571,-0.253755301,0.013209248,0.257866025,-0.173423633,0.205323294,-3.060281038
2.289760113,1.16681397,0.221690774,-0.908792257,-0.071398869,-3.240686655,-1.585940838,-0.251162082,0.012859421,0.260222912,-0.174832121,0.189633474,-3.064480543
2.294757366,1.207218289,0.170929819,-0.868084431,-0.089203782,-3.145914316,-1.614820242,-0.250302225,0.012743425,0.261004418,-0.176259488,0.174488902,-3.068984032
2.299755812,1.247612596,0.161089793,-0.803019822,-0.111410134,-3.058132887,-1.596994519,-0.24278599,0.010758422,0.268580079,-0.177743897,0.159893975,-3.073346138
2.304754972,1.281737804,0.162931308,-0.721381247,-0.10284283,-2.968726397,-1.53610456,-0.238597542,0.009631123,0.27281785,-0.179086983,0.145888045,-3.077319384
2.309761524,1.316004038,0.155867144,-0.619621396,-0.070083477,-2.867992163,-1.438614964,-0.235374823,0.008763744,0.276078522,-0.180133924,0.132568389,-3.080781937
2.314763069,1.352237225,0.13355875,-0.503826439,-0.027300183,-2.751954556,-1.309749484,-0.234306231,0.008476136,0.277159691,-0.180805817,0.120036341,-3.083673
2.319759846,1.387931108,0.09625499,-0.379631996,0.010088103,-2.614633083,-1.164747834,-0.229949892,0.007231418,0.280697256,-0.181139141,0.108421527,-3.086018085
2.324757338,1.423786521,0.047356721,-0.254039168,0.029388016,-2.44713521,-1.014558434,-0.224941581,0.005786676,0.284598649,-0.181230545,0.097879454,-3.087859869
2.329755545,1.462711334,-0.018840753,-0.133905634,0.020698525,-2.251225948,-0.873012841,-0.221088037,0.004675045,0.287600487,-0.181233689,0.088538617,-3.089380264
2.334755421,1.500518799,-0.085534781,-0.015743179,-0.023669071,-2.032210827,-0.735567093,-0.219810277,0.00430645,0.288595825,-0.181340024,0.080500737,-3.090614796
2.339756012,1.537753105,-0.127733156,0.088253893,-0.093854666,-1.789694905,-0.613436878,-0.218827114,0.00402284,0.289361686,-0.181751668,0.073863797,-3.091551781
2.344757557,1.573893905,-0.144967526,0.178369299,-0.166170269,-1.533466458,-0.503900349,-0.213117048,0.002894707,0.293330193,-0.182530597,0.068671212,-3.092157364
2.349753857,1.612630725,-0.154880688,0.255832136,-0.227662176,-1.269535303,-0.410629123,-0.20872353,0.002026686,0.296383679,-0.183606535,0.064941153,-3.092495918
2.354751348,1.649248362,-0.157195657,0.319124371,-0.26179111,-0.995865464,-0.334798068,-0.207266733,0.001738866,0.297396183,-0.184841111,0.062702298,-3.092666864
2.359749317,1.69155252,-0.139827594,0.370042711,-0.254947543,-0.720931053,-0.271638274,-0.206145823,0.001517408,0.298175186,-0.18607606,0.061957881,-3.092627525
2.364748716,1.730155826,-0.099016853,0.413377255,-0.205543891,-0.444767416,-0.212685928,-0.204021454,0.001154164,0.298793107,-0.187122822,0.062698357,-3.092294693
2.369749069,0.88748312,-0.251467586,0.228371963,-0.145535648,0.02943626,-0.039201498,-0.200614631,0.000581625,0.299632192,-0.187487125,0.064270653,-3.092643261
2.374750376,1.812458873,-0.089988947,0.752943873,0.090932891,1.072796583,0.070273623,-0.199484989,0.000391782,0.299910426,-0.187145546,0.072964475,-3.091798306
2.379747152,1.879997492,-0.310697466,0.996114671,0.029860135,1.626209974,0.405830503,-0.198615819,0.000245711,0.300124526,-0.186315849,0.085899554,-3.091275215
2.384744406,0.63444829,-0.29604122,1.089513421,-0.138746738,2.231204987,0.641871691,-0.198327616,0.000197276,0.300195515,-0.186950445,0.098510548,-3.089570522
2.38974309,-0.055990603,-0.231522098,0.642757535,-0.19021447,2.773572922,0.768658519,-0.197906852,0.000336184,0.297784865,-0.187700167,0.11295718,-3.088340044
2.394742489,0.408583879,0.052230049,-0.327869058,-0.19435522,3.21487093,0.851436138,-0.197767332,0.000382243,0.296985537,-0.188496262,0.130605116,-3.086427689
2.399742603,0.379159749,0.386974216,-1.47592473,-0.228961855,3.269093037,0.957323551,-0.197659969,0.000417682,0.296370476,-0.189531952,0.148341939,-3.08351326
2.404744148,0.237492993,0.872110307,-1.935069919,-0.155386493,3.071684837,1.005978465,-0.197624385,0.000429433,0.296166539,-0.191182658,0.163938671,-3.078032255
2.409740448,0.361607522,1.127512455,-2.055681229,0.286868393,2.777257681,0.891580582,-0.202936396,0.002405962,0.288952172,-0.190484315,0.178328842,-3.072098255
2.414738178,0.23131837,1.292783141,-1.807983279,0.643022239,2.576144457,0.784378111,-0.206019014,0.003548203,0.284813643,-0.188437566,0.191105962,-3.065565586
2.419736862,0.299156576,1.298690438,-1.381452441,0.890161991,2.647155046,0.59723562,-0.208390877,0.004427079,0.281629324,-0.185464337,0.20449324,-3.05981946
2.4247365,0.280262053,1.065612435,-1.120154977,1.086385965,2.928423643,0.367462784,-0.209177345,0.004718497,0.280573457,-0.181402579,0.219289064,-3.056632757
2.429736853,0.445676476,0.663958073,-1.003158092,1.028376818,3.245799303,0.1229745,-0.213629186,0.006737731,0.275641263,-0.177391171,0.235973477,-3.056810617
2.434738636,0.835635662,0.421791255,-1.104216814,0.927676439,3.411238432,-0.150132656,-0.218984336,0.009217348,0.269851506,-0.174034014,0.253884137,-3.059284925
2.439735413,1.261773348,0.201455221,-1.271917224,0.785469055,3.348161697,-0.330207318,-0.22310476,0.011125245,0.265396684,-0.171383068,0.271772414,-3.063532352
2.444738626,1.72688818,-0.113634922,-1.549337506,0.644043446,3.089968443,-0.351729661,-0.224471003,0.011757867,0.263919532,-0.16870293,0.288865477,-3.069151402
2.44973731,1.848671675,-0.331502587,-1.673118711,0.476797223,2.683865547,-0.195171297,-0.22552225,0.012244627,0.262782961,-0.166279376,0.303963244,-3.074387312
2.454736471,1.689382195,-0.527925611,-1.62861073,0.316394091,2.305325031,0.100856625,-0.231655225,0.014978807,0.253975511,-0.163662389,0.31699568,-3.078366518
2.459736824,1.349959612,-0.53474313,-1.50167644,0.139689058,2.012965918,0.400220215,-0.236374125,0.017082574,0.247198775,-0.161550894,0.32830584,-3.080360889
2.464738607,1.060894728,-0.293986022,-1.315862298,-0.014579188,1.813620329,0.589124262,-0.237938821,0.017780144,0.24495174,-0.160305172,0.338472009,-3.079733133
2.469735384,0.755208075,0.048987873,-1.130206943,-0.14477624,1.713466763,0.585140646,-0.239142761,0.018316876,0.243222803,-0.160469174,0.347717047,-3.077437639
2.474733353,0.528307796,0.434461236,-0.959037185,-0.182991698,1.675486565,0.418557972,-0.242014855,0.019149346,0.239657119,-0.16189,0.356419533,-3.074394464
2.479731798,0.3910456,0.654570162,-0.829103231,-0.14287433,1.679624915,0.197104633,-0.246725231,0.020451678,0.233887792,-0.163860515,0.364844471,-3.071757555
2.484731197,0.448516965,0.672256291,-0.782312989,-0.058007147,1.674244165,0.015334465,-0.248287097,0.020883506,0.231974795,-0.165671587,0.373267293,-3.070256472
2.48973155,0.582726538,0.53170079,-0.839252114,0.026443442,1.613386631,-0.074676059,-0.24948886,0.021215769,0.230502874,-0.166834101,0.381524801,-3.069914818
2.494733095,0.728642464,0.322661191,-0.934882224,0.085151456,1.483211279,-0.068340376,-0.249887347,0.02132594,0.230014816,-0.167198598,0.389291734,-3.070428133
2.499729872,0.768798649,0.080919653,-0.968577683,0.103352308,1.318649411,0.006431498,-0.2540811,0.022022152,0.221908018,-0.166813552,0.396279097,-3.071389437
2.504727364,0.750198662,-0.082164638,-0.973992825,0.077339299,1.172513843,0.103765108,-0.255471677,0.022253003,0.219219953,-0.166043326,0.402575552,-3.0723207
2.509725809,0.697905064,-0.106807783,-0.960637927,0.012234203,1.054977775,0.176733792,-0.25654164,0.022430627,0.217151657,-0.165468529,0.408270478,-3.072685242
2.514725208,0.66321069,-0.003075596,-0.961156249,-0.042520594,0.962493658,0.205878243,-0.256896406,0.022489524,0.216465846,-0.165344566,0.413485229,-3.072269201
2.519725561,0.632527649,0.122445092,-0.957037449,-0.079579264,0.877501726,0.191620171,-0.259419292,0.023013148,0.213543952,-0.165665895,0.418212652,-3.071332932
2.524727345,0.570410728,0.20195502,-0.960677087,-0.07672631,0.809051156,0.152430639,-0.260812581,0.023305131,0.211982638,-0.166152269,0.422446966,-3.070308924
2.529724121,0.515282214,0.209943026,-0.943697453,-0.05784791,0.761235714,0.121078327,-0.26188463,0.023529792,0.210781321,-0.166568741,0.426341265,-3.069475174
2.534721613,0.485800534,0.179660931,-0.946386099,-0.038368054,0.725184679,0.10829246,-0.262240082,0.023604285,0.210382998,-0.166804954,0.430027485,-3.068856239
2.539719582,0.505319655,0.136344478,-0.959474206,-0.025871418,0.688837886,0.109361909,-0.263291985,0.023980947,0.208676606,-0.166876644,0.433583409,-3.068389416
2.544719219,0.571210802,0.132448599,-0.980718613,-0.019180011,0.632202387,0.110014357,-0.264425665,0.024427865,0.206699148,-0.166891187,0.436962992,-3.067862272
2.54971981,0.613673985,0.139925152,-0.970923424,-0.026289238,0.557425201,0.10355141,-0.265297979,0.024771737,0.20517762,-0.166955709,0.439996272,-3.067187786
2.554721594,0.598280132,0.149169743,-0.96214205,-0.024984583,0.488042355,0.080917262,-0.265587211,0.024885759,0.204673126,-0.167069435,0.442626446,-3.066562891
2.559718132,0.538794994,0.153929472,-0.935196221,-0.015687121,0.439694226,0.061613042,-0.265809774,0.024973491,0.204284951,-0.167177454,0.444903195,-3.065997601
2.564715624,0.499361306,0.159664005,-0.924290955,-0.005950547,0.409875363,0.049716465,-0.266955584,0.025251679,0.201371565,-0.167249411,0.446997285,-3.06545639
2.569713831,0.483981103,0.161356419,-0.935217142,0.010489901,0.381660581,0.04875502,-0.267837197,0.025465723,0.199129894,-0.167238221,0.448941737,-3.064903498
2.57471323,0.48981896,0.143972188,-0.932996809,0.024992093,0.353411466,0.054524895,-0.268129528,0.025536697,0.198386595,-0.167081773,0.450757831,-3.06436491
2.579725742,0.452492714,0.119142264,-0.912391543,0.031878054,0.345851719,0.064016648,-0.268354446,0.025591306,0.197814688,-0.166817054,0.452495307,-3.063866854
2.584733486,0.411880106,0.112313554,-0.907682717,0.027249644,0.351611942,0.066594876,-0.268512607,0.025639314,0.197566286,-0.16658631,0.454223543,-3.063406467
2.589735985,0.402370751,0.119393937,-0.917385936,0.021498496,0.364450842,0.067912839,-0.268718809,0.025706485,0.197315723,-0.166413695,0.455998898,-3.062922716
2.594733477,0.419843882,0.129443616,-0.922201753,0.022366805,0.37368685,0.070409656,-0.268787175,0.025728757,0.197232649,-0.166241497,0.457853317,-3.062370777
2.599731922,0.447647125,0.132119045,-0.921141565,0.022977117,0.380810231,0.076523468,-0.268839777,0.025745895,0.197168708,-0.166048691,0.459795177,-3.061781883
2.604731083,0.476449907,0.12959893,-0.91666615,0.025127912,0.377642572,0.075667232,-0.268857241,0.025751576,0.197147503,-0.1658445,0.461765707,-3.06119132
2.609731674,0.495681792,0.125259116,-0.922430038,0.016699454,0.36867103,0.077202141,-0.270039588,0.026160959,0.1946899,-0.16566512,0.463687867,-3.060616016
2.614732981,0.511827946,0.114762053,-0.930493116,-0.00341656,0.346570313,0.07411176,-0.270431668,0.026296703,0.193875015,-0.165571228,0.4655222,-3.060069323
2.619729757,0.508652329,0.106057152,-0.923657119,-0.024318369,0.325937599,0.066940516,-0.270733327,0.026401149,0.193248019,-0.165582672,0.467226267,-3.059588432
2.624726772,0.49869892,0.106807038,-0.924324989,-0.053772893,0.310459435,0.059986793,-0.270833343,0.026435779,0.193040118,-0.165755048,0.468829393,-3.059127092
2.629725218,0.50186044,0.116526902,-0.929518938,-0.077923372,0.295487672,0.050001618,-0.271498799,0.026720908,0.192148313,-0.166099831,0.470361084,-3.058665514
2.634724617,0.516635478,0.12441428,-0.93107301,-0.10297361,0.277615041,0.035990946,-0.2718651,0.026879413,0.191671506,-0.166600421,0.471810579,-3.058231115
2.63972497,0.528663874,0.121822141,-0.925661564,-0.124895342,0.258564085,0.021762844,-0.27214691,0.027001372,0.191304654,-0.167242259,0.473178297,-3.05787921
2.644726515,0.522182703,0.125694349,-0.914097309,-0.142565429,0.246468678,0.007258997,-0.272240371,0.027041811,0.191183001,-0.16800417,0.474456906,-3.057565928
2.649723053,0.501462519,0.132315367,-0.90118438,-0.160862222,0.238767087,-0.003827766,-0.272394687,0.027126446,0.190459773,-0.168897361,0.475662768,-3.057273149
2.654720545,0.477578461,0.132924214,-0.899250925,-0.171727881,0.241136193,-0.014487006,-0.272528917,0.027208479,0.18958506,-0.16988647,0.476840585,-3.057072401
2.659719229,0.472420365,0.133170322,-0.89887768,-0.181585908,0.244576871,-0.019590672,-0.272632211,0.027271599,0.188912019,-0.170919374,0.478020221,-3.05690074
2.664718628,0.492370218,0.137264296,-0.903458118,-0.190623283,0.240467936,-0.023867518,-0.272666484,0.027292527,0.188688844,-0.172008693,0.479229212,-3.05672884
2.669718981,0.508676112,0.140650734,-0.896197855,-0.204783916,0.232205167,-0.028774904,-0.272692829,0.027308632,0.188517138,-0.173196137,0.480407178,-3.056549311
2.674720526,0.50439769,0.146191314,-0.887197793,-0.212080464,0.22135897,-0.034103278,-0.272695661,0.027003985,0.187881917,-0.174436554,0.481508315,-3.056379795
2.679717064,0.502426267,0.155040637,-0.888707101,-0.221005842,0.212388173,-0.042035051,-0.272697866,0.026769578,0.187393144,-0.175748542,0.482555687,-3.056212902
2.684714556,0.504808486,0.159156665,-0.887066305,-0.222718894,0.200316712,-0.050486952,-0.272698611,0.026691854,0.187231079,-0.177096859,0.483539551,-3.056073666
2.689713478,0.502512276,0.149724677,-0.880636513,-0.224713579,0.189157113,-0.053868499,-0.272699177,0.02663205,0.187106386,-0.178431436,0.48446846,-3.055984735
2.694712877,0.496700943,0.151309848,-0.875035882,-0.224447995,0.177820772,-0.05426662,-0.273057163,0.026415708,0.186894029,-0.179769278,0.485322863,-3.055886745
2.69971323,0.487447321,0.151486114,-0.870450675,-0.223381191,0.172773793,-0.050604861,-0.273694456,0.026050545,0.186557725,-0.181077898,0.486142039,-3.055767059
2.704714775,0.474761307,0.155536324,-0.865598619,-0.221859142,0.16730313,-0.041914564,-0.273905754,0.025929464,0.18644622,-0.182375655,0.486933291,-3.055574417
2.709711075,0.461513191,0.162938446,-0.86532414,-0.211401403,0.165675879,-0.03014468,-0.274068356,0.0258363,0.186360419,-0.183595046,0.487702966,-3.055281162
2.714714766,0.451346815,0.167438611,-0.860059679,-0.199426964,0.169186279,-0.019525088,-0.274122268,0.025805408,0.186331972,-0.184726804,0.488494933,-3.054931641
2.719713449,0.445236564,0.166373819,-0.866003096,-0.192525789,0.177406445,-0.005120568,-0.274471641,0.024766162,0.185273543,-0.185782626,0.489327312,-3.054552555
2.724712849,0.44779554,0.173741207,-0.871711791,-0.182053506,0.18130888,0.007597897,-0.274587512,0.024421567,0.184922591,-0.186774701,0.490196317,-3.054072142
2.72971344,0.447227359,0.188639507,-0.867342591,-0.169652507,0.186643809,0.015369544,-0.274676651,0.024156425,0.184652567,-0.187719733,0.491087645,-3.053500652
2.734714985,0.442602783,0.197336927,-0.864320517,-0.156604186,0.198164776,0.016173154,-0.274706215,0.024068508,0.184563011,-0.188614577,0.492034882,-3.052909851
2.739711523,0.442003161,0.206882328,-0.865041792,-0.140469208,0.202384889,0.020219708,-0.275070101,0.023954777,0.184289739,-0.189438462,0.493007302,-3.052275181
2.744708776,0.445304066,0.214795217,-0.863539279,-0.117578089,0.206193194,0.024118036,-0.275275201,0.023905661,0.184148565,-0.190137103,0.493997067,-3.051590919
2.749707699,0.452523738,0.228461668,-0.867063522,-0.103027686,0.20988667,0.026491491,-0.275433004,0.02386787,0.184039935,-0.190808505,0.495019794,-3.050851107
2.754707098,0.471978694,0.228002727,-0.859651864,-0.089137629,0.206791282,0.022893965,-0.275485337,0.02385534,0.184003919,-0.191403419,0.496055126,-3.050136328
2.759707689,0.480175644,0.224371389,-0.852350771,-0.075051047,0.201970503,0.017102139,-0.275661111,0.023699814,0.183500007,-0.191935509,0.497067988,-3.049458981
2.764709234,0.482233584,0.213269651,-0.850434422,-0.067179613,0.196730465,0.017652737,-0.275856078,0.023501135,0.182852745,-0.19239676,0.498058766,-3.048831224
2.769705772,0.484197646,0.200553775,-0.848816752,-0.063572668,0.191201791,0.017802289,-0.276006103,0.023348264,0.182354718,-0.192822441,0.499023408,-3.048256636
2.774703264,0.47902891,0.18858695,-0.848855376,-0.057720698,0.18411012,0.015980693,-0.276055843,0.023297576,0.182189584,-0.193191245,0.499945968,-3.047727108
2.77970171,0.474674284,0.194880724,-0.846939802,-0.049198087,0.175223857,0.012724472,-0.276094139,0.023258576,0.182062522,-0.193548337,0.50080663,-3.0471735
2.784701109,0.476859063,0.204076499,-0.848511577,-0.037109572,0.16612193,0.013022942,-0.275955886,0.023083702,0.181278959,-0.193850949,0.501619339,-3.046572685
2.7897017,0.483513474,0.211556807,-0.845831215,-0.024334319,0.156454146,0.0095005,-0.275849521,0.022949148,0.180676058,-0.194111884,0.502401888,-3.045954466
2.794703007,0.488710225,0.209072739,-0.839545846,-0.015182358,0.146591753,0.008794872,-0.275814235,0.022904534,0.180476144,-0.194313586,0.503143668,-3.045344353
2.799699783,0.48679173,0.209274545,-0.838391185,-0.005917519,0.135814771,0.004505715,-0.275787115,0.022870205,0.180322334,-0.194475874,0.503824532,-3.044749498
2.804697275,0.485210329,0.210094035,-0.838569343,0.003519158,0.127221107,0.000420907,-0.276030809,0.023010036,0.180514768,-0.194610029,0.504463434,-3.044163465
2.809696198,0.477497071,0.216165066,-0.83782351,0.01420562,0.116425999,0.000649521,-0.27647382,0.023270525,0.180908978,-0.194692791,0.505024374,-3.043533802
2.814695597,0.476951897,0.22548674,-0.840429664,0.029000368,0.109869286,-0.000248712,-0.276620716,0.023356898,0.181039691,-0.194709435,0.505554199,-3.042867184
2.819696188,0.47976172,0.219257653,-0.845297635,0.041607678,0.102853224,0.008570328,-0.276733756,0.023423355,0.181140259,-0.194620848,0.506053925,-3.042199135
2.824697495,0.490480423,0.213159114,-0.845640182,0.055958565,0.093033656,0.023607031,-0.276771218,0.02344539,0.181173608,-0.194397703,0.506547213,-3.04143095
2.829694271,0.490259469,0.201013938,-0.848459899,0.065497428,0.081256002,0.038607225,-0.276792973,0.023181526,0.180007741,-0.19404918,0.506988049,-3.040634155
2.834692001,0.48621583,0.202045336,-0.842506468,0.074827701,0.072123848,0.052944779,-0.276800185,0.023094034,0.17962116,-0.193631291,0.507394791,-3.039728642
2.839690447,0.484535247,0.216729313,-0.846239448,0.089146808,0.063645378,0.062566668,-0.276805729,0.023026714,0.179323718,-0.193141282,0.507769108,-3.03870821
2.844689846,0.48137781,0.228337184,-0.842193186,0.112467855,0.054417726,0.076859847,-0.276807576,0.023004392,0.179225087,-0.192505628,0.50809288,-3.037557602
2.849696875,0.471616417,0.241770729,-0.83607161,0.13964285,0.043948241,0.10010203,-0.276863694,0.023249304,0.179940507,-0.191691324,0.508381784,-3.036189318
2.85469842,0.467877895,0.251542896,-0.835149288,0.174362898,0.036104918,0.118626483,-0.276895821,0.023395367,0.180373535,-0.190660447,0.508652866,-3.03467536
2.859695435,0.485371709,0.250884563,-0.847098708,0.216944814,0.024895119,0.141262025,-0.276920557,0.023507753,0.180706725,-0.189340889,0.508903444,-3.033038855
2.864693165,0.483011782,0.24066101,-0.840307653,0.249092132,0.007741269,0.165565506,-0.276928753,0.023545017,0.180817202,-0.187738374,0.509084046,-3.03128171
2.86969161,0.476276577,0.23998712,-0.838806987,0.279998958,-0.007017878,0.184212103,-0.276826411,0.023772296,0.180777729,-0.185950324,0.509197176,-3.029399157
2.87469101,0.479546756,0.232001334,-0.846685827,0.306385279,-0.019425936,0.197272062,-0.276682943,0.024047928,0.180639103,-0.183960214,0.509265184,-3.027494669
2.879691362,0.481707364,0.221069634,-0.844322085,0.332510442,-0.023807224,0.207299799,-0.276572526,0.024260011,0.180532441,-0.181812853,0.50932461,-3.025562048
2.884692907,0.481618434,0.212499753,-0.853344083,0.347364634,-0.033996098,0.2196199,-0.276535928,0.024330333,0.180497065,-0.179531902,0.50933826,-3.02358675
2.889689684,0.483887494,0.202716365,-0.858314455,0.364824504,-0.04081063,0.223689228,-0.276507765,0.024384441,0.180469856,-0.177147493,0.509318769,-3.021622181
2.894687176,0.483817399,0.187127456,-0.862409472,0.373816162,-0.045927837,0.227012083,-0.276999682,0.025323439,0.180195734,-0.174667686,0.509278417,-3.0196805
2.899685621,0.482835978,0.169264019,-0.864648461,0.376908183,-0.047063854,0.223874852,-0.277378201,0.026045937,0.179984823,-0.172162473,0.509222746,-3.017841816
2.90468502,0.476580113,0.15354149,-0.865287602,0.370500654,-0.044501323,0.219344631,-0.277503699,0.026285503,0.179914892,-0.169683903,0.509167492,-3.016087532
2.909685135,0.46976006,0.148400173,-0.875163794,0.359966189,-0.041035082,0.211261183,-0.277600288,0.026469832,0.179861084,-0.167289823,0.50910908,-3.01440382
2.914686918,0.474753052,0.150523409,-0.877115905,0.348420829,-0.033823084,0.199168473,-0.277529627,0.027189285,0.179533482,-0.165002272,0.509069979,-3.012765646
2.919683695,0.473719895,0.146743059,-0.875783205,0.332320333,-0.024360405,0.194201499,-0.277371436,0.028408533,0.178968206,-0.162807971,0.509077907,-3.011183262
2.924681187,0.46276474,0.142373517,-0.876122892,0.311904877,-0.010276653,0.184872612,-0.277318984,0.028812813,0.178780764,-0.160741627,0.509135664,-3.009675264
2.929679632,0.473883897,0.13143295,-0.888091326,0.291365951,0.003771988,0.173776656,-0.277278632,0.029123878,0.178636551,-0.158801794,0.509256065,-3.008306026
2.934679031,0.469464928,0.105005704,-0.888529062,0.264273077,0.018206554,0.167239487,-0.277265251,0.029227022,0.178588718,-0.15695101,0.50944221,-3.007086515
2.939679384,0.461236894,0.09838061,-0.889486432,0.226631582,0.040108301,0.153896898,-0.277208418,0.030717613,0.178043142,-0.155354798,0.509712815,-3.005964756
2.944681168,0.457370311,0.100386247,-0.890371859,0.194182739,0.06578213,0.136496007,-0.277189583,0.031211866,0.177862242,-0.153999269,0.510094464,-3.004956007
2.949677706,0.451256812,0.106636427,-0.895618677,0.163528502,0.092851549,0.130681485,-0.277175099,0.03159216,0.17772305,-0.152838811,0.510586262,-3.003983498
2.954675436,0.44100225,0.125691921,-0.894269645,0.136750862,0.118675232,0.131454706,-0.277170271,0.031718258,0.177676901,-0.151851654,0.511192143,-3.002952337
2.959673882,0.445082545,0.13442044,-0.887052596,0.123730063,0.144433126,0.140533835,-0.277025998,0.032075036,0.178587541,-0.150923073,0.511952579,-3.001833439
2.964673281,0.447234124,0.150241226,-0.886047065,0.106269859,0.167742372,0.152501494,-0.276943386,0.032257613,0.179123625,-0.150081322,0.512837052,-3.000591993
2.969673634,0.447586894,0.156614766,-0.887349904,0.096356295,0.184389427,0.166415393,-0.276879787,0.032398093,0.179536119,-0.149271399,0.513801515,-2.999283791
2.974675179,0.444734633,0.170395434,-0.887099683,0.095367327,0.200768486,0.180226281,-0.276858717,0.032444675,0.179672882,-0.148454741,0.514849186,-2.997854233
2.979671717,0.454354525,0.173140943,-0.884598732,0.101636477,0.219723865,0.191844523,-0.27682206,0.033081692,0.179350495,-0.147564098,0.516015172,-2.996355057
2.984681129,0.457097471,0.17232044,-0.879994035,0.1020125,0.233941674,0.200450242,-0.276789248,0.033899136,0.178812385,-0.146664172,0.51725781,-2.99479866
2.989685774,0.449782014,0.168302014,-0.889475405,0.113962911,0.258708805,0.206574887,-0.276764005,0.034528103,0.178398341,-0.145671383,0.518607318,-2.993258238
2.994685411,0.450663686,0.165538147,-0.892705083,0.108295649,0.272689104,0.212540656,-0.276755661,0.034736656,0.178261057,-0.144714624,0.520016193,-2.991715193
2.999686003,0.458320618,0.157698184,-0.895086527,0.105257787,0.290562391,0.218791187,-0.276749194,0.034897123,0.178155422,-0.143737629,0.521534801,-2.990175486
3.004687309,0.479761392,0.14480789,-0.895706892,0.094001211,0.3034814,0.226520211,-0.277243555,0.035613634,0.17743507,-0.142763034,0.523161232,-2.988627911
3.009684086,0.454305887,0.130770355,-0.904531837,0.05496411,0.327492744,0.234942794,-0.277623951,0.036164936,0.176880807,-0.141951546,0.524837613,-2.987132788
3.014681816,0.449624419,0.1501773,-0.907784641,0.023485433,0.349235475,0.241001159,-0.277750075,0.036347739,0.176697016,-0.141377747,0.526636958,-2.985551596
3.019680262,0.439092457,0.180605724,-0.900537848,0.017695731,0.373166859,0.254369467,-0.277847141,0.036488391,0.176555619,-0.140834153,0.528535545,-2.983783245
3.024679422,0.432299495,0.184023917,-0.914784491,0.021997463,0.412862837,0.267493039,-0.278132439,0.036852673,0.176029563,-0.140213653,0.530616283,-2.98197937
3.029679775,0.432339489,0.160108909,-0.920607805,0.008975938,0.467575908,0.28302905,-0.278607905,0.037454143,0.175140306,-0.139563099,0.53299737,-2.980241776
3.034681559,0.450532794,0.123119481,-0.931147873,-0.039471183,0.514469266,0.298818827,-0.278765559,0.03765358,0.174845442,-0.139080197,0.535646021,-2.978601217
3.039678097,0.461913615,0.103967875,-0.934524298,-0.109370761,0.560668766,0.314652026,-0.278886884,0.037807032,0.174618557,-0.138901457,0.53853631,-2.97694993
3.044675589,0.487225294,0.069714919,-0.940145969,-0.15990229,0.613485396,0.32665813,-0.278927118,0.037857912,0.174543336,-0.138886601,0.541723609,-2.975367069
3.049673796,0.473235548,0.030420881,-0.94530338,-0.226607382,0.693776906,0.311676204,-0.279680789,0.039094627,0.171112999,-0.139200777,0.545287609,-2.974104166
3.054673195,0.508242548,0.033664711,-0.945261598,-0.282477856,0.772706509,0.30277738,-0.279930681,0.039504699,0.169975564,-0.139920443,0.549285412,-2.972927809
3.059673548,0.487641096,0.034431729,-0.951823831,-0.333208412,0.865375578,0.289439768,-0.280122936,0.03982022,0.169100389,-0.1409017,0.553683579,-2.971917868
3.064675093,0.477463186,0.036757909,-0.955334127,-0.396651864,0.965640903,0.26620692,-0.280186683,0.039924841,0.168810189,-0.142362386,0.558551729,-2.971137047
3.069671631,0.461362869,0.046593096,-0.985258698,-0.454337031,1.082602978,0.24881199,-0.280973613,0.040711101,0.166478008,-0.144220322,0.563931882,-2.970591545
3.074669123,0.438540906,0.076180428,-0.991318047,-0.48529917,1.226590753,0.231196284,-0.281417131,0.041146453,0.165182844,-0.146412194,0.569969952,-2.970159531
3.079667568,0.444292337,0.082279786,-1.018095732,-0.531930149,1.372289062,0.212571427,-0.281758428,0.041481428,0.164186314,-0.148951411,0.576714694,-2.97004652
3.084667206,0.43231371,0.120323159,-1.03553915,-0.536323965,1.533233047,0.204885587,-0.281871587,0.041592497,0.16385588,-0.151723444,0.584171176,-2.969992638
3.089667797,0.40896219,0.109545827,-1.063939333,-0.562783599,1.720435262,0.188510805,-0.282869726,0.041677028,0.161577314,-0.154673606,0.592505038,-2.970385313
3.09466958,0.410673469,0.13014856,-1.097563624,-0.590535343,1.895479321,0.1922362,-0.284119427,0.041704122,0.158780485,-0.157976046,0.601660669,-2.970944881
3.099666119,0.387035668,0.175706699,-1.114624381,-0.574427426,2.09817934,0.198555872,-0.285080969,0.041724969,0.156628519,-0.161357805,0.611738026,-2.971521139
3.10466361,0.379296631,0.176820233,-1.141905785,-0.558263302,2.319180489,0.212015599,-0.285399795,0.041731883,0.155914962,-0.164715186,0.622879684,-2.972364664
3.109662056,0.367194623,0.119596504,-1.169303298,-0.597427964,2.56870389,0.226913318,-0.285645127,0.041737199,0.155365929,-0.168238774,0.635243058,-2.973682404
3.114661932,0.360332757,0.05446475,-1.209467411,-0.720295846,2.826517582,0.226693764,-0.287525862,0.042126555,0.149344683,-0.172488987,0.648822129,-2.975669861
3.119668484,0.359253675,0.068038963,-1.22845149,-0.853746593,3.102441311,0.220016986,-0.288972974,0.042426143,0.144711748,-0.177840248,0.66369158,-2.978041649
3.124670267,0.35838145,0.165333182,-1.274157166,-0.886817336,3.409082651,0.224561468,-0.289452821,0.042525481,0.143175542,-0.183878124,0.679985702,-2.980611086
3.129667044,0.242534488,0.167556942,-1.228955507,-0.912306905,3.802122831,0.253458112,-0.289822012,0.042601913,0.141993538,-0.190195635,0.698087275,-2.983629227
3.134664536,0.198394895,0.171261787,-1.308305979,-0.991962552,4.205679417,0.303673536,-0.291597068,0.042612843,0.13652882,-0.197236866,0.718129575,-2.987302542
3.139663219,0.163416058,0.187726021,-1.325167775,-1.084961295,4.572227001,0.398123443,-0.294633955,0.042606678,0.127194703,-0.204926282,0.739867806,-2.991079569
3.144662619,0.126059234,0.306233048,-1.294210434,-1.138718486,4.976359844,0.561534822,-0.295640916,0.042604633,0.124099687,-0.213030592,0.763679683,-2.994170427
3.149662971,0.121385165,0.376265764,-1.331706047,-1.175649643,5.421979904,0.740996301,-0.296415687,0.042603061,0.121718287,-0.221326992,0.789838254,-2.996926069
3.154664516,0.158989102,0.326275051,-1.353977323,-1.213541389,5.83651495,0.953358948,-0.296672583,0.042602539,0.12092866,-0.22932148,0.818168879,-2.999530077
3.159661293,0.190858036,0.225864902,-1.331689239,-1.331161737,6.268961906,1.167260647,-0.300993472,0.043525837,0.101909988,-0.237351999,0.848929286,-3.002009392
3.164659262,0.411232024,0.258457392,-1.356098056,-1.449952483,6.585959435,1.318334699,-0.302426189,0.043831985,0.095603757,-0.246149719,0.881588936,-3.004233122
3.169658422,0.817204356,0.273774296,-1.400497913,-1.521267533,6.762413502,1.304920197,-0.303528577,0.044067547,0.090751536,-0.256240785,0.915302634,-3.007444143
3.174657822,1.168602586,0.227330238,-1.50777626,-1.58962667,6.719859123,1.281625509,-0.303894103,0.044145655,0.089142635,-0.267150193,0.94869566,-3.011871576
3.179658175,1.251393795,0.432524353,-1.560568929,-1.58799088,6.563067436,1.297058105,-0.30675897,0.047277573,0.068512835,-0.279013157,0.980967641,-3.016232967
3.184660196,1.202056289,0.629757166,-1.463148355,-1.49325335,6.47416544,1.324980021,-0.308348209,0.049076188,0.056873813,-0.291271865,1.012680292,-3.020587921
3.18965745,1.353455424,0.760606468,-1.560178638,-1.282635331,6.324798107,1.273910761,-0.309571028,0.0504601,0.047918379,-0.303943485,1.043472528,-3.026255131
3.19465518,1.54686749,0.755470514,-1.635034919,-1.017189622,6.024585247,1.274318457,-0.309976488,0.050918978,0.044948924,-0.315150768,1.072665572,-3.032147169
3.199653864,1.579159856,0.736452401,-1.568127751,-0.728753746,5.728443623,1.339540362,-0.309931487,0.053754356,0.031037562,-0.324141443,1.100454092,-3.037229538
3.204653263,1.538114309,0.689533353,-1.474735022,-0.492379099,5.464158058,1.452389598,-0.309556574,0.05719766,0.014700636,-0.330707401,1.127244234,-3.041117668
3.209653854,1.605949402,0.867867351,-1.30993247,-0.141117468,5.256262779,1.522565842,-0.309268087,0.059847046,0.002130481,-0.335675746,1.153310299,-3.043537617
3.214655399,1.542391062,0.708006978,-1.284942746,0.123131,5.06236124,1.518443227,-0.309172422,0.060725532,-0.002037544,-0.338298798,1.178461909,-3.046247959
3.219652414,1.44728148,0.585083544,-1.14573884,0.25973168,4.850264072,1.48870182,-0.30909884,0.061401468,-0.005244556,-0.34013781,1.202622294,-3.048751831
3.224649906,1.263575077,0.380447626,-1.245047569,0.310134619,4.574724674,1.475491285,-0.306998312,0.066664279,-0.02290418,-0.339757681,1.22538054,-3.050427437
3.229648352,0.927188575,0.217088491,-1.382581472,0.238634154,3.999201536,1.445937753,-0.305382103,0.070713654,-0.036492061,-0.336311817,1.244776607,-3.049426794
3.234647989,0.61132741,0.192937642,-1.532367826,0.118309453,3.212968588,1.392755032,-0.304846197,0.072056353,-0.040997546,-0.329641283,1.259750247,-3.04447031
3.239649057,0.401783645,0.234728128,-1.734238863,-0.000396254,2.370891571,1.335883856,-0.304433852,0.073089465,-0.044464212,-0.319390804,1.26996088,-3.035365105
3.244651556,0.445251554,0.335793585,-1.343976498,-0.037880555,1.797001839,1.398029208,-0.302533716,0.076003626,-0.053965323,-0.306118965,1.278089643,-3.021461964
3.249648809,0.897139907,0.341615081,-1.358408928,-0.119840108,1.63030076,1.456974149,-0.299288601,0.080846161,-0.069720581,-0.290525198,1.286235929,-3.004977226
3.2546525,0.824202061,0.468835771,-1.65674293,-0.186350241,1.217674851,1.499783516,-0.298212588,0.08245185,-0.074944727,-0.272235751,1.29164362,-2.985398054
3.259651184,0.259694904,0.588931382,-1.467645884,-0.068389863,0.797393203,1.486719251,-0.297384679,0.08368732,-0.078964353,-0.251924932,1.294729948,-2.963482857
3.264650583,0.071349472,0.575962842,-1.274293184,0.13284716,0.470499843,1.439983249,-0.29711014,0.084096976,-0.08029718,-0.229839519,1.296417713,-2.940806866
3.269650936,0.163173169,0.534759462,-1.226439834,0.283840626,0.148880929,1.404667258,-0.294247717,0.091506653,-0.089395039,-0.205975503,1.296529889,-2.917187691
3.274652719,0.246308878,0.486517906,-1.201891661,0.40188849,-0.205155551,1.397953987,-0.293298602,0.093963563,-0.092411719,-0.180183947,1.2947855,-2.892283678
3.279649258,0.233849049,0.446617216,-1.124631166,0.488354325,-0.541279554,1.390322208,-0.292568326,0.095853992,-0.094732843,-0.15334329,1.291314363,-2.866693497
3.284646749,0.16801846,0.389537483,-1.037295938,0.544504762,-0.85020411,1.363097072,-0.292326182,0.096480817,-0.095502488,-0.126456365,1.286246777,-2.841406345
3.289644957,0.081128463,0.332805693,-0.953532696,0.548131168,-1.112750888,1.319060683,-0.291905999,0.101658575,-0.098479204,-0.100597903,1.279779196,-2.817165136
3.294644833,-0.019027576,0.279937774,-0.874998689,0.518246353,-1.319440246,1.26454401,-0.291708827,0.104537323,-0.100056283,-0.076453149,1.272196531,-2.794588566
3.299645901,-0.115286082,0.234258309,-0.800084114,0.462821603,-1.466966867,1.199892998,-0.291557103,0.106752329,-0.101269737,-0.054497149,1.26382637,-2.774027348
3.304647446,-0.184356004,0.19607164,-0.74293977,0.390056878,-1.56014967,1.12062633,-0.291506797,0.107486784,-0.101672098,-0.035054248,1.254949212,-2.755753517
3.309644222,-0.226483017,0.166572645,-0.696579099,0.294242918,-1.622615576,1.033064842,-0.292224735,0.110407069,-0.101393096,-0.018291999,1.245728493,-2.739741087
3.314641714,-0.240301684,0.145799726,-0.666388631,0.184483439,-1.667591453,0.927833974,-0.293225795,0.113750331,-0.100707047,-0.004469913,1.236257195,-2.726193666
3.31964016,-0.230238125,0.12612161,-0.653117478,0.070311591,-1.707485795,0.810113013,-0.293996036,0.116322741,-0.100179173,0.006483696,1.226555347,-2.715105295
3.324639559,-0.204475999,0.119733587,-0.652993441,-0.048243336,-1.749506354,0.678112864,-0.294251412,0.117175706,-0.100004144,0.014397313,1.216639161,-2.706591845
3.329639912,-0.167499453,0.119652174,-0.662171364,-0.163320631,-1.797479033,0.53644985,-0.294447929,0.117831998,-0.099869467,0.019385127,1.206473589,-2.700529814
3.334641695,-0.122857206,0.128241062,-0.674508929,-0.265366256,-1.857506633,0.385829717,-0.296676338,0.12177439,-0.096757941,0.021568781,1.196024776,-2.696788549
3.339638472,-0.071444422,0.149346501,-0.686022639,-0.347772747,-1.932115436,0.233974099,-0.298390955,0.124807797,-0.094363831,0.021150459,1.185223699,-2.695307016
3.344635963,-0.016264869,0.176595733,-0.692336142,-0.398727864,-2.023014307,0.086027212,-0.298959464,0.125813618,-0.093569994,0.018557761,1.173999548,-2.69578433
3.349635124,0.028815497,0.21177122,-0.695703268,-0.419522494,-2.125659704,-0.05754818,-0.299396902,0.126587525,-0.092959188,0.014131191,1.162287831,-2.698011637
3.354634523,0.057138491,0.246055752,-0.699599743,-0.408769608,-2.224644423,-0.19488661,-0.301095426,0.128250659,-0.090370074,0.00826262,1.15009284,-2.701697588
3.359634876,0.079295903,0.269114703,-0.714574397,-0.363747388,-2.317400455,-0.330703139,-0.303973138,0.130952552,-0.085964717,0.001390524,1.137434363,-2.706715584
3.364636421,0.105139881,0.279631466,-0.727909267,-0.3012335,-2.404713631,-0.460152507,-0.304927319,0.131848454,-0.084503986,-0.006196568,1.124326706,-2.712897539
3.369633198,0.144028232,0.281588942,-0.75088501,-0.22899954,-2.495455027,-0.584201694,-0.3056615,0.132537782,-0.083380044,-0.014245406,1.110739946,-2.720067501
3.374630928,0.190688431,0.27289784,-0.78019315,-0.167779014,-2.591694832,-0.699874997,-0.305904955,0.132766351,-0.083007365,-0.022596708,1.096645474,-2.727997541
3.37962985,0.247722268,0.259589374,-0.816071391,-0.113355659,-2.706307173,-0.812501371,-0.310883373,0.134600714,-0.073651917,-0.031175362,1.081925988,-2.736575842
3.38462925,0.304215699,0.245203659,-0.847295225,-0.071272075,-2.836794138,-0.919088721,-0.312534124,0.135208935,-0.070549823,-0.039919335,1.066506147,-2.74570179
3.389635801,0.347014785,0.228344873,-0.872894108,-0.04009109,-2.982523203,-1.011744022,-0.313804239,0.135676935,-0.068162978,-0.048658941,1.050287366,-2.755144119
3.394637585,0.375391752,0.214949772,-0.893735647,-0.015753487,-3.13022542,-1.092453122,-0.314225405,0.135832116,-0.06737154,-0.057268847,1.03328824,-2.764714479
3.399634361,0.396772414,0.209514007,-0.912953734,0.009817708,-3.280025482,-1.157875896,-0.319440186,0.134637371,-0.059672426,-0.065607652,1.015487909,-2.774229288
3.40463233,0.409306794,0.202318728,-0.920985878,0.036446065,-3.422656298,-1.20938921,-0.3223795,0.133916035,-0.055365063,-0.07353802,0.996946454,-2.783538103
3.409630775,0.41967231,0.188408315,-0.922996759,0.060830057,-3.553982019,-1.246311665,-0.324641138,0.133360997,-0.05205084,-0.080932572,0.977739036,-2.792528391
3.414630175,0.436384469,0.16986531,-0.923349619,0.082392268,-3.675904036,-1.269510269,-0.325391054,0.133176968,-0.050951906,-0.087721832,0.957938313,-2.801097631
3.419630527,0.458532959,0.15671739,-0.918864071,0.090870455,-3.788513184,-1.277366042,-0.328851432,0.131504431,-0.04381682,-0.093918666,0.937611639,-2.809118032
3.424632311,0.482738197,0.14905335,-0.912872732,0.094788857,-3.892790556,-1.268467069,-0.332906425,0.129406065,-0.035108626,-0.099500768,0.916809082,-2.816501141
3.429629087,0.506646752,0.149409115,-0.910626531,0.092130132,-3.979889631,-1.262599707,-0.33602649,0.127791509,-0.028408259,-0.104612797,0.895623624,-2.823329926
3.434626818,0.532960773,0.148889989,-0.907838881,0.089334764,-4.055693626,-1.258493423,-0.337061048,0.127256155,-0.026186544,-0.109280854,0.874121189,-2.829676151
3.439625263,0.559965253,0.145646781,-0.917409182,0.091143459,-4.127889156,-1.265249133,-0.337857068,0.126844227,-0.024477087,-0.113594845,0.852312446,-2.835671902
3.444624662,0.585099459,0.131789401,-0.925616086,0.082560934,-4.191453934,-1.274216533,-0.342896312,0.123105578,-0.01134969,-0.117590599,0.83022052,-2.841398239
3.449625015,0.605486751,0.132376984,-0.908139586,0.045061797,-4.218806267,-1.282714128,-0.346773654,0.120228946,-0.00124905,-0.121554404,0.808065414,-2.846837044
3.454626799,0.659484446,0.144652247,-0.9465487,0.019254254,-4.255602837,-1.304594398,-0.348059297,0.119275108,0.002100131,-0.12550953,0.785774708,-2.852111816
3.459623575,0.70390594,0.152124718,-0.968972921,0.011460092,-4.305028439,-1.342002511,-0.349048525,0.118541196,0.004677098,-0.129368484,0.763244808,-2.857324123
3.464621305,0.735499024,0.151524633,-0.985647261,-0.002461467,-4.352443218,-1.389243484,-0.351228327,0.116184577,0.013369216,-0.133231595,0.740497053,-2.862567902
3.469619751,0.764190853,0.152549058,-1.000319839,-0.015109384,-4.391989708,-1.435483813,-0.354777992,0.112234466,0.027982293,-0.137086675,0.717569351,-2.867836475
3.47461915,0.7825827,0.155976146,-1.014061928,-0.023905592,-4.426446438,-1.485818386,-0.355954975,0.110924684,0.032827713,-0.140924782,0.694482148,-2.873138428
3.479619503,0.793557465,0.155878231,-1.026363254,-0.031617694,-4.447830677,-1.536673188,-0.356860608,0.109916896,0.036555935,-0.144750416,0.671288848,-2.878519773
3.484621048,0.80501461,0.152395591,-1.043917894,-0.045270324,-4.458693981,-1.591343403,-0.357160896,0.10958273,0.037792139,-0.148573324,0.648032725,-2.884013891
3.489617825,0.820381701,0.150860265,-1.05960393,-0.057288405,-4.457846165,-1.640488386,-0.359697282,0.103012659,0.05930794,-0.152392998,0.624802649,-2.889589548
3.494615316,0.835439801,0.158201694,-1.0752002,-0.068928547,-4.444599628,-1.689920306,-0.360538304,0.100834154,0.066442177,-0.156222537,0.601638734,-2.895229816
3.499613762,0.85655421,0.159052059,-1.097360373,-0.078482926,-4.424736023,-1.734525442,-0.361185402,0.099157944,0.071931481,-0.160007328,0.578593314,-2.900934458
3.504613161,0.890054584,0.158997566,-1.126011848,-0.089134134,-4.397651672,-1.780997992,-0.361399978,0.098602138,0.073751628,-0.163770884,0.555715203,-2.90672493
3.509613514,0.940782189,0.151174814,-1.159120202,-0.102856331,-4.372010708,-1.825341344,-0.361775726,0.09259399,0.091929778,-0.167499647,0.533008516,-2.912622929
3.514615297,0.996542156,0.137578905,-1.195514917,-0.120819181,-4.358894825,-1.873385072,-0.361952424,0.089220889,0.102108993,-0.171196714,0.510405958,-2.918627739
3.519612074,1.054163933,0.135164082,-1.229624629,-0.135881498,-4.355202198,-1.917749524,-0.362088412,0.086625516,0.109941199,-0.17485933,0.487882197,-2.924680233
3.524616241,1.107174158,0.151455551,-1.265771151,-0.142858163,-4.362073421,-1.960283995,-0.362133503,0.085764945,0.112538211,-0.178470507,0.465363741,-2.930727005
3.529615402,1.155831814,0.185651734,-1.287768126,-0.11813245,-4.383717537,-1.997515202,-0.361412406,0.081155002,0.122704588,-0.18188183,0.442784011,-2.936710119
3.53461504,1.196879148,0.224054262,-1.299738407,-0.060921844,-4.406430244,-2.023249388,-0.360411137,0.075645499,0.134312272,-0.184900433,0.420161128,-2.942554712
3.539615631,1.229124069,0.254927486,-1.302053452,0.023530019,-4.430720329,-2.033425331,-0.359640747,0.071406312,0.143243596,-0.187329963,0.397493511,-2.948183298
3.544617176,1.260145068,0.287183106,-1.2918576,0.132452846,-4.454780102,-2.022159576,-0.359385312,0.070000671,0.146205053,-0.189033464,0.37481308,-2.953483105
3.549614191,1.29311645,0.312448263,-1.271423459,0.258970827,-4.473442554,-1.996208549,-0.359188765,0.06891913,0.148483709,-0.18992345,0.352196395,-2.958412409
3.554611444,1.328685522,0.30910936,-1.22670424,0.384119749,-4.478542328,-1.938502431,-0.356373101,0.061336044,0.164550275,-0.189903244,0.329744756,-2.962982178
3.559610367,1.380071759,0.291464895,-1.162017345,0.481570631,-4.453040123,-1.856025815,-0.354206592,0.055501375,0.176912397,-0.18913953,0.307694286,-2.967059612
3.564609766,1.43259573,0.246364251,-1.133444428,0.561175287,-4.425240993,-1.740841389,-0.353488237,0.053566713,0.181011438,-0.187621653,0.286071479,-2.970621586
3.569610357,1.47394228,0.195844442,-1.083737373,0.572857201,-4.380928516,-1.600856781,-0.352935523,0.05207812,0.184165373,-0.185724616,0.264938414,-2.973592281
3.574611902,1.509412646,0.15832302,-1.016516089,0.525856197,-4.321528435,-1.416475773,-0.350084722,0.047753997,0.194451943,-0.183778629,0.244424894,-2.975735188
3.579608679,1.507778764,0.122099705,-0.947504103,0.434359103,-4.239492416,-1.201391816,-0.345193923,0.040553607,0.211710617,-0.182005405,0.224592164,-2.976939201
3.584606171,1.49479115,0.100451678,-0.873911202,0.294152439,-4.134359837,-0.968054175,-0.343572229,0.038166095,0.217433274,-0.180695713,0.205544874,-2.977078199
3.589604616,1.481783986,0.077278607,-0.798916996,0.128798947,-4.010929585,-0.72651583,-0.342324436,0.036329065,0.221836463,-0.179998294,0.187384456,-2.976142883
3.594604015,1.472780228,0.047751576,-0.733117759,-0.057360947,-3.871507883,-0.495248914,-0.34191069,0.035719939,0.223296478,-0.180046409,0.17016317,-2.974241018
3.599604368,1.476157308,0.008786894,-0.662148714,-0.260799199,-3.725131273,-0.272702157,-0.333765447,0.029671367,0.243092895,-0.180930033,0.153918535,-2.971443892
3.604607821,1.488348126,-0.013210215,-0.595879614,-0.47782892,-3.575754404,-0.063716307,-0.331064612,0.027665777,0.249657005,-0.182809517,0.138671875,-2.967737675
3.609606028,1.498927951,-0.017872864,-0.528717399,-0.699801743,-3.424105883,0.130223393,-0.328986496,0.026122611,0.254707634,-0.185771495,0.124410033,-2.963116646
3.614604235,1.510207772,-0.0106365,-0.464129657,-0.904072225,-3.26941514,0.312907726,-0.328297436,0.025610927,0.256382316,-0.189739943,0.111138426,-2.957617521
3.61960268,1.531746149,0.006724761,-0.397814512,-1.085800886,-3.113243341,0.47772938,-0.321160108,0.022560628,0.269788116,-0.194644898,0.098873161,-2.951224089
3.624602079,1.568515539,0.021008454,-0.327737033,-1.231492877,-2.959805965,0.620581329,-0.31715855,0.020891825,0.277231693,-0.200299859,0.087612912,-2.944081068
3.629602671,1.609477758,0.034159582,-0.250704706,-1.340236068,-2.802852154,0.742629051,-0.314079612,0.019607794,0.282958984,-0.20655109,0.077363923,-2.936286926
3.634605169,1.643927932,0.061478607,-0.171105951,-1.411257029,-2.639032602,0.84284091,-0.313058674,0.019182034,0.284858048,-0.213230789,0.068131559,-2.927890062
3.639602661,1.67259419,0.088535227,-0.097050428,-1.448572874,-2.463376045,0.92132014,-0.308715105,0.017568195,0.29188028,-0.220194459,0.059953429,-2.919004917
3.644600153,1.699335217,0.104211941,-0.02358607,-1.442589998,-2.277835369,0.973093271,-0.303686947,0.01573603,0.29981643,-0.227197021,0.052849744,-2.90982461
3.64959836,1.7204808,0.113915995,0.056562465,-1.404307961,-2.078372478,0.998179078,-0.299818099,0.014326304,0.305922776,-0.234076187,0.046837047,-2.900558233
3.654597998,1.718738556,0.125414491,0.134853721,-1.332324028,-1.854326963,0.999315917,-0.298535258,0.013858866,0.307947516,-0.240662962,0.041969325,-2.891355753
3.659605026,1.702525258,0.137724683,0.202209949,-1.2333498,-1.607404828,0.985986769,-0.297548205,0.013499204,0.309505403,-0.246824011,0.038316879,-2.882342339
3.664607286,1.681871533,0.161867306,0.25492239,-1.112648964,-1.339150429,0.963250279,-0.291928887,0.011311364,0.317028642,-0.252473235,0.035967968,-2.873557091
3.66960454,1.660134315,0.18217586,0.291796714,-0.972002089,-1.054321885,0.934813321,-0.287605196,0.009627972,0.322817266,-0.257468551,0.034975864,-2.865116835
3.674602032,1.637392879,0.203244105,0.316541493,-0.815330386,-0.75691849,0.909687102,-0.286171556,0.00906979,0.324736655,-0.2617293,0.035384558,-2.857053757
3.679600477,1.602602005,0.221652672,0.324371964,-0.653556108,-0.455800772,0.88269949,-0.285068452,0.008640307,0.326213479,-0.265223533,0.03718473,-2.849419594
3.684599876,1.572932839,0.253730178,0.308177769,-0.490390539,-0.159313649,0.865297258,-0.282922983,0.007935108,0.328807086,-0.267955005,0.040373061,-2.842118502
3.689600468,1.547161102,0.281682998,0.271844029,-0.331273347,0.123588324,0.853904903,-0.279472679,0.006823434,0.332930118,-0.269913614,0.044882324,-2.835160971
3.694602489,1.52855742,0.304794341,0.220612779,-0.184789836,0.386007011,0.847894311,-0.278328627,0.006454825,0.33429724,-0.271153599,0.050613571,-2.828539133
3.699599504,1.507924438,0.322524071,0.15793547,-0.057939775,0.620834947,0.843958318,-0.277448356,0.006171205,0.335349143,-0.271762341,0.057423268,-2.822247267
3.704596996,1.345168114,0.378084064,0.09251482,0.082719579,0.890746176,0.865816534,-0.277156472,0.006077162,0.335697919,-0.271831125,0.065152727,-2.816249132
3.70959568,0.369960904,1.290227413,0.192970544,1.857073545,1.903267384,0.740390003,-0.277600765,0.007109188,0.33730188,-0.264878541,0.075488523,-2.809924126
3.714595079,1.600167274,1.612093568,0.282694101,3.244898558,2.911568403,0.485598356,-0.277748078,0.007451389,0.337833703,-0.250428021,0.094485268,-2.802780867
3.719595671,0.028645068,0.251432747,-0.124204636,3.183128357,2.952891827,0.830427527,-0.277861416,0.007714688,0.338242918,-0.233473167,0.110004537,-2.803155422
3.724597454,-0.466713905,0.191307291,0.074680932,3.412135124,3.176404476,0.631984234,-0.277898997,0.007801994,0.338378578,-0.216774702,0.124525636,-2.803773165
