Time,inertial-6253.76535:scaledAccelX,inertial-6253.76535:scaledAccelY,inertial-6253.76535:scaledAccelZ,inertial-6253.76535:scaledGyroX,inertial-6253.76535:scaledGyroY,inertial-6253.76535:scaledGyroZ,inertial-6253.76535:scaledMagX,inertial-6253.76535:scaledMagY,inertial-6253.76535:scaledMagZ,inertial-6253.76535:roll,inertial-6253.76535:pitch,inertial-6253.76535:yaw
0,0.392478228,-0.027403617,-0.920066476,0.004349782,-0.004699966,0.004381703,-0.328370452,0.028998474,0.370469481,0.040861584,0.396499157,-3.008307457
0.005001984,0.393701971,-0.027037442,-0.92052263,0.003142629,-0.004484514,0.004773368,-0.327986449,0.028983938,0.370084971,0.040865891,0.396484345,-3.008309126
0.009999104,0.39388299,-0.02743954,-0.920932829,0.003425587,-0.005929892,0.004293072,-0.327859133,0.028979119,0.369957477,0.04087203,0.396473527,-3.008315325
0.014996736,0.393673211,-0.025989247,-0.920475841,0.003366478,-0.00644525,0.003280722,-0.327761143,0.028975409,0.369859397,0.040870667,0.3964535,-3.008321285
0.019995648,0.394606441,-0.025228247,-0.920227647,0.003160285,-0.006050045,0.003804449,-0.327927738,0.028923476,0.370183915,0.040878065,0.396433294,-3.008317471
0.024995329,0.397512197,-0.026319729,-0.923529565,0.002526388,-0.007847493,0.002385105,-0.328257233,0.028832247,0.370794654,0.040878002,0.396410882,-3.008335352
0.029996287,0.391488671,-0.024986422,-0.918819904,0.003814264,-0.010011076,0.00559985,-0.328366488,0.028801998,0.370997161,0.040884025,0.396365285,-3.008329868
0.034998015,0.390610695,-0.026164871,-0.920074403,0.003388895,-0.007500372,0.005009984,-0.328450561,0.028778724,0.371152967,0.040882673,0.396339208,-3.008338928
0.039994881,0.391102076,-0.027377974,-0.919229925,0.004541326,-0.006469934,0.004501017,-0.328478426,0.028771006,0.371204615,0.040902313,0.396313697,-3.008350849
0.044992767,0.39190957,-0.0249508,-0.921701908,0.003470556,-0.008877998,0.005379823,-0.328372926,0.029169228,0.371364266,0.040900227,0.396277308,-3.008341551
0.049997568,0.391728371,-0.026282109,-0.921978176,0.004878019,-0.009447457,0.005405521,-0.328337938,0.029301271,0.371417195,0.040915295,0.396238446,-3.008330107
0.054997504,0.392062694,-0.026352383,-0.919273674,0.004166408,-0.006779092,0.005657952,-0.328310996,0.029402869,0.371457905,0.04092551,0.396208823,-3.008326054
0.059998464,0.393639773,-0.027546419,-0.923561096,0.004305155,-0.009215114,0.006081809,-0.328302085,0.029436557,0.371471405,0.040936623,0.396171957,-3.008324623
0.065000191,0.391012579,-0.025375266,-0.918280184,0.003831747,-0.006987129,0.007479793,-0.328145385,0.029460445,0.371574461,0.040951401,0.396140486,-3.008303404
0.069996797,0.392677128,-0.025979036,-0.923082292,0.003823419,-0.009257565,0.004048266,-0.328056335,0.029467864,0.371631563,0.040952988,0.396108508,-3.008305311
0.07499443,0.391356915,-0.025914956,-0.921953201,0.003483507,-0.006798621,0.003772314,-0.32798779,0.029473573,0.371675491,0.040952493,0.396080375,-3.008307934
0.079993345,0.3906672,-0.025930969,-0.924137771,0.002552572,-0.0069155,0.003863146,-0.327965081,0.029475465,0.371690035,0.040954031,0.396045566,-3.008303642
0.084993027,0.39080739,-0.025070705,-0.919449866,0.00307719,-0.007562006,0.005683701,-0.327945173,0.029303597,0.371703148,0.040954649,0.396015495,-3.008301973
0.08999373,0.392223567,-0.025929008,-0.921341419,0.003416878,-0.00756671,0.003472777,-0.327936143,0.029071832,0.371709436,0.040959511,0.395992637,-3.008312702
0.094995715,0.391061157,-0.02755964,-0.920006096,0.003316414,-0.007806887,0.004327646,-0.327929169,0.028893502,0.371714264,0.040971495,0.395964503,-3.008319139
0.099992573,0.391534001,-0.025371823,-0.921462059,0.002844841,-0.00745972,0.004001113,-0.327926874,0.028834373,0.371715873,0.040965568,0.395937383,-3.008321285
0.104990467,0.391388029,-0.027605774,-0.921586215,0.002134178,-0.007877728,0.003987065,-0.327925086,0.028788878,0.371717095,0.04096774,0.39590925,-3.00833559
0.109989122,0.391995937,-0.026895825,-0.920729339,0.004316892,-0.005110574,0.004673366,-0.327622265,0.028761435,0.370995343,0.040975276,0.395893872,-3.008346081
0.114989057,0.390130848,-0.025857506,-0.919943631,0.004250313,-0.007316345,0.005486625,-0.3273893,0.02874032,0.370440006,0.040987071,0.395868242,-3.008343935
0.11998976,0.390070468,-0.026797755,-0.919817924,0.003535052,-0.005732906,0.006087014,-0.327312052,0.028733319,0.370255858,0.040992018,0.395848811,-3.008348703
0.124991745,0.390276372,-0.027597416,-0.920698106,0.003210055,-0.006636911,0.004561148,-0.327252597,0.028727932,0.370114177,0.041003369,0.395829827,-3.00836277
0.129988611,0.392044723,-0.026797328,-0.919856369,0.002627087,-0.005475488,0.004559779,-0.327434897,0.028905548,0.370313197,0.040999386,0.395810783,-3.00836134
0.13498649,0.392541289,-0.026062086,-0.921329856,0.002214915,-0.003359654,0.003647958,-0.327779472,0.029223617,0.370715082,0.040998064,0.395801544,-3.008360863
0.139985412,0.393707752,-0.025140287,-0.922037363,0.001346008,-0.00445501,0.004318594,-0.327893704,0.029329082,0.370848328,0.040988106,0.39579165,-3.00834775
0.144985855,0.392666668,-0.02431844,-0.921469986,0.000305468,-0.00545146,0.003762898,-0.327981621,0.02941023,0.370950878,0.040971316,0.395774633,-3.008340359
0.149986565,0.391121775,-0.025473483,-0.921406388,0.001412325,-0.006903541,0.003540383,-0.328010768,0.029437138,0.370984882,0.040964399,0.395748317,-3.008341551
0.154988289,0.391340375,-0.02582922,-0.92108804,0.002232613,-0.004041029,0.004952,-0.327764809,0.029186953,0.371516615,0.040967472,0.395735979,-3.008348465
0.159985155,0.391294271,-0.023445832,-0.921289265,0.003343802,-0.004475065,0.002694987,-0.32768324,0.029103998,0.371692955,0.040964615,0.395731568,-3.008349657
0.164983302,0.391594142,-0.024649322,-0.921181798,0.001619865,-0.004836581,0.005483747,-0.327620476,0.029040167,0.371828616,0.040961597,0.395712614,-3.008341074
0.169981956,0.390932024,-0.02633952,-0.919471025,0.003212903,-0.003528793,0.004822956,-0.327599674,0.029019004,0.371873587,0.040967539,0.395708025,-3.008350849
0.174981892,0.388918996,-0.026113238,-0.922336817,0.001772653,-0.002756548,0.003036915,-0.327885389,0.02915895,0.371673495,0.040958118,0.39569658,-3.00835824
0.179982588,0.390322387,-0.026771348,-0.920689464,0.00179507,-0.003252613,0.00507141,-0.328054786,0.029244013,0.37154907,0.040962826,0.395688236,-3.008359909
0.184990466,0.389922857,-0.026122069,-0.921907663,0.00282282,-0.00282431,0.004290774,-0.328185111,0.029309465,0.371453315,0.040959317,0.39568606,-3.008362532
0.189993471,0.390647471,-0.02423601,-0.920212984,0.003201984,-0.003424712,0.004700603,-0.328228354,0.029331168,0.371421576,0.040956397,0.395674497,-3.008354664
0.194991365,0.390653729,-0.02484422,-0.923221052,0.002063122,-0.003117675,0.003438432,-0.328002781,0.029195013,0.371014118,0.040958729,0.395670146,-3.008350611
0.199990019,0.390553832,-0.026158107,-0.921174407,0.004108976,-0.003234367,0.00580241,-0.327666998,0.028995728,0.370492786,0.040965445,0.395659596,-3.008350849
0.204989702,0.392457694,-0.025963932,-0.920365155,0.002401615,-0.003307327,0.004268837,-0.327408642,0.028842393,0.370091647,0.04096543,0.395654619,-3.008353949
0.20999065,0.390281647,-0.026787199,-0.921537697,0.003528101,-0.005121503,0.004241416,-0.32732296,0.028791551,0.369958609,0.040973749,0.395637214,-3.008361101
0.214992389,0.392454386,-0.02519897,-0.921259403,0.003058005,-0.004001974,0.004102485,-0.327257067,0.028752429,0.369856238,0.040971454,0.395629883,-3.008364439
0.219989508,0.393399388,-0.025570847,-0.920804441,0.004041856,-0.004732173,0.005612006,-0.327588707,0.028805397,0.370735943,0.040985718,0.395620883,-3.00836277
0.224987134,0.392843992,-0.027149614,-0.921297669,0.004052097,-0.002769956,0.004043707,-0.327843904,0.02884615,0.371412814,0.040995389,0.395620972,-3.008379459
0.229985788,0.39248091,-0.027176615,-0.921184897,0.00199122,-0.003066351,0.004695284,-0.327928513,0.028859664,0.371637255,0.040997189,0.395609796,-3.008382559
0.234985724,0.389124006,-0.029355304,-0.920512617,0.002530697,-0.003699183,0.004932975,-0.327993631,0.028870063,0.37180993,0.041008599,0.395593226,-3.008405209
0.239986435,0.388882786,-0.028790843,-0.921955585,0.002745029,-0.004758453,0.00477165,-0.327987194,0.028901847,0.371866316,0.041010436,0.395581663,-3.008418798
0.244988412,0.390258282,-0.026329195,-0.920040905,0.003397139,-0.002203149,0.00471494,-0.327953905,0.028954959,0.371908844,0.041013952,0.39557755,-3.008413792
0.249985278,0.39064306,-0.027619161,-0.920052767,0.005089123,-0.004406305,0.004195553,-0.327942878,0.028972568,0.37192294,0.041035675,0.395564526,-3.008420706
0.254983157,0.390911579,-0.028147724,-0.922084093,0.004649661,-0.00294276,0.004311862,-0.327934355,0.028986119,0.371933788,0.041056026,0.395559698,-3.008433819
0.259982347,0.391288996,-0.02838311,-0.920099974,0.003732272,-0.00240394,0.003964394,-0.327931523,0.028990611,0.371937394,0.041064028,0.395556748,-3.008444786
0.264982015,0.392177075,-0.028059209,-0.922742307,0.002699867,-0.004180045,0.004650934,-0.32779184,0.028976414,0.370287508,0.041068591,0.395546079,-3.008460999
0.269982725,0.390998751,-0.025638156,-0.922656775,0.004018576,-0.003091085,0.003147135,-0.327745497,0.028971707,0.369740456,0.041070364,0.395534515,-3.008464336
0.274984717,0.390007377,-0.02624315,-0.923677921,0.002818658,-0.004472768,0.004023957,-0.327709854,0.028968085,0.369319528,0.041076694,0.395520359,-3.008467436
0.279981554,0.392953962,-0.026252044,-0.922645807,0.004201378,-0.00382014,0.003520526,-0.327698052,0.028966883,0.369179934,0.041086275,0.395516068,-3.008471489
0.284979463,0.392938256,-0.024817329,-0.922347844,0.003181329,-0.003332571,0.002615361,-0.327943802,0.029034764,0.370509595,0.04107805,0.395512074,-3.008473873
0.289978355,0.390218228,-0.02629241,-0.919854224,0.00081217,-0.002949008,0.001656408,-0.328088373,0.029074298,0.371306092,0.04106725,0.395502001,-3.008491993
0.294978291,0.391505539,-0.023295192,-0.922728777,0.002991161,-0.00276302,0.003878494,-0.328199625,0.029104717,0.371918947,0.041062605,0.395500362,-3.008476257
0.299979001,0.38983348,-0.02342114,-0.922084272,0.002166274,-0.003214755,0.003969239,-0.32823652,0.029114803,0.372122139,0.041059282,0.395493865,-3.008476973
0.304980993,0.389011949,-0.023705177,-0.922887325,0.003283481,-0.003387435,0.00475858,-0.327952445,0.029144412,0.372163683,0.041058477,0.395484865,-3.008461952
0.309978098,0.39111051,-0.025043167,-0.921202719,0.00363072,-0.002757799,0.005125499,-0.327543139,0.029176263,0.37206167,0.041072343,0.395478189,-3.008455753
0.314975739,0.392462075,-0.025899591,-0.92144835,0.004736411,-0.00161462,0.004432631,-0.327228218,0.02920077,0.3719832,0.041083634,0.395485878,-3.0084517
0.319980532,0.391999215,-0.025174821,-0.920650959,0.003988089,-0.004199326,0.00502595,-0.327123791,0.029208895,0.371957183,0.041090179,0.39547199,-3.008443117
0.324980229,0.39108175,-0.024598144,-0.921572745,0.003290466,-0.003337479,0.004774822,-0.327043444,0.029215148,0.371937186,0.04109427,0.39546591,-3.008428335
0.329981446,0.39098987,-0.026380707,-0.920032263,0.004450938,-0.003887,0.005068564,-0.327418089,0.029276706,0.372033179,0.041104089,0.395452797,-3.008426189
0.33498317,0.390255123,-0.026801122,-0.921581209,0.005302923,-0.004557761,0.005346343,-0.327706337,0.02932407,0.372107029,0.041122962,0.395439148,-3.008430243
0.339980036,0.390797317,-0.025919378,-0.919253647,0.005593731,-0.003064464,0.004080688,-0.327801913,0.029339775,0.372131526,0.041135047,0.395438313,-3.008431196
0.344977677,0.392579854,-0.025522342,-0.922638834,0.004611366,-0.001825143,0.004050062,-0.327875495,0.02935186,0.372150362,0.04114677,0.395439416,-3.008427382
0.349976569,0.390647918,-0.027206795,-0.918728471,0.005368798,-0.002582342,0.006082954,-0.327841908,0.029296001,0.372047663,0.041167572,0.395430684,-3.008417368
0.354976267,0.39127782,-0.027708149,-0.922343254,0.004641038,-0.003206115,0.006105371,-0.327757508,0.029192489,0.371858478,0.041185953,0.395425856,-3.008421421
0.359977216,0.391649514,-0.027028739,-0.920014501,0.00481924,-0.003262807,0.006286422,-0.327729523,0.029158166,0.371795774,0.041201416,0.395422518,-3.00841403
0.364978939,0.392398864,-0.026175505,-0.922783315,0.003827531,-0.005850101,0.005729721,-0.327707976,0.029131757,0.371747494,0.041209657,0.395408988,-3.008412123
0.369976074,0.392308921,-0.025903862,-0.920463145,0.002960649,-0.001685756,0.005449938,-0.327700824,0.029122999,0.37173149,0.041217588,0.395407259,-3.008411884
0.374973685,0.390419126,-0.025713772,-0.922243536,0.004039838,-0.004371684,0.005756387,-0.328085154,0.028771501,0.37014401,0.041224547,0.3953861,-3.008417368
0.379972607,0.388906658,-0.026559107,-0.921848178,0.003755753,-0.002410807,0.005268663,-0.328212589,0.028654952,0.369617611,0.041229825,0.395382106,-3.008429766
0.384972543,0.389419556,-0.025221642,-0.920671701,0.003114206,-0.004192281,0.005031162,-0.328310639,0.028565273,0.369212598,0.041234709,0.395363688,-3.008426428
0.389973253,0.390009105,-0.025703343,-0.92272085,0.002689884,-0.000348213,0.005712642,-0.328343153,0.028535537,0.369078308,0.041241542,0.395368516,-3.008424282
0.394975245,0.390888333,-0.026914027,-0.9219836,0.002319081,-1.58E-05,0.006378254,-0.327673644,0.028713059,0.370105475,0.041248284,0.395368576,-3.008420706
0.399972081,0.389612675,-0.02713966,-0.924383044,0.001218194,-0.0013721,0.005570155,-0.327279776,0.028821509,0.37072584,0.041250579,0.395370543,-3.008421183
0.40496999,0.389777422,-0.026415059,-0.921821296,0.002864995,0.000210236,0.00351928,-0.326976746,0.028904958,0.371203125,0.041249417,0.395373166,-3.008433819
0.409968644,0.390783757,-0.027297862,-0.921196401,0.002095918,-0.001312104,0.004591832,-0.326876253,0.028932627,0.371361405,0.041247003,0.395373583,-3.008437634
0.414968818,0.391011596,-0.025866594,-0.924246609,0.000863064,0.000644505,0.003633568,-0.327168584,0.029044501,0.371136725,0.041237365,0.395388156,-3.008437395
0.419969529,0.38924244,-0.027257876,-0.920946002,0.000397389,-0.000990936,0.005286215,-0.327638268,0.029172944,0.370712876,0.041233551,0.395378947,-3.008439779
0.424971521,0.391140938,-0.028126149,-0.923965812,0.001785064,-0.001882813,0.005320653,-0.327999651,0.02927177,0.37038675,0.041236892,0.395382106,-3.008444548
0.429968625,0.390853882,-0.026662355,-0.922600925,0.000635753,0.000733385,0.004995435,-0.328119487,0.029304538,0.370278627,0.041226104,0.395395041,-3.008444071
0.434966534,0.391617447,-0.026490204,-0.921544731,0.001046189,0.000944531,0.004747899,-0.328211695,0.029329753,0.370195419,0.04122417,0.395403862,-3.008440018
0.439965427,0.391836554,-0.025980297,-0.922788143,0.002535953,0.001468356,0.004472952,-0.327892572,0.029236147,0.370878637,0.041226033,0.395428002,-3.008434534
0.444965363,0.38981095,-0.024577919,-0.921172202,0.002656977,0.000877525,0.004737677,-0.327647001,0.029164124,0.37140432,0.04122778,0.395433068,-3.008429766
0.449966341,0.391462177,-0.024658786,-0.921302676,0.00208297,-0.000948818,0.005878214,-0.327565581,0.029140243,0.371578634,0.041224889,0.395441592,-3.008416891
0.454974204,0.392612338,-0.023618046,-0.921478093,0.00342044,-0.001281905,0.005504069,-0.327502936,0.029121868,0.371712774,0.041229963,0.39545393,-3.00839901
0.45997721,0.391144216,-0.025065091,-0.920473278,0.00156305,0.000424327,0.006653601,-0.327623993,0.029172827,0.371379614,0.041225869,0.395459265,-3.008385658
0.464975357,0.391925633,-0.027719218,-0.92217505,0.002855744,0.000397586,0.005828433,-0.327860594,0.029269725,0.370741457,0.041240189,0.395477057,-3.008383989
0.469974011,0.392019302,-0.025538329,-0.921861231,0.003662723,0.000474672,0.005775707,-0.327939034,0.029301856,0.37052986,0.041245114,0.395484984,-3.008372784
0.474973947,0.392701149,-0.02653061,-0.920054972,0.003002035,0.00147133,0.005811189,-0.327999413,0.029326577,0.37036702,0.041250426,0.395501196,-3.008368731
0.479974657,0.393400997,-0.025956642,-0.92143625,0.002185819,0.000534399,0.005165934,-0.32801941,0.029334774,0.370313019,0.041253507,0.395519376,-3.008366108
0.484976381,0.393868029,-0.028030058,-0.921249926,0.003113438,-0.001233298,0.004888481,-0.328697473,0.029217595,0.370158851,0.041265469,0.395525992,-3.008378983
0.489973515,0.391818881,-0.028752271,-0.921791315,0.003411611,-0.001531768,0.004353374,-0.328922302,0.02917874,0.37010774,0.041272353,0.395519078,-3.008391857
0.494971126,0.392725825,-0.028112754,-0.921224654,0.002082312,-0.002758516,0.003601541,-0.329095304,0.029148843,0.370068401,0.041273199,0.395522207,-3.008401871
0.499970049,0.39185077,-0.027312521,-0.92106688,0.00301853,-0.001983693,0.004670761,-0.329152673,0.02913893,0.370055348,0.041274529,0.395514637,-3.008409023
0.504969954,0.392430037,-0.023700854,-0.921669781,0.00248663,-0.003121131,0.00415985,-0.328446478,0.029117657,0.370126396,0.041267559,0.395506859,-3.008396387
0.509970963,0.391373843,-0.024633994,-0.919487774,0.002496389,-0.003316366,0.005228349,-0.328026652,0.029107226,0.370170027,0.041266661,0.395504475,-3.008384705
0.514972687,0.390540779,-0.027535582,-0.920347333,0.002174908,-0.003018891,0.00599947,-0.327703625,0.0290992,0.370203584,0.041277684,0.395497143,-3.008390427
0.519969523,0.392056674,-0.025691725,-0.920247376,0.001142922,-0.00304885,0.005098953,-0.327596515,0.029096538,0.370214731,0.041270632,0.395497859,-3.00838995
0.524967432,0.388865501,-0.024016837,-0.920910597,0.003225711,-0.001171667,0.004482403,-0.327687144,0.029161263,0.370849729,0.041275095,0.395494878,-3.008374691
0.529966354,0.389299184,-0.024070326,-0.92189461,0.003066498,-0.001729944,0.004588244,-0.327891678,0.029250061,0.371692002,0.041273825,0.395493329,-3.008365631
0.534965992,0.391010284,-0.026016491,-0.921549082,0.004074453,-0.0020037,0.005675946,-0.328049064,0.029318385,0.372340083,0.04128556,0.395492047,-3.008357286
0.539967,0.389726281,-0.0266601,-0.921479464,0.001869739,-0.001990448,0.004884035,-0.328101248,0.02934104,0.372554988,0.041281652,0.395480454,-3.008363485
0.544968724,0.391463578,-0.026656814,-0.921060801,0.002857284,-0.003033918,0.005696277,-0.328141391,0.029358471,0.372720331,0.041289568,0.395483166,-3.008355618
0.549965799,0.390934587,-0.026724549,-0.920824945,0.00208117,-0.001457625,0.006190759,-0.328049034,0.029198358,0.371533126,0.041295402,0.395485431,-3.008356094
0.554963708,0.390707105,-0.027054505,-0.922124088,0.001432704,-0.003190174,0.004272358,-0.327977985,0.029075162,0.370619655,0.041290294,0.395476818,-3.008354664
0.559962392,0.3913261,-0.027049715,-0.921681881,0.001110934,-0.002504,0.004178216,-0.327954412,0.029034313,0.370316774,0.041285064,0.395477057,-3.008365154
0.564962327,0.39210704,-0.027162874,-0.920113921,0.002433533,-0.001072331,0.003344679,-0.327936292,0.029002881,0.370083719,0.041285127,0.395485818,-3.008375883
0.569962978,0.391706645,-0.028989682,-0.920782983,0.002418049,-0.002399398,0.003077257,-0.328042835,0.028935893,0.369900793,0.041288733,0.395481348,-3.008397102
0.574965,0.390438169,-0.029048542,-0.920421004,0.000764703,-0.002289889,0.004865345,-0.328238636,0.028827151,0.369653165,0.041287061,0.395477593,-3.008410454
0.579961836,0.391811639,-0.026017072,-0.920868874,0.001134181,-0.00539592,0.003931688,-0.328303546,0.028791094,0.36957106,0.041274287,0.395463824,-3.008422136
0.584959745,0.391526103,-0.025792083,-0.921185136,0.00278503,-0.004462652,0.004011464,-0.328353494,0.02876335,0.369507909,0.041279845,0.395447552,-3.00842762
0.589964569,0.391446948,-0.025778046,-0.920258939,0.002457954,-0.004598909,0.003287233,-0.328370064,0.02875415,0.369486958,0.041269191,0.395436227,-3.008440971
0.594964743,0.392489731,-0.026435865,-0.920051157,0.001539364,-0.003784836,0.005152526,-0.328268558,0.029016262,0.369577885,0.041269843,0.395430326,-3.008436441
0.599965453,0.392005742,-0.028190168,-0.921771884,0.002618188,-0.004107466,0.003215282,-0.328249454,0.02910281,0.369529605,0.041266892,0.395424575,-3.008453608
0.604967415,0.391332537,-0.02570452,-0.92070663,0.001572733,-0.003873432,0.004705768,-0.328234762,0.029169403,0.369492441,0.041261129,0.395410508,-3.00844574
0.60996455,0.390037864,-0.026572658,-0.922340512,0.00085867,-0.006456485,0.004504107,-0.328229874,0.029191485,0.369480103,0.041255638,0.395389855,-3.008452177
0.614962697,0.391054332,-0.025134774,-0.920886636,0.00267705,-0.0022898,0.006044287,-0.328126699,0.029208718,0.369707316,0.04126237,0.395386845,-3.008438826
0.619961321,0.391214281,-0.025036188,-0.921430767,0.003245099,-0.003833363,0.006163285,-0.328067899,0.029214492,0.369841218,0.041267443,0.395372361,-3.008425236
0.624961257,0.39336127,-0.026857484,-0.922260523,0.004862792,-0.003284132,0.006924626,-0.328022629,0.029218934,0.369944245,0.041288797,0.395369768,-3.008415461
0.629962265,0.393334627,-0.025955724,-0.918668628,0.005862503,-0.007598016,0.006406593,-0.328007638,0.029220408,0.369978398,0.041308325,0.395338893,-3.008399487
0.634964228,0.390672863,-0.023852605,-0.92185241,0.004538758,-0.004451023,0.005302575,-0.3279953,0.029163767,0.370005339,0.041309528,0.395331383,-3.008384705
0.639961064,0.392251015,-0.028551636,-0.920387506,0.004996996,-0.006517456,0.005563943,-0.327990413,0.029086726,0.370014906,0.041332729,0.395300239,-3.008403063
0.644958735,0.396317214,-0.026152488,-0.925771356,0.005141304,-0.005685033,0.007519158,-0.327986628,0.029027447,0.370022237,0.041356519,0.395292491,-3.008382797
0.649957657,0.389551044,-0.025892403,-0.915254235,0.007267828,-0.009641438,0.00806212,-0.327985376,0.029007791,0.370024681,0.041382208,0.395245731,-3.008365631
0.654957294,0.391604424,-0.028104063,-0.924513757,0.006043406,-0.007520281,0.00773533,-0.327984393,0.028992668,0.370026588,0.041413002,0.395225704,-3.008358479
0.659958243,0.389221728,-0.028284917,-0.915493965,0.004769226,-0.008179652,0.008295701,-0.328132659,0.028888382,0.369983494,0.041438043,0.395178407,-3.008354664
0.664960027,0.3926377,-0.028563516,-0.922377288,0.00442981,-0.008928016,0.00680881,-0.328246742,0.028808141,0.369950354,0.041451734,0.395158827,-3.008366585
0.669957101,0.392693669,-0.029755294,-0.918111801,0.003183042,-0.010886457,0.006029415,-0.328284562,0.028781537,0.369939357,0.041463826,0.395115197,-3.008384228
0.674954772,0.389214277,-0.02700763,-0.921562314,0.001877613,-0.01130659,0.006138055,-0.328313679,0.028761065,0.369930893,0.041458961,0.395066768,-3.00838542
0.679953635,0.390000015,-0.029410841,-0.923278093,0.001325493,-0.0095976,0.004425723,-0.328212023,0.028952803,0.36976105,0.041459467,0.395025551,-3.008405447
0.684953332,0.391039163,-0.027385345,-0.921501994,0.001891331,-0.008621894,0.004660316,-0.328021228,0.029301077,0.369461536,0.041453142,0.39498955,-3.008407831
0.689954042,0.392379701,-0.027084073,-0.924438894,0.001591778,-0.009298651,0.005026528,-0.327957988,0.029416557,0.369362205,0.041442443,0.394951224,-3.008406878
0.694956005,0.391011447,-0.026100125,-0.921334922,-0.000708193,-0.008444429,0.003561256,-0.327909321,0.029505411,0.369285792,0.041425437,0.394913435,-3.008410454
0.699953139,0.389664769,-0.027612189,-0.92333293,0.000138335,-0.009455083,0.004145666,-0.327893168,0.029534874,0.36926046,0.041416448,0.394873202,-3.00842452
0.704951048,0.388014942,-0.028112276,-0.923080623,-0.000593676,-0.005920245,0.002384808,-0.328076452,0.029226322,0.369565576,0.041395333,0.394848764,-3.008454084
0.70994997,0.391277403,-0.025362935,-0.923412025,-0.001781283,-0.006262081,0.003314502,-0.328137219,0.02912401,0.369666755,0.041369766,0.394831985,-3.008465528
0.714949608,0.391669065,-0.021666395,-0.921571374,-0.000695677,-0.00623692,0.00419551,-0.328183949,0.029045289,0.369744569,0.041346572,0.394810021,-3.008440733
0.719950616,0.390455484,-0.025027584,-0.922120035,-0.000818244,-0.006723849,0.005993599,-0.328199446,0.029019186,0.369770378,0.04133454,0.394781202,-3.008431196
0.724958479,0.389607757,-0.025454879,-0.920705855,0.000217348,-0.007095147,0.007544517,-0.328014016,0.029053077,0.370549321,0.041327987,0.39475286,-3.008414268
0.729961455,0.393318295,-0.029590495,-0.921291888,-0.00113915,-0.004950902,0.007928023,-0.327903688,0.029077671,0.370995432,0.041333668,0.39474082,-3.008412361
0.734959602,0.389865309,-0.032720786,-0.919943571,-0.002714571,-0.003916795,0.008227633,-0.327818811,0.029096596,0.371338695,0.041328121,0.394726038,-3.008424759
0.739958286,0.390066028,-0.034437813,-0.921460032,-0.00977821,0.000194146,0.011287126,-0.327790678,0.029102871,0.37145251,0.041295841,0.394737601,-3.008419514
0.744957924,0.390964836,-0.03470245,-0.918983221,-0.014848953,0.002530388,0.013023168,-0.327655166,0.029105004,0.371483713,0.041245118,0.394761503,-3.008412838
0.749958634,0.391580582,-0.035674769,-0.918304741,-0.024201263,0.00744052,0.015429573,-0.327495456,0.029102992,0.371437222,0.041151151,0.394816995,-3.008393526
0.754960656,0.392193139,-0.03492276,-0.920512676,-0.027580747,0.004218141,0.013647078,-0.327372551,0.029101444,0.371401429,0.041029666,0.39484331,-3.008373499
0.759957492,0.393549263,-0.033130188,-0.920496047,-0.030189229,0.003102307,0.012526661,-0.327331811,0.029100932,0.371389568,0.040893577,0.394875795,-3.008354187
0.764955401,0.397466511,-0.038530745,-0.922557235,-0.034964506,0.003795675,0.00877629,-0.327300459,0.029100537,0.371380419,0.040739898,0.394913316,-3.008377075
0.769954562,0.405851066,-0.031507835,-0.932655692,-0.041942541,-0.00779794,0.001703975,-0.327540815,0.029106991,0.371573061,0.040520702,0.394905508,-3.008428335
0.774954736,0.402004272,-0.058367141,-0.908330679,-0.048003625,-0.008713728,-0.009151627,-0.327725768,0.029111959,0.371721298,0.040295064,0.394861877,-3.0086658
0.779955447,0.412726194,-0.0585321,-0.934959948,-0.061290924,-0.019116152,-0.010133846,-0.327787101,0.029113606,0.371770471,0.039999351,0.394837201,-3.008888245
0.784957469,0.394567996,-0.030395186,-0.906788111,-0.068634026,-0.017107453,-0.013371167,-0.327834308,0.029114872,0.37180829,0.039594069,0.394744337,-3.008975506
0.789954305,0.391533077,-0.013936508,-0.930747032,-0.065861642,-0.021881899,-0.016616767,-0.327678502,0.029026322,0.371926904,0.03916382,0.39465943,-3.009027004
0.794952214,0.382633597,-0.015786909,-0.913657963,-0.060523707,-0.018101489,-0.015907025,-0.327385247,0.028868224,0.372125417,0.038794953,0.394558221,-3.009105206
0.799950838,0.389475584,-0.024136182,-0.92240876,-0.057173196,-0.020892994,-0.013313803,-0.327288032,0.028815802,0.37219125,0.038467661,0.394469351,-3.009201765
0.804950774,0.397247732,-0.030017385,-0.920619369,-0.056739744,-0.024311261,-0.015829651,-0.327213228,0.028775467,0.372241914,0.038147267,0.394376487,-3.009344339
0.809951484,0.398159921,-0.031456709,-0.921586454,-0.058850978,-0.026502822,-0.018087819,-0.327188402,0.028762091,0.372258693,0.037815273,0.394267678,-3.009491682
0.814953208,0.39656052,-0.027796661,-0.922480106,-0.060673196,-0.03307908,-0.019691877,-0.327165186,0.028480256,0.372147799,0.037452929,0.394118011,-3.009641409
0.819950104,0.390717,-0.021288877,-0.918995023,-0.06035807,-0.032046381,-0.017556915,-0.327157497,0.028386805,0.372111022,0.037082005,0.393969029,-3.009742975
0.824948251,0.388896883,-0.01826985,-0.92182833,-0.058414184,-0.033923432,-0.018784283,-0.327151567,0.028314902,0.37208271,0.03671385,0.393810719,-3.009844303
0.829947114,0.389385551,-0.018326486,-0.922068238,-0.058257673,-0.033745177,-0.018578297,-0.32714963,0.02829106,0.372073323,0.036358908,0.393652499,-3.009950161
0.834946811,0.387004256,-0.020113414,-0.922384381,-0.055340793,-0.03714747,-0.017310817,-0.327392071,0.027820166,0.372123688,0.036020357,0.393476069,-3.010073423
0.83994776,0.389074534,-0.019593813,-0.922932208,-0.057025779,-0.034069508,-0.015439915,-0.327532828,0.027552042,0.372154653,0.035682578,0.393320441,-3.01017499
0.844949484,0.389209479,-0.017778507,-0.921390295,-0.05537029,-0.036061186,-0.014020511,-0.327641159,0.027345739,0.372178465,0.035351492,0.393149078,-3.010262251
0.84994638,0.389643639,-0.021295695,-0.921764553,-0.054803047,-0.035374794,-0.012209853,-0.327677071,0.027277334,0.372186363,0.03503019,0.392986774,-3.010364771
0.854944229,0.392749131,-0.021510698,-0.922856033,-0.054350201,-0.036098599,-0.011238409,-0.327590555,0.027276065,0.371728957,0.03471433,0.39282167,-3.010457277
0.859949291,0.390542418,-0.023034859,-0.92182827,-0.053039555,-0.039115414,-0.012068952,-0.327446759,0.027327441,0.371109903,0.034402419,0.392636389,-3.010554075
0.864949226,0.390042245,-0.025719114,-0.922702253,-0.056941669,-0.038951196,-0.01208477,-0.327336103,0.02736697,0.370633602,0.034082934,0.392453074,-3.010666132
0.869950235,0.391466588,-0.022704322,-0.922556996,-0.057222046,-0.041370288,-0.012125314,-0.327299416,0.027380077,0.37047568,0.033755876,0.392259359,-3.010760069
0.874952197,0.389437288,-0.021100283,-0.923491895,-0.057902306,-0.04082457,-0.012237106,-0.327271163,0.027390163,0.370354146,0.033421535,0.392065376,-3.010852575
0.87994957,0.384428591,-0.018175837,-0.923853695,-0.058105484,-0.039187651,-0.011785655,-0.327257663,0.027088726,0.370364964,0.033080194,0.391871452,-3.010936022
0.884947479,0.379445702,-0.010898665,-0.924921572,-0.055489656,-0.038889617,-0.013237711,-0.327247292,0.026856789,0.370373279,0.032730974,0.39167434,-3.011002541
0.889946103,0.376928926,-0.006613806,-0.925792098,-0.050767224,-0.034371842,-0.011734218,-0.327243835,0.026779884,0.370376021,0.032410175,0.391497523,-3.011035442
0.894946039,0.379914701,-0.00838396,-0.925346017,-0.047366742,-0.031540345,-0.010010399,-0.327241182,0.026720712,0.370378137,0.032116354,0.391337931,-3.011074305
0.899946749,0.381440252,-0.009418952,-0.925140679,-0.042877827,-0.031981606,-0.00741128,-0.327038437,0.026357029,0.371083379,0.031850383,0.391190141,-3.01111269
0.904948711,0.379631817,-0.010431287,-0.925608873,-0.038727436,-0.02719371,-0.00779888,-0.326678365,0.0257293,0.372338444,0.031615596,0.391055763,-3.01115799
0.909945607,0.382303894,-0.011483409,-0.927065015,-0.035005547,-0.025918232,-0.006178731,-0.326558977,0.025521157,0.372754604,0.031391371,0.390932679,-3.011196852
0.914943516,0.381145298,-0.010929718,-0.926196337,-0.03337656,-0.02263522,-0.00541271,-0.326467097,0.025361007,0.37307483,0.031183887,0.390824556,-3.011226654
0.919942379,0.379784584,-0.012102654,-0.926091552,-0.030539675,-0.020030467,-0.004462886,-0.326436639,0.025307903,0.373180985,0.030994218,0.390720904,-3.011257648
0.924942315,0.379746109,-0.012955721,-0.92534101,-0.027140547,-0.018467128,-0.004933416,-0.326280564,0.02526563,0.373386919,0.030825188,0.390627712,-3.011292458
0.929943025,0.378098309,-0.008539819,-0.927268147,-0.02559226,-0.017144958,-0.001107009,-0.326228797,0.025251614,0.373455197,0.030660264,0.390541196,-3.011290789
0.934945047,0.379251182,-0.008482706,-0.92817682,-0.019618908,-0.010434781,-0.00129096,-0.326188952,0.025240829,0.373507768,0.03052157,0.390488505,-3.01128912
0.939941883,0.379938275,-0.008431351,-0.927989721,-0.0145543,-0.009540715,-0.001082151,-0.326175779,0.025237253,0.373525202,0.030418148,0.390438318,-3.011283636
0.944939792,0.376674742,-1.87E-05,-0.928098679,-0.010139583,-0.003196895,0.002877963,-0.326111078,0.025121761,0.372441262,0.030317858,0.390415668,-3.011212587
0.949938715,0.3761594,-0.007957409,-0.928727984,-0.0042184,0.001369853,0.003426238,-0.32607612,0.025055571,0.371810317,0.030289266,0.390410066,-3.011186838
0.95493865,0.37650913,-0.007631166,-0.927477181,-0.0014728,0.005696051,0.007657793,-0.326049268,0.02500464,0.371324837,0.030265629,0.390428007,-3.011142254
0.959939301,0.379686803,-0.003594082,-0.929421425,0.007045014,0.007399142,0.007870078,-0.326040357,0.024987752,0.371163875,0.030279124,0.390465498,-3.011073351
0.964941323,0.376263052,-0.005717551,-0.930228949,0.010330737,0.012181476,0.012727285,-0.325920731,0.02492048,0.371661693,0.030315785,0.390515387,-3.010991573
0.969938159,0.37381348,-0.005119557,-0.928975403,0.015821869,0.015586474,0.013384535,-0.325767338,0.024843439,0.37245369,0.030391634,0.390574396,-3.010899782
0.97493583,0.372458607,-0.003241542,-0.925579667,0.022024725,0.02065636,0.016700814,-0.325649321,0.024784163,0.373063087,0.030497868,0.390669614,-3.010781765
0.979934692,0.375877798,-0.004159359,-0.925277472,0.028609946,0.0242071,0.017790632,-0.325610191,0.024764508,0.373265147,0.030642653,0.390786946,-3.010652065
0.98493439,0.377013773,-0.010502886,-0.92538631,0.030978804,0.027100215,0.022608813,-0.32558009,0.024749385,0.373420626,0.030825414,0.39091146,-3.010538816
0.989935338,0.384784669,-0.012460723,-0.92448765,0.035756208,0.029380623,0.021364186,-0.32581678,0.024737436,0.372188598,0.031024886,0.391066223,-3.010429382
0.994943261,0.389386117,-0.018104261,-0.920657754,0.033366702,0.028151527,0.020452103,-0.325998873,0.02472824,0.371240646,0.031222306,0.39121896,-3.010354519
0.999946237,0.390414625,-0.017113315,-0.922638953,0.033758216,0.026771819,0.020832051,-0.326059282,0.024725193,0.370926321,0.031416707,0.391367376,-3.010257006
1.004944086,0.388244838,-0.016419129,-0.923879206,0.032222249,0.027293403,0.021451633,-0.326105744,0.024722846,0.370684475,0.031598438,0.391507208,-3.010167599
1.009943247,0.38346231,-0.017518148,-0.920970798,0.032693014,0.028377606,0.019187879,-0.326180518,0.024896743,0.370630562,0.031775225,0.391648531,-3.010086298
1.014943004,0.385577053,-0.017327761,-0.924644947,0.031020027,0.028185135,0.018925838,-0.326298028,0.025207166,0.370615631,0.03195161,0.391795009,-3.010000467
1.019943714,0.386203974,-0.014334255,-0.922398508,0.034910761,0.028778953,0.020130442,-0.32633701,0.025310095,0.370610714,0.032144055,0.391942561,-3.009896278
1.024945617,0.385670125,-0.015084731,-0.924637794,0.0354461,0.027745226,0.020543987,-0.326366991,0.025389293,0.370606899,0.032336693,0.392086238,-3.009800911
1.029942751,0.385723799,-0.016313262,-0.920452237,0.035259824,0.030545786,0.021928979,-0.326376915,0.025415553,0.370605648,0.032537661,0.392241597,-3.009689808
1.034940362,0.390023142,-0.015637107,-0.924935997,0.035450358,0.02870702,0.023050008,-0.326258332,0.025713425,0.371677071,0.03274345,0.392403126,-3.009567261
1.039939284,0.3857916,-0.016385332,-0.918619394,0.037496988,0.030837946,0.02350433,-0.326219022,0.025812194,0.372032315,0.032957099,0.392549276,-3.009452105
1.044939041,0.39128831,-0.018529357,-0.925319314,0.038011055,0.029821521,0.023088384,-0.326188773,0.02588819,0.372305691,0.033179939,0.39271009,-3.009339333
1.049940228,0.389633328,-0.020753173,-0.92046982,0.035799537,0.027003849,0.024697883,-0.32617873,0.025913389,0.37239632,0.033385433,0.392843425,-3.009233952
1.05494225,0.391587764,-0.023282388,-0.924101532,0.034896865,0.025800383,0.023154844,-0.32647261,0.026039889,0.372422963,0.03360128,0.392989159,-3.009147644
1.059939027,0.391903758,-0.026942786,-0.920294464,0.033655636,0.022429509,0.024267411,-0.326644689,0.026108339,0.372421145,0.033814166,0.393112481,-3.009069443
1.064936996,0.392984927,-0.027418902,-0.922969341,0.030904608,0.022912631,0.022523658,-0.326777071,0.026161008,0.372419745,0.034004793,0.393234998,-3.009004354
1.06993556,0.394403696,-0.02824156,-0.920362175,0.02526962,0.020218581,0.021168327,-0.32682097,0.026178472,0.372419268,0.034172766,0.393348515,-3.008942604
1.074935317,0.396935612,-0.030856516,-0.919196188,0.020466002,0.020392418,0.02059239,-0.326969326,0.026334831,0.372013032,0.034322236,0.393472373,-3.008897305
1.079936266,0.397798717,-0.03453999,-0.919152677,0.012394955,0.01799549,0.019516403,-0.327134043,0.026530799,0.371469051,0.034430578,0.393580735,-3.00887394
1.084938288,0.395350248,-0.033272028,-0.921166122,0.006356559,0.019379633,0.015948255,-0.327260792,0.026681583,0.371050507,0.034486521,0.393697202,-3.00886035
1.089935303,0.389913619,-0.030779382,-0.922593892,0.000377863,0.017588943,0.012453623,-0.327302814,0.02673158,0.370911717,0.034513522,0.393783927,-3.008855343
1.094933271,0.390343308,-0.028856551,-0.921302795,-0.001987163,0.01939529,0.010804692,-0.327335149,0.02677005,0.370804936,0.034519233,0.393891603,-3.00885582
1.099932194,0.391547918,-0.029310837,-0.921196938,-0.00678209,0.017113226,0.009327973,-0.327193618,0.026675979,0.370529205,0.034501519,0.393987596,-3.008862734
1.10493207,0.387242347,-0.028009309,-0.920350969,-0.01067438,0.016071735,0.008401899,-0.32708472,0.026603598,0.370317012,0.034459703,0.394069731,-3.008877516
1.10993278,0.384325266,-0.025197344,-0.921797931,-0.014385607,0.019496184,0.005655915,-0.3270486,0.026579598,0.370246649,0.034380898,0.394166827,-3.008895874
1.114935279,0.385468304,-0.020536931,-0.925409794,-0.014418607,0.019482881,0.005196279,-0.327020824,0.026561132,0.370192528,0.034295592,0.39425844,-3.008892536
1.11993289,0.387167424,-0.020822661,-0.92457515,-0.015352299,0.020989323,0.002564846,-0.327185631,0.026707454,0.370691121,0.034202617,0.394374579,-3.008894444
1.124930859,0.384732991,-0.028190417,-0.921712041,-0.021962531,0.024774762,0.001681138,-0.327488333,0.026974183,0.371597022,0.034095719,0.394498408,-3.008942127
1.129935622,0.386585265,-0.02865915,-0.923861027,-0.02557734,0.028133392,0.000495025,-0.327588707,0.027062625,0.371897399,0.03396783,0.394650102,-3.008992434
1.134935856,0.385419011,-0.024519388,-0.923647642,-0.028685173,0.030862395,-0.002725171,-0.327665955,0.027130676,0.372128516,0.033803996,0.394803047,-3.009037971
1.139936805,0.385820925,-0.026901368,-0.927077174,-0.032344069,0.036036164,-0.00657335,-0.327691555,0.027153241,0.372205138,0.033617143,0.394992292,-3.009124279
1.144938469,0.383977622,-0.02923283,-0.925457239,-0.037841678,0.037672471,-0.009420538,-0.327704459,0.026696848,0.372205943,0.033407535,0.395179987,-3.00924015
1.149935365,0.385972381,-0.025752837,-0.927480757,-0.037469495,0.042221833,-0.011763582,-0.327708751,0.026545515,0.372206211,0.033188034,0.395399511,-3.0093503
1.154933214,0.383595228,-0.025449615,-0.928898275,-0.041905597,0.047423694,-0.016045358,-0.327712029,0.026429076,0.37220642,0.0329278,0.39563179,-3.009486675
1.159932137,0.380249381,-0.028427044,-0.932791889,-0.046769224,0.051187918,-0.019525692,-0.327713132,0.026390467,0.372206479,0.032659069,0.3958745,-3.009659767
1.164931893,0.377574146,-0.028535863,-0.933116198,-0.046886019,0.063076049,-0.020401331,-0.327813774,0.026361823,0.372113049,0.03238029,0.396175861,-3.009829521
1.169933319,0.377860725,-0.030250708,-0.933228791,-0.051794555,0.06949082,-0.022820074,-0.327871859,0.02635259,0.372058928,0.032076694,0.396504819,-3.010018349
1.174934983,0.381717086,-0.020067111,-0.936725199,-0.052932579,0.076915622,-0.02424854,-0.327916563,0.026345486,0.372017294,0.031743858,0.396885931,-3.010157585
1.179931879,0.376577854,-0.011137185,-0.938229024,-0.051250331,0.084262669,-0.023280989,-0.327931374,0.02634313,0.372003496,0.031407192,0.397284627,-3.010261059
1.184929848,0.370216459,-0.004710467,-0.94073689,-0.045381438,0.098412506,-0.021828653,-0.328022629,0.026104681,0.371211201,0.0310921,0.397754967,-3.01033473
1.189928651,0.368692607,-0.000633339,-0.940190792,-0.038318109,0.10950543,-0.019230492,-0.328133404,0.025786996,0.370160282,0.030817071,0.398265421,-3.010381222
1.194928408,0.367748618,0.000598705,-0.942736089,-0.029939966,0.12351267,-0.016665669,-0.328218639,0.025542555,0.369351685,0.030589052,0.398851633,-3.010417461
1.199929357,0.367932171,-0.002345268,-0.943023741,-0.021090487,0.13900207,-0.012914955,-0.328246921,0.025461506,0.369083554,0.030426096,0.39951703,-3.010434628
1.204931378,0.370177418,-0.017141085,-0.946079135,-0.023507234,0.157893762,-0.011939943,-0.328268647,0.025399143,0.368877262,0.030285485,0.40027523,-3.010519743
1.209928751,0.36755079,-0.020957537,-0.946700096,-0.028940016,0.169946432,-0.005423246,-0.328319967,0.025020292,0.368479729,0.030124499,0.401074946,-3.010592699
1.2149266,0.365900725,-0.018435782,-0.941058815,-0.030938365,0.190359205,-0.002362135,-0.328359485,0.024728792,0.368173867,0.029959178,0.401991338,-3.010621786
1.219925523,0.363001734,-0.019361196,-0.946337044,-0.039480597,0.213530824,-0.001373825,-0.328372598,0.024632137,0.36807245,0.029762005,0.403006762,-3.010657787
1.224925399,0.352905095,-0.038262818,-0.956624031,-0.051690374,0.236376122,-0.001584336,-0.328382671,0.024557767,0.367994398,0.029530562,0.404110998,-3.010806322
1.229926109,0.350135446,-0.055038679,-0.963553727,-0.071309879,0.265706331,-0.008413059,-0.328812957,0.024543338,0.368193507,0.029220011,0.405363172,-3.011035681
1.234928131,0.354430556,-0.098364897,-0.988555014,-0.118902273,0.299901575,-0.015699463,-0.329575688,0.024542576,0.368574202,0.028742885,0.406787127,-3.011533022
1.239925027,0.33881554,-0.102332868,-0.987585962,-0.178133518,0.336571366,-0.019642934,-0.32982859,0.024542324,0.368700415,0.027925918,0.408340573,-3.012029648
1.244923949,0.335370928,-0.114091299,-0.997402728,-0.236137688,0.391604632,-0.036010474,-0.330023199,0.024542131,0.368797541,0.026814211,0.410188973,-3.012667894
1.249922514,0.343723685,-0.138140112,-1.017270327,-0.309920102,0.434252203,-0.052806754,-0.330087721,0.024542065,0.368829727,0.025340121,0.412237465,-3.013502121
1.254922509,0.344990879,-0.15295805,-1.027851939,-0.400949299,0.476639718,-0.059832696,-0.331917822,0.023946362,0.366486251,0.023408024,0.41450119,-3.014453173
1.259929061,0.329717875,-0.121800914,-1.015200019,-0.467045993,0.547467709,-0.078700006,-0.332524657,0.023748839,0.365709186,0.021033475,0.417092264,-3.015316248
1.264931083,0.329854012,-0.127988577,-1.036755323,-0.541255593,0.629785001,-0.109760165,-0.33299157,0.023596857,0.365111291,0.01826161,0.420105815,-3.016445637
1.269927979,0.31177941,-0.086859196,-1.037024617,-0.588003516,0.713042974,-0.13285093,-0.333146393,0.023546463,0.364913046,0.015088028,0.423486739,-3.017472982
1.274925828,0.310316205,-0.136944041,-1.058463216,-0.643821955,0.820459664,-0.162229493,-0.334642857,0.02214562,0.363084793,0.011751246,0.427411318,-3.019031048
1.27992475,0.293473244,-0.088660516,-1.068913817,-0.704620421,0.913309813,-0.174189776,-0.335479885,0.021344077,0.362063915,0.007922639,0.431733638,-3.020412683
1.284924626,0.280136377,-0.090812348,-1.065143466,-0.746907294,1.049563885,-0.216968328,-0.336123914,0.020727346,0.361278415,0.003811022,0.43675077,-3.022047758
1.289925337,0.286115378,-0.030703956,-1.089206815,-0.779526532,1.175330997,-0.237300694,-0.336337477,0.02052285,0.361017942,-0.000652448,0.442367315,-3.023553371
1.294927359,0.260752201,-0.027054194,-1.072300553,-0.800911844,1.321613431,-0.271624595,-0.337670147,0.018789617,0.359747022,-0.005288963,0.44867,-3.025363684
1.299924493,0.270119011,0.028766368,-1.121886134,-0.819709301,1.478636384,-0.267561883,-0.339290231,0.016625797,0.358246148,-0.010155231,0.455748022,-3.027003288
1.304922104,0.209200993,0.068806849,-1.082144618,-0.767586648,1.634921312,-0.281433851,-0.340536773,0.014960885,0.357091308,-0.014864472,0.463475376,-3.028496742
1.309921026,0.160715133,0.021098178,-1.082739115,-0.764419436,1.850224614,-0.281497955,-0.340950102,0.014408831,0.356708407,-0.019433573,0.472241074,-3.030493259
1.314920664,0.184963077,0.059742138,-1.139030814,-0.750692189,2.057101727,-0.251416892,-0.341268122,0.013984064,0.356413782,-0.024029316,0.482070923,-3.032132864
1.319921613,0.174046651,0.056284692,-1.182785988,-0.736833215,2.24667573,-0.219513774,-0.346313238,0.010328578,0.350916386,-0.028466759,0.492727935,-3.033838272
1.324923396,0.151587218,0.006272083,-1.174161077,-0.76958853,2.4635818,-0.167555287,-0.35019511,0.00751593,0.346686512,-0.032875754,0.504415154,-3.035595894
1.329920292,0.13032797,-0.030741183,-1.168692708,-0.863886595,2.676326752,-0.102482863,-0.351482242,0.00658331,0.345283985,-0.037609443,0.517171681,-3.03723073
1.334918141,0.156519979,0.061994866,-1.175860286,-0.931557357,2.882601976,-0.004702199,-0.352472633,0.005865722,0.344204843,-0.04271647,0.53097564,-3.037945032
1.339917064,0.20399721,0.136617661,-1.15470922,-0.939098179,3.07524991,0.060125247,-0.356684774,0.003868784,0.339145869,-0.047875792,0.545799315,-3.038121462
1.344916701,0.285412252,0.116356321,-1.185501933,-0.940880716,3.267858982,0.136917323,-0.363852829,0.000553654,0.330499768,-0.052738372,0.561706245,-3.038241625
1.349918008,0.387341619,0.176990211,-1.239774942,-0.912485898,3.394878626,0.230570048,-0.366229624,-0.000545581,0.327632874,-0.057344712,0.578296304,-3.037648439
1.354919672,0.604471922,0.255072743,-1.32611537,-0.833847821,3.441426277,0.22545673,-0.368058413,-0.001391367,0.325426966,-0.061775405,0.595322907,-3.036777496
1.359916806,0.598070443,0.135798872,-1.306757569,-0.827768683,3.352807522,0.231335819,-0.368664801,-0.001671814,0.324695557,-0.065876067,0.611685812,-3.036707878
1.364914656,0.630307317,0.192419186,-1.20099318,-0.800332308,3.335947275,0.279180229,-0.380630881,-0.004223552,0.310559034,-0.069890037,0.628077865,-3.036043882
1.369913578,0.703550994,0.230398342,-1.165125132,-0.768681943,3.304896593,0.244181901,-0.384598613,-0.00506966,0.305871636,-0.073993698,0.644454479,-3.035457611
1.374913573,0.736796141,0.151788652,-1.235306501,-0.808398962,3.212334156,0.28343761,-0.387651503,-0.005720683,0.302265018,-0.078020692,0.660320699,-3.035197258
1.379914522,0.774195552,0.239654317,-1.210233808,-0.78296417,3.092197895,0.375308484,-0.388663799,-0.00593655,0.301069111,-0.081714988,0.675523162,-3.033796787
1.384916782,0.810243905,0.304825962,-1.240389347,-0.694523692,2.94743824,0.397753656,-0.398396432,-0.007419603,0.287453473,-0.084984027,0.690071344,-3.032100916
1.389914155,0.772575855,0.306710809,-1.192540288,-0.555839896,2.745446205,0.432953626,-0.403839201,-0.008237241,0.279797256,-0.087325618,0.703476965,-3.030292511
1.394917846,0.652470589,0.349244893,-1.012810349,-0.367092639,2.644611359,0.467440665,-0.408027053,-0.008866357,0.27390632,-0.088539593,0.716410398,-3.027816057
1.399916768,0.508385479,0.283636004,-1.089328289,-0.189092666,2.504581928,0.468730986,-0.409415662,-0.00907496,0.271952987,-0.088710859,0.728450298,-3.025876045
1.404916763,0.560110867,0.298292458,-1.164789557,0.045955375,2.292224407,0.455226451,-0.414192677,-0.009101386,0.264667153,-0.087586194,0.739348054,-3.023723125
1.409917474,0.604942083,0.282493204,-1.198403358,0.265447021,2.01837039,0.405724108,-0.419516355,-0.008974944,0.256419897,-0.085424401,0.748731732,-3.021915913
1.414919376,0.827731907,0.231929511,-1.263381958,0.390198559,1.798203945,0.349842697,-0.423612565,-0.008877656,0.250074208,-0.082683876,0.757311583,-3.020417213
1.419916272,0.900905132,0.14719528,-1.507538676,0.449559897,1.420475125,0.31709516,-0.424970806,-0.008845397,0.247970119,-0.079431511,0.763760448,-3.019342661
1.424914479,0.658430934,0.050135933,-1.435863853,0.470899105,0.997791827,0.263889372,-0.426015854,-0.008820576,0.246351153,-0.075923942,0.767551184,-3.018689871
1.429913044,0.407742798,-0.02543129,-1.235123396,0.440115869,0.739420831,0.201097295,-0.431121945,-0.006957101,0.238441467,-0.072736375,0.77008909,-3.018508911
1.434913039,0.245657057,-0.056270998,-1.121593118,0.414215744,0.579681695,0.14756754,-0.435050756,-0.005523284,0.23235549,-0.069896787,0.771884263,-3.018675804
1.43991375,0.134311512,-0.061037585,-1.03510797,0.404333562,0.481132925,0.113245346,-0.436353475,-0.005047858,0.230337501,-0.067220114,0.773189723,-3.018980026
1.444915771,0.064226098,-0.057970662,-0.958409965,0.404741347,0.444018632,0.084429651,-0.437355816,-0.004682049,0.228784785,-0.064682804,0.774359643,-3.01940918
1.449912548,0.027925126,-0.052115228,-0.920087218,0.417280346,0.437075436,0.059370134,-0.438461363,-0.003700083,0.225998878,-0.062223423,0.775542259,-3.019961357
1.454910517,0.034085017,-0.044314019,-0.919708967,0.450167984,0.420256376,0.043215655,-0.440093845,-0.002074255,0.221558928,-0.059660301,0.776649594,-3.020564079
1.45990932,0.055463132,-0.040747706,-0.942635536,0.496806741,0.374308378,0.028810486,-0.440635145,-0.001535161,0.220086724,-0.056911562,0.777505577,-3.021212339
1.464909315,0.06723848,-0.041927349,-0.969086289,0.550163805,0.298165292,0.013855453,-0.441051632,-0.001120365,0.218953967,-0.053933967,0.777933836,-3.021944284
1.469910264,0.068472795,-0.040535212,-0.995395601,0.614305556,0.197928488,-0.004059293,-0.441189736,-0.000982826,0.218578368,-0.050694723,0.777810037,-3.022758007
1.474912047,0.059985772,-0.050842348,-1.006303906,0.68236959,0.085990794,-0.028067945,-0.441976488,0.000669721,0.216002256,-0.047172602,0.777080119,-3.023720026
1.479909062,0.046108268,-0.080610596,-1.015935183,0.738518655,-0.033980608,-0.048643403,-0.442237347,0.001217674,0.215148062,-0.04336895,0.775715113,-3.024884701
1.484906793,0.024453422,-0.110081322,-1.017837167,0.779760838,-0.158834979,-0.069188654,-0.442438066,0.001639287,0.214490831,-0.039387666,0.773682773,-3.026244402
1.489906192,-0.008399369,-0.140947163,-1.007989049,0.803801358,-0.28216514,-0.084590554,-0.442504615,0.001779086,0.214272901,-0.03528177,0.77100724,-3.027754545
1.494905829,-0.040161338,-0.170387417,-0.992398262,0.812302709,-0.392945439,-0.091762185,-0.442071348,0.002948719,0.214465514,-0.031110924,0.767772496,-3.029347897
1.499906778,-0.070178747,-0.197690919,-0.985352695,0.806021094,-0.495750427,-0.0965918,-0.441807806,0.003599359,0.214618549,-0.026953008,0.764006436,-3.031038046
1.504908562,-0.09321706,-0.220149115,-0.977511168,0.784199357,-0.592171907,-0.091769263,-0.441605002,0.004099982,0.214736283,-0.022842506,0.759752035,-3.03273797
1.509905696,-0.107951306,-0.239559218,-0.980595171,0.754660487,-0.687073171,-0.082109362,-0.441537768,0.004265979,0.214775324,-0.018805234,0.755016804,-3.034404993
1.514903545,-0.109456107,-0.250638306,-0.983406365,0.715054631,-0.785098374,-0.061109211,-0.440786213,0.005076481,0.215136319,-0.014854935,0.749793768,-3.035927773
1.519902468,-0.097951606,-0.260080069,-0.987481415,0.667644143,-0.887906551,-0.039578959,-0.439831287,0.00603374,0.215589747,-0.011058154,0.744078219,-3.037312508
1.52490294,-0.081100568,-0.26301834,-1.003261447,0.616142094,-1.003846645,-0.015748618,-0.43909651,0.006770285,0.215938628,-0.007425993,0.737782359,-3.038552046
1.52990973,-0.060709227,-0.259084582,-1.023352504,0.560053885,-1.131387949,0.012089189,-0.438852876,0.007014509,0.216054305,-0.003974582,0.730846047,-3.039579153
1.534911752,-0.025702354,-0.24722594,-1.047901869,0.505663157,-1.268498421,0.037738528,-0.43866542,0.007202424,0.21614331,-0.000744124,0.72324723,-3.040399551
1.539908886,0.014033991,-0.22677359,-1.067070127,0.451815814,-1.421648383,0.057391867,-0.436535031,0.008791152,0.220601007,0.002214742,0.714914203,-3.041006804
1.544906735,0.051687855,-0.203277633,-1.078085065,0.412309974,-1.579448104,0.07047537,-0.434895843,0.01001357,0.224030912,0.004956048,0.705822825,-3.041492701
1.549905658,0.07370282,-0.177188024,-1.080248356,0.384176999,-1.735181093,0.073605239,-0.434352309,0.010418901,0.225168198,0.007472383,0.695992708,-3.041906357
1.554905653,0.088036574,-0.156993374,-1.079705,0.366205394,-1.881557703,0.072494701,-0.433934093,0.010730775,0.226043269,0.009814944,0.685459673,-3.042317629
1.55990684,0.097461626,-0.143600211,-1.071695447,0.358635843,-2.019050598,0.06433858,-0.431966335,0.011519988,0.229379401,0.012039132,0.674283147,-3.042751074
1.564908743,0.104800329,-0.131957397,-1.059087276,0.352505028,-2.142775774,0.054804754,-0.428602755,0.012820685,0.2350263,0.014133602,0.662530303,-3.043247223
1.569905639,0.115916744,-0.123962931,-1.052140594,0.347952127,-2.252639294,0.048481062,-0.427487433,0.013251972,0.23689869,0.016133746,0.650294125,-3.043792963
1.574903607,0.132051647,-0.115289852,-1.039267063,0.34793511,-2.352422237,0.036020108,-0.426629305,0.013583818,0.238339365,0.018050386,0.637605369,-3.044415474
1.579902411,0.148143798,-0.103216685,-1.027240276,0.347598851,-2.440571308,0.023493784,-0.426344752,0.013693852,0.238817066,0.019857969,0.624544322,-3.045089006
1.584902406,0.171788469,-0.091895476,-1.022036195,0.348619699,-2.519681692,0.013958601,-0.419925541,0.015567298,0.248301923,0.021600738,0.611156881,-3.045780659
1.589903116,0.197157875,-0.07648515,-1.018346071,0.351451814,-2.595489264,0.003770935,-0.417797059,0.016188497,0.251446903,0.023259856,0.597451031,-3.046510458
1.594905376,0.223203346,-0.054672021,-1.013608336,0.362395048,-2.665597439,-0.006748248,-0.416169733,0.016666409,0.25383684,0.024883136,0.583461881,-3.047254562
1.599902749,0.250203013,-0.028776318,-1.011668563,0.3779037,-2.727768183,-0.019201541,-0.415640682,0.016824817,0.254599124,0.026486224,0.569227278,-3.047996044
1.604900599,0.28187564,-0.003219429,-1.015492916,0.401694268,-2.785237551,-0.033471081,-0.408721209,0.018180093,0.264727354,0.028082725,0.554779947,-3.048729181
1.609899521,0.316876233,0.016361143,-1.020444751,0.434102327,-2.839337111,-0.049037833,-0.404815316,0.018934684,0.270446807,0.029763132,0.540143371,-3.049504519
1.614899397,0.350320011,0.03639606,-1.026527882,0.469668001,-2.88909626,-0.063813627,-0.40180999,0.019515291,0.274847537,0.031537451,0.525333405,-3.050317049
1.619900107,0.383253068,0.050000321,-1.035611987,0.506543994,-2.941311121,-0.079898156,-0.40081349,0.019707808,0.276306748,0.033426385,0.510330439,-3.051190853
1.624902368,0.404169589,0.054381762,-1.03508687,0.54483515,-2.982381582,-0.091456234,-0.395978004,0.020656092,0.281891704,0.035466809,0.495182991,-3.052116632
1.629899502,0.42236045,0.050014976,-1.037208796,0.573320866,-3.016219378,-0.105599895,-0.390271753,0.021777397,0.288243234,0.037618116,0.479930192,-3.053152561
1.634897709,0.440204352,0.040935792,-1.034074306,0.590768039,-3.042871714,-0.114846148,-0.385881156,0.022640167,0.293130308,0.039850686,0.464613914,-3.054286718
1.63989687,0.455372691,0.030258989,-1.030260086,0.592906892,-3.05873394,-0.124474466,-0.384425342,0.022926245,0.29475075,0.042079717,0.449275523,-3.05553627
1.644896507,0.467168212,0.016042944,-1.02227366,0.581968367,-3.069396019,-0.132450968,-0.383305162,0.023146363,0.29599759,0.044250716,0.433950424,-3.056890488
1.649897456,0.477623194,0.002945429,-1.016605735,0.559637427,-3.069267273,-0.143424511,-0.374473929,0.024721507,0.30605495,0.046320021,0.418677539,-3.058320999
1.654899478,0.489884108,-0.013248242,-1.013478279,0.520862401,-3.062699318,-0.153019026,-0.36767891,0.025933474,0.313793361,0.048197597,0.403498411,-3.059875965
1.659896612,0.503796041,-0.029706387,-1.007195115,0.470052898,-3.051553965,-0.159387425,-0.365425795,0.026335338,0.316359282,0.049841855,0.388438344,-3.061528683
1.664900303,0.516503513,-0.04447763,-0.999843836,0.410026848,-3.034664631,-0.166511893,-0.363692194,0.026644545,0.318333596,0.051207691,0.373523772,-3.063263893
1.669899464,0.527309537,-0.058752932,-0.998030424,0.348829478,-3.013408661,-0.170845523,-0.357913584,0.027586721,0.323834211,0.052300714,0.358765781,-3.065043211
1.67489922,0.530006826,-0.069243923,-0.988922358,0.294749975,-2.987818718,-0.173123851,-0.348205447,0.029160677,0.332966655,0.05316205,0.344163537,-3.066851854
1.679900169,0.537495852,-0.077261537,-0.988591075,0.247977048,-2.959550381,-0.175947845,-0.344986409,0.029682571,0.33599478,0.053817827,0.32974878,-3.068686485
1.684902191,0.554063082,-0.083444633,-0.993721545,0.207064629,-2.930108786,-0.175455496,-0.342509598,0.030084133,0.338324696,0.054321397,0.315545142,-3.070525646
1.689899206,0.578557193,-0.085044578,-1.007174373,0.17960456,-2.90518713,-0.169291645,-0.341688335,0.030217284,0.339097261,0.054720663,0.301518589,-3.072295189
1.694897175,0.613656938,-0.079814471,-1.022417903,0.165970683,-2.891867399,-0.163305357,-0.328406274,0.031540606,0.351981103,0.055083841,0.287631005,-3.073976755
1.699896097,0.65419513,-0.070947357,-1.0343436,0.164775655,-2.894507647,-0.162625939,-0.324002206,0.031979393,0.356253147,0.055451088,0.273814559,-3.075604916
1.704895973,0.68144995,-0.060617011,-1.036974907,0.182023689,-2.905016899,-0.16273354,-0.320613563,0.032317013,0.359540194,0.0559256,0.259995103,-3.077188015
1.709896922,0.688193023,-0.044063859,-1.030494928,0.221887827,-2.914477587,-0.163519457,-0.319489956,0.032428961,0.360630125,0.05658279,0.246163845,-3.07871294
1.714898944,0.67767477,-0.026304144,-1.007849336,0.287541062,-2.919307947,-0.165162086,-0.308692306,0.032849979,0.368903279,0.057583384,0.232320622,-3.080185413
1.719896078,0.657061338,-0.01726632,-0.978889167,0.375287414,-2.905740976,-0.167381212,-0.302654028,0.033072449,0.373486221,0.059055407,0.218550563,-3.08164978
1.724893928,0.630271196,-0.015272086,-0.949504673,0.468443543,-2.879937649,-0.167032018,-0.298007965,0.033243619,0.377012461,0.061026629,0.204915285,-3.083126545
1.729893327,0.601814508,-0.028271614,-0.911232471,0.561025321,-2.834465981,-0.154653877,-0.296467423,0.033300377,0.378181666,0.063523374,0.191504896,-3.084639311
1.734893322,0.578261495,-0.051253751,-0.87598753,0.638167322,-2.776006699,-0.133268356,-0.289476663,0.034046449,0.382806689,0.066483617,0.178392723,-3.086144686
1.739894032,0.564303756,-0.07746429,-0.847581387,0.701284289,-2.708915472,-0.097066738,-0.281304508,0.035002127,0.388096899,0.069849946,0.165622503,-3.087575197
1.744896054,0.558551848,-0.106899172,-0.828634083,0.738200665,-2.644072056,-0.048678517,-0.275016576,0.035737455,0.39216733,0.073485211,0.153188616,-3.08890152
1.749892831,0.563557863,-0.14231582,-0.818365693,0.741766751,-2.582190037,0.017433293,-0.272931635,0.035981279,0.393517017,0.07723739,0.141068399,-3.090056658
1.7548908,0.569504976,-0.166727945,-0.811607718,0.711936772,-2.528144121,0.094920889,-0.271327406,0.036168884,0.394555539,0.080918677,0.129214406,-3.090926647
1.759889722,0.583164752,-0.16915372,-0.806493998,0.649488389,-2.475316286,0.179893762,-0.260994107,0.039098326,0.400877357,0.084304787,0.117632911,-3.091314077
1.764889598,0.602267802,-0.159601644,-0.800251663,0.568533778,-2.431781769,0.275253356,-0.253043294,0.041352335,0.405741572,0.087293506,0.106266104,-3.091194391
1.769890308,0.618842781,-0.153838411,-0.823216379,0.480692297,-2.402817011,0.367273927,-0.250406951,0.042099722,0.407354444,0.089851968,0.095046721,-3.090583086
1.77489233,0.62981379,-0.145961612,-0.809724808,0.388361901,-2.372081041,0.453477561,-0.248378485,0.042674784,0.408595473,0.091967441,0.083949566,-3.089560986
1.779889464,0.655233204,-0.104064181,-0.813018262,0.297353715,-2.337593794,0.525147021,-0.242335558,0.044486661,0.411213607,0.093541808,0.073070616,-3.087920904
1.784887314,0.677781999,-0.044386558,-0.802034199,0.233663172,-2.305267572,0.58991766,-0.232255697,0.047520064,0.415459335,0.094703898,0.062359702,-3.085673809
1.789885998,0.67742449,0.02362318,-0.769812167,0.207013562,-2.260228872,0.636628628,-0.228913411,0.048525885,0.416867137,0.0956259,0.051855851,-3.082915306
1.794885874,0.673864067,0.077315576,-0.74070698,0.209627464,-2.194746494,0.67847079,-0.226341754,0.049299795,0.417950332,0.096503489,0.041690163,-3.07972765
1.799892783,0.671032071,0.122034341,-0.695206225,0.232362121,-2.111255407,0.700915158,-0.225489035,0.049556408,0.41830951,0.097436003,0.03194201,-3.0762043
1.804894447,0.674581349,0.150811806,-0.654463828,0.263488501,-2.006279945,0.698388934,-0.212461248,0.05314859,0.424074501,0.098472536,0.02276334,-3.072523594
1.809891582,0.674757063,0.164406419,-0.608497083,0.28902036,-1.893421769,0.677533507,-0.208141476,0.054339692,0.425986052,0.099610887,0.014166199,-3.068893194
1.814889431,0.667050004,0.171932429,-0.566824079,0.299281001,-1.773421764,0.644201577,-0.204817712,0.055256166,0.427456856,0.100774325,0.00618363,-3.065382957
1.819888353,0.655455589,0.179946557,-0.534739256,0.288862407,-1.648269534,0.592755079,-0.203715608,0.055560049,0.427944571,0.101840593,-0.001156255,-3.062058687
1.82488811,0.650166631,0.189468607,-0.511531174,0.269276559,-1.51117897,0.519286275,-0.194406703,0.058262855,0.432420045,0.102769047,-0.007781659,-3.058935881
1.829889059,0.659816623,0.186375588,-0.49934116,0.240138173,-1.369904518,0.425368905,-0.189226359,0.059770014,0.434918642,0.103550911,-0.013614134,-3.056259632
1.834890962,0.68322438,0.183651239,-0.499424666,0.204972342,-1.234086633,0.325389892,-0.185240448,0.060929667,0.43684116,0.10415379,-0.018667715,-3.054029226
1.839888096,0.705974102,0.199587822,-0.497448653,0.185253158,-1.117579341,0.222734168,-0.183918789,0.061314188,0.437478632,0.104623064,-0.023047488,-3.052138329
1.844886065,0.715427756,0.21535489,-0.483371675,0.187217042,-1.014078856,0.124425523,-0.179311365,0.062789075,0.438617289,0.105094053,-0.026868943,-3.050578594
1.849884987,0.712334394,0.22993952,-0.461944193,0.219282523,-0.910114348,0.028550161,-0.174162999,0.06446705,0.439648479,0.105735861,-0.030127637,-3.049355507
1.854884863,0.714422643,0.234057218,-0.436145365,0.269001663,-0.801503062,-0.061486915,-0.170201674,0.065758139,0.440441936,0.106667385,-0.0327993,-3.048527956
1.859885812,0.729119778,0.229411811,-0.415170819,0.328045249,-0.684695125,-0.149475694,-0.168888181,0.066186234,0.440705031,0.107936725,-0.034804061,-3.048098803
1.864887834,0.763360739,0.216377035,-0.398614198,0.383315206,-0.567632377,-0.228875682,-0.16787754,0.066515632,0.440907478,0.109524712,-0.036111198,-3.048051834
1.869884968,0.806756139,0.19453758,-0.375978976,0.420806885,-0.457148761,-0.311288953,-0.163663954,0.067944169,0.44322136,0.111355536,-0.036740351,-3.048430204
1.874882817,0.838478446,0.173736751,-0.34372586,0.437747598,-0.345758975,-0.387141407,-0.160421878,0.069043331,0.445001751,0.113306731,-0.036737185,-3.049236774
1.87988174,0.858940482,0.16832976,-0.31567356,0.439092219,-0.235882044,-0.452282012,-0.159346879,0.069407791,0.445592076,0.115263402,-0.036102317,-3.05031848
1.884881616,0.870751619,0.17598173,-0.274207205,0.435930312,-0.109951809,-0.510667741,-0.15851973,0.069688223,0.446046293,0.117192857,-0.034806028,-3.051588774
1.889882922,0.876476526,0.188804373,-0.244119212,0.4275029,0.03404779,-0.556683719,-0.157206759,0.070602819,0.446627855,0.119051918,-0.03273892,-3.052908421
1.894884586,0.86841774,0.174658641,-0.255648047,0.404497623,0.202071905,-0.610910773,-0.155146226,0.072137319,0.447511107,0.120854028,-0.029823501,-3.054400444
1.899881482,-0.117512174,-1.171129107,-0.413064957,-0.75525564,0.701187491,-0.534164071,-0.154462993,0.072646126,0.447803974,0.119811319,-0.02677983,-3.063774586
1.904879332,1.702016711,0.1464248,0.418306828,-1.114393592,1.440520883,-0.333426893,-0.153937295,0.073037624,0.44802931,0.112488747,-0.015261644,-3.06199789
1.909879088,-0.110622823,0.206307933,0.677632511,-1.235752106,1.831837535,-0.731520653,-0.153762981,0.073167436,0.448104024,0.106093556,-0.00570473,-3.063345909
1.914878964,-1.24481082,-0.021090072,0.772865295,-1.640728951,2.35772872,-0.6740399,-0.155215263,0.072878711,0.446675658,0.097996615,0.003370463,-3.067137718
1.919879675,-0.471693844,0.157678396,0.345313102,-1.850749969,3.425463676,-0.743932903,-0.155696824,0.072782978,0.44620204,0.087991379,0.020775205,-3.068217754
1.924881697,-0.19660151,0.031593569,-0.86785537,-1.846116543,4.111446857,-0.908498406,-0.156067342,0.072709315,0.445837617,0.078347139,0.042550858,-3.070290565
1.929878473,-0.328868568,-0.03848296,-1.423152804,-1.430891633,4.298898697,-0.716301978,-0.156190202,0.072684892,0.445716798,0.071014032,0.063598573,-3.072165012
1.934882522,0.256830662,0.39650023,-1.820847631,-0.81216079,4.419634342,-0.504278302,-0.166083366,0.065549858,0.442222297,0.066268057,0.086510815,-3.069723368
1.939881444,0.434030473,0.136901304,-2.287297249,-0.506960213,4.028788567,-0.398445487,-0.171788439,0.061423078,0.440221846,0.063771218,0.107266106,-3.068610191
1.944881678,0.708462179,0.132670984,-1.769354582,-0.408153564,3.826322794,-0.354562759,-0.176178113,0.058247805,0.438682675,0.061428078,0.126691252,-3.067807198
1.949882388,0.766416192,0.208048388,-1.580832839,-0.388310373,3.951851368,-0.575861096,-0.177633643,0.057194941,0.438172311,0.058767788,0.147832319,-3.067575455
1.95488441,0.588569641,0.053094327,-1.404373169,-0.47317946,4.052811623,-0.837305725,-0.188909069,0.053775836,0.434377074,0.055758238,0.168765366,-3.07004118
1.959881425,0.895709693,0.115841195,-1.344584942,-0.66376394,4.227354527,-0.9876405,-0.202888533,0.050011221,0.4296875,0.051300302,0.191443205,-3.072985888
1.964879394,1.425342917,0.155925438,-1.654937744,-0.677971363,4.151407719,-1.138545036,-0.213644773,0.047114603,0.426079214,0.046249341,0.214621112,-3.076152325
1.969878316,1.951714277,-0.10443116,-2.002712727,-0.676201284,3.773362637,-1.038378716,-0.217211351,0.046154138,0.42488277,0.042033389,0.236203,-3.08031249
1.974878192,2.369154215,-0.074666627,-2.146023512,-0.614868641,3.221635103,-0.750794113,-0.219955564,0.045415126,0.423962176,0.038145557,0.255251318,-3.082598925
1.979879141,2.23158884,-0.156597435,-2.167903185,-0.536141098,2.569140434,-0.381390393,-0.237402722,0.041343942,0.415484071,0.035331495,0.270465791,-3.083584309
1.984880924,1.834576607,-0.274406165,-1.810318947,-0.525708556,1.966666222,0.028392874,-0.250827134,0.038211439,0.40896076,0.033429198,0.281667799,-3.083502531
1.989878058,1.334419727,-0.096028939,-1.518315792,-0.54025501,1.610916138,0.275090128,-0.255278409,0.037172765,0.406797737,0.031338383,0.290605873,-3.081150293
1.994875669,0.875354707,0.079573169,-1.298933148,-0.546209514,1.39980793,0.363207132,-0.258703381,0.036373574,0.405133456,0.028968096,0.297838509,-3.077939034
1.999874592,0.704105794,0.432988763,-1.264689922,-0.470193505,1.329392672,0.339678913,-0.266146094,0.034528967,0.401796848,0.026268629,0.304798126,-3.073299885
2.004874229,0.539538503,0.697417378,-1.24805522,-0.308786213,1.178807974,0.175686166,-0.278250188,0.031512436,0.396413684,0.023693636,0.310799748,-3.068508863
2.009875298,0.31031251,0.663055837,-1.021991849,-0.116944939,1.113835573,0.001569744,-0.282263666,0.03051221,0.394628733,0.022013314,0.316120327,-3.065361261
2.014877081,0.144889787,0.418969184,-0.84707427,0.037678778,1.157378435,-0.083386876,-0.285351783,0.029742604,0.393255323,0.021539267,0.321646035,-3.06404686
2.019874573,0.134949565,0.135834396,-0.791746736,0.114587516,1.231953144,-0.072780877,-0.286375731,0.029487418,0.392799944,0.021975882,0.327646643,-3.063960552
2.024872303,0.241811723,-0.011519225,-0.851512253,0.163040802,1.249750257,-0.002628097,-0.293913782,0.028149376,0.38644585,0.02293993,0.333915591,-3.063876867
2.029870987,0.378636301,-0.076953568,-0.911051512,0.190248922,1.194755793,0.087438941,-0.296413273,0.027705709,0.384338975,0.024300689,0.340026975,-3.063466311
2.034870863,0.518793225,-0.018934637,-0.930638134,0.208111629,1.099840999,0.156160682,-0.298336446,0.027364334,0.382717878,0.025684284,0.345776975,-3.06225276
2.039871693,0.664479494,0.129768491,-1.012233615,0.236002058,0.990049839,0.166965514,-0.298974127,0.027251141,0.382180333,0.026934674,0.351189435,-3.06014061
2.044873714,0.67304647,0.123679966,-1.052377582,0.242474541,0.830096185,0.11602138,-0.303670675,0.027783597,0.379504323,0.028107123,0.35566628,-3.058539391
2.049871206,0.60810858,0.01968349,-1.028592706,0.243314639,0.729000926,0.08354494,-0.306268722,0.028113458,0.378057182,0.029461151,0.359497666,-3.057780743
2.054868937,0.584244728,-0.092969432,-1.073427677,0.22462298,0.645439446,0.074843414,-0.308267742,0.028367264,0.376943707,0.030907415,0.362953663,-3.057548523
2.05986762,0.548618197,-0.177089795,-1.049366236,0.186247706,0.552786589,0.084225245,-0.308930576,0.028451422,0.376574516,0.032311399,0.36582315,-3.057668209
2.064867496,0.521002829,-0.198077694,-1.031961918,0.135850549,0.481655806,0.092281349,-0.311322629,0.029206244,0.375154495,0.033482648,0.368346572,-3.057729959
2.069874525,0.545119405,-0.132029235,-1.030507803,0.083538875,0.411134988,0.091010988,-0.31401366,0.030152394,0.373538196,0.03421279,0.370565861,-3.057431698
2.074876785,0.573987961,-0.053622432,-1.05657804,0.042449739,0.310556352,0.06304194,-0.316084236,0.030880392,0.372294575,0.034513731,0.37234205,-3.056883812
2.0798738,0.515603364,-0.058202483,-0.989915192,0.00931382,0.227874368,0.043638378,-0.316770792,0.031121781,0.3718822,0.034676131,0.373550773,-3.056644678
2.084872246,0.466350704,-0.058916561,-0.986981571,-0.018234769,0.192358673,0.033716977,-0.317299038,0.031307515,0.371564895,0.034669731,0.374582797,-3.05647254
2.089871407,0.433454543,-0.053054228,-0.992689133,-0.026819738,0.148081541,0.029035674,-0.319130659,0.031950161,0.370340586,0.034609471,0.375336051,-3.056298733
2.094871283,0.402432978,-0.039949596,-0.967826664,-0.032781363,0.124168865,0.026937623,-0.320539981,0.032444637,0.369398564,0.034507394,0.375944972,-3.056075335
2.099872351,0.402703285,-0.028992044,-0.971718729,-0.038053483,0.113217719,0.021704705,-0.321007282,0.032608595,0.369086206,0.034348585,0.376527011,-3.055840969
2.104874134,0.412960321,-0.028442547,-0.986505508,-0.038469147,0.086817339,0.019541692,-0.321366817,0.032734748,0.36884588,0.03418396,0.37698102,-3.055612087
2.109871149,0.378032357,-0.032202229,-0.958664119,-0.03587148,0.064387508,0.024878537,-0.321627527,0.032749698,0.368687987,0.034060776,0.377254248,-3.055409908
2.114868879,0.336031169,-0.019102888,-0.938374698,-0.037320413,0.082990102,0.023050208,-0.321971208,0.032734022,0.368487418,0.033901855,0.377595931,-3.055167198
2.119868279,0.31021589,0.001820489,-0.950500309,-0.030921314,0.099561252,0.016417274,-0.322085142,0.032728825,0.368420929,0.03371368,0.377995729,-3.054852486
2.124868155,0.320294261,0.001900423,-0.959435701,-0.021401634,0.117381655,0.007437403,-0.322172821,0.032724824,0.368369758,0.033570103,0.378499806,-3.054600716
2.129868746,0.3265329,-0.013820538,-0.954229951,-0.012473606,0.132620797,0.003050653,-0.322201908,0.032723498,0.368352801,0.033499308,0.379088968,-3.054460049
2.134871006,0.329963565,-0.018533034,-0.950182617,-0.007396768,0.154045448,0.000598053,-0.323214322,0.032458644,0.366967618,0.033453815,0.379794985,-3.054332495
2.139868259,0.355556697,-0.027817661,-0.959472597,-0.00564231,0.164387807,-0.004100619,-0.323550016,0.032370824,0.366508305,0.033424694,0.38059786,-3.054270506
2.144866228,0.368005633,-0.037255883,-0.953075767,-0.007216367,0.161695302,-0.003588271,-0.323808312,0.032303251,0.366154909,0.033413719,0.381396055,-3.054246187
2.14986515,0.393844754,-0.04268264,-0.952441394,-0.014686026,0.166972384,-0.007946178,-0.323893964,0.032280847,0.366037726,0.033357669,0.382265627,-3.054243088
2.154864788,0.409901768,-0.054383382,-0.96382308,-0.028439967,0.149380192,-0.014469403,-0.324061483,0.032319032,0.366235077,0.033234432,0.383055121,-3.054329395
2.159865856,0.410398901,-0.06422732,-0.95226258,-0.049404249,0.136159793,-0.024731103,-0.324142158,0.032345403,0.366371661,0.032999445,0.383764863,-3.054522753
2.164867878,0.410194099,-0.063664205,-0.957468033,-0.068615131,0.122747965,-0.029189227,-0.324204236,0.032365698,0.366476774,0.032643758,0.384418905,-3.054731369
2.169864893,0.401182652,-0.047437325,-0.953049183,-0.080391124,0.110316023,-0.032404412,-0.32422483,0.03237243,0.366511613,0.032195959,0.38498202,-3.054870129
2.1748631,0.40598157,-0.030641111,-0.952764511,-0.08301501,0.105475008,-0.035836637,-0.324522197,0.032208789,0.366437465,0.031694435,0.385542214,-3.054959297
2.179862261,0.404396772,-0.021073056,-0.94618547,-0.082262859,0.087772951,-0.035504326,-0.32490468,0.031984292,0.366311073,0.031194996,0.38600719,-3.055015802
2.184862137,0.39593938,-0.008965153,-0.933642328,-0.076104313,0.087101392,-0.036561374,-0.325198948,0.031811554,0.366213828,0.030705377,0.386463761,-3.055022717
2.189863205,0.390367717,-0.014877498,-0.937174916,-0.063749306,0.080855049,-0.035474434,-0.325296521,0.031754278,0.366181582,0.030302173,0.386885524,-3.055078983
2.194865227,0.380847961,-0.016730011,-0.930704653,-0.047748193,0.07773114,-0.035865448,-0.325371593,0.031710211,0.366156757,0.029974429,0.387270093,-3.055150986
2.199862242,0.385711789,-0.01179167,-0.92885375,-0.027501799,0.081536584,-0.037534978,-0.325789601,0.0313881,0.365062654,0.0297406,0.387698054,-3.055210829
2.204866886,0.390939564,-0.003145367,-0.928496659,-0.005096254,0.082357384,-0.039695166,-0.326111257,0.031140255,0.364220828,0.029604042,0.388143271,-3.055226326
2.209866524,0.39081797,-0.007052717,-0.921719015,0.020384077,0.08504086,-0.039532322,-0.32621789,0.031058073,0.363941699,0.029615844,0.388598621,-3.055275917
2.214866161,0.391408652,-0.010087534,-0.929138184,0.042008296,0.086792611,-0.041684225,-0.326299965,0.030994842,0.363726944,0.029736508,0.389064163,-3.055339575
2.219866991,0.385690361,-0.017564824,-0.927034318,0.060137358,0.086439498,-0.047443915,-0.326668769,0.030954557,0.363987595,0.029945279,0.389498174,-3.055489779
2.224868774,0.385801286,-0.022243302,-0.935802996,0.070516117,0.087232053,-0.054414466,-0.327297926,0.030904025,0.364523739,0.030188877,0.389950305,-3.055692434
2.229865789,0.390423864,-0.026354233,-0.935062408,0.075757593,0.076124772,-0.058623362,-0.327506542,0.03088727,0.364701509,0.030456699,0.390351593,-3.055932283
2.23486352,0.393603295,-0.023279456,-0.930354536,0.078357123,0.070683397,-0.060678702,-0.327667087,0.030874377,0.364838302,0.030723585,0.390727818,-3.056161165
2.239862204,0.394154698,-0.022917081,-0.926892757,0.075582705,0.065233476,-0.064268641,-0.327720314,0.030870102,0.364883661,0.030957578,0.391076148,-3.056412935
2.244862556,0.393165469,-0.040729407,-0.92739588,0.071715303,0.063194737,-0.064017341,-0.328682154,0.030464185,0.363293171,0.031216662,0.391421765,-3.056767941
2.249863148,0.392815858,-0.052075021,-0.926952958,0.06121514,0.056298953,-0.065511204,-0.329001099,0.030329591,0.362765789,0.03143546,0.391722023,-3.057177305
2.254865408,0.39809677,-0.047997341,-0.927503347,0.0538157,0.0511152,-0.065779187,-0.329246491,0.030226029,0.362360001,0.031607047,0.392008841,-3.057543993
2.259862423,0.399983883,-0.032948967,-0.925288022,0.045911275,0.043056037,-0.068891339,-0.329327881,0.03019169,0.362225443,0.03168235,0.392252147,-3.057853937
2.264860392,0.39366582,-0.026073046,-0.921060801,0.039331935,0.040182304,-0.069848545,-0.329342186,0.0303156,0.361976177,0.031723488,0.392478347,-3.058147907
2.269859314,0.386961251,-0.031434104,-0.921622634,0.03227295,0.036947481,-0.067996897,-0.329334974,0.030393887,0.361857474,0.031744335,0.39268446,-3.058462143
2.274859428,0.382388681,-0.045323066,-0.923206031,0.021120206,0.036110107,-0.063262135,-0.329329431,0.030454125,0.36176613,0.031747855,0.392863154,-3.058823824
2.279860497,0.383956254,-0.049059503,-0.926217318,0.006894377,0.03329907,-0.061112273,-0.329327583,0.0304741,0.361735851,0.031692948,0.393039525,-3.059178829
2.284862518,0.38010481,-0.042430453,-0.924854636,-0.006062667,0.032022495,-0.062429372,-0.329382658,0.030379225,0.362175345,0.031543631,0.39320603,-3.059506178
2.289859295,0.377438396,-0.034737431,-0.924094975,-0.02052868,0.036501378,-0.065099277,-0.329457909,0.030236596,0.362787753,0.031298414,0.393387675,-3.059819221
2.294857502,0.367707372,-0.028052326,-0.925716221,-0.031853471,0.03648309,-0.066823483,-0.329515815,0.030126855,0.363258958,0.030993141,0.393550336,-3.06011343
2.299856424,0.368570805,-0.020316783,-0.927485168,-0.047426686,0.043449875,-0.067243211,-0.329535007,0.030090466,0.363415211,0.030582724,0.393758953,-3.060376406
2.304856539,0.365718037,-0.016404508,-0.923960805,-0.051828992,0.045131624,-0.067329459,-0.329549789,0.030062467,0.363535434,0.030162822,0.393961132,-3.060622454
2.309857607,0.369836718,-0.021111201,-0.927607179,-0.056408148,0.051663559,-0.067333244,-0.329348594,0.029835805,0.362476736,0.029729052,0.394216269,-3.060909986
2.314859629,0.375501871,-0.01970808,-0.926081955,-0.06592375,0.053121276,-0.065832391,-0.329193771,0.029661404,0.361662149,0.029249785,0.394471526,-3.061172009
2.319856644,0.384798974,-0.014389893,-0.928011954,-0.075221106,0.053723082,-0.069522798,-0.329142451,0.029603574,0.361392051,0.028694665,0.394753456,-3.061418056
2.324854612,0.381545693,-0.009625196,-0.926127493,-0.081282213,0.050374556,-0.068599708,-0.329102933,0.02955908,0.36118421,0.028119663,0.395002902,-3.061633825
2.329853535,0.38328895,-0.004497744,-0.928334653,-0.086281426,0.052536689,-0.068687834,-0.329286128,0.029291403,0.361474097,0.027497701,0.395273209,-3.061846495
2.334853411,0.378526747,0.004424511,-0.923341572,-0.08742173,0.052042391,-0.06481538,-0.329625607,0.028829698,0.362059921,0.026875349,0.395525992,-3.062004089
2.339860201,0.37634787,0.009247033,-0.922918975,-0.082489982,0.055910502,-0.060124457,-0.32973817,0.028676605,0.362254202,0.026279965,0.395799935,-3.062110424
2.344862223,0.376334488,0.013948214,-0.921678782,-0.077911176,0.056025382,-0.056074876,-0.329824775,0.028558811,0.362403661,0.025709657,0.396079212,-3.062170744
2.349859238,0.375438392,0.008270703,-0.917846084,-0.070776701,0.058237709,-0.049284771,-0.329853505,0.028519753,0.362453222,0.025201762,0.396360904,-3.062240124
2.354857683,0.375786006,0.0073676,-0.920446336,-0.068239413,0.06444592,-0.043518823,-0.330261678,0.027616341,0.362255245,0.024725327,0.39667815,-3.062287331
2.359856606,0.379094601,0.003710276,-0.922956049,-0.06177048,0.064991392,-0.042543672,-0.33039701,0.027316786,0.362189591,0.024290675,0.397001088,-3.062342167
2.364856482,0.379706234,-0.00604553,-0.922482193,-0.058877148,0.06937778,-0.03533588,-0.330501139,0.027086299,0.362139076,0.023907645,0.397341579,-3.0624125
2.36985755,0.391311884,-0.009989526,-0.928815007,-0.059630066,0.069320366,-0.03282493,-0.33053568,0.027009875,0.362122327,0.023527695,0.397704422,-3.062461615
2.374859571,0.390332401,-0.021736389,-0.924385786,-0.067073017,0.069340385,-0.030861221,-0.330657691,0.026792113,0.361206889,0.023131501,0.39804703,-3.062587976
2.379856586,0.387899071,-0.020948563,-0.922824621,-0.079632498,0.068908855,-0.032595795,-0.330721766,0.026680572,0.360680014,0.022670295,0.398390651,-3.062693119
2.384854555,0.382427603,-0.022365499,-0.929764807,-0.088406838,0.070137151,-0.034060299,-0.330771059,0.026594751,0.360274613,0.022151388,0.39873445,-3.062820673
2.389853477,0.375910848,-0.02351407,-0.930086553,-0.092857085,0.074904919,-0.034436621,-0.33078739,0.026566293,0.360140204,0.021623015,0.399089396,-3.062956095
2.394853354,0.376499474,-0.022552768,-0.930855691,-0.097206846,0.080614351,-0.032492127,-0.330769867,0.026317943,0.360607535,0.021067981,0.399466902,-3.063077688
2.399854422,0.376940787,-0.018531883,-0.933015943,-0.102903411,0.085136808,-0.031748205,-0.330733746,0.026007241,0.361338079,0.020493763,0.399880528,-3.063179493
2.404856205,0.376157254,-0.017133223,-0.929973423,-0.105251335,0.091270655,-0.030038537,-0.330705941,0.025768176,0.361900151,0.019902397,0.400315046,-3.063269138
2.409853458,0.374587744,-0.016724722,-0.92822361,-0.105503902,0.099740364,-0.027539799,-0.330696702,0.025688907,0.362086564,0.019319169,0.40079397,-3.063347816
2.414851427,0.368709058,-0.011633298,-0.931604683,-0.109892525,0.107012026,-0.027162418,-0.330689609,0.025627913,0.362229973,0.018700724,0.401291907,-3.063398361
2.419850349,0.364524305,-0.013433493,-0.935485363,-0.107980318,0.11428871,-0.02482958,-0.33152777,0.025104554,0.361107141,0.018103706,0.401818633,-3.063477755
2.424850464,0.370896757,-0.010226096,-0.93594116,-0.10820739,0.127222061,-0.021937583,-0.332172692,0.024701864,0.360243231,0.017511778,0.402424634,-3.063499928
2.429851055,0.378444254,-0.011542925,-0.939845204,-0.109463386,0.131441176,-0.024242591,-0.332386523,0.024568338,0.359956741,0.016896611,0.403062224,-3.063552618
2.434853077,0.388699591,-0.019418661,-0.939284801,-0.111533724,0.137563244,-0.01968056,-0.332551032,0.0244656,0.359736323,0.016319834,0.403743625,-3.063620567
2.43985033,0.394245893,-0.025049053,-0.93330121,-0.118700802,0.137440771,-0.017628631,-0.332746059,0.02426343,0.359938711,0.015710482,0.404424161,-3.063696861
2.444848061,0.400459617,-0.030990025,-0.931877792,-0.126391187,0.13967061,-0.013235369,-0.333038121,0.023937898,0.36037302,0.015083889,0.405139834,-3.063784599
2.449846983,0.392992467,-0.022985632,-0.923042536,-0.132317036,0.142328888,-0.009957402,-0.333134949,0.023829957,0.360517025,0.014424269,0.405833751,-3.06379199
2.454846859,0.395537019,-0.015705708,-0.929091573,-0.140704751,0.149383977,-0.011804,-0.333209455,0.023746904,0.36062783,0.013686791,0.406587452,-3.063793182
2.459847927,0.39347142,-0.0258293,-0.930684984,-0.144643858,0.147758439,-0.013796064,-0.333234161,0.023719365,0.360664576,0.012962836,0.40730691,-3.063868999
2.464849949,0.403418094,-0.039926063,-0.934028745,-0.15805842,0.149387032,-0.012428672,-0.334174991,0.023169622,0.360082984,0.012201644,0.408064276,-3.0639956
2.469847441,0.410766393,-0.042316534,-0.933457911,-0.1727743,0.14307864,-0.013957043,-0.334486961,0.022987338,0.359890133,0.011365906,0.408789128,-3.064135313
2.47485137,0.398959458,-0.031413402,-0.921895683,-0.189283222,0.148442984,-0.011225569,-0.334726989,0.022847082,0.359741747,0.010410894,0.409519225,-3.064213753
2.479850531,0.378370076,-0.006518492,-0.924577415,-0.197213307,0.154094279,-0.007843237,-0.334806591,0.022800576,0.359692514,0.009388915,0.410260022,-3.064148426
2.484850168,0.366489261,0.014667486,-0.923755169,-0.193170294,0.162639529,-0.000513524,-0.335502714,0.021900386,0.358341306,0.008368397,0.411023617,-3.063993931
2.489851236,0.367237151,0.026041733,-0.922160149,-0.179148912,0.170342818,0.012698981,-0.335890651,0.021388,0.357568294,0.007440829,0.411830306,-3.063708067
2.49485302,0.368783206,0.023010951,-0.916426301,-0.169397563,0.182880729,0.023702871,-0.336189151,0.020993752,0.356973499,0.0066108,0.412698656,-3.063395262
2.499850273,0.363756567,0.011902447,-0.92112112,-0.1615358,0.192701057,0.035730593,-0.336288124,0.020863028,0.356776267,0.005868813,0.413617671,-3.063077211
2.504848242,0.354415119,0.002828516,-0.916531742,-0.15837279,0.215901703,0.039684955,-0.336417645,0.020586751,0.356248349,0.005157841,0.41462487,-3.062779427
2.509846926,0.357386291,0.003245599,-0.929017544,-0.15864338,0.232117519,0.039242066,-0.336514413,0.020317974,0.355693996,0.004451203,0.415725231,-3.062481403
2.51484704,0.37627703,-0.007153972,-0.923866212,-0.165282071,0.252102315,0.043489873,-0.33658886,0.020111168,0.355267435,0.003720166,0.416939348,-3.062236071
2.51984787,0.36076954,0.003017758,-0.938996911,-0.176317424,0.26105091,0.056165222,-0.336613536,0.020042595,0.355125993,0.002975576,0.418168724,-3.061828852
2.524849892,0.363032699,-0.004382724,-0.928597152,-0.19078514,0.281878084,0.052341528,-0.33663255,0.019989833,0.355017185,0.002126554,0.419511527,-3.061498404
2.529847145,0.374290824,-0.021838572,-0.942394257,-0.220191389,0.298747361,0.048006661,-0.337582439,0.019432474,0.355148643,0.001163192,0.420951068,-3.06129837
2.534844875,0.393255562,-0.038232498,-0.937659144,-0.265379101,0.316348433,0.040333536,-0.338313311,0.019003624,0.355249792,-1.16E-05,0.422511488,-3.06122303
2.539844036,0.394581079,-0.028146332,-0.943968654,-0.297741532,0.323026657,0.039479934,-0.338555664,0.018861426,0.35528332,-0.001397106,0.424102545,-3.06107831
2.544844151,0.371026903,-0.008039281,-0.932113707,-0.320025414,0.355857491,0.021109719,-0.338742137,0.018752014,0.355309129,-0.002961944,0.425793856,-3.060907364
2.549845457,0.350928009,-0.018757572,-0.946018398,-0.335872829,0.393260539,0.004776934,-0.339394182,0.018347036,0.354818702,-0.004628583,0.427662492,-3.061011314
2.554847479,0.382495433,-0.049832892,-0.957116842,-0.354216188,0.444274276,-0.02601436,-0.340492696,0.01766262,0.353936821,-0.006341191,0.42983216,-3.061361313
2.559844255,0.399062812,-0.079496086,-0.97420907,-0.423166722,0.462694585,-0.024428302,-0.34085694,0.017435681,0.353644401,-0.008379189,0.432109296,-3.06189847
2.564842224,0.41604805,-0.061280709,-0.969217122,-0.488272369,0.486711949,-0.035687309,-0.341137201,0.017261067,0.353419423,-0.010851379,0.434523106,-3.062301636
2.569841146,0.402641028,-0.056479692,-0.955488622,-0.545668721,0.521546721,-0.048698664,-0.341230124,0.017203169,0.353344828,-0.013627009,0.437059999,-3.062853813
2.574841022,0.390405625,-0.057230812,-0.960067809,-0.584836304,0.569669247,-0.070830204,-0.342803866,0.015614366,0.351242602,-0.016654234,0.439853996,-3.063524246
2.579841852,0.37653777,-0.046055194,-0.9615013,-0.622114539,0.628858268,-0.077669546,-0.343325675,0.015087549,0.350545555,-0.019890277,0.442896307,-3.064254761
2.584843874,0.364341646,-0.011718785,-0.961921394,-0.641037405,0.691873312,-0.095340937,-0.343727171,0.014682199,0.350009233,-0.023344021,0.446218163,-3.064875364
2.589840889,0.355316132,-0.01567458,-0.986339986,-0.671325207,0.762283444,-0.105703756,-0.343860298,0.014547792,0.349831372,-0.026935797,0.449894726,-3.065687656
2.594838858,0.350668877,-0.017568279,-0.999634027,-0.715337336,0.829252481,-0.095434368,-0.34563306,0.012416228,0.346865177,-0.030746413,0.4538638,-3.066551208
2.59983778,0.326726824,0.0470993,-0.990413368,-0.72818625,0.902232826,-0.082303561,-0.346637934,0.011207483,0.345164001,-0.034749463,0.458150327,-3.067026854
2.604837656,0.321644902,0.075748146,-0.971600592,-0.699130952,1.020023823,-0.095581464,-0.347411126,0.010277436,0.343855053,-0.038657453,0.463036984,-3.067475319
2.609844446,0.342275321,0.024423426,-1.014250875,-0.717668116,1.116439104,-0.089076996,-0.347667485,0.009969051,0.343421042,-0.042524669,0.468459696,-3.068304062
2.614846706,0.358243614,0.037038401,-0.996604025,-0.744264424,1.196056604,-0.070029467,-0.349576682,0.008370026,0.34218806,-0.046554308,0.47423166,-3.068961859
2.619843721,0.353504092,0.080854028,-0.994789481,-0.735300004,1.294985652,-0.065748036,-0.351936042,0.006466643,0.340872645,-0.05066359,0.480514407,-3.069448709
2.624842167,0.353871346,0.045327183,-0.995154858,-0.733326137,1.416526794,-0.080102682,-0.353751421,0.005002119,0.339860529,-0.054692823,0.48738572,-3.070338964
2.629841089,0.379871964,0.010291322,-1.023782134,-0.762102485,1.523474813,-0.084919393,-0.354353368,0.00451651,0.339524925,-0.058854774,0.494815618,-3.071478605
2.634840727,0.39723134,0.052959498,-1.005977273,-0.784539223,1.649558663,-0.103179961,-0.354816526,0.004142867,0.339266717,-0.063372985,0.502863944,-3.072540045
2.639841795,0.37648055,0.002170726,-1.014448047,-0.818400383,1.770150304,-0.137365416,-0.358676225,0.001555382,0.33451286,-0.068050966,0.511466563,-3.07428503
2.644843817,0.382240593,-0.024046965,-1.032802105,-0.886819959,1.894859433,-0.154509574,-0.361646026,-0.000435512,0.330855072,-0.073139399,0.520652711,-3.076313734
2.64984107,0.379240602,0.006458989,-1.056824565,-0.94838649,2.031537771,-0.163607255,-0.362630755,-0.001095655,0.329642206,-0.078744918,0.530464649,-3.078394175
2.654839039,0.339484751,0.099941336,-1.029409647,-0.938745737,2.19440341,-0.188827232,-0.363388449,-0.00160359,0.328709006,-0.084629737,0.541012704,-3.080254316
2.659838438,0.321110517,0.043512985,-1.012024999,-0.952112913,2.41434288,-0.243803948,-0.366731972,-0.00350636,0.324905097,-0.090667054,0.552624285,-3.083155155
2.664838076,0.358340532,-0.025269832,-1.078542233,-1.024483085,2.58945632,-0.276302516,-0.372431368,-0.006724108,0.318444759,-0.097172864,0.565126121,-3.086770296
2.669839144,0.357404023,-0.028992388,-1.054534435,-1.128007054,2.754447699,-0.292625755,-0.374321163,-0.007791053,0.316302627,-0.104434289,0.578326762,-3.09062767
2.674841166,0.325909883,0.011395857,-1.066130638,-1.190421224,2.954310179,-0.320046514,-0.375775248,-0.008611994,0.31465441,-0.112432979,0.592431962,-3.094748735
2.679838181,0.27769202,0.051092573,-1.041393876,-1.190228701,3.159584045,-0.350277454,-0.37625739,-0.008884203,0.314107895,-0.120748714,0.607422173,-3.099196911
2.684836149,0.260089159,0.010064113,-1.014605641,-1.210215092,3.452182055,-0.391105175,-0.385636985,-0.013838383,0.300610483,-0.129481465,0.623841882,-3.104665518
2.68983531,0.329359174,-0.014102231,-1.127671123,-1.227653503,3.703607082,-0.409848481,-0.388747096,-0.015481097,0.296134979,-0.138637945,0.641516209,-3.110866308
2.69483614,0.288617492,-0.023440313,-1.08603251,-1.257195354,3.915212631,-0.428729147,-0.391140103,-0.016745051,0.29269141,-0.148296431,0.659964442,-3.11756134
2.699837208,0.294880122,0.007875513,-1.114445806,-1.297415495,4.244980812,-0.46597895,-0.39193359,-0.017164156,0.291549593,-0.158910185,0.680017054,-3.125028372
2.70483923,0.293637604,0.002588036,-1.181503654,-1.356584668,4.510868549,-0.48550868,-0.400956035,-0.02191407,0.278248936,-0.170397505,0.701200128,-3.133603096
2.709836245,0.221704885,0.108962782,-1.147295952,-1.386029124,4.879246712,-0.484451175,-0.406029254,-0.024584636,0.270764798,-0.182944015,0.723981977,3.140680552
2.714834213,0.137763992,0.136830091,-1.159614921,-1.4249264,5.290317535,-0.513066649,-0.409932762,-0.026639454,0.265006274,-0.196842074,0.748571336,3.130445242
2.719832897,0.078982554,0.153543428,-1.149848938,-1.479004025,5.742637634,-0.48058027,-0.411227077,-0.027320793,0.263096839,-0.211919621,0.775218308,3.119124651
2.724832773,0.111249484,0.245190099,-1.226343513,-1.518083334,6.219870567,-0.417292446,-0.417754799,-0.03052377,0.250772059,-0.228504375,0.804091096,3.106773615
2.729833841,0.157828033,0.311509788,-1.326602578,-1.529685974,6.591011047,-0.339951575,-0.425497532,-0.034287039,0.23573865,-0.246268019,0.834572196,3.093328476
2.734835625,0.140228882,0.343607098,-1.284974217,-1.536679864,6.970202923,-0.225283429,-0.431455046,-0.037182622,0.22417146,-0.265233636,0.866704345,3.078859806
2.73983264,0.387032658,0.323437214,-1.448455453,-1.613486409,7.36882925,-0.1145285,-0.433430433,-0.038142741,0.220336005,-0.286046326,0.900945008,3.062447071
2.744836569,0.729020357,0.375221521,-1.643044591,-1.607305765,7.461605549,0.008525738,-0.434950352,-0.038881488,0.21738489,-0.30807054,0.935433865,3.044824839
2.749835491,0.644261837,0.359592944,-1.434084177,-1.529666066,7.546789169,0.152958512,-0.44603467,-0.043041166,0.188667014,-0.33083415,0.97010237,3.026172876
2.754835367,0.757074773,0.377755702,-1.34348464,-1.507092953,7.858760357,0.26752612,-0.45456329,-0.046241753,0.166570559,-0.356224775,1.006573558,3.004914761
2.759836435,1.289072275,0.475511163,-1.744253039,-1.431086183,7.921461105,0.355311483,-0.457391232,-0.047303006,0.159243792,-0.3838076,1.043097258,2.980826139
2.764838696,1.479469895,0.600788593,-1.748809934,-1.179517508,7.552718639,0.495335281,-0.459567159,-0.048119567,0.15360634,-0.41089502,1.077206135,2.956730366
2.769835711,1.543910027,0.653945088,-1.590078831,-1.041497111,7.555352688,0.513192475,-0.464950621,-0.048871763,0.133420423,-0.441197813,1.111344218,2.929058552
2.774833918,1.875667095,0.605221868,-1.923933387,-0.898100376,7.159111977,0.493414432,-0.473806769,-0.049937338,0.099367738,-0.473160803,1.142860651,2.897994757
2.779833078,1.792158365,0.419471502,-1.656873822,-0.768278182,6.846261024,0.584691346,-0.476743311,-0.050290659,0.088076517,-0.505388319,1.172849417,2.865721941
2.784832954,1.724653602,0.465589702,-1.721684098,-0.722758293,6.676837921,0.662385166,-0.479002774,-0.050562516,0.079388686,-0.540961087,1.201878428,2.830410957
2.789834023,1.660366297,0.593025208,-1.728505731,-0.711164594,6.359706879,0.760698318,-0.479751974,-0.05065266,0.076507971,-0.578923345,1.228834152,2.793462992
2.794836044,1.646290421,0.745471001,-1.781010032,-0.603280485,6.292440891,0.727493763,-0.482922792,-0.047793608,0.034074664,-0.623310924,1.254810452,2.750425577
2.799833059,1.472834229,0.542391539,-1.898100972,-0.397881866,5.917224407,0.73700732,-0.483974189,-0.046845604,0.020004582,-0.668362021,1.278281569,2.704118729
2.804831028,1.117301583,0.35982278,-1.683344722,-0.329237968,5.626166821,0.820558131,-0.484783143,-0.046116177,0.009178611,-0.715663671,1.300614238,2.655296564
2.809830189,0.723254859,0.18764326,-1.521117806,-0.305566221,5.193988323,0.917098999,-0.485051364,-0.045874313,0.005588924,-0.764153123,1.321249008,2.605203629
2.814829826,0.153488964,-0.185613066,-1.520108461,-0.561064541,4.512546062,0.980993807,-0.482531697,-0.042467978,-0.023249172,-0.808490932,1.339184761,2.559315681
2.819831371,-0.065491155,-0.558470607,-1.388635755,-0.853792548,3.674891472,1.150213003,-0.481021643,-0.040541649,-0.039263938,-0.842923343,1.354605913,2.524414539
2.824833393,1.299291372,-0.341221064,-1.59425211,-1.088880301,3.126270533,1.408848524,-0.479859769,-0.039059468,-0.051586211,-0.868598998,1.369421601,2.499693155
2.829830408,2.628397942,-0.044260103,-2.863577127,-1.299308777,1.911945105,1.544496417,-0.479474515,-0.038568005,-0.055672042,-0.86666733,1.379154563,2.503401995
2.834828377,2.003436565,0.145646691,-2.757262945,-1.244402289,0.437737554,1.694559693,-0.4769274,-0.034904998,-0.067642801,-0.829293907,1.383506298,2.544484377
2.839827299,0.91590029,0.214506,-2.046783686,-1.135954022,-0.32433778,1.785504699,-0.473813266,-0.030377978,-0.080513172,-0.78139925,1.386132479,2.597394705
2.844827175,0.331521899,0.273615897,-1.510528922,-0.994100273,-0.711877227,1.815200925,-0.471417189,-0.026894743,-0.090416044,-0.729403675,1.38763988,2.654751778
2.849828005,0.078423701,0.378988624,-1.225491524,-0.706931472,-0.916089952,1.788187504,-0.470622689,-0.025739769,-0.093699649,-0.675332427,1.387996316,2.71344018
2.854830027,-0.037511416,0.401659727,-1.105176926,-0.367245913,-1.067629218,1.696870804,-0.470011353,-0.024851093,-0.096226163,-0.619920194,1.38696003,2.771775961
2.859827518,-0.07407935,0.319457233,-0.984263301,-0.088547409,-1.138830423,1.56866312,-0.468926281,-0.016129592,-0.096985854,-0.565815628,1.384928703,2.827152014
2.864825249,-0.078552179,0.227695763,-0.891783178,0.101870336,-1.146371961,1.428197861,-0.468091398,-0.00941899,-0.09757039,-0.515160859,1.382247567,2.877799034
2.869824171,-0.097298019,0.162228629,-0.816219449,0.215645134,-1.139522672,1.279146075,-0.467814565,-0.007193882,-0.097764209,-0.468983322,1.378960729,2.923225164
2.874824286,-0.11239668,0.116908289,-0.750856161,0.267728865,-1.141215563,1.106854796,-0.467601538,-0.005481811,-0.09791334,-0.428204119,1.375027657,2.962866068
2.879831314,-0.102675319,0.068560772,-0.713415563,0.265539914,-1.179897308,0.921700478,-0.468130797,-0.001179519,-0.095096186,-0.392739862,1.370316148,2.997126579
2.884833574,-0.082053199,0.019645423,-0.692565858,0.227006912,-1.251801968,0.729103744,-0.469144642,0.005907068,-0.09003,-0.362446606,1.364716768,3.026197672
2.889830589,-0.067637324,-0.01833228,-0.68470645,0.16177702,-1.340307713,0.525406718,-0.469480813,0.008256845,-0.088350147,-0.337706655,1.358198881,3.049842358
2.894828796,-0.047674872,-0.037417322,-0.682890058,0.087500639,-1.436138749,0.325448364,-0.469739467,0.01006484,-0.08705762,-0.318313301,1.350800395,3.068373919
2.89982748,-0.024933172,-0.032959267,-0.681251168,0.034040336,-1.535245776,0.130253956,-0.469825238,0.010664337,-0.086629041,-0.303839386,1.342563033,3.08224988
2.904827356,-0.00394677,-0.031091252,-0.701822519,0.014184597,-1.648735881,-0.054475773,-0.471100926,0.015276297,-0.078339398,-0.293515146,1.333447099,3.09200573
2.909828424,0.020527951,-0.033973843,-0.701141536,0.018679962,-1.771142483,-0.221619576,-0.471523911,0.016805535,-0.075590707,-0.286308169,1.323492289,3.098512411
2.914830685,0.059438638,-0.037755933,-0.72418195,0.046942845,-1.914014697,-0.366228968,-0.471849412,0.017982181,-0.073475778,-0.281266093,1.31262064,3.102585793
2.9198277,0.092011698,-0.050415117,-0.73869741,0.092948668,-2.066700935,-0.491603702,-0.471957326,0.018372335,-0.072774507,-0.277640402,1.300823927,3.104879856
2.924825668,0.129363492,-0.068676114,-0.758560896,0.148967057,-2.219881535,-0.59617722,-0.473101616,0.017949544,-0.064481653,-0.274810314,1.288143516,3.105967045
2.929824591,0.178938553,-0.101166703,-0.786130607,0.206671998,-2.391841888,-0.674615324,-0.473743647,0.01763045,-0.059813332,-0.272106886,1.274533987,3.106441021
2.934824467,0.22823593,-0.12933892,-0.804160416,0.270224571,-2.587159157,-0.738266766,-0.47423768,0.01738493,-0.056221377,-0.269160241,1.259897113,3.10671711
2.939825296,0.258163244,-0.162632197,-0.816110849,0.320848227,-2.775048494,-0.786535144,-0.474401474,0.017303519,-0.055030353,-0.26592353,1.2443223,3.106880426
2.944827795,0.292329609,-0.194292516,-0.831149757,0.365427226,-2.971590281,-0.819418907,-0.475084335,0.015284408,-0.048096824,-0.262209088,1.227758169,3.107169628
2.949825287,0.333125144,-0.220604166,-0.849789679,0.400365919,-3.174529076,-0.830383778,-0.475872278,0.012642012,-0.039730161,-0.257820338,1.210228562,3.107866526
2.954823732,0.370288283,-0.23843351,-0.851772547,0.427774489,-3.378003359,-0.826865733,-0.476478517,0.010608869,-0.03329258,-0.252873093,1.191756964,3.108991146
2.959822655,0.393420279,-0.248435989,-0.850468397,0.459695578,-3.577187777,-0.808972418,-0.476679534,0.009934716,-0.031158002,-0.247224137,1.172373056,3.110680103
2.964822531,0.409961045,-0.247315541,-0.843743443,0.496545404,-3.761939049,-0.778109789,-0.476834208,0.009416002,-0.029515589,-0.240980119,1.152174354,3.112861156
2.969823599,0.422096521,-0.247380942,-0.829389691,0.543495357,-3.935673714,-0.746393144,-0.477561623,0.004906062,-0.015223988,-0.234210297,1.131216884,3.115399361
2.974825382,0.433609366,-0.245663241,-0.814923525,0.597278357,-4.083625317,-0.704989612,-0.47812131,0.001435969,-0.004227573,-0.226922229,1.109657049,3.118277311
2.979822636,0.443742096,-0.243844211,-0.798890233,0.652960062,-4.220310688,-0.657905102,-0.47830689,0.000285352,-0.00058137,-0.219153777,1.087525249,3.121455431
2.984820366,0.46034196,-0.247698173,-0.792361498,0.71053189,-4.330118179,-0.604278445,-0.478449702,-0.00059997,0.002224135,-0.210944071,1.064968944,3.12483573
2.989819288,0.480975509,-0.250037521,-0.794742167,0.765879393,-4.435472965,-0.544782579,-0.478351712,-0.002973537,0.012950109,-0.202302426,1.041989326,3.128439665
2.994819403,0.500502884,-0.258677989,-0.786064386,0.814064741,-4.532968521,-0.479025632,-0.478129387,-0.006903052,0.031108024,-0.193281293,1.018646121,3.132240772
2.999820709,0.526363492,-0.253394455,-0.776539445,0.863268197,-4.624634266,-0.415130079,-0.478055656,-0.008206004,0.037128843,-0.183978319,0.994962811,3.136210918
3.004822969,0.552538037,-0.246442974,-0.767612338,0.90607816,-4.707557678,-0.350129902,-0.477998942,-0.009208538,0.041761454,-0.174512088,0.97097683,3.140272379
3.009820461,0.58068651,-0.239984885,-0.763739824,0.941723347,-4.783877373,-0.291089147,-0.477980137,-0.009540958,0.04329754,-0.164939627,0.946699917,-3.138806581
3.01482439,0.607477963,-0.231360957,-0.765510917,0.970729291,-4.852556705,-0.233487502,-0.475194603,-0.013064863,0.069996998,-0.155338734,0.922156811,-3.134698153
3.019823551,0.643258572,-0.214204162,-0.77561456,0.996388853,-4.912256718,-0.18372272,-0.474270999,-0.014233323,0.078850038,-0.145829082,0.897405565,-3.130663872
3.024823666,0.677488923,-0.193295345,-0.780541539,1.029475927,-4.969371319,-0.14125675,-0.473560303,-0.015132373,0.085661851,-0.136434346,0.872430325,-3.126760244
3.029824495,0.708899081,-0.17116797,-0.784010589,1.062605381,-5.020260811,-0.104792096,-0.473324656,-0.015430482,0.087920517,-0.127148986,0.847266197,-3.12300539
3.034826994,0.728772044,-0.148302555,-0.796808064,1.101779938,-5.060871601,-0.074538112,-0.469039381,-0.016155433,0.110945776,-0.117993802,0.821948886,-3.119409561
3.039824963,0.750856102,-0.126962483,-0.809102178,1.140817285,-5.096268177,-0.051778764,-0.466602921,-0.016518444,0.123848133,-0.108969174,0.796495676,-3.116038799
3.044822693,0.772457957,-0.111887358,-0.824488521,1.179388165,-5.11915493,-0.039972734,-0.464728236,-0.016797757,0.133775622,-0.100109719,0.770965457,-3.112993002
3.049821615,0.794324338,-0.100692339,-0.846885026,1.209258556,-5.129729748,-0.032043528,-0.464106619,-0.016890371,0.137067392,-0.091453232,0.745416164,-3.110310078
3.05482173,0.82605803,-0.087479189,-0.876858592,1.232042551,-5.138269424,-0.035882711,-0.45960632,-0.016265219,0.151617765,-0.083048567,0.719859481,-3.107941389
3.059822321,0.856125593,-0.076869711,-0.906561196,1.250833988,-5.145760536,-0.045479491,-0.45405829,-0.015355671,0.168560892,-0.074928388,0.694304347,-3.105965137
3.064824343,0.884444654,-0.067868926,-0.936148703,1.261315346,-5.148794174,-0.066854089,-0.449789464,-0.014655834,0.181597471,-0.067117482,0.668773711,-3.104427814
3.069821119,0.916752815,-0.066111162,-0.966329098,1.264795542,-5.150409698,-0.091328792,-0.448374003,-0.014423782,0.185920149,-0.059626676,0.643283606,-3.103346586
3.074819326,0.942949235,-0.06627015,-1.002723813,1.256144047,-5.15598011,-0.118190341,-0.447284907,-0.014245234,0.189246163,-0.052476194,0.617799282,-3.102679253
3.07981801,0.970005989,-0.06266509,-1.036808372,1.242110968,-5.163834095,-0.148173168,-0.436101764,-0.011964479,0.211379707,-0.045706253,0.592331827,-3.102380037
3.084817886,0.99460125,-0.044546936,-1.068736553,1.231747627,-5.173476696,-0.174795091,-0.427497089,-0.010209593,0.228409946,-0.039254565,0.566862106,-3.10238862
3.08981967,1.018433571,-0.019904774,-1.09900701,1.229452848,-5.180317879,-0.207049087,-0.424643964,-0.009627705,0.234056845,-0.033080153,0.541416764,-3.102706671
3.09482193,1.040238023,0.01078881,-1.133743644,1.245757341,-5.187411308,-0.244988725,-0.422448665,-0.009179983,0.238401756,-0.027095703,0.515992463,-3.103338718
3.099818945,1.059478879,0.039617628,-1.170388699,1.275069833,-5.195771694,-0.281010538,-0.413301498,-0.007481895,0.250140309,-0.021189088,0.490584821,-3.104189396
3.104817152,1.077636719,0.067768857,-1.204825282,1.323939323,-5.203893185,-0.322164267,-0.397750199,-0.004608413,0.269585043,-0.015252155,0.465209544,-3.105329037
3.109816074,1.101560473,0.087239198,-1.23807466,1.384357452,-5.209300518,-0.363690674,-0.392593652,-0.003655621,0.276032537,-0.009183834,0.439887881,-3.106795073
3.11481595,1.113617301,0.095611252,-1.267390966,1.45232904,-5.21131134,-0.407505631,-0.388626069,-0.002922512,0.280993462,-0.002909476,0.414616466,-3.108636379
3.119817019,1.124830365,0.101138778,-1.300737023,1.514749408,-5.206271172,-0.447741628,-0.387310505,-0.002679427,0.282638401,0.003560535,0.389451832,-3.110788822
3.124819279,1.145324111,0.116391286,-1.338105917,1.571381569,-5.198322296,-0.487160623,-0.363258213,0.000703006,0.304836154,0.01018787,0.364432842,-3.113208294
3.129816294,1.168556929,0.149439484,-1.366035461,1.629366875,-5.187534809,-0.518715739,-0.355282933,0.001824556,0.312196493,0.016968347,0.339571238,-3.115813971
3.134814024,1.185974836,0.197915748,-1.389572501,1.702615857,-5.17029953,-0.544099033,-0.349146485,0.002687513,0.317859799,0.023995915,0.314906955,-3.118527889
3.139812946,1.192113996,0.265255988,-1.412219763,1.790121675,-5.145785809,-0.557783842,-0.347111762,0.002973654,0.319737643,0.031350926,0.290454268,-3.121201038
3.144812584,1.205196023,0.3375296,-1.438493252,1.897574306,-5.106550217,-0.55954957,-0.327559561,0.00656584,0.3328107,0.039154209,0.26631695,-3.12368679
3.149819613,1.241036415,0.394013375,-1.468935013,2.018136263,-5.070449352,-0.542381108,-0.316625595,0.008591358,0.340022892,0.047532134,0.242517143,-3.126045227
3.154821634,1.282705069,0.432795882,-1.472432375,2.127202749,-5.041698456,-0.502744317,-0.308212638,0.010149856,0.345572203,0.05649009,0.219001085,-3.128205538
3.159818649,1.319969654,0.422395557,-1.481370687,2.210649729,-4.992577076,-0.456296802,-0.305423051,0.010666625,0.347412258,0.06597621,0.195886284,-3.130346775
3.164817095,1.379095674,0.38034758,-1.517903447,2.237334251,-4.96961689,-0.390010178,-0.293262541,0.013372323,0.353779137,0.075750574,0.173068985,-3.132451534
3.169816017,1.4538486,0.321110725,-1.498051167,2.182606936,-4.95842886,-0.308676273,-0.279132128,0.016596941,0.360882908,0.08541923,0.150451794,-3.134500265
3.174815655,1.512935996,0.29135111,-1.487361312,2.040862799,-4.945804119,-0.197307631,-0.268259734,0.019078065,0.366348803,0.09447024,0.128054738,-3.136282206
3.179816961,1.554734349,0.33118552,-1.438824177,1.85169971,-4.933846951,-0.068172917,-0.264654666,0.01990076,0.368161201,0.10252472,0.105789199,-3.13736558
3.184818983,1.590191483,0.394122809,-1.33815515,1.657546759,-4.881867409,0.081294864,-0.261880785,0.020533765,0.369555712,0.109578699,0.083853908,-3.137558937
3.189815998,1.63080883,0.466715902,-1.23047328,1.472504735,-4.792563438,0.253244162,-0.243801832,0.026547669,0.378869206,0.115713559,0.062444173,-3.136604548
3.194814205,1.674134851,0.509275138,-1.096716404,1.282203436,-4.677394867,0.439452082,-0.229891315,0.03117496,0.386035323,0.120936617,0.041636921,-3.134659052
3.199813366,1.726090074,0.499768943,-0.950907648,1.051679492,-4.531849861,0.628929794,-0.225278854,0.032709282,0.388411462,0.12510179,0.021607174,-3.131865501
3.204813242,1.787591696,0.41813606,-0.78346318,0.746733546,-4.369997501,0.814086616,-0.22172989,0.033889838,0.390239775,0.127910405,0.002403058,-3.128552198
3.20981431,1.859192133,0.287942469,-0.617026687,0.318758965,-4.195305824,0.986918807,-0.210881919,0.036987778,0.394418269,0.12875618,-0.015880922,-3.124843836
3.214816332,1.935699582,0.151494488,-0.447546721,-0.209651709,-4.027259827,1.143522739,-0.192756072,0.042108119,0.401245475,0.127048329,-0.033299327,-3.120853424
3.219813108,2.029835701,0.051976122,-0.271428615,-0.80521661,-3.873971462,1.274777412,-0.186745882,0.043805923,0.403509259,0.122396491,-0.049863517,-3.116491795
3.224811316,2.133289099,0.047879197,-0.089243412,-1.389868379,-3.725968361,1.355075717,-0.182121456,0.045112267,0.405251086,0.114650227,-0.065586768,-3.111479759
3.229809999,2.193951607,0.088082798,0.081737712,-1.894485474,-3.547617435,1.387682676,-0.180588081,0.045545429,0.405828625,0.104268156,-0.080303483,-3.105852604
3.234809875,2.256100178,0.21675016,0.242994487,-2.254468918,-3.341288328,1.394214272,-0.159890711,0.046980746,0.412534237,0.091812938,-0.093869686,-3.099169493
3.239810705,2.287286043,0.410511404,0.396244049,-2.427526951,-3.065694094,1.352718353,-0.153027862,0.047456671,0.414757699,0.078175634,-0.105918832,-3.091336489
3.244812727,2.273487091,0.626773238,0.547719061,-2.378070354,-2.707137823,1.272414923,-0.147747368,0.047822863,0.416468501,0.064508937,-0.116105467,-3.0824368
3.24980998,2.20140624,0.823825419,0.684760153,-2.115378618,-2.252260208,1.161913991,-0.145996451,0.047944285,0.417035758,0.051967058,-0.1240125,-3.072742462
3.254807711,2.084588766,0.970312178,0.782173991,-1.673372626,-1.702642202,1.046497107,-0.131204575,0.041451752,0.420718819,0.04157038,-0.129256234,-3.06273365
3.259807587,1.979222298,1.077832222,0.831185818,-1.11504817,-1.098876119,0.946544945,-0.12297295,0.037669238,0.42274344,0.033930458,-0.131511062,-3.052405357
3.26480794,1.874480128,1.130122781,0.830533803,-0.499623388,-0.47284627,0.873196959,-0.116639279,0.034758847,0.424301237,0.029386899,-0.130726963,-3.041959286
3.269809008,1.783885598,1.105818033,0.785693109,0.093538694,0.147669792,0.832007468,-0.114539154,0.033793818,0.424817771,0.027946537,-0.126935422,-3.031691313
3.274811506,1.732414603,1.017561436,0.686466336,0.574697852,0.73394978,0.825880468,-0.109252863,0.030588888,0.425794601,0.029069785,-0.120240562,-3.02180624
3.27980876,1.735552073,0.885396361,0.522078156,0.878955483,1.244929671,0.856228411,-0.103798829,0.02704311,0.426702768,0.031866562,-0.110936999,-3.012270451
3.284812689,1.765610218,0.760897219,0.340463221,1.003708005,1.641511083,0.903147936,-0.099602319,0.024314875,0.427401543,0.035356808,-0.099619232,-3.002841234
3.289811611,-0.022733092,0.215438724,-0.096399911,0.592581809,2.307371616,0.894884288,-0.098210834,0.023410244,0.427633226,0.038097169,-0.088451907,-2.997178078
3.294811726,1.201383829,0.014352024,0.044528615,-0.351486951,3.424085855,1.424129248,-0.097140186,0.022714192,0.427811474,0.035045445,-0.069047384,-2.989848852
3.299812555,0.671011925,0.609610558,0.045073323,0.021104872,3.213648796,1.291936874,-0.099969283,0.025022663,0.426330149,0.032560211,-0.050912533,-2.977469921
3.304814339,-1.262299538,0.354489833,0.081725717,0.182518318,3.518260717,1.016634941,-0.102146082,0.026798874,0.425190359,0.033195607,-0.037239991,-2.972350121
3.309811354,-0.375399172,0.722101867,-0.429268241,0.590126157,4.609330177,0.82705313,-0.102867872,0.027387833,0.424812436,0.034834787,-0.01432816,-2.963938236
3.314809322,-0.007697538,0.333111942,-1.920240641,0.624773681,4.580321312,0.145909905,-0.103423238,0.027840996,0.424521655,0.037635177,0.010009793,-2.96042347
3.319808245,-0.594327092,-0.131102622,-1.827889085,0.660006404,4.142779827,-0.092734866,-0.110918321,0.029087311,0.421549261,0.040950101,0.028685233,-2.962812901
3.324807882,-0.632345974,0.763169885,-1.275807858,1.142845869,4.542416096,-0.486494362,-0.124077767,0.031154547,0.41635412,0.045348484,0.050077032,-2.960073233
3.32980895,-0.380776942,0.198536009,-1.638681769,0.801115632,4.81243372,-1.198403716,-0.128441185,0.031840004,0.414631516,0.048661139,0.074317448,-2.964851618
3.334810972,0.431334734,0.137230083,-1.175067067,0.725804865,4.902439117,-1.704807878,-0.13179855,0.032367416,0.413306087,0.051115088,0.099797726,-2.971541643
3.339807987,0.970904231,-0.411671132,-1.097592473,0.552838922,5.28576088,-2.091571331,-0.132911786,0.032542296,0.412866592,0.053627692,0.128979832,-2.982331753
3.344805956,1.181508303,-1.218621492,-1.542761087,-0.076426744,5.133040905,-2.121368885,-0.156791598,0.03560045,0.403058261,0.053995948,0.157011926,-2.997145176
3.349805117,1.719429374,-1.385868788,-1.489089608,-0.733450174,5.015390396,-1.868463039,-0.164709687,0.036614478,0.399806023,0.05075413,0.18485865,-3.010714531
3.354804993,2.06453681,-1.574712396,-2.003972054,-1.162011266,4.705592632,-1.577793598,-0.170802116,0.037394699,0.397303641,0.045781169,0.211731017,-3.023060322
3.359806061,2.497357607,-1.469045401,-1.992145181,-1.522728562,4.174512386,-1.012971044,-0.172822237,0.037653405,0.396473885,0.039338887,0.235843524,-3.032222748
3.364807844,2.684623241,-0.969688654,-2.226702929,-1.667794824,3.604180336,-0.357856542,-0.193204105,0.033056535,0.388054281,0.031930417,0.257177442,-3.035449266
3.369805098,2.576148987,-0.299653083,-2.235612154,-1.768788218,2.864924669,0.256407678,-0.20462127,0.030345533,0.383337051,0.023717457,0.274131536,-3.032680988
3.374802828,2.11167407,0.763248086,-2.00721097,-1.664619684,2.226593256,0.447597861,-0.213406011,0.028259603,0.379707456,0.014372967,0.287024736,-3.023779154
3.37980175,1.173903942,1.442623258,-1.502471566,-1.39682126,1.819321871,0.200749293,-0.216318846,0.027567947,0.378503948,0.00485292,0.296411246,-3.014608622
3.384802103,0.577742934,1.687388301,-1.148690939,-0.965510964,1.776986241,-0.111446485,-0.225776762,0.023643225,0.373613745,-0.002983956,0.305276394,-3.007177353
3.389802933,0.253723234,1.414116979,-1.00373745,-0.610028923,1.823170066,-0.45218733,-0.236190096,0.018920839,0.367994785,-0.008993546,0.314099193,-3.003835678
3.394804955,0.206740528,0.878486216,-1.038437843,-0.265458196,1.845123768,-0.59777081,-0.244202435,0.015287285,0.363671362,-0.012515878,0.323088884,-3.004107952
3.39980197,0.364263982,0.232486621,-1.023419142,0.001910884,1.806690812,-0.517084062,-0.246859178,0.014082467,0.362237811,-0.013300291,0.332140207,-3.006712198
3.404799938,0.610726297,-0.223201796,-1.008638263,0.104750387,1.703251958,-0.270894736,-0.248903364,0.013155442,0.361134768,-0.012399106,0.341157496,-3.009641886
3.409798861,0.815313935,-0.218777075,-1.019673944,0.153235614,1.535783768,0.008877594,-0.25558278,0.009774671,0.356915176,-0.011056981,0.349536896,-3.01045084
3.414798737,0.915101767,0.040553644,-1.066688657,0.165005162,1.303358436,0.157085538,-0.26072216,0.007173397,0.353668481,-0.010035105,0.356794834,-3.008772135
3.419806004,0.838678718,0.278953075,-1.126630187,0.220230043,1.077025414,0.1466216,-0.262426257,0.006310864,0.352591962,-0.009246904,0.362623215,-3.006293535
3.424808502,0.719189346,0.27059564,-1.147900939,0.287338763,0.877744913,0.098033749,-0.26373744,0.005647203,0.351763606,-0.008095546,0.367245972,-3.004499435
3.429805994,0.606062293,0.09185195,-1.123773098,0.327755362,0.76630497,0.080877572,-0.267207772,0.005521243,0.349082828,-0.006359472,0.371142149,-3.003964663
3.434804201,0.563332438,-0.067614645,-1.130810261,0.326074034,0.692138016,0.078773476,-0.272947401,0.005519472,0.344587147,-0.004360342,0.37470305,-3.004133463
3.439803123,0.624935746,-0.167018071,-1.169130445,0.283032179,0.602725208,0.095086113,-0.274850547,0.005518885,0.343096465,-0.002401612,0.377976537,-3.004528999
3.444802999,0.57530582,-0.154182658,-1.074486375,0.230093345,0.496351004,0.11736583,-0.276314884,0.005518433,0.341949463,-0.00074818,0.380564332,-3.00466609
3.449804068,0.574216068,-0.050489612,-1.040069461,0.171399504,0.473929733,0.099337392,-0.276800424,0.005518283,0.341569155,0.000317604,0.383138806,-3.004231215
3.454806328,0.54662919,-0.020391613,-1.081681609,0.143140718,0.368790179,0.074872091,-0.280515075,0.006922295,0.339994937,0.001120374,0.385137141,-3.003947973
3.459803343,0.442650855,-0.02237929,-0.939788818,0.127229214,0.338616997,0.075292535,-0.281746775,0.007387838,0.33947295,0.001940072,0.386772692,-3.003736019
3.464801788,0.420728445,-0.005475157,-0.977714658,0.117679499,0.351787746,0.079305328,-0.282694489,0.007746043,0.339071333,0.002665092,0.388591558,-3.003421783
3.469800711,0.421633005,0.007997028,-0.98830235,0.126032218,0.312311739,0.089120433,-0.283008754,0.007864817,0.338938147,0.003459871,0.39015165,-3.002990723
3.474800587,0.419846803,0.023242969,-0.945206046,0.130926833,0.310969383,0.092715964,-0.284707606,0.008487325,0.33823812,0.004258189,0.391723543,-3.002437115
3.479801655,0.439361781,0.007603199,-0.966539443,0.128138915,0.290034711,0.088772386,-0.285631478,0.008825164,0.337858111,0.005066659,0.393247306,-3.001976252
3.484803677,0.444485992,-0.050979536,-0.955895901,0.105274118,0.261863232,0.078834936,-0.286342293,0.009085108,0.33756572,0.005873722,0.394593686,-3.001904488
3.48980093,0.457272291,-0.117250606,-0.975238144,0.05805197,0.240932509,0.067409925,-0.286578,0.009171301,0.337468773,0.006525152,0.395876646,-3.002193213
3.494799137,0.43236798,-0.136897147,-0.971121609,-0.0004414,0.212301195,0.056793936,-0.287103951,0.009696529,0.336312562,0.006853456,0.396927834,-3.002607584
3.499798536,0.402947485,-0.104686096,-0.977688909,-0.053994861,0.215595037,0.037267752,-0.287625819,0.010333447,0.33483851,0.006778506,0.397965431,-3.00294733
3.504798412,0.36340487,-0.055748783,-0.97503674,-0.088089824,0.220280647,0.023258772,-0.288027346,0.010823511,0.333704323,0.00641839,0.398979008,-3.003149748
3.50979948,0.334057361,-0.008708088,-0.963332355,-0.10218215,0.247755691,0.017648773,-0.288160503,0.010986007,0.333328247,0.005916155,0.400102139,-3.003166676
3.514801502,0.33402738,0.017078517,-0.958286941,-0.103711352,0.271803766,0.012526928,-0.288262963,0.011111037,0.333038896,0.005363112,0.401366532,-3.003117085
3.519798517,0.35237962,0.003266189,-0.941946626,-0.102729812,0.292494118,0.014792569,-0.289496064,0.01107138,0.33268109,0.004872013,0.402777076,-3.003144264
3.524796486,0.386905462,-0.012454497,-0.942250192,-0.105543844,0.292820007,0.024895875,-0.290444851,0.011040867,0.332405776,0.004421361,0.404248327,-3.003156424
3.529795647,0.414358646,-0.016564872,-0.932140827,-0.107055523,0.276517421,0.031607401,-0.290759444,0.011030749,0.332314461,0.003986025,0.405665129,-3.003125906
3.534795523,0.426909536,-0.015224404,-0.923735857,-0.107926875,0.253715068,0.033087622,-0.291001499,0.011022964,0.332244247,0.003539622,0.406963468,-3.003056765
3.539796591,0.430485129,-0.012202671,-0.919203758,-0.099359557,0.222989738,0.035203468,-0.291534543,0.010967446,0.331797093,0.003143165,0.408114195,-3.002981424
3.544798374,0.437117934,-0.007943989,-0.918129027,-0.08093892,0.197014242,0.028182045,-0.292402565,0.010871202,0.331024498,0.002807187,0.409145296,-3.002919674
3.549795389,0.431281447,0.005382683,-0.92011565,-0.055976558,0.153862759,0.016724605,-0.292690367,0.010839289,0.330768317,0.002569469,0.409940064,-3.002862692
3.554799318,0.431531817,0.006753453,-0.9132092,-0.028954385,0.138727993,-0.002493971,-0.292911857,0.010814734,0.330571175,0.002405072,0.41067028,-3.002922058
3.559798479,0.431360275,-0.002645028,-0.921020269,-0.006055154,0.11108052,-0.016880495,-0.29298529,0.010806591,0.330505818,0.002366347,0.411244154,-3.003128052
3.564798355,0.428200483,0.003485609,-0.91827625,0.010504834,0.08945702,-0.027221913,-0.293904722,0.010617738,0.330854535,0.002360288,0.411725223,-3.003341675
3.569799185,0.424508601,0.000773418,-0.921109796,0.020330233,0.070355222,-0.033417147,-0.294209599,0.010555117,0.330970168,0.00239846,0.412091345,-3.003626347
3.574801445,0.40989092,0.009398052,-0.913957,0.024324633,0.053568698,-0.028986333,-0.294444203,0.010506935,0.331059158,0.002433043,0.412351727,-3.003834724
3.57979846,0.392921627,0.039999675,-0.915961564,0.037772458,0.046780463,-0.019505246,-0.294521987,0.010490959,0.331088662,0.002492036,0.412567109,-3.00382328
3.584796667,0.374070674,0.077018999,-0.923195183,0.074448638,0.044303037,-0.015163348,-0.294925332,0.010220198,0.329928875,0.002683472,0.412731856,-3.003646135
3.589795589,0.367821962,0.089016616,-0.922667801,0.121575944,0.045910064,-0.011061644,-0.295144081,0.010066461,0.329251707,0.003122041,0.412896782,-3.003419161
3.594795465,0.36945802,0.081723511,-0.920351505,0.164128706,0.051295701,-0.010531371,-0.295314729,0.009948102,0.328718185,0.003810251,0.413096905,-3.003245831
3.599796534,0.371765971,0.065099671,-0.916974664,0.201253429,0.060009591,-0.003004004,-0.295373708,0.009908788,0.328528672,0.004721516,0.413363755,-3.003116369
3.604799032,0.371195495,0.058112819,-0.914344668,0.227086723,0.066502005,0.006024726,-0.295338213,0.010111954,0.328811795,0.005789495,0.413657486,-3.002946615
3.609796286,0.357143551,0.052667055,-0.910792768,0.24707441,0.077249035,0.019071482,-0.295244932,0.010414694,0.329338223,0.006979493,0.413974047,-3.002726793
3.614794493,0.351308495,0.052396581,-0.909953415,0.274105549,0.08906278,0.039483517,-0.295173168,0.010647631,0.329743266,0.008346916,0.414346993,-3.002396584
3.619793415,0.36203745,0.051448371,-0.910676301,0.297120839,0.102655627,0.062798642,-0.295149386,0.010724869,0.329877555,0.009894704,0.414813995,-3.001930475
3.624794006,0.378785789,0.041346435,-0.911785245,0.316674769,0.107636765,0.078201972,-0.295131058,0.010784297,0.32998091,0.011589896,0.415318429,-3.001406431
3.629795074,0.40423277,0.017940415,-0.911655903,0.316224545,0.108115785,0.092019737,-0.295479417,0.011260771,0.329158753,0.013355925,0.4158656,-3.000891447
3.634797096,0.417557031,-0.006404657,-0.921004295,0.296830714,0.096238896,0.102620155,-0.295747489,0.011627386,0.328526139,0.015072128,0.416369975,-3.000437975
3.639794111,0.406659693,-0.021790599,-0.902959347,0.271132261,0.092690036,0.102951542,-0.295836359,0.011748949,0.328316391,0.016655281,0.416804224,-3.000058889
3.64479208,0.409827709,-0.021570778,-0.920759618,0.258186102,0.08509022,0.098799348,-0.295904756,0.011842484,0.328155011,0.018164257,0.417243451,-2.999686718
3.649791002,0.411410034,-0.004924078,-0.914677501,0.245070472,0.076893359,0.085175768,-0.296193331,0.012628054,0.327935666,0.019546151,0.417606682,-2.999261141
3.654790878,0.409620613,-0.012301646,-0.915608644,0.223425969,0.066232249,0.072818413,-0.296684265,0.013995471,0.327599198,0.02080637,0.417935252,-2.998962164
3.659792185,0.411630869,-0.029328292,-0.916397095,0.201825589,0.062074531,0.057931662,-0.296847045,0.014448882,0.327487648,0.021955891,0.418240279,-2.998828411
3.664794207,0.418294042,-0.051794134,-0.918136656,0.176168054,0.056131545,0.040282737,-0.296972275,0.014797749,0.327401787,0.022978358,0.41853717,-2.998898506
3.66979146,0.397269219,-0.058311611,-0.914139509,0.148107097,0.054284375,0.031797357,-0.297013789,0.014913427,0.327373326,0.023854209,0.418768704,-2.999050379
3.674789429,0.396651357,-0.050371934,-0.909784615,0.110010497,0.068581969,0.011819161,-0.297196001,0.016028814,0.328419656,0.024444658,0.419099331,-2.999218941
3.679788828,0.399765939,-0.051118337,-0.923578918,0.086816601,0.073084638,0.000839836,-0.29725641,0.016398655,0.328766614,0.024908084,0.419456959,-2.999483824
3.684788704,0.396461189,-0.042301506,-0.914001226,0.064616583,0.072905414,0.002467052,-0.297302872,0.016683225,0.329033583,0.02525321,0.419795483,-2.999678135
3.689796209,0.392028719,-0.027848048,-0.914941728,0.042540316,0.077828035,0.000677317,-0.29731831,0.016777581,0.329122096,0.025448343,0.420168281,-2.999801874
3.694798708,0.386074901,-0.021410115,-0.914785683,0.031731009,0.081150748,0.014091524,-0.297134697,0.017250221,0.328848153,0.025617968,0.4205392,-2.999819279
3.6997962,0.37981683,-0.00703408,-0.911307573,0.02912131,0.085653394,0.020227622,-0.297025442,0.017505931,0.328672677,0.025778545,0.420916259,-2.999732733
3.704794168,0.380520552,-0.004707548,-0.919790626,0.039468206,0.085953206,0.023261283,-0.2969414,0.017702682,0.328537673,0.025988093,0.42130512,-2.999640942
3.709793091,0.382913053,-0.002486617,-0.915290475,0.047704976,0.089486539,0.030538637,-0.296913534,0.017767921,0.32849291,0.026273036,0.421700805,-2.999490023
3.714792967,0.382980436,-0.004733458,-0.913727283,0.05613311,0.092583291,0.042385783,-0.29737407,0.017768206,0.32830596,0.026616285,0.422118098,-2.99929595
3.719794035,0.388957322,-0.004084068,-0.923524678,0.062024977,0.092414066,0.058276039,-0.298012823,0.017717969,0.328090161,0.027041482,0.422535747,-2.998991251
3.724795818,0.384419203,-0.007569905,-0.920458436,0.072605968,0.090730995,0.075176902,-0.298504323,0.017679317,0.327924132,0.02755799,0.422929913,-2.998624325
3.729793072,0.383907467,-0.017531786,-0.914897084,0.072187252,0.098534122,0.08873757,-0.298667282,0.0176665,0.327869087,0.028113928,0.423360109,-2.998223782
