Time,inertial-6253.76535:scaledAccelX,inertial-6253.76535:scaledAccelY,inertial-6253.76535:scaledAccelZ,inertial-6253.76535:scaledGyroX,inertial-6253.76535:scaledGyroY,inertial-6253.76535:scaledGyroZ,inertial-6253.76535:scaledMagX,inertial-6253.76535:scaledMagY,inertial-6253.76535:scaledMagZ,inertial-6253.76535:roll,inertial-6253.76535:pitch,inertial-6253.76535:yaw
0,-0.443723947,-0.116411924,-0.891733408,-0.053784981,-0.049935095,0.033903897,-0.027932169,0.1995654404163361,0.3873901069164276,0.1051238626241684,-0.470504433,-2.504630089
0.004996864,-0.444582134,-0.103087127,-0.893482804,-0.056271423,-0.047633454,0.033488747,-0.027758837,0.1996546238660812,0.3884322941303253,0.104775034,-0.470731586,-2.504452944
0.009994496,-0.445574015,-0.085820094,-0.8920241,-0.055632308,-0.044922866,0.030892728,-0.027625469,0.1997232586145401,0.389234185,0.1044042631983757,-0.470951766,-2.504252195
0.014993152,-0.447472334,-0.0716158,-0.889499366,-0.046957523,-0.04192508,0.022995349,-0.027581248,0.1997460126876831,0.3895000815391541,0.1040816977620125,-0.471162081,-2.504080772
0.019992832,-0.449979186,-0.06206109,-0.89069432,-0.03093789,-0.041937634,0.016437227,-0.027547222,0.1997635215520859,0.3897046744823456,0.1038451567292213,-0.471373528,-2.503913403
0.024993535,-0.450344115,-0.065601021,-0.891469777,-0.0163213,-0.045893889,0.007908869,-0.027435219,0.1995127499103546,0.3896632194519043,0.1037137359380722,-0.471593291,-2.503815413
0.02999552,-0.453419775,-0.073634699,-0.887004554,-0.003930849,-0.047497734,0.002408043,-0.027349042,0.1993197947740555,0.3896313309669495,0.1036842316389084,-0.471841991,-2.503778219
0.034992639,-0.456317812,-0.078820065,-0.882985473,0.008554447,-0.045802485,-0.002296793,-0.027320467,0.1992558091878891,0.3896207809448242,0.1037398874759674,-0.472074509,-2.503789902
0.039990529,-0.455717266,-0.079501979,-0.882473648,0.017293662,-0.043207701,-0.00978075,-0.02729848,0.1992065757513046,0.3896126449108124,0.1038452535867691,-0.47228536,-2.503831625
0.044989184,-0.459611088,-0.078890435,-0.881241918,0.027061723,-0.040635381,-0.019137563,-0.027152585,0.1990740597248077,0.3897963762283325,0.1040219590067863,-0.472490489,-2.503937244
0.049988866,-0.46354717,-0.078963533,-0.879609704,0.033199489,-0.034028314,-0.028369265,-0.026900178,0.1988546103239059,0.3901262283325195,0.1042563021183014,-0.472660422,-2.504099846
0.054989569,-0.461010724,-0.083827771,-0.875106394,0.040197052,-0.025634965,-0.03235513,-0.026816485,0.1987818479537964,0.3902356028556824,0.1045418232679367,-0.472781569,-2.504287481
0.059991553,-0.460618019,-0.101630785,-0.875910044,0.044208366,-0.015066676,-0.031206628,-0.026752088,0.1987258493900299,0.3903197646141052,0.1048784926533699,-0.472852826,-2.504508972
0.064988419,-0.461154848,-0.128264159,-0.873467326,0.035094861,-0.006387057,-0.027354097,-0.026730735,0.1987072825431824,0.3903476595878601,0.1051996648311615,-0.472873449,-2.504767656
0.069986045,-0.464963108,-0.148897722,-0.87005204,0.02068913,0.006974161,-0.019594489,-0.026590519,0.1990282982587814,0.3904361724853516,0.1054564416408539,-0.472841352,-2.505035162
0.074984707,-0.468127042,-0.152354166,-0.869893014,0.004403075,0.016844137,-0.010662924,-0.026544025,0.1991347372531891,0.3904654979705811,0.1055932492017746,-0.472775996,-2.50523138
0.079984382,-0.467743665,-0.146414235,-0.871667206,-0.012160477,0.030155875,0.001924702,-0.026508253,0.1992166340351105,0.3904880583286285,0.1055988296866417,-0.47264269,-2.505317688
0.084985085,-0.46732834,-0.138222307,-0.873513699,-0.024632758,0.04067621,0.008318433,-0.026496392,0.1992437839508057,0.3904955685138702,0.1055116206407547,-0.47246027,-2.505362272
0.089986563,-0.469575047,-0.131265923,-0.875452161,-0.036673419,0.051073156,0.014119781,-0.026533356,0.1991611123085022,0.3901726901531219,0.1053282245993614,-0.472239882,-2.505337954
0.094989315,-0.467784077,-0.12685658,-0.8776896,-0.043213107,0.061631765,0.017939251,-0.026557017,0.1991080790758133,0.3899843394756317,0.1051091328263283,-0.471960366,-2.505286455
0.099986941,-0.465684146,-0.122259304,-0.881722033,-0.049996566,0.069524564,0.02082075,-0.026575224,0.1990672647953033,0.3898394107818604,0.1048394963145256,-0.471630454,-2.505196333
0.104985602,-0.466038167,-0.119662069,-0.885056078,-0.055003535,0.074709296,0.024479909,-0.026581261,0.1990537345409393,0.38979134,0.104524203,-0.47128582,-2.505072355
0.109985277,-0.457441598,-0.116915807,-0.886265218,-0.060016848,0.081043951,0.025591452,-0.026695285,0.1989883929491043,0.3898197114467621,0.1041797995567322,-0.470886528,-2.504927635
0.114985988,-0.455848128,-0.110315695,-0.888057232,-0.061676826,0.084392756,0.02404595,-0.026843388,0.1989113539457321,0.3898950219154358,0.1038129255175591,-0.470478415,-2.504764557
0.119987965,-0.450505465,-0.10604348,-0.888199031,-0.059581615,0.088859916,0.02483446,-0.026957342,0.1988520622253418,0.3899529576301575,0.1034437641501427,-0.470047295,-2.504580736
0.124985091,-0.444534391,-0.104468703,-0.890801609,-0.0596021,0.091878906,0.021858159,-0.026995128,0.1988324075937271,0.3899721801280975,0.1030899658799171,-0.469581008,-2.504409075
0.129982725,-0.439717799,-0.106642783,-0.89543575,-0.058562264,0.09114264,0.017998291,-0.0270242,0.1988172829151154,0.3899869620800018,0.1027606204152107,-0.469106436,-2.504259586
0.134981632,-0.437331021,-0.103906751,-0.895959556,-0.056794662,0.090639353,0.014534391,-0.027222218,0.1986532062292099,0.3888399004936218,0.1024397388100624,-0.468629897,-2.504111528
0.139981315,-0.437606215,-0.098597094,-0.897491157,-0.055941734,0.089674652,0.01349273,-0.027374579,0.1985269784927368,0.3879572749137878,0.1021155342459679,-0.468162179,-2.503962278
0.144982278,-0.431217045,-0.093165621,-0.89466399,-0.049803518,0.083749495,0.010770266,-0.027425097,0.1984851211309433,0.3876646161079407,0.1018260344862938,-0.467721105,-2.503813267
0.149984255,-0.427622765,-0.092442632,-0.897306144,-0.047185834,0.075530715,0.013965368,-0.027463969,0.1984529048204422,0.3874394297599792,0.1015431955456734,-0.467307448,-2.503640652
0.154981375,-0.418651253,-0.098903432,-0.897792101,-0.042967487,0.067161903,0.015759081,-0.02769709,0.1983372420072556,0.3880275189876556,0.1012929156422615,-0.466920733,-2.503477097
0.159979001,-0.413347453,-0.112155467,-0.903746068,-0.045120485,0.055602305,0.016157689,-0.028099149,0.1981420814990997,0.3891501724720001,0.1010620146989822,-0.46658504,-2.503349066
0.164977923,-0.41233474,-0.118787982,-0.901302934,-0.051265568,0.043662686,0.024756381,-0.028232466,0.1980773657560349,0.3895224034786224,0.1007871776819229,-0.466318369,-2.503202915
0.169977605,-0.412290215,-0.118683964,-0.899187624,-0.05815205,0.029457426,0.036236778,-0.028335042,0.198027566,0.3898088037967682,0.1004423350095749,-0.466128618,-2.502977371
0.174978301,-0.414222807,-0.12250416,-0.898462653,-0.062847845,0.014865052,0.04312396,-0.028369056,0.1980110555887222,0.3899037837982178,0.1000721305608749,-0.466031075,-2.502743483
0.179980293,-0.416100472,-0.1281344,-0.899967015,-0.065700963,0.002551475,0.047531225,-0.029230567,0.1978816986083984,0.3902141153812408,0.099688791,-0.465994418,-2.502516985
0.184977159,-0.429319888,-0.118541412,-0.899898767,-0.074509807,-0.008797394,0.049231105,-0.029516226,0.1978388130664825,0.3903170228004456,0.099238999,-0.46603334,-2.502279282
0.189974785,-0.443146259,-0.10113851,-0.895517111,-0.077862136,-0.012123823,0.051564459,-0.029736022,0.1978058218955994,0.3903962075710297,0.098739356,-0.466121912,-2.502002478
0.194973439,-0.452127934,-0.090363018,-0.89195472,-0.07489495,-0.015788728,0.051527854,-0.029808903,0.1977948844432831,0.3904224634170532,0.098229319,-0.466235101,-2.501718521
0.199973375,-0.453641921,-0.080974847,-0.889826417,-0.071180463,-0.016474847,0.049299903,-0.029515037,0.1972599178552628,0.3890639543533325,0.097747236,-0.466350794,-2.501424551
0.204974085,-0.447113514,-0.076086596,-0.891660154,-0.063380308,-0.017919889,0.044603929,-0.029331002,0.196952224,0.3882723152637482,0.097301587,-0.46645245,-2.50113225
0.209976062,-0.444424331,-0.073294707,-0.891793728,-0.055681765,-0.019592745,0.041006763,-0.0291894,0.1967154890298843,0.3876632153987885,0.096902132,-0.466555595,-2.500853062
0.214972928,-0.446909606,-0.068653382,-0.891969264,-0.049379893,-0.021197302,0.03707413,-0.029142449,0.1966369897127151,0.387461245,0.096540771,-0.466673911,-2.500594616
0.219971076,-0.449000746,-0.07003022,-0.891918898,-0.041857209,-0.022303639,0.03137536,-0.028751856,0.1966347396373749,0.3881120681762695,0.096239224,-0.466797203,-2.500385761
0.22496973,-0.450443178,-0.072093897,-0.891845286,-0.032888565,-0.022210553,0.025063256,-0.028264901,0.196692631,0.3891408443450928,0.096006148,-0.466919839,-2.5002141
0.229975551,-0.448319882,-0.078652665,-0.892786384,-0.024833027,-0.020084627,0.021633595,-0.027890222,0.1967371851205826,0.3899324536323547,0.09582673,-0.467025042,-2.500067949
0.234976262,-0.44619444,-0.083367735,-0.891925514,-0.021744624,-0.018461753,0.01852566,-0.027765986,0.1967519521713257,0.3901949226856232,0.095677599,-0.467118323,-2.499952793
0.239978239,-0.444746405,-0.087489948,-0.891275167,-0.018531438,-0.019043507,0.014876737,-0.027670395,0.1967633217573166,0.3903968930244446,0.095563017,-0.467210114,-2.499861717
0.244975358,-0.447440565,-0.088528745,-0.888878584,-0.017850434,-0.015401212,0.012493934,-0.027878314,0.1965698301792145,0.3905809819698334,0.095451415,-0.467286617,-2.499802351
0.249973252,-0.447694361,-0.090206347,-0.888163269,-0.015506454,-0.014367026,0.013075837,-0.028038295,0.1964209377765656,0.3907226324081421,0.095354296,-0.467358172,-2.499743938
0.25497216,-0.444934487,-0.094974838,-0.885057867,-0.01387801,-0.013046998,0.013334474,-0.028091341,0.1963715702295303,0.3907696008682251,0.09528628,-0.467422009,-2.499691248
0.259971827,-0.441883683,-0.093999878,-0.888974011,-0.014499949,-0.012676381,0.012037897,-0.028132157,0.1963335871696472,0.390805721,0.095199257,-0.467474759,-2.499629498
0.264972538,-0.443811446,-0.095433868,-0.889577329,-0.013436626,-0.012105128,0.011259931,-0.02806229,0.1962614804506302,0.3907854855060577,0.095127285,-0.467525691,-2.499581337
0.269974262,-0.445366383,-0.09696757,-0.889574051,-0.012708776,-0.011725879,0.014026069,-0.027924201,0.1961458325386047,0.3907372951507568,0.095055364,-0.467582345,-2.499521732
0.274971128,-0.445038795,-0.096395195,-0.889497936,-0.016471835,-0.011191042,0.015951207,-0.027878411,0.196107492,0.3907212913036346,0.09495908,-0.467637032,-2.499451399
0.279968768,-0.440169513,-0.097814523,-0.890680134,-0.017729769,-0.012140246,0.018931158,-0.027843181,0.1960779875516891,0.3907090127468109,0.094845042,-0.467681259,-2.499353647
0.284967422,-0.438763499,-0.101313762,-0.891177773,-0.018657332,-0.011493675,0.023603097,-0.0278315,0.1960681974887848,0.3907049298286438,0.09472388,-0.467728645,-2.499236822
0.28996709,-0.44059664,-0.107532494,-0.891625583,-0.022475362,-0.013466394,0.024127465,-0.028015155,0.1962559670209885,0.3895314931869507,0.094601147,-0.467787147,-2.499145508
0.2949678,-0.443599343,-0.108844839,-0.889404893,-0.027405163,-0.014741637,0.026702076,-0.028076053,0.1963182240724564,0.3891423940658569,0.094441473,-0.467860758,-2.499036074
0.299969524,-0.44800505,-0.10620974,-0.890210688,-0.029691339,-0.012872426,0.030103929,-0.028122908,0.1963661313056946,0.3888429999351501,0.094257422,-0.467935622,-2.498910427
0.304966658,-0.448641121,-0.099308066,-0.890902042,-0.033644151,-0.012747452,0.031514741,-0.028138444,0.1963820159435272,0.3887437582015991,0.094032019,-0.468010694,-2.498752356
0.309964299,-0.44910726,-0.092946924,-0.889182031,-0.033401661,-0.013883946,0.03214477,-0.027812872,0.1962957829236984,0.3897091448307037,0.093808711,-0.468081534,-2.498584509
0.314962953,-0.449570835,-0.091364011,-0.890239358,-0.031729452,-0.013964573,0.032630466,-0.027621396,0.1962428241968155,0.3902870416641235,0.093584836,-0.468162686,-2.498405457
0.319962621,-0.450698555,-0.091069303,-0.888662279,-0.029886352,-0.011518678,0.032731608,-0.027474068,0.1962020695209503,0.3907316923141479,0.093369924,-0.468228579,-2.498229504
0.32496357,-0.453378856,-0.089965694,-0.88858819,-0.029137181,-0.011144064,0.031123267,-0.027425217,0.1961885541677475,0.3908791244029999,0.093162164,-0.468302578,-2.498071671
0.329965562,-0.450428486,-0.090025268,-0.88903743,-0.026020423,-0.010915706,0.029610101,-0.027247151,0.1959458440542221,0.3910863697528839,0.092972465,-0.468364865,-2.497909307
0.334962428,-0.448503107,-0.090202682,-0.891029596,-0.024585281,-0.010587642,0.0294994,-0.027046451,0.1956311166286469,0.3912496864795685,0.092795417,-0.468423635,-2.49774909
0.339960068,-0.446278721,-0.089347012,-0.890180349,-0.02200843,-0.008656757,0.028720083,-0.026892025,0.1953889429569244,0.391375333,0.092630766,-0.468466192,-2.497595787
0.344958723,-0.447061449,-0.08591482,-0.890739083,-0.019088555,-0.009836899,0.02658228,-0.026840821,0.1953086405992508,0.391416997,0.092474625,-0.468518227,-2.497444391
0.34995839,-0.443354934,-0.085531503,-0.890973747,-0.013579979,-0.012058261,0.025297588,-0.026801422,0.1952468603849411,0.3914490640163422,0.092358686,-0.468570232,-2.497294426
0.3549591,-0.438633054,-0.088660508,-0.89379847,-0.011072249,-0.011214841,0.020548724,-0.027077146,0.1953228861093521,0.3903067708015442,0.092265077,-0.46861434,-2.497175455
0.359960824,-0.438070923,-0.089927152,-0.895588219,-0.009644411,-0.015559973,0.020431634,-0.027289297,0.1953813880681992,0.3894278705120087,0.092186987,-0.468672693,-2.497051716
0.364963591,-0.440253973,-0.095151216,-0.898884475,-0.008876019,-0.015614159,0.019199871,-0.027359644,0.1954007893800735,0.3891364336013794,0.092118174,-0.468734324,-2.496949196
0.369961739,-0.445159078,-0.103229187,-0.893873632,-0.012347111,-0.018835941,0.017304216,-0.027413771,0.1954157203435898,0.388912171,0.092064708,-0.468827397,-2.496899605
0.374960393,-0.451071501,-0.102181047,-0.892946243,-0.013764963,-0.018604184,0.017890599,-0.027430825,0.1953627467155457,0.3888071477413177,0.091985941,-0.468925446,-2.496840954
0.37996006,-0.450661331,-0.094960459,-0.891970277,-0.016778219,-0.017377809,0.019020839,-0.027443042,0.1952634453773499,0.3886953592300415,0.091875151,-0.469016641,-2.496750832
0.384960771,-0.447793931,-0.087792963,-0.890940428,-0.015924206,-0.018477451,0.019890375,-0.027447093,0.1952305138111115,0.3886582851409912,0.091759205,-0.469110429,-2.496647835
0.389962763,-0.448584944,-0.087032638,-0.891290426,-0.014940811,-0.019665774,0.021555983,-0.027450209,0.1952051669359207,0.3886297643184662,0.091639511,-0.469214678,-2.49652195
0.394959629,-0.450380385,-0.089205854,-0.889847934,-0.01362033,-0.020465545,0.021154102,-0.027451243,0.1951967626810074,0.3886203169822693,0.091529824,-0.46931842,-2.496415854
0.399957508,-0.451729178,-0.096568115,-0.888515174,-0.013957907,-0.020329136,0.020470565,-0.027135679,0.1952662169933319,0.3902173042297363,0.091444388,-0.469428599,-2.49634409
0.404956162,-0.450844824,-0.096477665,-0.88692373,-0.014267995,-0.018524075,0.021878425,-0.027031044,0.1952892541885376,0.3907468318939209,0.091356896,-0.469525874,-2.496270657
0.409955829,-0.449637562,-0.089454032,-0.888498604,-0.011227177,-0.017891174,0.022214992,-0.026950534,0.1953069716691971,0.3911542892456055,0.091256842,-0.469617337,-2.496149302
0.41495654,-0.447915196,-0.082924016,-0.888574123,-0.008441719,-0.018364673,0.019116484,-0.026923839,0.1953128427267075,0.3912893831729889,0.091173574,-0.469709158,-2.496041298
0.419958264,-0.449552178,-0.081645973,-0.887602508,-0.005199278,-0.018074272,0.014970554,-0.026707197,0.1951121836900711,0.3915571868419647,0.09111955,-0.469799906,-2.495960474
0.42495513,-0.450665653,-0.084834084,-0.888688624,-0.000522294,-0.016049501,0.012429958,-0.026586836,0.1949948668479919,0.3916864991188049,0.091098249,-0.469882667,-2.49589777
0.42995277,-0.448953301,-0.088519394,-0.890837371,0.002524459,-0.014063257,0.009694241,-0.026494227,0.1949045956134796,0.3917860090732574,0.091104835,-0.469942033,-2.495859623
0.434951425,-0.447818965,-0.087588124,-0.892597914,0.001401545,-0.014907398,0.011421991,-0.02646352,0.1948746591806412,0.39181903,0.09109775,-0.470011681,-2.49579978
0.439951092,-0.446493983,-0.087731086,-0.894071043,0.003657048,-0.013720207,0.008992657,-0.02660366,0.1948782205581665,0.3912526071071625,0.09111885,-0.470067769,-2.495761633
0.444951802,-0.447289914,-0.088688076,-0.893149257,0.006339053,-0.013173665,0.007779177,-0.026815269,0.1949061900377274,0.390468031,0.091151483,-0.470122099,-2.495725155
0.449953526,-0.449575037,-0.092667714,-0.892946124,0.00616184,-0.014162755,0.007501428,-0.026978089,0.1949277073144913,0.3898643553256989,0.091185413,-0.470189393,-2.495702744
0.45495066,-0.448613495,-0.092615515,-0.889682472,0.005892818,-0.014227525,0.006717599,-0.027032077,0.1949348449707031,0.3896642029285431,0.09122505,-0.470258445,-2.495687723
0.459948301,-0.442773849,-0.092117496,-0.89041847,0.00896851,-0.014516857,0.008237858,-0.027073616,0.1949403285980225,0.3895101547241211,0.091273956,-0.470314026,-2.495648623
0.464946955,-0.439780802,-0.089649372,-0.892278612,0.009522298,-0.019603904,0.009474129,-0.027043594,0.1950532644987106,0.3906144499778748,0.091316693,-0.470391721,-2.495596409
0.469946623,-0.440432161,-0.093429066,-0.894423425,0.009068197,-0.024353944,0.009421331,-0.027020494,0.1951401680707932,0.3914641141891479,0.091363303,-0.470495313,-2.49556303
0.47494784,-0.445431501,-0.094062194,-0.894887686,0.008106315,-0.026851863,0.010808067,-0.027012834,0.1951689869165421,0.3917458355426788,0.091399372,-0.470622361,-2.495527506
0.479949564,-0.448381454,-0.096129812,-0.893544972,0.006576104,-0.027766099,0.010966584,-0.027006941,0.1951911598443985,0.3919625878334045,0.091440424,-0.470752031,-2.495504379
0.484946698,-0.450359702,-0.095740356,-0.894030809,0.007618024,-0.028995205,0.010193705,-0.026922392,0.1951966285705566,0.392001599,0.09148521,-0.47089532,-2.49548912
0.489944309,-0.450152576,-0.095570423,-0.893464506,0.007548827,-0.030112242,0.008118322,-0.026773822,0.1951989233493805,0.3919983208179474,0.091534451,-0.471040219,-2.495477676
0.494942963,-0.448979825,-0.09350799,-0.892941236,0.005952912,-0.030649586,0.006815402,-0.026724558,0.1951996833086014,0.391997218,0.091570176,-0.471188992,-2.495461941
0.4999488,-0.450307637,-0.09192431,-0.893322468,0.004312553,-0.029952506,0.008318196,-0.026686652,0.1952002793550491,0.3919963836669922,0.091590226,-0.471332103,-2.495441914
0.50494951,-0.449327201,-0.08968661,-0.892652035,0.003936259,-0.029397154,0.006274158,-0.026674083,0.1952004730701447,0.3919961154460907,0.091617465,-0.471465856,-2.495427847
0.509951234,-0.448950589,-0.093372591,-0.891342163,0.003339563,-0.028161146,0.006302927,-0.026472088,0.1952636241912842,0.3919182121753693,0.091642156,-0.47159788,-2.495418549
0.51494807,-0.450938642,-0.092992529,-0.889089048,0.003734799,-0.028458484,0.00541237,-0.026405111,0.1952845603227615,0.3918924033641815,0.091676712,-0.471734762,-2.495424747
0.519945741,-0.450811476,-0.09102983,-0.886241794,0.00174,-0.028616237,0.004880761,-0.026353575,0.1953006833791733,0.3918725252151489,0.091690414,-0.471876502,-2.495426416
0.524944365,-0.44965753,-0.090441376,-0.886873007,0.003335789,-0.027817773,0.00664811,-0.026336487,0.1953060328960419,0.3918659389019012,0.091722421,-0.472009927,-2.495417833
0.529944062,-0.448550612,-0.094165444,-0.88886714,0.002786832,-0.029791582,0.007729296,-0.025887869,0.1953514516353607,0.3917416930198669,0.091746345,-0.47214663,-2.495398998
0.534944534,-0.447974354,-0.095052309,-0.88778758,0.000609205,-0.030693991,0.0086417,-0.025631359,0.1953767240047455,0.3916710317134857,0.091760702,-0.472291291,-2.495382786
0.539946496,-0.450277388,-0.096025765,-0.888662815,0.000822687,-0.031242728,0.008437186,-0.025433993,0.1953961849212646,0.3916166722774506,0.091774814,-0.472439647,-2.495363951
0.544943333,-0.451482415,-0.091212161,-0.88746649,-0.000271905,-0.030617835,0.013554487,-0.025368549,0.1954026371240616,0.391598642,0.091761373,-0.472593427,-2.495311022
0.549941003,-0.452610791,-0.090387158,-0.886674702,-0.002026978,-0.030073136,0.016297156,-0.025509149,0.1954061686992645,0.3910251259803772,0.091726989,-0.472745419,-2.495239735
0.554939628,-0.453023016,-0.095024444,-0.888206303,-0.002478825,-0.02855056,0.016305922,-0.025748326,0.1954059,0.3902706205844879,0.091713473,-0.472891927,-2.495187998
0.559939325,-0.452174634,-0.09672711,-0.890123904,-0.005535842,-0.026166704,0.018528746,-0.025932355,0.1954057067632675,0.3896900415420532,0.091672055,-0.47302112,-2.495112419
0.564940035,-0.454753488,-0.100137748,-0.887337804,-0.007165891,-0.024461258,0.019822694,-0.025993375,0.1954056322574615,0.3894975483417511,0.09161929,-0.473145753,-2.495046139
0.569941998,-0.457393646,-0.100703344,-0.889619648,-0.008829582,-0.01913148,0.018357165,-0.026040327,0.195405588,0.3893494307994843,0.091572076,-0.473247856,-2.494995117
0.574938893,-0.454053879,-0.097906701,-0.889819503,-0.00906716,-0.01887849,0.019420212,-0.025862228,0.1953535974025726,0.3895727097988129,0.091508262,-0.473338515,-2.494917631
0.579936743,-0.45321238,-0.094430603,-0.889333308,-0.012034501,-0.015563182,0.020384597,-0.025725195,0.1953136026859283,0.3897444903850555,0.091420166,-0.473412961,-2.494823694
0.584935427,-0.453749955,-0.092130452,-0.888132095,-0.010243751,-0.014788175,0.019040862,-0.025679758,0.1953003257513046,0.3898014724254608,0.09134534,-0.473484665,-2.494737625
0.589935362,-0.453169912,-0.091316797,-0.890427589,-0.008882016,-0.012202184,0.022555409,-0.025644794,0.1952901184558868,0.3898452818393707,0.091264099,-0.473548114,-2.494626999
0.594936073,-0.454699725,-0.088594995,-0.889968991,-0.005609397,-0.013332147,0.022660948,-0.025633786,0.1952336877584457,0.3903612196445465,0.091197595,-0.473618925,-2.494516611
0.599937797,-0.457201213,-0.086320475,-0.888618827,-0.002709934,-0.011988509,0.023396647,-0.025625905,0.195136622,0.3912652134895325,0.091136336,-0.473696381,-2.494398117
0.604934633,-0.46024406,-0.086817361,-0.887655258,-0.000457871,-0.011121317,0.024087703,-0.025623292,0.1951044499874115,0.3915649354457855,0.091092862,-0.473771542,-2.494291782
0.609932542,-0.460633337,-0.085459255,-0.886143565,0.000857155,-0.008850979,0.022521973,-0.025621282,0.1950796842575073,0.3917955756187439,0.091047838,-0.473822922,-2.49418211
0.614931226,-0.459993362,-0.082757115,-0.885879219,0.003746145,-0.005372901,0.02150101,-0.025620615,0.1950714737176895,0.3918720483779907,0.091023169,-0.47386378,-2.494072437
0.619930863,-0.457596511,-0.082029067,-0.886191964,0.00526259,-0.00254593,0.017077183,-0.025236672,0.1951952129602432,0.3922149240970612,0.091010652,-0.473882139,-2.493979931
0.624931574,-0.456777334,-0.083328225,-0.888805985,0.009775102,0.001204983,0.010679585,-0.025109362,0.1952362358570099,0.3923286199569702,0.091040298,-0.473881513,-2.493928194
0.629933298,-0.453978032,-0.082979277,-0.888135433,0.010853429,0.003372515,0.009118496,-0.025011407,0.1952677965164185,0.3924160897731781,0.091073915,-0.473862499,-2.493867636
0.634936333,-0.454124182,-0.081606828,-0.886582553,0.01169818,0.005238216,0.005449913,-0.024978928,0.1952782720327377,0.3924451172351837,0.091125615,-0.473831296,-2.493837118
0.639934182,-0.451314539,-0.082959734,-0.888436615,0.014754287,0.004996964,0.004164523,-0.025241764,0.1952828764915466,0.3914809823036194,0.091194443,-0.47379756,-2.49380374
0.644933105,-0.448618799,-0.088640086,-0.890683174,0.014238431,0.00572569,0.002330691,-0.025400139,0.1952835470438004,0.390917182,0.09127105,-0.473752528,-2.493786097
0.649932802,-0.446435124,-0.093477078,-0.891045213,0.011915032,0.004075473,0.001692205,-0.025521999,0.1952840685844421,0.3904833495616913,0.091352724,-0.473710865,-2.493794441
0.654933512,-0.449687093,-0.091661751,-0.889460266,0.010350551,0.00406686,0.000299909,-0.025562406,0.1952842324972153,0.3903394937515259,0.091419294,-0.473673671,-2.493803978
0.659935474,-0.452928603,-0.088501178,-0.888753593,0.01083158,0.004183889,5.326408427208662e-06,-0.025649717,0.1952894479036331,0.3906680643558502,0.09148559,-0.473647177,-2.493805647
0.664932609,-0.451908082,-0.084321901,-0.889078915,0.014046846,0.003056593,-0.001079486,-0.025735362,0.1952962875366211,0.3912198841571808,0.091562666,-0.473622859,-2.493806839
0.66993022,-0.449302137,-0.082861863,-0.889550567,0.016559834,0.001984471,-0.001784216,-0.02580126,0.1953015476465225,0.3916445076465607,0.091654293,-0.473599464,-2.493809938
0.674929142,-0.448025227,-0.088063672,-0.889322162,0.019353397,-0.000327519,-0.003632894,-0.025823111,0.1953032910823822,0.3917852938175201,0.091774456,-0.473588645,-2.493833303
0.679928839,-0.45241189,-0.092282698,-0.891668797,0.017838735,-0.001205712,-0.003993093,-0.025839923,0.1953046172857285,0.3918936252593994,0.091897637,-0.473580182,-2.493878365
0.68492955,-0.45204711,-0.095883571,-0.8921386,0.018077886,-0.001557442,-0.004980054,-0.025747314,0.1952504515647888,0.3917078077793121,0.092029519,-0.473577529,-2.493932724
0.689931512,-0.449961871,-0.096476853,-0.891560435,0.016527046,-0.000353833,-0.005566984,-0.02567606,0.1952087581157684,0.3915648460388184,0.092150792,-0.473562568,-2.493986845
0.694928408,-0.449305803,-0.094704628,-0.891181946,0.014424263,-0.002456127,-0.006752456,-0.025652433,0.1951949298381805,0.3915174305438995,0.092265688,-0.473555267,-2.494045496
0.699926019,-0.449448407,-0.092547245,-0.890883029,0.01455904,-0.002951611,-0.00860248,-0.025634253,0.1951843053102493,0.391480953,0.092378154,-0.473557532,-2.494104147
0.704924941,-0.450208753,-0.090478614,-0.889685571,0.015241372,-0.001554479,-0.009103229,-0.025547275,0.1952667683362961,0.3915915191173553,0.092490308,-0.473551303,-2.494169235
0.709924877,-0.452402681,-0.0878914,-0.890281141,0.016200174,-0.001487172,-0.011208942,-0.025398497,0.1954171508550644,0.391800582,0.092608027,-0.47354272,-2.494233608
0.714925587,-0.451133668,-0.086562522,-0.888061881,0.016404876,-0.00020355,-0.009379131,-0.025349164,0.1954670250415802,0.3918699026107788,0.092725337,-0.473521322,-2.494291544
0.719927549,-0.450983435,-0.088530175,-0.890092432,0.016648963,-0.003067805,-0.009012678,-0.025311207,0.1955053806304932,0.3919232487678528,0.092845961,-0.473521948,-2.494349003
0.724924445,-0.453336656,-0.092896171,-0.888832331,0.017861128,-0.001615699,-0.009072626,-0.025298622,0.1955181062221527,0.3919409215450287,0.092978306,-0.47351414,-2.494421244
0.729922295,-0.45409745,-0.095977388,-0.887811482,0.016445043,-0.001203836,-0.007192569,-0.025480451,0.1954622119665146,0.3917393088340759,0.093101852,-0.473513812,-2.494492531
0.734921217,-0.452719092,-0.09761025,-0.884612799,0.014863279,-0.001093739,-0.003626805,-0.025540741,0.1954436749219894,0.3916724324226379,0.093218356,-0.473514199,-2.494545221
0.739921153,-0.446898282,-0.098826632,-0.889760375,0.012663075,-0.002550934,-0.000232412,-0.02558713,0.1954294145107269,0.3916209936141968,0.093308002,-0.473505169,-2.494567394
0.744921863,-0.445564747,-0.099525414,-0.892201006,0.012154932,-0.003902877,0.000776496,-0.025602512,0.1954246908426285,0.391603947,0.093400821,-0.473504782,-2.494586229
0.749923825,-0.446728617,-0.10292466,-0.893599927,0.007760757,-0.005120647,0.003398953,-0.025663083,0.1954230070114136,0.3917019367218018,0.093468659,-0.47351259,-2.49460721
0.754920721,-0.446895003,-0.103111126,-0.893073738,0.002929899,-0.007197925,0.005056894,-0.025695227,0.1954229176044464,0.3917619287967682,0.093504436,-0.4735322,-2.494616032
0.759918571,-0.446518779,-0.098404415,-0.893928409,0.001524605,-0.0085603,0.005800749,-0.025719961,0.1954228579998016,0.3918080925941467,0.093519539,-0.47356075,-2.494606972
0.764917254,-0.444055676,-0.09340784,-0.893435538,-9.27E-05,-0.012389669,0.006389885,-0.025728161,0.1954228281974792,0.391823411,0.09351594,-0.473607481,-2.494580984
0.769923091,-0.449822098,-0.09166272,-0.893038571,-0.000465501,-0.014811305,0.007002391,-0.025653981,0.1955652832984924,0.391832024,0.093507037,-0.473671228,-2.494553804
0.77492404,-0.45144406,-0.088129729,-0.891657114,-0.000364912,-0.015420911,0.007309151,-0.025548218,0.1957561820745468,0.3918316662311554,0.093498945,-0.47374022,-2.494522572
0.779925764,-0.450067878,-0.088612691,-0.889920413,0.001576364,-0.017022884,0.007187226,-0.025466841,0.1959030628204346,0.3918313980102539,0.09350232,-0.47382465,-2.494496584
0.7849226,-0.448759139,-0.086506441,-0.891905129,0.002999552,-0.018618058,0.006120494,-0.025439858,0.1959517598152161,0.3918313086032867,0.093508855,-0.473901153,-2.494454145
0.78992027,-0.448048383,-0.088815048,-0.89252305,0.003962953,-0.019747587,0.008936893,-0.025419097,0.1959892362356186,0.391831249,0.093524352,-0.473990053,-2.494416714
0.794918895,-0.450271726,-0.092234895,-0.890369177,0.00491714,-0.020265553,0.007944364,-0.02555451,0.1958010196685791,0.3917811810970306,0.093554229,-0.474083364,-2.494398355
0.799918592,-0.451737583,-0.096274659,-0.889079034,0.005449335,-0.021012753,0.008113101,-0.025658699,0.1956561952829361,0.391742617,0.093589634,-0.474176049,-2.494394541
0.804919302,-0.452558726,-0.096353851,-0.888970435,0.003506202,-0.022527382,0.007748055,-0.025693247,0.1956081688404083,0.391729861,0.093616754,-0.474282146,-2.49438405
0.809921265,-0.450386971,-0.094047487,-0.889454126,0.002814757,-0.022325674,0.012628777,-0.025719829,0.1955712288618088,0.3917200267314911,0.093624428,-0.474385083,-2.494349241
0.814918399,-0.448572785,-0.09595371,-0.891468585,2.435006899759173e-05,-0.023717463,0.012925795,-0.02567476,0.1956440657377243,0.3916834592819214,0.093619883,-0.474488467,-2.494298697
0.819916308,-0.451479673,-0.105426475,-0.891133606,-0.00150169,-0.024396459,0.014166907,-0.025585601,0.1957861632108688,0.3916216194629669,0.093630411,-0.474601269,-2.494286776
0.824915171,-0.451955229,-0.10795442,-0.887746334,-0.004431351,-0.025739394,0.015980978,-0.025556037,0.1958332806825638,0.3916011154651642,0.093621731,-0.474731922,-2.494266033
0.829915106,-0.448208839,-0.106845073,-0.887485743,-0.008621189,-0.025072804,0.018351197,-0.025533291,0.1958695352077484,0.3915853500366211,0.09357214,-0.474845588,-2.494219542
0.834916115,-0.445218205,-0.103130795,-0.891458273,-0.012024785,-0.027802141,0.018015672,-0.025525749,0.1958815604448318,0.3915801048278809,0.093505763,-0.474971503,-2.494156122
0.839918077,-0.447267056,-0.100963622,-0.892059088,-0.016418371,-0.029178275,0.019675624,-0.025001109,0.1958033591508865,0.390468419,0.093406446,-0.475103229,-2.494074583
0.844914973,-0.452889383,-0.097541779,-0.888992906,-0.019617014,-0.028442772,0.021361062,-0.024827147,0.1957774311304092,0.3900997936725616,0.093281277,-0.475246012,-2.493990421
0.849912822,-0.457406014,-0.091195747,-0.887872815,-0.018341443,-0.027725454,0.021713071,-0.024693297,0.1957574933767319,0.3898161649703979,0.093153507,-0.475388944,-2.493891239
0.854911506,-0.458357692,-0.08506117,-0.886800051,-0.017634921,-0.028707821,0.02057416,-0.024648916,0.1957508772611618,0.3897221088409424,0.093020685,-0.475544572,-2.493789196
0.859911144,-0.457615137,-0.079778478,-0.885158479,-0.014242188,-0.02596204,0.018102916,-0.024760528,0.1956049501895905,0.3905911445617676,0.092902005,-0.475679189,-2.493695736
0.864911854,-0.458331048,-0.077151373,-0.885415077,-0.009076445,-0.024866352,0.015839903,-0.024833603,0.1955217123031616,0.3911122381687164,0.092812032,-0.475816667,-2.493612289
0.869913876,-0.458902627,-0.07814949,-0.885051668,-0.004641717,-0.024235582,0.013302556,-0.024889832,0.1954576522111893,0.3915131986141205,0.092756726,-0.475948483,-2.493546009
0.874910712,-0.455574989,-0.080242321,-0.884363532,0.000435791,-0.023110189,0.011531622,-0.024908476,0.195436418,0.391646147,0.092738397,-0.476067364,-2.493499279
0.879908621,-0.453720838,-0.082196601,-0.88800925,0.005099304,-0.023030635,0.010837724,-0.024841959,0.1955063492059708,0.3919023871421814,0.092747606,-0.476178676,-2.493445158
0.884907246,-0.451130897,-0.087780342,-0.890285075,0.008634102,-0.022217436,0.00814811,-0.024738362,0.1956165283918381,0.3921425938606262,0.092791468,-0.476277113,-2.493413925
0.889907181,-0.45165211,-0.092552558,-0.889073431,0.007950417,-0.02130248,0.006398492,-0.024658652,0.1957013159990311,0.3923274576663971,0.09284392,-0.476375669,-2.49341011
0.894907892,-0.453643054,-0.095303394,-0.886376739,0.007281666,-0.022531465,0.007105544,-0.024632221,0.1957294195890427,0.3923887610435486,0.092889048,-0.476480603,-2.49340868
0.899909616,-0.455241889,-0.096057139,-0.885678291,0.006206385,-0.020694492,0.008967652,-0.024611885,0.1957510560750961,0.3924359083175659,0.092932545,-0.476581126,-2.493401289
0.904912412,-0.453706324,-0.092923209,-0.887994349,0.003642825,-0.021076696,0.010589611,-0.024456395,0.1955504566431046,0.3922305107116699,0.092942871,-0.476675242,-2.493371248
0.9099105,-0.457051545,-0.097300768,-0.886520267,0.00073563,-0.020502888,0.011174131,-0.024336757,0.1953961104154587,0.3920724987983704,0.092952967,-0.476773202,-2.493353844
0.914909184,-0.458304554,-0.095821671,-0.885639071,-0.000783567,-0.017900864,0.009586923,-0.024297088,0.19534494,0.3920200765132904,0.092950203,-0.476861775,-2.493343353
0.919909358,-0.458601117,-0.090210065,-0.885555327,0.001404839,-0.017704342,0.008711603,-0.024266565,0.1953055560588837,0.3919797539710999,0.092946872,-0.47695598,-2.493318796
0.924910069,-0.460549384,-0.082476422,-0.884693444,0.004482003,-0.016992224,0.008967133,-0.024477674,0.1953831911087036,0.3919696509838104,0.092943177,-0.477044731,-2.493267298
0.929911792,-0.460810214,-0.080125332,-0.885403574,0.007755722,-0.015521191,0.007388996,-0.024863807,0.1955346316099167,0.3919651806354523,0.092961386,-0.477125376,-2.493234396
0.934908688,-0.455744654,-0.082062311,-0.886065125,0.011918581,-0.015583726,0.004684823,-0.024991842,0.195584849,0.3919637203216553,0.09302108,-0.477195472,-2.493219376
0.939906299,-0.454588681,-0.084704496,-0.889244437,0.014057716,-0.014068205,0.002730835,-0.025090355,0.1956234872341156,0.3919625878334045,0.093092352,-0.477259189,-2.493214846
0.944904983,-0.454828709,-0.087323241,-0.888264835,0.01776642,-0.015288902,0.000471471,-0.025123021,0.1956363022327423,0.3919622302055359,0.093198195,-0.477321833,-2.493233204
0.949904621,-0.455955207,-0.087567508,-0.886955738,0.017705837,-0.01411661,-0.001907908,-0.02488979,0.1955737471580505,0.3919577300548553,0.093308106,-0.477389216,-2.493266344
0.954905629,-0.454461604,-0.089644574,-0.887671411,0.019179491,-0.015422269,-0.001314012,-0.024812454,0.1955530196428299,0.39195624,0.093418159,-0.477451205,-2.493287802
0.959907591,-0.45204708,-0.093162455,-0.888198733,0.01962352,-0.015680505,-0.000460697,-0.02475295,0.1955370604991913,0.3919550776481628,0.093538538,-0.477511495,-2.49331069
0.964904964,-0.450395823,-0.097635522,-0.889559627,0.01881651,-0.01351789,0.001898376,-0.024733221,0.1955317705869675,0.3919547200202942,0.093661115,-0.477565259,-2.493332624
0.969902575,-0.454481155,-0.101537749,-0.890402794,0.015715726,-0.01539967,0.001514976,-0.024668593,0.1954750120639801,0.391843855,0.093775541,-0.477626622,-2.493373394
0.974901497,-0.45452261,-0.102375366,-0.887816668,0.013498599,-0.013085203,0.00600397,-0.024634928,0.1954431533813477,0.3917797207832336,0.093866333,-0.477684319,-2.493391752
0.979901195,-0.454261631,-0.103458576,-0.887229502,0.010052486,-0.013578515,0.00767129,-0.024609026,0.1954186409711838,0.3917303681373596,0.093932018,-0.477741897,-2.493394375
0.984901905,-0.451364517,-0.103992715,-0.88669765,0.006445292,-0.017943144,0.011546792,-0.024600435,0.1954105198383331,0.3917140066623688,0.093964733,-0.477823824,-2.493375301
0.989903629,-0.453153104,-0.102779843,-0.888615131,0.00206272,-0.017650707,0.013146016,-0.02461959,0.1953990757465363,0.3910760283470154,0.093976423,-0.47789821,-2.493345499
0.994900763,-0.455947578,-0.105520993,-0.888714671,-0.001745561,-0.018041091,0.013906448,-0.024651924,0.1953900456428528,0.3902337849140167,0.093971945,-0.477988839,-2.493317842
0.999898374,-0.456221074,-0.097876839,-0.887922466,-0.004093802,-0.017624062,0.01476179,-0.024676802,0.1953831017017365,0.3895857334136963,0.093939081,-0.478072464,-2.493264437
1.004897237,-0.45513466,-0.087167479,-0.888540864,-0.001413813,-0.019821009,0.015891908,-0.024685051,0.1953807920217514,0.389370859,0.093893565,-0.478170723,-2.493178129
1.009896994,-0.454142064,-0.08430884,-0.888149798,0.000971962,-0.018663224,0.014099066,-0.024691397,0.1953790336847305,0.3892055153846741,0.093866043,-0.478254527,-2.493093491
1.014897943,-0.455863029,-0.086108379,-0.886474669,0.003987059,-0.02106644,0.012941881,-0.024262568,0.195483074,0.3904087841510773,0.093861602,-0.478360742,-2.493042946
1.019899845,-0.455831885,-0.087790713,-0.885469258,0.004989081,-0.01952754,0.01017993,-0.023932615,0.1955631226301193,0.3913346529006958,0.093881294,-0.478453994,-2.49300909
1.024896741,-0.455839813,-0.087641597,-0.886344731,0.007576226,-0.019545006,0.008636002,-0.023823207,0.1955896764993668,0.3916416466236115,0.093909629,-0.47854805,-2.492980003
1.029894352,-0.456985414,-0.083405726,-0.885807037,0.008271904,-0.018317899,0.007003158,-0.023739027,0.1956101059913635,0.3918778598308563,0.093939148,-0.478631318,-2.492951155
1.034893274,-0.457258075,-0.079237476,-0.884954989,0.011753462,-0.01668375,0.006733745,-0.023737146,0.1955301016569138,0.3918637633323669,0.093981981,-0.478715092,-2.492913961
1.039899349,-0.454974055,-0.081894219,-0.886047721,0.016400738,-0.016592287,0.003835676,-0.023762019,0.1953808069229126,0.3917594850063324,0.094052881,-0.478791952,-2.49289465
1.044900298,-0.452220589,-0.09146075,-0.886094272,0.016887058,-0.018600387,0.004862499,-0.023770267,0.1953313052654266,0.3917249143123627,0.094154373,-0.478870571,-2.492898464
1.04990232,-0.454167992,-0.099896789,-0.88412112,0.014758244,-0.019322475,0.006348758,-0.023776613,0.1952932178974152,0.3916983306407928,0.094250068,-0.478960514,-2.492911577
1.054899454,-0.458036155,-0.102698721,-0.884286404,0.011350735,-0.017060673,0.007425616,-0.023778718,0.195280597,0.3916895091533661,0.094330639,-0.479043484,-2.492935181
1.059897304,-0.459852606,-0.096833654,-0.884776354,0.008668026,-0.014637123,0.007954273,-0.023786612,0.1956774294376373,0.3918979465961456,0.094370693,-0.479115039,-2.492918015
1.064895988,-0.460338324,-0.091248855,-0.884530723,0.009961733,-0.013163948,0.00913913,-0.023789229,0.195809007,0.3919670581817627,0.094408728,-0.479179859,-2.49289465
1.069895983,-0.462211788,-0.087010175,-0.883490205,0.009855223,-0.011309546,0.00977082,-0.023791242,0.195910245,0.3920202553272247,0.094440497,-0.479239732,-2.492854595
1.074896693,-0.461293787,-0.088439509,-0.88406837,0.011837202,-0.009689563,0.00796041,-0.023791909,0.1959438174962997,0.3920378983020782,0.094487347,-0.479287922,-2.492831469
1.079898596,-0.460630149,-0.089530334,-0.88350755,0.012998773,-0.006530122,0.007747364,-0.023652008,0.1962732821702957,0.3922657370567322,0.094542846,-0.479327977,-2.492804527
1.08489573,-0.458367229,-0.088727117,-0.884407341,0.01453354,-0.007198662,0.00612116,-0.023570873,0.1964576691389084,0.3923943042755127,0.094608583,-0.479350835,-2.492780924
1.089893579,-0.45975256,-0.088105328,-0.885926962,0.015298453,-0.003786081,0.005291144,-0.023508444,0.196599543,0.3924932479858398,0.094680302,-0.479360819,-2.492762566
1.094892263,-0.459666818,-0.089776561,-0.885863602,0.015845265,-0.002917435,0.005185705,-0.023487745,0.196646586,0.3925260603427887,0.094762787,-0.479368001,-2.492747784
1.09989202,-0.458962798,-0.090092823,-0.882970393,0.015939547,-0.001232409,0.002820378,-0.023574844,0.1963046193122864,0.3919315934181213,0.094852954,-0.479375988,-2.49275589
1.104892731,-0.457134664,-0.090685643,-0.883669794,0.016523521,0.001923154,0.003566956,-0.023707619,0.1958098858594894,0.3911095857620239,0.094936624,-0.479353458,-2.49274683
1.109894395,-0.454011619,-0.088922866,-0.885234237,0.020533936,0.000893172,0.001309535,-0.023809779,0.1954292207956314,0.3904771208763123,0.0950431,-0.479339212,-2.492739677
1.114891291,-0.452890605,-0.08429376,-0.888131559,0.02035656,0.002360383,0.000410855,-0.023843654,0.1953030079603195,0.390267402,0.095139369,-0.479307353,-2.492725849
1.119888902,-0.45710507,-0.082067043,-0.889027297,0.02471976,0.003177406,-0.003787513,-0.023869717,0.195205882,0.3901060223579407,0.0952712,-0.47928229,-2.492734432
1.124887824,-0.45640415,-0.079157896,-0.889017761,0.031409167,0.000174986,-0.006752195,-0.023694593,0.1957350969314575,0.3908141851425171,0.095431745,-0.479265183,-2.492754698
1.129887462,-0.453217626,-0.084464662,-0.890268326,0.035478905,-0.000754314,-0.008197188,-0.023559848,0.1961422860622406,0.3913590908050537,0.095635146,-0.479244262,-2.49278903
1.134888411,-0.449462175,-0.094521441,-0.892402232,0.039006274,-0.006849223,-0.00680547,-0.02351517,0.1962773203849792,0.3915397822856903,0.095876478,-0.479250938,-2.492844105
1.139890194,-0.449188232,-0.103147067,-0.891827524,0.03522386,-0.008716756,-0.003506577,-0.023480793,0.1963811963796616,0.3916787803173065,0.096097156,-0.479275882,-2.492897987
1.144887328,-0.451776206,-0.114823125,-0.890360832,0.030906443,-0.010805832,-0.000792819,-0.023523064,0.196439803,0.3910996913909912,0.096308373,-0.479307055,-2.492969513
1.149884939,-0.454158545,-0.118599817,-0.889684975,0.024380159,-0.01116204,0.003576505,-0.023609858,0.1965093314647675,0.3900219202041626,0.096481748,-0.479345351,-2.49302721
1.154883862,-0.458642691,-0.110351875,-0.88835144,0.018563317,-0.01107288,0.00867398,-0.023638638,0.1965323835611343,0.3896645307540894,0.09658049,-0.47939837,-2.493025541
1.159883499,-0.461117059,-0.096273065,-0.885071278,0.012439208,-0.011283869,0.011425916,-0.023660781,0.1965501308441162,0.3893895745277405,0.09661933,-0.479460835,-2.492985964
1.164884448,-0.461751908,-0.088764697,-0.882616997,0.013430872,-0.009294298,0.011289493,-0.023668123,0.1965560019016266,0.3892984092235565,0.096660994,-0.479510754,-2.49293232
1.169892311,-0.461136371,-0.084355235,-0.881813109,0.015578796,-0.007712491,0.010216307,-0.023671478,0.1964243501424789,0.3890832662582397,0.096703276,-0.479553044,-2.492872715
1.174895406,-0.459853739,-0.078152023,-0.882361531,0.019337183,-0.003792309,0.010053319,-0.02367259,0.19638069,0.389011949,0.096761771,-0.47957325,-2.492795229
1.179893255,-0.459813565,-0.072657011,-0.881481111,0.024874337,-0.003171484,0.005584379,-0.023673445,0.196347103,0.3889570534229279,0.09684214,-0.479587734,-2.492730856
1.184892178,-0.460133791,-0.069528565,-0.882962584,0.033382855,-0.003152702,-0.000237487,-0.02367373,0.1963359713554382,0.388938844,0.096983343,-0.479600281,-2.492696047
1.189892054,-0.457852274,-0.068830192,-0.881719649,0.040161431,-0.002295236,-0.003687046,-0.024205359,0.1962849497795105,0.3887151777744293,0.097169645,-0.479607046,-2.492679119
1.194892764,-0.45653981,-0.075025067,-0.884070277,0.049500089,-0.000854353,-0.007725105,-0.024513137,0.1962575316429138,0.3885891139507294,0.097431406,-0.479598433,-2.492698193
1.199895024,-0.454590172,-0.080902517,-0.884247422,0.057152614,-0.002960822,-0.011268319,-0.02474995,0.1962364315986633,0.3884921371936798,0.097746812,-0.479594588,-2.492754221
1.204892397,-0.456661016,-0.084163621,-0.884859204,0.057414521,0.000257306,-0.012551055,-0.024828473,0.1962294280529022,0.3884599804878235,0.098071441,-0.479579449,-2.492826223
1.209890246,-0.45898214,-0.087424345,-0.883888721,0.061584041,0.004132094,-0.013835584,-0.024782375,0.196370855,0.3889635801315308,0.098414332,-0.479546577,-2.492906809
1.214889169,-0.456360847,-0.086228237,-0.88561523,0.06466689,0.005927548,-0.016377274,-0.02465968,0.1965657919645309,0.3896633684635162,0.098779105,-0.47950089,-2.492990494
1.219888926,-0.457051337,-0.086844511,-0.884248376,0.067796186,0.008455803,-0.018459251,-0.024565274,0.196715772,0.3902018070220947,0.099168092,-0.479439914,-2.493093967
1.224889636,-0.460756987,-0.089574426,-0.885726988,0.071000956,0.009290511,-0.020021485,-0.024533972,0.1967654973268509,0.3903803527355194,0.099576421,-0.479378194,-2.493210077
1.229891539,-0.461539984,-0.09832307,-0.884663403,0.072264045,0.010162708,-0.019036336,-0.024509886,0.1968037635087967,0.3905177414417267,0.1000057086348534,-0.479315311,-2.493348598
1.234888434,-0.464483052,-0.101900391,-0.886251569,0.071789809,0.012918986,-0.021364685,-0.02406735,0.1968607753515244,0.3907747864723206,0.1004422008991241,-0.479238957,-2.493510008
1.239886284,-0.460603237,-0.11094512,-0.885362744,0.069968089,0.013951031,-0.018071799,-0.023726847,0.1969046294689178,0.3909725844860077,0.1008806303143501,-0.479151756,-2.493671656
1.244884968,-0.454528511,-0.11554312,-0.886040568,0.066139959,0.011430346,-0.014126041,-0.023613943,0.196919173,0.391038179,0.1012882888317108,-0.479074031,-2.493800879
1.249884963,-0.450193107,-0.121242255,-0.889654756,0.057975072,0.009509722,-0.011175571,-0.023527071,0.1969303637742996,0.3910886645317078,0.1016585305333138,-0.478996277,-2.493925571
1.254885674,-0.453253776,-0.129702836,-0.888740301,0.04892993,0.007485593,-0.00412532,-0.023637764,0.197108194,0.3909496366977692,0.1019888743758202,-0.478939533,-2.494042635
1.259887576,-0.456067771,-0.129476503,-0.888042271,0.036040455,0.00775241,0.001350148,-0.02386399,0.197421059,0.3906851410865784,0.102226086,-0.478894234,-2.494125128
1.264884472,-0.458267093,-0.122453429,-0.889385998,0.026749954,0.009038749,0.007276,-0.023939,0.1975248008966446,0.3905974328517914,0.1023829877376556,-0.478840441,-2.494148016
1.269882083,-0.456712663,-0.115691312,-0.889266074,0.019516462,0.010796946,0.010753619,-0.023996718,0.197604626,0.3905299603939056,0.1024893298745155,-0.478776366,-2.494130135
1.274881005,-0.458768666,-0.109468214,-0.88930583,0.015571292,0.008259019,0.012367062,-0.024015857,0.1976310908794403,0.3905075788497925,0.1025562062859535,-0.478734136,-2.494098186
1.279880762,-0.458878368,-0.10797669,-0.888712645,0.013481515,0.010416511,0.014001799,-0.024030972,0.1978457123041153,0.389609307,0.1026099100708961,-0.47868681,-2.494059324
1.284881711,-0.456584781,-0.101915039,-0.890286505,0.011984003,0.008349608,0.014029933,-0.024035985,0.1979168802499771,0.3893114626407623,0.1026487424969673,-0.478643,-2.493995428
1.289883614,-0.455813587,-0.09803886,-0.892512262,0.013156286,0.005923384,0.012435883,-0.02403984,0.1979716271162033,0.389082283,0.102681927,-0.478601098,-2.493924856
1.294880748,-0.455368221,-0.096191347,-0.892489076,0.013870267,0.004864808,0.00962493,-0.02404112,0.1979897767305374,0.3890062868595123,0.1027334183454514,-0.478564203,-2.49387455
1.299878359,-0.454081088,-0.098112233,-0.891957641,0.013644549,0.005165047,0.008621937,-0.024137491,0.1979523599147797,0.3886746764183044,0.1027916073799133,-0.478525549,-2.493830204
1.304883242,-0.454677522,-0.100461788,-0.891807973,0.016098727,0.004855272,0.006605628,-0.024193048,0.1979272365570068,0.3884971439838409,0.1028700545430183,-0.478492111,-2.493804932
1.309882879,-0.452905566,-0.095152356,-0.892101824,0.015377122,0.002965917,0.007486523,-0.024235796,0.1979079097509384,0.3883605301380157,0.1029322743415833,-0.478456557,-2.493756771
1.314884067,-0.458006859,-0.092760868,-0.890696406,0.018409541,0.002572849,0.00361857,-0.024249969,0.1979015022516251,0.3883152306079865,0.1030175387859344,-0.478444546,-2.493738174
1.31988585,-0.457892954,-0.097614415,-0.887850106,0.018442232,-0.00055599,0.00293175,-0.024180217,0.1979560256004333,0.3886537253856659,0.1031163707375526,-0.478443325,-2.493740559
1.324882984,-0.456339628,-0.101417631,-0.888437688,0.020505164,-0.000427812,0.002490453,-0.024075754,0.1980340629816055,0.3891424238681793,0.1032395139336586,-0.478440553,-2.493756294
1.329880595,-0.45250681,-0.104437761,-0.89130044,0.020236617,-0.000668083,0.003592834,-0.023995377,0.1980941146612167,0.3895184695720673,0.1033551618456841,-0.47842443,-2.493760347
1.334879518,-0.454121083,-0.107098602,-0.890755534,0.016224425,-0.001014506,0.001036815,-0.023968725,0.1981140375137329,0.3896431624889374,0.1034622266888618,-0.478413999,-2.493788481
1.339879155,-0.457158595,-0.108056054,-0.889294565,0.016759211,-0.000607261,0.00290598,-0.023948219,0.1981293559074402,0.3897391259670258,0.1035677641630173,-0.478409737,-2.493814468
1.344880104,-0.455299884,-0.108732402,-0.887086928,0.014466963,-0.001916524,0.003160565,-0.024283787,0.1982972323894501,0.3902166485786438,0.1036573350429535,-0.478408754,-2.493839025
1.349881887,-0.458227575,-0.105750792,-0.886431038,0.012830418,-0.001955811,0.001549817,-0.024541983,0.1984264105558395,0.3905840814113617,0.1037437245249748,-0.478416979,-2.493876219
1.354878664,-0.45643416,-0.101341695,-0.886802316,0.010951626,-0.000672517,0.003759646,-0.024627596,0.1984692364931107,0.390705943,0.1037997305393219,-0.478413194,-2.493878603
1.359876394,-0.454657584,-0.097032554,-0.888316214,0.012136402,-0.000976233,0.001978291,-0.02469347,0.1985021829605103,0.3907996714115143,0.1038601920008659,-0.478409529,-2.493872166
1.364874959,-0.456277072,-0.09921252,-0.888632596,0.012102022,-0.002309024,0.003534782,-0.024576204,0.1985327005386353,0.3901079595088959,0.1039289906620979,-0.478412569,-2.493873596
1.369874954,-0.455150992,-0.106669523,-0.887381792,0.010288338,-0.001426439,0.00230955,-0.024345318,0.198575959,0.3888448476791382,0.1040075346827507,-0.478408277,-2.493899584
1.374875665,-0.45352903,-0.118264824,-0.889572501,0.006576787,-0.001323706,0.005565469,-0.024268759,0.1985903084278107,0.3884260356426239,0.1040817648172379,-0.478395879,-2.493921757
1.379877687,-0.454628974,-0.121788874,-0.887287557,-0.001715044,-0.000431308,0.010421388,-0.024209853,0.1986013501882553,0.3881037831306458,0.1041025593876839,-0.478382945,-2.493937969
1.384874463,-0.454021305,-0.121947758,-0.886079848,-0.010673843,0.001538711,0.013399443,-0.024190322,0.1986050009727478,0.3879969418048859,0.1040610074996948,-0.47837323,-2.49392128
1.38987267,-0.456620365,-0.116569988,-0.886918426,-0.016824367,0.00391017,0.019970533,-0.024174364,0.1983474940061569,0.3889429867267609,0.1039591431617737,-0.478355885,-2.493856668
1.394871354,-0.460535347,-0.1161552,-0.884826839,-0.024055226,0.004077016,0.025091171,-0.024169073,0.1982621103525162,0.3892566859722137,0.1038100942969322,-0.478351027,-2.493782043
1.39987123,-0.460973978,-0.116148397,-0.88405472,-0.029306076,0.006567351,0.027169444,-0.024165001,0.1981964111328125,0.3894980549812317,0.1036283001303673,-0.478325725,-2.493693829
1.404872179,-0.462252468,-0.121000923,-0.885010421,-0.037609424,0.012507015,0.033814419,-0.02416365,0.1981746256351471,0.3895780742168427,0.103400394,-0.478278965,-2.493570566
1.409874201,-0.461206883,-0.123577155,-0.885526419,-0.046581194,0.014155745,0.037615258,-0.024165608,0.1983613222837448,0.3896925151348114,0.1031188890337944,-0.478230089,-2.493438482
1.414871335,-0.462041438,-0.120083481,-0.886998653,-0.055518642,0.016905792,0.042241246,-0.024166998,0.1984735727310181,0.3897435367107391,0.1027680560946465,-0.478154004,-2.493258476
1.419869184,-0.465273321,-0.122122139,-0.8858217,-0.063904464,0.023795199,0.0470143,-0.024168067,0.1985599547624588,0.3897828161716461,0.1023741811513901,-0.478060991,-2.493065357
1.424868107,-0.464060336,-0.114654616,-0.889617443,-0.069622062,0.027444571,0.051597159,-0.024168421,0.1985885947942734,0.3897958397865295,0.1019240021705627,-0.47794795,-2.492816448
1.429867983,-0.461781979,-0.109307408,-0.889538765,-0.077220149,0.029410051,0.055737831,-0.024111735,0.1984107345342636,0.3901199996471405,0.1014066338539124,-0.47782734,-2.492527723
1.434869051,-0.458715498,-0.107561283,-0.888192177,-0.08177986,0.029107336,0.060631119,-0.0240355,0.1981501877307892,0.3905442953109741,0.1008678004145622,-0.477704614,-2.492218733
1.439876914,-0.459066123,-0.107813045,-0.887167692,-0.085387878,0.030636523,0.060029477,-0.023976842,0.1979497075080872,0.3908707499504089,0.1003057658672333,-0.477573037,-2.491912365
1.444879889,-0.460106045,-0.105020896,-0.889407873,-0.08914803,0.03121159,0.064103156,-0.023957392,0.1978832334280014,0.390978992,0.099709541,-0.477449,-2.491564035
1.449877739,-0.459287494,-0.099013269,-0.892067373,-0.08933109,0.031562548,0.065848954,-0.023942426,0.1978320926427841,0.3910622894763947,0.099097311,-0.477309495,-2.491199732
1.454876661,-0.454121888,-0.092805125,-0.89439559,-0.090376295,0.029348942,0.066251963,-0.024078231,0.1976094543933868,0.3904886841773987,0.098467469,-0.477176458,-2.490808725
1.459876299,-0.45128125,-0.088818066,-0.895148039,-0.08959496,0.026226113,0.067536607,-0.024182724,0.1974381357431412,0.3900473117828369,0.097831622,-0.477051377,-2.490397692
1.464877367,-0.450825691,-0.091614984,-0.898656487,-0.087949522,0.021193739,0.066453122,-0.024217371,0.1973813325166702,0.3899009823799133,0.097226903,-0.476965874,-2.490006924
1.46987927,-0.449688375,-0.093186364,-0.9012537,-0.087435588,0.015802503,0.064648703,-0.024244029,0.1973376274108887,0.3897883594036102,0.096635275,-0.476894349,-2.489636898
1.474876404,-0.451024532,-0.090856135,-0.904360354,-0.088012464,0.009871353,0.062927231,-0.024221847,0.1971186250448227,0.3895023763179779,0.096034788,-0.476856589,-2.489269257
1.479874015,-0.453050524,-0.087142684,-0.906410336,-0.086002871,0.001229887,0.058294617,-0.024173414,0.1967432945966721,0.3890308737754822,0.095457166,-0.476856828,-2.488922596
1.484872937,-0.453793555,-0.081580341,-0.906518579,-0.084821984,-0.006828037,0.049020596,-0.024157355,0.19661884,0.3888745307922363,0.094893448,-0.476898015,-2.488619328
1.489872694,-0.452685416,-0.075345062,-0.908204257,-0.078041464,-0.014471746,0.03977748,-0.024144998,0.1965230852365494,0.3887542188167572,0.094390959,-0.476972163,-2.488363981
1.494873643,-0.449860603,-0.069446608,-0.913455665,-0.070889197,-0.021000778,0.026812542,-0.0241409,0.1964913308620453,0.3887143433094025,0.093945391,-0.477050841,-2.48816061
1.499875546,-0.450214177,-0.062276717,-0.914453268,-0.060796089,-0.031219386,0.012944915,-0.024142556,0.1965470463037491,0.3900744020938873,0.093582667,-0.477179319,-2.488029242
1.50487268,-0.449589014,-0.062193491,-0.917226791,-0.051246703,-0.043033641,-0.001658722,-0.024143104,0.1965655237436295,0.3905253708362579,0.09330897,-0.477359861,-2.48798418
1.509870648,-0.447331309,-0.074555829,-0.918683231,-0.046083678,-0.053670257,-0.010439274,-0.024143526,0.1965797394514084,0.3908723294734955,0.093114398,-0.477579623,-2.488028288
1.514869213,-0.44410181,-0.096396595,-0.923098266,-0.046042711,-0.066810459,-0.014711382,-0.024143666,0.1965844631195068,0.390987366,0.092977323,-0.477862179,-2.488155603
1.519869208,-0.439256191,-0.118742242,-0.924252212,-0.055936005,-0.082196511,-0.015898384,-0.023701759,0.1961722373962402,0.3909066915512085,0.092824407,-0.478207737,-2.488337755
1.524869919,-0.434956372,-0.131737009,-0.928252578,-0.069279976,-0.098295882,-0.01287894,-0.023445852,0.1959326416254044,0.3908380568027496,0.092620149,-0.47862047,-2.488531351
1.529871821,-0.431914926,-0.131960273,-0.93339628,-0.084415622,-0.114378408,-0.00905497,-0.02324895,0.1957482993602753,0.390785277,0.092323847,-0.479115993,-2.488699675
1.534868717,-0.420772791,-0.140594155,-0.939847946,-0.100538984,-0.134631157,0.000206698,-0.023183661,0.1956871598958969,0.3907677531242371,0.091947377,-0.479686588,-2.488820314
1.539866567,-0.409328073,-0.143894956,-0.956222177,-0.104738139,-0.16304189,0.011804542,-0.023323491,0.1954983621835709,0.390603095,0.091522828,-0.48037824,-2.488862514
1.544865251,-0.405344903,-0.147243097,-0.972907484,-0.112941153,-0.200051352,0.017760398,-0.023561519,0.1952928006649017,0.3903959989547729,0.091059431,-0.481232882,-2.488892317
1.549865246,-0.388751984,-0.164791733,-0.974024057,-0.127782524,-0.239143386,0.026143368,-0.023744665,0.195134625,0.3902366757392883,0.090567946,-0.482289016,-2.488929987
1.554865956,-0.376029223,-0.201965734,-0.999191225,-0.124013871,-0.282915384,0.056523368,-0.023805393,0.1950821727514267,0.3901838362216949,0.090055227,-0.483504325,-2.488898039
1.559867859,-0.284918189,-0.204156548,-1.061884522,-0.085713781,-0.377796918,0.1117337197065353,-0.023852119,0.1950418204069138,0.3901431858539581,0.089625798,-0.484999746,-2.488344669
1.564864993,-0.273452193,-0.20105958,-1.065402031,-0.094227307,-0.498436838,0.1399479359388351,-0.022946846,0.1947183012962341,0.3914381265640259,0.089113578,-0.487199128,-2.487728357
1.569862962,-0.204134896,-0.201683939,-1.15106523,0.000262806,-0.644689679,0.2144125998020172,-0.022250302,0.1944693624973297,0.3924344778060913,0.088865086,-0.489924401,-2.486612082
1.574867725,-0.093326211,-0.260550827,-1.242959976,0.067484796,-0.869447351,0.3301449418067932,-0.02201934,0.194386825,0.3927648365497589,0.088892512,-0.493597597,-2.484813213
1.579867601,-0.133909404,-0.303959191,-1.276351571,0.1181700304150581,-1.130881071,0.414107472,-0.021841628,0.1943233162164688,0.39301905,0.089006737,-0.498751312,-2.482843876
1.584868908,-0.27510041,-0.338683337,-1.293159723,0.1161393001675606,-1.320521116,0.4152398109436035,-0.020819627,0.194254532,0.3930538892745972,0.089248963,-0.505118251,-2.481245518
1.589870811,-0.393083423,-0.305673718,-1.270197272,0.030118059,-1.39297235,0.3425310254096985,-0.019059442,0.1941533535718918,0.3930306732654572,0.089116633,-0.511911571,-2.480265856
1.594867706,-0.42711243,-0.282278657,-1.367958903,-0.023324786,-1.478275657,0.3093749284744263,-0.018475799,0.1941198110580444,0.3930229544639587,0.08882875,-0.51889956,-2.479376316
1.599865317,-0.415293783,-0.338874072,-1.355837822,-0.1937235,-1.584226012,0.3543732464313507,-0.018026724,0.1940940022468567,0.3930170238018036,0.087627314,-0.52647835,-2.478379726
1.60486424,-0.426507711,-0.321644604,-1.292866707,-0.329417616,-1.687176943,0.4034614264965057,-0.017877821,0.1940854489803314,0.3930150866508484,0.085473061,-0.534647048,-2.477116346
1.609863877,-0.465621918,-0.256997675,-1.286151171,-0.411404163,-1.795644879,0.4350109696388245,-0.011656587,0.1943698078393936,0.3934043347835541,0.082706831,-0.543429494,-2.475497961
1.614864588,-0.568602562,-0.220902041,-1.319024324,-0.446198612,-1.865240216,0.4740655720233917,-0.009593744,0.1944640874862671,0.3935334086418152,0.079655737,-0.552667797,-2.473663092
1.619866371,-0.617741287,-0.282745242,-1.333429098,-0.530081987,-1.918255806,0.5427059531211853,-0.008006525,0.1945366412401199,0.3936327397823334,0.076116219,-0.562182724,-2.471622944
1.624863505,-0.646389842,-0.234581351,-1.345098257,-0.603408515,-1.949413538,0.5848884582519531,-0.007480233,0.194560707,0.3936656415462494,0.071826912,-0.571883738,-2.469159842
1.629861116,-0.65124464,-0.280354112,-1.304074883,-0.640725851,-1.957799554,0.6565608382225037,-0.000567875,0.1930400282144547,0.3943536281585693,0.067292854,-0.58158499,-2.466362953
1.634860039,-0.697337627,-0.396781951,-1.316347599,-0.792877555,-1.955959439,0.7344464659690857,0.003334411,0.1921549290418625,0.3947457075119019,0.061917968,-0.591361642,-2.463416338
1.639859676,-1.014625549,-0.295554668,-1.437395453,-0.965852499,-1.860168934,0.7582390904426575,0.006336953,0.1914739012718201,0.3950473964214325,0.055042781,-0.601014197,-2.460096598
1.644860625,-1.296417713,-0.210965306,-1.615586758,-0.911915481,-1.532701373,0.7124571204185486,0.00733254,0.1912480890750885,0.395147443,0.048421208,-0.609082937,-2.456858635
1.649862647,-1.221526861,-0.227732286,-1.706970096,-0.867717206,-1.081050992,0.6913612484931946,0.011966061,0.1896516233682632,0.3958227038383484,0.042226519,-0.614374161,-2.453419685
1.654859781,-0.941504836,-0.271382183,-1.666457534,-0.888071835,-0.657657981,0.6670407056808472,0.017402403,0.1876876056194305,0.3966498970985413,0.035962932,-0.617030144,-2.449787855
1.659857631,-0.608994186,-0.295081645,-1.561137557,-0.914715827,-0.364868343,0.6651288270950317,0.021585301,0.1861764192581177,0.3972863852977753,0.02957849,-0.617901385,-2.445939779
1.664856553,-0.326649189,-0.272444993,-1.445596337,-0.946623623,-0.224475369,0.717121959,0.022972269,0.1856753379106522,0.3974974155426025,0.022756837,-0.617928743,-2.441398859
1.66985631,-0.074430212,-0.194538638,-1.321234584,-0.935642004,-0.178431317,0.7865620851516724,0.024039447,0.1852897852659225,0.3976598083972931,0.015513916,-0.617603123,-2.435959816
1.674857259,0.120368093,-0.17713362,-1.225440264,-0.876449287,-0.163776651,0.8543357849121094,0.028548578,0.1820992827415466,0.398825079,0.008415368,-0.617098749,-2.429963112
1.679859161,0.1634416133165359,-0.140007362,-1.202672243,-0.804117143,-0.175307229,0.9306871891021729,0.032018047,0.1796444058418274,0.3997217118740082,0.001346256,-0.616630554,-2.423397541
1.684856057,0.2132710665464401,-0.147186652,-1.165461659,-0.744724035,-0.19381839,1.005691170692444,0.033168457,0.1788304150104523,0.4000190198421478,-0.005622191,-0.61622268,-2.416368723
1.689853907,0.2618739604949951,-0.161925465,-1.138790846,-0.696585655,-0.190281004,1.062196135520935,0.03405362,0.1782041043043137,0.4002477526664734,-0.012525578,-0.615724325,-2.409000397
1.694852591,0.2514897286891937,-0.171926498,-1.129507065,-0.662488401,-0.136025101,1.091519951820374,0.035497885,0.1762492507696152,0.4006966352462769,-0.019319579,-0.614926279,-2.401569843
1.699852586,0.2463390380144119,-0.15865314,-1.129548907,-0.625465333,-0.047328014,1.103609561920166,0.037772749,0.1729784309864044,0.4014192521572113,-0.025968723,-0.613617659,-2.394066811
1.704853296,0.2773341536521912,-0.150000826,-1.127360582,-0.572221279,0.072972834,1.096989393234253,0.038527053,0.1718938797712326,0.4016588628292084,-0.032306258,-0.611607552,-2.386564493
1.709861398,0.309923917,-0.157160312,-1.119482517,-0.515170932,0.2116324156522751,1.076568484306335,0.039107438,0.1710593998432159,0.4018432199954987,-0.038177736,-0.608822584,-2.379263401
1.714864612,0.3238245248794556,-0.16018717,-1.100207448,-0.459970027,0.3827006816864014,1.050433754920959,0.039299883,0.1707827001810074,0.4019043445587158,-0.043600556,-0.605171502,-2.372205257
1.719863057,0.412027895,-0.172770604,-1.082607031,-0.397196621,0.50496614,1.004063010215759,0.041942883,0.1671439707279205,0.4011361002922058,-0.048446957,-0.600723147,-2.365404844
1.724861979,0.4414800703525543,-0.184154242,-1.064975023,-0.337378979,0.6299309730529785,0.9603859782218933,0.04281925,0.1659374386072159,0.4008813798427582,-0.052748963,-0.59568572,-2.358991861
1.729861856,0.4545590579509735,-0.17761828,-1.050101399,-0.273049355,0.7473359704017639,0.9168498516082764,0.043493558,0.1650090962648392,0.4006853699684143,-0.056539819,-0.590063274,-2.352879286
1.734862566,0.4677737951278687,-0.163617864,-1.037816525,-0.196671486,0.8613510131835938,0.8634372353553772,0.043717146,0.1647012680768967,0.4006204009056091,-0.059727173,-0.583866894,-2.347103119
1.739864588,0.4619217813014984,-0.15687792,-1.025758386,-0.11558637,0.9659811854362488,0.8035759925842285,0.044058818,0.1626390367746353,0.4010287225246429,-0.062236816,-0.577199101,-2.341765404
1.744861722,0.4183513224124908,-0.16395843,-1.002934098,-0.040959496,1.081878304481506,0.7528959512710571,0.044214088,0.1615035533905029,0.4012775421142578,-0.064107664,-0.570064306,-2.336915493
1.74985981,0.4672947824001312,-0.160933822,-0.999529421,0.028827034,1.160419821739197,0.6767289638519287,0.044333559,0.1606298685073853,0.401468962,-0.065357819,-0.562417388,-2.332425117
1.754858732,0.4607108235359192,-0.165289328,-0.984427333,0.083260499,1.238749980926514,0.6010404229164124,0.044373173,0.1603401750326157,0.4015324413776398,-0.066033706,-0.554510295,-2.32853651
1.759859204,0.4491924941539764,-0.16090253,-0.970618367,0.1237769275903702,1.313726663589478,0.5224718451499939,0.04317119,0.159684494,0.4020796120166779,-0.066261686,-0.546293139,-2.325155258
1.764859915,0.4395757615566254,-0.14830184,-0.957394421,0.1638099998235703,1.383998990058899,0.4422699213027954,0.041529827,0.1590306609869003,0.4027635753154755,-0.066036068,-0.537785292,-2.322271109
1.769861579,0.4292639195919037,-0.135224119,-0.943763375,0.2026738673448563,1.447820187,0.3587939441204071,0.040266909,0.1585275828838348,0.4032898247241974,-0.065373145,-0.529026985,-2.319882393
1.774858713,0.4185742735862732,-0.119924024,-0.9331882,0.2417952865362167,1.506666183,0.2666029632091522,0.039848149,0.1583607643842697,0.4034643173217773,-0.064260274,-0.520034611,-2.318012238
1.779856443,0.4091657996177673,-0.104635231,-0.929702282,0.2752404808998108,1.555641412734985,0.1752173602581024,0.039525937,0.1582324206829071,0.4035985767841339,-0.062737383,-0.510856152,-2.316643
1.784855247,0.402627021,-0.09420377,-0.926447511,0.3037358224391937,1.591991901397705,0.072544351,0.036220826,0.1584998518228531,0.4030954539775848,-0.060806297,-0.501559556,-2.315870762
1.789855003,0.3875556290149689,-0.09581057,-0.913812101,0.3270410895347595,1.620870948,-0.029821558,0.033677772,0.1587056219577789,0.4027083218097687,-0.058489475,-0.492191941,-2.315700293
1.794856191,0.3597991764545441,-0.091642983,-0.903690875,0.3411465883255005,1.644726395606995,-0.129223853,0.032834541,0.1587738543748856,0.4025799632072449,-0.055889104,-0.482800126,-2.316088676
1.799858212,0.3286874294281006,-0.080708593,-0.895859182,0.3596846759319305,1.663236618041992,-0.224295646,0.032185737,0.1588263660669327,0.4024811983108521,-0.052993987,-0.473399997,-2.317013264
1.804855347,0.3029376268386841,-0.07343062,-0.885283828,0.3793011009693146,1.676258802,-0.315386057,0.029439379,0.1591708362102509,0.4013984501361847,-0.049819026,-0.464008749,-2.318433762
1.809853196,0.2745523452758789,-0.070341043,-0.875994623,0.3997302651405334,1.686612606048584,-0.397300988,0.024766782,0.1597665846347809,0.399503618,-0.046390664,-0.454639167,-2.320316315
1.814852118,0.2566975355148315,-0.069336869,-0.863450944,0.4172720611095428,1.681765794754028,-0.467061609,0.023217438,0.1599641293287277,0.3988753259181976,-0.042767625,-0.445354223,-2.322549582
1.819851756,0.2356691360473633,-0.073759265,-0.853070676,0.4299291968345642,1.667560219764709,-0.524542511,0.022025323,0.160116121,0.3983919024467468,-0.038990505,-0.436194032,-2.325095892
1.824852943,0.195916086,-0.082131185,-0.84588176,0.4416552484035492,1.643025159835815,-0.562161982,0.021630039,0.1601665318012238,0.3982316255569458,-0.035108771,-0.427245438,-2.32786727
1.829854965,0.1586976796388626,-0.087848023,-0.847375333,0.4552194178104401,1.613020539283752,-0.586745143,0.014360632,0.1614178717136383,0.3981565833091736,-0.031165373,-0.418501735,-2.330793858
1.834852099,0.1146508455276489,-0.103257008,-0.846490264,0.4712649881839752,1.587470769882202,-0.586857975,0.011950234,0.161832795,0.3981316983699799,-0.027168471,-0.409963787,-2.333776951
1.839849949,0.046011001,-0.097920679,-0.887278914,0.5077402591705322,1.569472908973694,-0.576864898,0.010095596,0.1621520519256592,0.398112565,-0.023072021,-0.401588321,-2.336669922
1.84485507,-0.053635884,-0.087706648,-0.920922995,0.5620903372764587,1.591086149215698,-0.565264702,0.009480634,0.1622579097747803,0.3981062173843384,-0.018810757,-0.393236697,-2.3395679
1.849855185,-0.157739058,-0.06502974,-0.947924614,0.6446071863174438,1.629333734512329,-0.567877471,0.003233673,0.1635504812002182,0.3963809311389923,-0.014190324,-0.384811342,-2.342556477
1.854855895,-0.256329417,-0.054661028,-0.975065887,0.7408851385116577,1.706536769866943,-0.58012253,-0.000266441,0.1642787754535675,0.3953831493854523,-0.009120057,-0.376121551,-2.34568572
1.859857917,-0.324382663,-0.059391309,-0.991581559,0.8395338654518127,1.797580003738403,-0.614510179,-0.002959541,0.1648391485214233,0.3946154415607452,-0.003516021,-0.367031395,-2.349053144
1.864854813,-0.373761296,-0.071946166,-0.997146249,0.9274449348449707,1.897012710571289,-0.660480022,-0.003852522,0.1650249511003494,0.3943608701229095,0.002589821,-0.357506365,-2.352710962
1.869852662,-0.400571883,-0.080830321,-0.990109503,1.013078808784485,1.990958571434021,-0.721006632,-0.007546903,0.1661367863416672,0.3929917514324188,0.009163026,-0.347525686,-2.356686592
1.874851584,-0.443754911,-0.093233496,-0.981616855,1.090231776237488,2.084238767623901,-0.780482292,-0.01180443,0.167482466,0.3913547098636627,0.016171638,-0.337150723,-2.360996723
1.87985146,-0.486598074,-0.105935864,-0.965490222,1.156232357025146,2.179349660873413,-0.83298105,-0.015080308,0.1685178726911545,0.3900951147079468,0.0235397,-0.326381266,-2.365586758
1.884852171,-0.502592802,-0.108894199,-0.950726211,1.213814616203308,2.273460865020752,-0.88424325,-0.016166527,0.1688611954450607,0.3896774649620056,0.031178648,-0.315125883,-2.370326042
1.889854431,-0.493999004,-0.112145387,-0.930817902,1.250254988670349,2.350017786026001,-0.926641047,-0.017002299,0.1691253632307053,0.3893561065196991,0.038961221,-0.30346024,-2.375166893
1.894851565,-0.467700571,-0.097946472,-0.911002874,1.275652647018433,2.398731947,-0.965124309,-0.023941023,0.1718490421772003,0.3861523270606995,0.046788786,-0.29150492,-2.380012274
1.899849415,-0.462064624,-0.086946622,-0.899447203,1.290670394897461,2.421201705932617,-0.993057311,-0.029279899,0.1739447265863419,0.3836872577667236,0.054603465,-0.279441476,-2.384852409
1.904848099,-0.476762682,-0.087812126,-0.889587641,1.295221090316772,2.435898542404175,-1.008576035,-0.03105017,0.1746396124362946,0.3828698694705963,0.062374886,-0.267338842,-2.38967514
1.909848094,-0.498169601,-0.097038403,-0.88676244,1.287853002548218,2.442780494689941,-1.013363957,-0.032412272,0.175174281,0.3822409510612488,0.070017427,-0.255225837,-2.394453287
1.914849043,-0.526041448,-0.106041789,-0.88575393,1.265193581581116,2.443246364593506,-1.007531285,-0.0372799,0.1769997030496597,0.3797207772731781,0.077461071,-0.243153483,-2.39915967
1.919851065,-0.550706983,-0.105667882,-0.888258994,1.226908922195435,2.443286895751953,-1.001662731,-0.045490459,0.1800707578659058,0.3754442632198334,0.084615774,-0.231116042,-2.403763294
1.924847841,-0.5747118,-0.093310714,-0.89808923,1.182681560516357,2.425484418869019,-0.995115757,-0.048212927,0.1810890585184097,0.3740262389183044,0.091409981,-0.219205379,-2.408215284
1.92984581,-0.612128139,-0.070146181,-0.915052533,1.138782262802124,2.398935556411743,-0.988004684,-0.050307676,0.1818725764751434,0.3729352056980133,0.097845666,-0.207495213,-2.412545919
1.934844613,-0.654302657,-0.047043338,-0.934172451,1.109371781349182,2.365988492965698,-0.979923904,-0.051002257,0.1821323782205582,0.3725734055042267,0.1040266305208206,-0.196010217,-2.41677928
1.93984437,-0.691970289,-0.027227128,-0.9512707,1.088900923728943,2.332555770874023,-0.966079712,-0.06237404,0.1854558289051056,0.3667575120925903,0.110005796,-0.184757203,-2.420903206
1.94484508,-0.720614612,0.00769571,-0.959640503,1.079866647720337,2.287587642669678,-0.950471699,-0.066144705,0.1865578293800354,0.3648290634155273,0.1158000901341438,-0.173770458,-2.424850464
1.949846983,-0.753356814,0.058068495,-0.956751883,1.094123363494873,2.217284202575684,-0.926831067,-0.069045983,0.1874057352542877,0.3633452653884888,0.1215072423219681,-0.163221464,-2.428583622
1.954844117,-0.797332883,0.1286013573408127,-0.957091928,1.148369908332825,2.138248920440674,-0.893126547,-0.070007987,0.1876868903636932,0.3628532588481903,0.1273051053285599,-0.153186575,-2.432014942
1.959841847,-0.843494534,0.1683561950922012,-0.954140365,1.240334510803223,2.052873373031616,-0.850346863,-0.077980481,0.1900320798158646,0.3581817448139191,0.1334731131792068,-0.143687725,-2.435256958
1.964840651,-0.899297595,0.1674519330263138,-0.944520414,1.339637517929077,1.968265414237976,-0.77933538,-0.082413658,0.1913364976644516,0.3555704653263092,0.1401025354862213,-0.134754181,-2.4382267
1.969840407,-0.94503212,0.1461228579282761,-0.936408639,1.410466551780701,1.890130519866943,-0.698342741,-0.085824691,0.19234015,0.3535612523555756,0.1470449268817902,-0.126328349,-2.440884352
1.974841356,-1.004388928,0.1171761229634285,-0.92246753,1.442728757858276,1.823764801025391,-0.606937051,-0.086955719,0.1926729381084442,0.352895051,0.1540890038013458,-0.118420199,-2.443199635
1.979849219,-1.065164924,0.086201884,-0.899844706,1.425137400627136,1.775945425033569,-0.524067879,-0.091468513,0.194386214,0.3497136533260345,0.1610133796930313,-0.110904366,-2.445231199
1.984852195,-1.102247,0.054599408,-0.868044972,1.351877689361572,1.753963112831116,-0.444521368,-0.096637987,0.196423739,0.345967561,0.1675248742103577,-0.103594154,-2.446963787
1.989850163,-1.113091111,0.045246389,-0.836806893,1.244676470756531,1.732759356498718,-0.375454396,-0.100615546,0.1979914754629135,0.3430852293968201,0.1734188050031662,-0.096467942,-2.44834137
1.994848967,-1.10836184,0.054299314,-0.803160012,1.121304750442505,1.702141523361206,-0.314315051,-0.101934426,0.1985113173723221,0.3421294987201691,0.1786280125379562,-0.089531548,-2.449376583
1.999848962,-1.080368876,0.073162019,-0.753574729,1.002190351486206,1.657809734344482,-0.260954887,-0.102949217,0.1989112943410873,0.3413941264152527,0.1831823289394379,-0.082830586,-2.450089216
2.004849911,-1.028951526,0.1019246652722359,-0.696730852,0.9028534293174744,1.575709462165833,-0.211204708,-0.108152561,0.2016845047473907,0.3367505073547363,0.187186062,-0.076511912,-2.450476408
2.009851694,-0.966122866,0.110962413,-0.626732826,0.8214669227600098,1.461399793624878,-0.160470113,-0.11215619,0.2038182765245438,0.3331775367259979,0.1908046156167984,-0.070745818,-2.450645685
2.014848471,-0.910286903,0.1063521057367325,-0.569428921,0.7535837888717651,1.303479552268982,-0.101170525,-0.113483712,0.204525813,0.3319928050041199,0.1941230893135071,-0.065759048,-2.450608253
2.019846439,-0.874699652,0.084905677,-0.52499783,0.6888449788093567,1.125863194465637,-0.026502268,-0.114505149,0.2050701975822449,0.3310812413692474,0.1971542686223984,-0.061708629,-2.450386763
2.024845362,-0.841667593,0.083432384,-0.499503493,0.6384934782981873,0.9265611171722412,0.060836662,-0.117189877,0.2063402980566025,0.328433484,0.1999266147613525,-0.058678024,-2.449858904
2.029845238,-0.846822381,0.08443398,-0.497570902,0.6101900935173035,0.7282832264900208,0.1465819031000137,-0.1216278,0.2084192782640457,0.324024498,0.2025680541992188,-0.056767385,-2.449106216
2.034846067,-0.869970083,0.1158453747630119,-0.509370446,0.5864112973213196,0.5675725936889648,0.2245257943868637,-0.123099327,0.2091086357831955,0.322562575,0.2049827873706818,-0.055769369,-2.448159218
2.039847851,-0.86370796,0.1118675619363785,-0.49319303,0.6210260987281799,0.37421,0.3108655512332916,-0.124231569,0.2096390426158905,0.3214377164840698,0.2076431810855865,-0.055765312,-2.44692874
2.044844866,-0.905408859,0.075760432,-0.514929116,0.6168048977851868,0.2213516086339951,0.384138286,-0.124606997,0.2098149210214615,0.3210647404193878,0.210359052,-0.056711871,-2.445645809
2.049842596,-0.897298813,0.055431385,-0.514413416,0.58105284,0.09095113,0.4249240756034851,-0.127298564,0.2118680775165558,0.3190449476242065,0.2128582149744034,-0.058250133,-2.444326401
2.054841518,-0.884173691,0.016537946,-0.504322946,0.5223105549812317,-0.04703293,0.4568766355514526,-0.128191024,0.2125488668680191,0.3183752000331879,0.2151372134685516,-0.060478631,-2.443079233
2.059841633,-0.870163143,-0.028975841,-0.498583317,0.4175167977809906,-0.180860907,0.4765107035636902,-0.128877714,0.2130726873874664,0.3178598880767822,0.2169328331947327,-0.063355923,-2.441948175
2.064842463,-0.84934324,-0.066571705,-0.49079144,0.2818227112293243,-0.315014005,0.4764233231544495,-0.129105404,0.2132463753223419,0.3176890313625336,0.2180897444486618,-0.066854276,-2.441019535
2.069844484,-0.830544531,-0.09599711,-0.485403955,0.1285508722066879,-0.455559522,0.4641204476356506,-0.128619149,0.2148734629154205,0.3158192038536072,0.2185041010379791,-0.070985422,-2.440318346
2.074841499,-0.823944509,-0.116171926,-0.489698142,-0.019176766,-0.594703555,0.4395826458930969,-0.128294244,0.2157825380563736,0.3147690296173096,0.2182154208421707,-0.075760514,-2.439913273
2.079839468,-0.837413609,-0.113423817,-0.504579782,-0.152075574,-0.728400528,0.3993685841560364,-0.128044233,0.216482013,0.313960999,0.2172548621892929,-0.081171632,-2.439866543
2.08483839,-0.871691406,-0.088863865,-0.522581697,-0.243469745,-0.841405869,0.3372375071048737,-0.127961338,0.2167139500379562,0.3136930465698242,0.2158294767141342,-0.087118365,-2.440245628
2.089838266,-0.917796314,-0.052684445,-0.543889761,-0.280588478,-0.926090062,0.2578285038471222,-0.126725569,0.2174267023801804,0.3145222365856171,0.2142163962125778,-0.093449272,-2.441076756
2.094839096,-0.966283739,-0.030464595,-0.559450328,-0.265163124,-0.986377418,0.1614226698875427,-0.125133976,0.2182018160820007,0.3158412277698517,0.212742954,-0.100023001,-2.442459106
2.099840879,-0.230379432,-0.830804527,-0.939056516,-0.983350277,-1.250373125,0.037979916,-0.123909362,0.2187982052564621,0.3168561160564423,0.2097195088863373,-0.106027409,-2.444830656
2.104837894,-0.209797889,-0.446314394,-0.726350725,-1.237125278,-1.869326949,0.1939695179462433,-0.123503298,0.2189959734678268,0.3171926140785217,0.2031530439853668,-0.116023786,-2.446570396
2.109835863,0.6376213431358337,-0.310708284,-0.665834367,-1.418810368,-2.256462336,0.2099810987710953,-0.123190857,0.2191481441259384,0.317451537,0.1962761133909225,-0.126201376,-2.446650743
2.114840508,0.3536708950996399,-0.029005308,-1.054823756,-1.359111667,-2.442344666,0.1281711161136627,-0.119778246,0.2177277952432632,0.3189779222011566,0.1892905831336975,-0.137662187,-2.447016239
2.119840622,-0.077505656,0.009943301,-1.384771466,-1.329340696,-2.42777586,-0.029280981,-0.117152467,0.2166349440813065,0.3201523721218109,0.1824462413787842,-0.149718389,-2.449014664
2.124841452,0.1963347196578979,-0.085295737,-1.49516046,-1.181015849,-2.429759264,-0.049372029,-0.116281807,0.2162725776433945,0.3205417990684509,0.1768114268779755,-0.160653055,-2.450261593
2.129843473,0.001133736,-0.303947568,-1.329333186,-1.332734704,-2.49897337,-0.063789561,-0.115611903,0.2159937620162964,0.3208414316177368,0.1708059757947922,-0.172680095,-2.452845335
2.134840488,0.009252723,-0.183176622,-1.150981903,-1.434159636,-2.580295563,0.014540454,-0.112071745,0.2139375656843185,0.3242475986480713,0.1638660877943039,-0.185032979,-2.454539537
2.139838457,-0.183797449,0.097851723,-1.008537769,-1.425136924,-2.788393974,0.1096653342247009,-0.105992787,0.21036981,0.3302121162414551,0.1564275473356247,-0.199048474,-2.455560923
2.144837379,-0.254365742,0.2285145968198776,-1.100617766,-1.366586447,-3.011762857,0.213148832,-0.103977121,0.2091868072748184,0.3321898281574249,0.1491163820028305,-0.214351714,-2.455907345
2.149837017,-0.305798024,0.3184812664985657,-1.235848308,-1.110588789,-3.214276314,0.3735836148262024,-0.102426209,0.208276555,0.333711565,0.1428118795156479,-0.230747074,-2.455187082
2.154838085,-0.637475431,0.3849507868289948,-1.30656004,-0.899729967,-3.256278992,0.4143972098827362,-0.101911955,0.2079747319221497,0.3342161476612091,0.13756302,-0.248034209,-2.454680204
2.159840107,-0.858445823,0.4949177503585815,-1.336723685,-0.70087117,-3.123993874,0.4223527312278748,-0.091368645,0.2030292004346848,0.3417845964431763,0.1329594999551773,-0.264709741,-2.453860044
2.164837122,-1.110480547,0.3595989942550659,-1.388629913,-0.566601634,-2.931568146,0.411665291,-0.087872684,0.2013893574476242,0.3442941606044769,0.1293504387140274,-0.280674875,-2.453679323
2.169835091,-1.326231837,0.2706963419914246,-1.36930871,-0.435580075,-2.648422241,0.4372159242630005,-0.085182779,0.2001276165246964,0.3462251126766205,0.1263775378465652,-0.295549601,-2.453531981
2.174834013,-1.282931328,0.2213963121175766,-1.331494093,-0.283487499,-2.322953224,0.4427992105484009,-0.084290855,0.1997092515230179,0.3468653857707977,0.1241609901189804,-0.308520257,-2.453074932
2.179833651,-1.229662776,0.099827468,-1.267515182,-0.178371459,-2.066646814,0.417895108,-0.074972972,0.1978290975093842,0.3504047393798828,0.1227096244692802,-0.320096105,-2.452758312
2.184834242,-1.015536427,-0.029588772,-1.174069643,-0.089648113,-1.840628266,0.3824108839035034,-0.069747418,0.19682008,0.3523322343826294,0.1219308227300644,-0.330191821,-2.452515841
2.189836264,-0.770993829,-0.145207182,-1.104166031,-0.061530538,-1.73208189,0.3343029916286469,-0.065726712,0.1960436999797821,0.3538153171539307,0.1215679049491882,-0.339344412,-2.452368021
2.19483304,-0.713322401,-0.285982192,-1.001689076,-0.074183181,-1.656061053,0.332903266,-0.06439352,0.1957862824201584,0.3543070554733276,0.121321328,-0.348225355,-2.45263052
2.199831247,-0.560572803,-0.320645571,-1.001611471,-0.124580383,-1.596134067,0.3022112846374512,-0.059406303,0.1952882260084152,0.3553943634033203,0.1208639293909073,-0.356451511,-2.452692747
2.20483017,-0.550197601,-0.396973193,-0.98328501,-0.215396285,-1.548832655,0.2838225662708282,-0.053757962,0.1948205977678299,0.3564697802066803,0.1201173141598701,-0.364534914,-2.45304656
2.209830046,-0.631281912,-0.384409159,-0.940573812,-0.309593707,-1.478106499,0.3035218417644501,-0.049411945,0.1944607943296432,0.3572972416877747,0.1187130287289619,-0.37247321,-2.453359127
2.214830875,-0.607525527,-0.340875745,-0.936757326,-0.381115526,-1.375686884,0.3217860460281372,-0.047970891,0.1943414807319641,0.3575716018676758,0.1168321967124939,-0.379747063,-2.453269482
2.219832897,-0.656675875,-0.292453319,-0.895595968,-0.432846904,-1.262816429,0.3558467924594879,-0.046862096,0.19424969,0.3577827215194702,0.1144908741116524,-0.38665086,-2.452932358
2.224829674,-0.580983996,-0.235917091,-0.888460577,-0.462259531,-1.15182507,0.3917644321918488,-0.041599326,0.1938221901655197,0.3579825758934021,0.111822598,-0.392790377,-2.451996088
2.229827642,-0.543324351,-0.189993352,-0.884874523,-0.494693637,-1.06699276,0.4236754775047302,-0.037549984,0.1934932768344879,0.3581363558769226,0.1088268831372261,-0.398494929,-2.450662374
2.234826565,-0.572455406,-0.188222781,-0.882596612,-0.53388232,-0.972784996,0.4686846733093262,-0.036207296,0.1933842152357101,0.358187348,0.105510838,-0.403844863,-2.449095964
2.239826441,-0.583377004,-0.17050004,-0.898165345,-0.566659629,-0.864083767,0.4967368841171265,-0.035174191,0.1933002918958664,0.3582265973091125,0.1018853262066841,-0.408620447,-2.447236776
2.244827509,-0.60038352,-0.095951453,-0.924456537,-0.569179773,-0.766130328,0.5011334419250488,-0.032514006,0.1924612522125244,0.3594557344913483,0.098076187,-0.412914306,-2.445105553
2.249835253,-0.631601095,-0.035192061,-0.955610931,-0.571148157,-0.666483641,0.4980360865592957,-0.028123692,0.1909953951835632,0.3616311848163605,0.094141483,-0.416705966,-2.442806959
2.254838228,-0.770830989,0.053933978,-1.036696434,-0.543263197,-0.524821162,0.4913004338741302,-0.026667947,0.1905093491077423,0.3623525202274323,0.090133779,-0.420021832,-2.440385103
2.259836197,-0.693126857,0.1170481890439987,-1.067538619,-0.516877234,-0.356965274,0.4847395122051239,-0.025547849,0.1901353746652603,0.3629075586795807,0.086155735,-0.422195643,-2.437590599
2.264835119,-0.664719999,0.1725941300392151,-1.06703341,-0.470805019,-0.250438541,0.4765405058860779,-0.025176447,0.1900113672018051,0.3630915880203247,0.082284667,-0.423808247,-2.434646368
2.269834757,-0.586879432,0.1220772862434387,-1.046199203,-0.396398127,-0.179507613,0.4237163662910461,-0.021329794,0.1879763752222061,0.3650169670581818,0.079059623,-0.424956799,-2.432019472
2.274835825,-0.463375568,0.011892729,-0.992005408,-0.347198904,-0.173484132,0.3644669055938721,-0.020054318,0.1873016059398651,0.365655392,0.076479629,-0.425893158,-2.429938078
2.27983737,-0.449851662,-0.037452459,-0.986079097,-0.305967271,-0.199277475,0.2972722351551056,-0.019072926,0.1867824196815491,0.3661466240882874,0.074335523,-0.426997334,-2.428339481
2.284834623,-0.573337972,0.019767936,-1.047289848,-0.255994678,-0.165521592,0.2469100952148438,-0.018747514,0.1866102665662766,0.3663095235824585,0.072376385,-0.428142577,-2.426981449
2.289832354,-0.45287466,0.056830429,-0.974288046,-0.22111699,-0.175963476,0.2166334986686707,-0.017128756,0.1855397820472717,0.3665842711925507,0.070592262,-0.429012448,-2.425523996
2.294831276,-0.436461687,0.091181964,-0.950634718,-0.149505496,-0.226127282,0.1823969781398773,-0.016253397,0.1849527209997177,0.3667123317718506,0.069206327,-0.430259317,-2.424197435
2.299831152,-0.412477821,0.101951391,-0.981828392,-0.087748617,-0.246149927,0.1413841992616653,-0.015579867,0.1845010071992874,0.3668108582496643,0.068237707,-0.431489706,-2.423037767
2.304831982,-0.396465898,0.086256824,-0.956588864,-0.038173541,-0.265354335,0.099949822,-0.015356538,0.1843512356281281,0.3668435513973236,0.067636803,-0.432805538,-2.422158241
2.309833765,-0.389532715,0.078738369,-0.975185752,0.018170498,-0.29158181,0.072716065,-0.014631345,0.1839121133089066,0.3672684729099274,0.067395031,-0.43417716,-2.421451092
2.31483078,-0.415913671,0.05325859,-0.966269791,0.052416854,-0.293705285,0.063804567,-0.01383288,0.1834399253129959,0.3678125441074371,0.067409508,-0.435657144,-2.420917749
2.319828749,-0.43092382,0.021861291,-0.955605328,0.085581258,-0.303244084,0.058883987,-0.013218516,0.1830765902996063,0.3682311773300171,0.067625009,-0.437195837,-2.420464039
2.324827671,-0.420981675,-0.033751734,-0.94860667,0.1060221046209335,-0.311910331,0.045642126,-0.013014806,0.1829561144113541,0.368369997,0.068095088,-0.438730925,-2.420241833
2.329827547,-0.431424856,-0.065078892,-0.942040622,0.1164325475692749,-0.307656527,0.045088578,-0.012858064,0.1828634291887283,0.3684767782688141,0.068661794,-0.440275133,-2.420110464
2.334828854,-0.434904099,-0.076562688,-0.937099099,0.1221758127212524,-0.314396203,0.03447802,-0.011693865,0.1829618513584137,0.368323803,0.069272488,-0.441838592,-2.42002368
2.339830875,-0.417178273,-0.079845108,-0.934063375,0.1221829354763031,-0.320933461,0.028691161,-0.010798093,0.1830375790596008,0.3682060539722443,0.069897883,-0.443398803,-2.419975042
2.344827652,-0.413213581,-0.0788977,-0.939266384,0.122659445,-0.341554463,0.029364549,-0.010501072,0.1830626875162125,0.3681670129299164,0.070524327,-0.445063084,-2.419900656
2.349825621,-0.406018674,-0.07271421,-0.935218751,0.1206405088305473,-0.359901875,0.032841902,-0.010272535,0.1830820143222809,0.3681369721889496,0.071116179,-0.446820498,-2.419787169
2.354824305,-0.418546289,-0.061783437,-0.938813627,0.1196047812700272,-0.379855394,0.036453124,-0.009675071,0.1831635981798172,0.3679908215999603,0.071680166,-0.448690265,-2.419658184
2.359824181,-0.432026356,-0.044301569,-0.941356182,0.1202690228819847,-0.401088178,0.038984951,-0.008687858,0.1833024024963379,0.3677406907081604,0.072197959,-0.450682551,-2.419476986
2.364824772,-0.456396997,-0.039209582,-0.933551967,0.1338692605495453,-0.415277392,0.039764129,-0.008360516,0.1833484321832657,0.3676577508449554,0.072794288,-0.452804774,-2.41934967
2.369826794,-0.459587306,-0.05460291,-0.927683949,0.146465003,-0.431995928,0.036565211,-0.008108649,0.1833838522434235,0.3675939440727234,0.073499665,-0.454991758,-2.419286966
2.37482357,-0.462824285,-0.079815961,-0.921349883,0.1514956057071686,-0.438471794,0.042314984,-0.008025135,0.183395579,0.3675727844238281,0.074286088,-0.457223654,-2.419284344
2.379821777,-0.453148872,-0.088096127,-0.915076196,0.1467620432376862,-0.434766918,0.053487323,-0.006238125,0.1843202859163284,0.3680985569953918,0.075002402,-0.459411919,-2.419185638
2.38482666,-0.464848846,-0.086682133,-0.911943257,0.1409546732902527,-0.42907989,0.060455382,-0.005645587,0.1846269071102142,0.3682729005813599,0.075665735,-0.46158886,-2.419059038
2.389826775,-0.467837185,-0.073509291,-0.910191596,0.1343884170055389,-0.416221082,0.062235042,-0.005189669,0.1848628371953964,0.3684070408344269,0.076253891,-0.46370092,-2.418895245
2.394827604,-0.471455812,-0.051606618,-0.916754842,0.1323225647211075,-0.403822064,0.059403393,-0.005038495,0.1849410533905029,0.3684515058994293,0.076796129,-0.465743542,-2.418685913
2.399829388,-0.468078762,-0.042244084,-0.911961734,0.1356013715267181,-0.396577358,0.049491469,-0.003858075,0.1851303279399872,0.3681880235671997,0.077359453,-0.467748463,-2.418502808
2.404826403,-0.466414779,-0.058155589,-0.904788256,0.1395591795444489,-0.384685874,0.034857906,-0.003203355,0.1852250248193741,0.3680269718170166,0.078032374,-0.469683141,-2.418456316
2.409824371,-0.472907573,-0.079838969,-0.907325029,0.1379126757383347,-0.3725366,0.023228647,-0.002699592,0.185297891,0.3679030537605286,0.078772761,-0.47155109,-2.418540001
2.414823055,-0.469702154,-0.09666118,-0.897952497,0.1233071982860565,-0.364189595,0.017139079,-0.002532554,0.1853220611810684,0.3678619861602783,0.079478264,-0.473376155,-2.418703794
2.41982317,-0.471869528,-0.102676809,-0.891765177,0.1128298416733742,-0.352639169,0.01590346,-0.001580815,0.1856056749820709,0.3670289218425751,0.080127202,-0.475150675,-2.418857098
2.424823999,-0.474545717,-0.111781664,-0.892243683,0.09472201,-0.347549528,0.016922273,-0.000435111,0.185966969,0.3659444749355316,0.080700725,-0.476899326,-2.41901207
2.429825783,-0.478835553,-0.121754169,-0.890601397,0.077513486,-0.336381048,0.016054237,0.000446431,0.1862449496984482,0.3651100695133209,0.081209093,-0.478595465,-2.41920805
2.434822559,-0.480973631,-0.128757268,-0.890206456,0.056592196,-0.324471444,0.018502176,0.000738733,0.1863371282815933,0.3648333847522736,0.08160013,-0.48024419,-2.41938448
2.43982029,-0.469922304,-0.13354753,-0.885763049,0.036050394,-0.315751493,0.023013696,0.00096364,0.186408058,0.3646205067634583,0.081888415,-0.481814623,-2.419546843
2.444819212,-0.465638667,-0.139959872,-0.88856256,0.003318151,-0.311668932,0.025449868,0.00204722,0.1867771297693253,0.365628719,0.082013555,-0.483354509,-2.419693232
2.44981885,-0.467838109,-0.14795506,-0.886655211,-0.021464728,-0.305424362,0.030407134,0.002880961,0.1870611160993576,0.3664044737815857,0.082011499,-0.484879822,-2.419838667
2.454819918,-0.465240926,-0.128288433,-0.888687015,-0.036574088,-0.300797105,0.04233202,0.003157413,0.1871552765369415,0.3666616976261139,0.081867315,-0.486380994,-2.419836521
2.459821463,-0.465678811,-0.093843773,-0.888617814,-0.040633436,-0.296477258,0.048359059,0.003370125,0.187227726,0.3668596148490906,0.081601739,-0.487858325,-2.419696808
2.464818716,-0.470526308,-0.07730642,-0.888279796,-0.043741371,-0.292799652,0.051835466,0.003909781,0.1871000677347183,0.3670743405818939,0.081305273,-0.489336759,-2.419530153
2.469816208,-0.474514335,-0.073630922,-0.884691536,-0.041625872,-0.290953934,0.054016367,0.004799369,0.1868484616279602,0.3673903346061707,0.081010938,-0.490809619,-2.419338465
2.47481513,-0.481116265,-0.086039573,-0.872760773,-0.041610342,-0.284105629,0.055483907,0.005094339,0.186765045,0.3674950897693634,0.080749981,-0.492276609,-2.419217348
2.479815245,-0.486474276,-0.10287974,-0.871518612,-0.046256371,-0.274334013,0.06301824,0.005321299,0.186700851,0.3675757050514221,0.080478273,-0.493688166,-2.419084787
2.484816074,-0.470408767,-0.122485749,-0.871999383,-0.060131043,-0.26351732,0.080040023,0.005396554,0.1866795718669891,0.3676024377346039,0.080120325,-0.495026469,-2.418869734
2.489818096,-0.478454292,-0.109167434,-0.86847496,-0.068426505,-0.253668815,0.075052187,0.006870201,0.1865717172622681,0.3679627776145935,0.079692148,-0.496314377,-2.418645382
2.49481535,-0.489610583,-0.093047023,-0.867495596,-0.083038904,-0.24639897,0.073714957,0.007358834,0.1865359544754028,0.3680822253227234,0.079163581,-0.497595131,-2.418408632
2.49981308,-0.496652365,-0.084458522,-0.863355994,-0.092679061,-0.238976449,0.072327472,0.007734804,0.186508447,0.368174136,0.078574061,-0.498850942,-2.418169737
2.504812002,-0.509615362,-0.084256239,-0.860166848,-0.101511672,-0.227631003,0.081279151,0.007859468,0.1864993274211884,0.3682046234607697,0.077916108,-0.500065684,-2.417889118
2.509812117,-0.487778068,-0.078937627,-0.856401145,-0.104060926,-0.214913905,0.085518934,0.008590132,0.1864147782325745,0.3666182458400726,0.077205911,-0.501180768,-2.417505026
2.514812946,-0.49133265,-0.089436449,-0.852802336,-0.105122589,-0.199744105,0.085860178,0.008989475,0.1863675713539124,0.3656938672065735,0.076548479,-0.502236485,-2.41718626
2.51982069,-0.485277683,-0.086098045,-0.858491421,-0.107412331,-0.188493624,0.092376396,0.009296741,0.1863312423229218,0.3649826347827911,0.075833894,-0.503218055,-2.416790485
2.524823904,-0.495179623,-0.083993733,-0.866311908,-0.112019069,-0.182761535,0.1097825616598129,0.009398625,0.1863191872835159,0.3647468090057373,0.075052828,-0.50418365,-2.416277409
2.529821873,-0.47655201,-0.071006276,-0.862710178,-0.107369833,-0.174314708,0.1052544042468071,0.010054384,0.1861344575881958,0.3654951155185699,0.074250512,-0.505074382,-2.415712833
2.534820795,-0.493156195,-0.077626966,-0.858090401,-0.105849504,-0.159831837,0.1042378544807434,0.010854035,0.185896248,0.3666808009147644,0.073496632,-0.505939484,-2.415248394
2.53982091,-0.502455413,-0.082505003,-0.855975509,-0.106267057,-0.145254821,0.1135009601712227,0.011469312,0.1857129782438278,0.3675931096076965,0.072727978,-0.506733418,-2.414729595
2.544821501,-0.477064222,-0.078076445,-0.85486573,-0.106817126,-0.133015946,0.1184163466095924,0.011673326,0.1856522113084793,0.3678956031799316,0.071912326,-0.507420361,-2.414112806
2.549823523,-0.46926704,-0.083631061,-0.859940886,-0.102862485,-0.127680361,0.1264711618423462,0.011830301,0.185605451,0.3681283593177795,0.071119264,-0.508071601,-2.413464785
2.554820538,-0.464387417,-0.096702963,-0.860138476,-0.106969319,-0.118761733,0.1384796351194382,0.012420309,0.1851752400398254,0.3683651089668274,0.070293643,-0.508682549,-2.412772417
2.559818745,-0.467484981,-0.100691333,-0.862860382,-0.106222354,-0.113068826,0.1434713900089264,0.012874279,0.1848442107439041,0.3685472905635834,0.069464393,-0.509265006,-2.412063837
2.564817667,-0.471118093,-0.097219892,-0.86489135,-0.110508233,-0.10861145,0.1571251153945923,0.013024807,0.1847344487905502,0.3686076998710632,0.068554953,-0.509832382,-2.411268711
2.569817543,-0.465460002,-0.089512825,-0.870214939,-0.109436102,-0.108069137,0.1617346405982971,0.013140629,0.1846499890089035,0.3686541616916656,0.067622006,-0.510380626,-2.410383463
2.574818373,-0.473333329,-0.083439752,-0.874891579,-0.104396597,-0.108447522,0.1695553511381149,0.013456044,0.1844452172517776,0.3688226938247681,0.066684499,-0.510937452,-2.40946126
2.579820395,-0.46719417,-0.08592543,-0.877895355,-0.107497692,-0.11083284,0.1703545898199081,0.013978836,0.1841089129447937,0.369107187,0.065728836,-0.511507094,-2.408539534
2.584817171,-0.472328097,-0.083734997,-0.882166862,-0.110694498,-0.115211621,0.1752959340810776,0.014152183,0.1839973926544189,0.3692015409469604,0.064756311,-0.512114763,-2.40760994
2.589814901,-0.471550465,-0.078342013,-0.882832706,-0.112574004,-0.116745107,0.1868461668491364,0.014285563,0.1839115917682648,0.3692741394042969,0.063725956,-0.512721539,-2.406582594
2.594813585,-0.466140509,-0.05547832,-0.890674531,-0.106010243,-0.123890907,0.192166731,0.014329788,0.1838831454515457,0.3692982196807861,0.062658012,-0.513343692,-2.405442476
2.5998137,-0.459347546,-0.029842321,-0.890893757,-0.093960784,-0.13590169,0.1880457997322083,0.015016287,0.1834335625171661,0.3681370615959167,0.061630625,-0.514021516,-2.404255629
2.604814529,-0.468879461,-0.011680208,-0.895062506,-0.078373849,-0.143823907,0.1751524209976196,0.015243916,0.1832844913005829,0.3677520453929901,0.060687438,-0.514757812,-2.403130531
2.609816551,-0.465242088,-0.005295922,-0.894928575,-0.057206366,-0.150858685,0.1599756926298141,0.015419061,0.1831697821617126,0.367455781,0.059895877,-0.515499234,-2.402079344
2.614813805,-0.474835813,-0.000323242,-0.899532318,-0.033198733,-0.159340695,0.1500285267829895,0.015477137,0.1831317543983459,0.3673575520515442,0.059256915,-0.516299725,-2.401084423
2.619811296,-0.470171899,-0.006345524,-0.898932874,-0.01012058,-0.173079044,0.1363477855920792,0.016490417,0.1829385906457901,0.3680366575717926,0.058787402,-0.517156899,-2.400188923
2.624810219,-0.474727273,-0.014536074,-0.898584068,0.009590857,-0.184384897,0.1269747465848923,0.017066082,0.1828339695930481,0.3684485852718353,0.058459237,-0.5180704,-2.399378777
2.629810095,-0.475919634,-0.024261612,-0.899008751,0.024493426,-0.192554668,0.122856505,0.017509017,0.1827534735202789,0.3687655329704285,0.058233585,-0.519019485,-2.39862752
2.634811163,-0.466715753,-0.043885868,-0.89639622,0.047279429,-0.199796826,0.121083029,0.017655887,0.1827267855405807,0.3688706457614899,0.058163352,-0.519984066,-2.397922754
2.639813185,-0.462226927,-0.069440745,-0.900357962,0.055471007,-0.212686747,0.1182778030633926,0.017908949,0.1826402395963669,0.3683235347270966,0.05820848,-0.521000326,-2.397279978
2.6448102,-0.467591196,-0.100508936,-0.896358192,0.0388074,-0.226902843,0.1252238899469376,0.018134093,0.1825449913740158,0.3675089180469513,0.058182918,-0.522107661,-2.396696568
2.649808168,-0.462755024,-0.093726225,-0.898851871,0.031860203,-0.244791538,0.1363820880651474,0.018307326,0.1824716925621033,0.3668821156024933,0.058046367,-0.523296833,-2.396001577
2.65481329,-0.463203043,-0.095031835,-0.902361035,0.025728879,-0.259723485,0.1476841866970062,0.018364768,0.1824473887681961,0.3666742742061615,0.057867821,-0.524564624,-2.395256042
2.659813166,-0.471052855,-0.100881733,-0.898219526,0.023466563,-0.274670452,0.1647824198007584,0.018408965,0.1824286878108978,0.3665143549442291,0.057639536,-0.525922954,-2.394446373
2.664814234,-0.466035098,-0.094197847,-0.902869284,0.019631354,-0.296365798,0.1782655119895935,0.019143408,0.1826239824295044,0.3678229451179504,0.057339221,-0.527375638,-2.393530607
2.669816256,-0.454773933,-0.094783045,-0.89802587,0.017628955,-0.318590045,0.1913538426160812,0.019708512,0.1827742457389832,0.3688298165798187,0.057016261,-0.528931439,-2.392529726
2.674813509,-0.46654883,-0.066364273,-0.908982873,0.013699097,-0.343021572,0.1999870985746384,0.019895891,0.1828240752220154,0.3691636919975281,0.056551661,-0.530613661,-2.391412735
2.679811239,-0.459913194,-0.043274552,-0.918014467,0.022372616,-0.369602054,0.208384097,0.020040067,0.1828624159097672,0.369420588,0.056078583,-0.532412469,-2.390178442
2.684810162,-0.458952874,-0.051558968,-0.925312459,0.020001587,-0.406561285,0.2060273140668869,0.020859296,0.1827458292245865,0.3695861399173737,0.055653621,-0.534397006,-2.389008999
2.689810276,-0.458302766,-0.022572607,-0.926383138,0.02825083,-0.437459826,0.2059293687343597,0.022269666,0.1825253963470459,0.3697947859764099,0.055191152,-0.536531985,-2.387760639
2.694810867,-0.455252409,0.001499738,-0.942542434,0.055269819,-0.478438526,0.2055536061525345,0.022737319,0.1824523061513901,0.3698639571666718,0.054822195,-0.538843811,-2.386422396
2.699812889,-0.440835744,0.002040267,-0.954141796,0.074439056,-0.528387189,0.1897661089897156,0.023097146,0.1823960691690445,0.3699172139167786,0.054621357,-0.541377246,-2.385188341
2.704809666,-0.442639023,-0.00177479,-0.956814766,0.077647358,-0.581577241,0.1755689829587936,0.023216456,0.1823774129152298,0.3699348568916321,0.05450483,-0.544173002,-2.384102106
2.709807634,-0.449554354,0.011270212,-0.964299858,0.093267843,-0.63724035,0.1634916365146637,0.025040055,0.1827987432479858,0.3696169257164001,0.054461572,-0.547240555,-2.383020401
2.714806318,-0.44696632,0.017843872,-0.967734456,0.1206328570842743,-0.695406437,0.1484520882368088,0.025644725,0.1829384416341782,0.3695114850997925,0.054600149,-0.550582528,-2.382031441
2.719806194,-0.453761339,0.004041726,-0.967375159,0.1392698734998703,-0.750637949,0.1307792365550995,0.026109979,0.1830459386110306,0.3694303631782532,0.054939132,-0.554208159,-2.381217003
2.724807024,-0.459928393,-0.014356179,-0.969551861,0.1476834565401077,-0.807143986,0.1133447140455246,0.026264247,0.1830815821886063,0.3694034516811371,0.055429887,-0.558102608,-2.380599976
2.729808807,-0.465034336,-0.035304472,-0.955549598,0.1381119936704636,-0.86820358,0.095602058,0.028896868,0.1834621578454971,0.3688890039920807,0.05594705,-0.562326729,-2.380145788
2.734805822,-0.476377279,-0.03544952,-0.960603774,0.1264943778514862,-0.929017603,0.084095202,0.030391872,0.1836757510900497,0.368596226,0.056445457,-0.566839278,-2.37979126
2.739803553,-0.477195293,-0.018423706,-0.961677074,0.1364069432020187,-0.987925708,0.072633103,0.031542175,0.1838400810956955,0.3683709800243378,0.056993313,-0.571642935,-2.379441023
2.744802475,-0.476842225,-0.048914522,-0.956631541,0.1454815417528152,-1.042666435,0.0646457,0.031923596,0.1838945746421814,0.3682962954044342,0.057724249,-0.576715469,-2.3792696
2.749802589,-0.478126884,-0.091395184,-0.954406083,0.1261540800333023,-1.103146911,0.063520513,0.033454202,0.1840240955352783,0.3678069114685059,0.058475379,-0.582065046,-2.37927103
2.754803419,-0.483342081,-0.103071369,-0.954161644,0.095549099,-1.167731166,0.06769868,0.035209239,0.1841553747653961,0.3672090768814087,0.059031546,-0.5877316,-2.379244328
2.759805202,-0.473482966,-0.100262165,-0.955383897,0.072020337,-1.237738729,0.072542958,0.036559619,0.184256375,0.366749108,0.059449252,-0.593722999,-2.379163265
2.764801979,-0.488302439,-0.136064306,-0.953123391,0.029865563,-1.310984015,0.095149562,0.03700738,0.1842898577451706,0.3665965795516968,0.059703659,-0.600127518,-2.379137516
2.769799709,-0.495538861,-0.173890457,-0.974256873,-0.031349558,-1.386591434,0.1138038113713264,0.037351903,0.1843156367540359,0.366479218,0.059659254,-0.606877685,-2.379105091
2.774798632,-0.467565477,-0.161393374,-0.97845155,-0.078572817,-1.468526721,0.1498343050479889,0.041043285,0.1847125142812729,0.3664766550064087,0.059192833,-0.613989115,-2.37875247
2.779798269,-0.470886678,-0.174530119,-0.990274489,-0.092775494,-1.554489732,0.1870190352201462,0.043883555,0.1850178837776184,0.3664746880531311,0.058588818,-0.621532083,-2.378204346
2.784799337,-0.465357959,-0.191388905,-1.020013571,-0.114178404,-1.647220969,0.225288987,0.044825334,0.1851191371679306,0.3664740025997162,0.057807297,-0.629503429,-2.377453804
2.789807081,-0.479923874,-0.21414645,-1.057850122,-0.198554605,-1.726213694,0.2489044815301895,0.04554997,0.18519704,0.366473526,0.056609012,-0.637896359,-2.376588345
2.794810057,-0.44006303,-0.058654957,-1.106100082,-0.153567225,-1.8657372,0.2871350944042206,0.048187066,0.1850256472826004,0.3656778633594513,0.054840047,-0.646732569,-2.374917507
2.799808025,-0.49517265,-0.075933412,-1.120611668,-0.128402129,-2.017843962,0.3243366777896881,0.052639693,0.1846943348646164,0.36426127,0.053528428,-0.656454384,-2.373195648
2.804806948,-0.460955173,-0.302034318,-1.137982249,-0.236128524,-2.203381777,0.3278942704200745,0.0541161,0.1845844835042953,0.3637915253639221,0.052154806,-0.667082131,-2.372237682
2.809806824,-0.423670977,-0.255845249,-1.167527795,-0.31290862,-2.393507957,0.3893795311450958,0.055252098,0.1844999492168427,0.3634301126003265,0.049817685,-0.678579271,-2.370538235
2.814807892,-0.390808523,-0.226210907,-1.180717349,-0.326557487,-2.579729557,0.4399531185626984,0.055628773,0.18447192,0.3633102774620056,0.047169566,-0.690940857,-2.368288517
2.819809675,-0.418773204,-0.292607725,-1.213568449,-0.38191855,-2.78132844,0.4835801124572754,0.064107701,0.183274895,0.3624131679534912,0.044309437,-0.704305828,-2.366014719
2.824806929,-0.372775137,-0.30131644,-1.245237231,-0.481506914,-3.000155926,0.5394979119300842,0.066919155,0.1828779876232147,0.3621157109737396,0.04059783,-0.71862036,-2.363270521
2.829804897,-0.3590343,-0.28243044,-1.308741689,-0.557126045,-3.240379095,0.5971494317054749,0.069082372,0.1825725734233856,0.3618867993354797,0.036124658,-0.734073699,-2.359897614
2.834803343,-0.297602475,-0.31708771,-1.340316772,-0.599241316,-3.500798225,0.688315213,0.069799654,0.1824713051319122,0.3618109226226807,0.031050391,-0.7506603,-2.355836868
2.839803457,-0.28512761,-0.390633702,-1.356769562,-0.691024244,-3.811937809,0.7668476700782776,0.07865151,0.1809626966714859,0.3613870441913605,0.025190892,-0.76878947,-2.351242542
2.844804049,-0.485282242,-0.433332652,-1.480881453,-0.774776697,-4.052614212,0.8509196043014526,0.083640471,0.1801084280014038,0.3611560463905334,0.018409504,-0.788291037,-2.346178055
2.84980607,-0.455061972,-0.492838115,-1.433591843,-0.879675806,-4.232689381,0.9681024551391602,0.087479137,0.1794511377811432,0.3609783053398132,0.010400252,-0.808422029,-2.340215445
2.854802847,-0.376791894,-0.580861986,-1.377659917,-1.011097789,-4.498607635,1.121706485748291,0.088751964,0.179233193,0.3609193861484528,0.000732799,-0.829844058,-2.33292222
2.859800816,-0.618837655,-0.631090999,-1.414841056,-1.148523092,-4.726909161,1.260944128036499,0.09646754,0.177367166,0.3593852818012238,-0.01080808,-0.852698445,-2.324465752
2.864799738,-0.944563389,-0.600241184,-1.446463108,-1.32281208,-4.783142567,1.425679445266724,0.1058186516165733,0.1750358194112778,0.3573753237724304,-0.024898352,-0.875895381,-2.31431365
2.869799614,-1.03900516,-0.326040149,-1.515408874,-1.327097654,-4.818879128,1.524950623512268,0.1130136996507645,0.1732420176267624,0.3558287918567657,-0.041440058,-0.898931444,-2.301136732
2.874800682,-1.287517428,-0.213994443,-1.623143435,-1.178293824,-4.723701477,1.530727624893188,0.1153994351625443,0.1726472228765488,0.3553160130977631,-0.057915278,-0.921399713,-2.287047625
2.879802942,-1.04700923,-0.321253806,-1.498509526,-1.137677431,-4.723095417,1.679030299186707,0.1172351017594337,0.1721895635128021,0.3549214601516724,-0.075677872,-0.943272293,-2.271145582
2.884799957,-0.929236472,-0.477353156,-1.548692107,-1.185332298,-4.820454597,1.794648647,0.1325049102306366,0.1667857617139816,0.3492741882801056,-0.095605232,-0.965468943,-2.253065586
2.889797926,-1.173261881,-0.577682614,-1.672755361,-1.246197104,-4.786867142,1.838587880134583,0.1442539691925049,0.1626278907060623,0.3449290096759796,-0.116877683,-0.987297118,-2.234111547
2.894796848,-1.12162149,-0.610241055,-1.612173557,-1.356150031,-4.685586929,1.874239206314087,0.1481497436761856,0.1612492352724075,0.3434882164001465,-0.140343711,-1.008137703,-2.213551044
2.899796724,-1.199469447,-0.723008692,-1.658806682,-1.54615128,-4.624663353,1.892825841903687,0.1511472761631012,0.1601884365081787,0.34237963,-0.165918067,-1.028466702,-2.191882849
2.904797792,-1.402248144,-0.622667432,-1.74584198,-1.794243932,-4.400382042,1.905283093452454,0.1605828851461411,0.1563376784324646,0.3393525183200836,-0.194822893,-1.047266245,-2.168265581
2.909800291,-1.128573895,-0.659508824,-1.616755843,-1.931838155,-4.209902763,1.936982154846191,0.1763788163661957,0.1498367488384247,0.334334135,-0.225823134,-1.064437389,-2.142992735
2.914797544,-0.989043415,-0.842478096,-1.40177989,-2.203530312,-4.14992857,2.043228387832642,0.1816164404153824,0.1476811766624451,0.332670122,-0.260232776,-1.081187606,-2.115871429
2.919795513,-1.047205687,-0.745052278,-1.251049042,-2.663135767,-4.12532711,2.106445550918579,0.1856464445590973,0.1460225880146027,0.3313897550106049,-0.300728798,-1.097495556,-2.085360527
2.924800158,-1.105551362,-0.530272663,-1.158433676,-2.886674881,-4.028513908,2.009705781936646,0.1869827210903168,0.1454726457595825,0.3309652507305145,-0.344120085,-1.112884998,-2.053028107
2.929800272,-1.143351912,-0.242415994,-1.099658847,-2.927026033,-3.83321619,2.020942926,0.2053779363632202,0.1333056688308716,0.3212061822414398,-0.390424728,-1.126575232,-2.017516136
2.934801102,-1.088799357,0.1108566895127296,-1.253915787,-2.718388081,-3.472130299,1.977899312973022,0.2114774435758591,0.1292713284492493,0.3179702460765839,-0.437032789,-1.137425303,-1.980048776
2.939802885,-1.857805252,0.7745873928070068,-1.677487969,-1.810947537,-2.774066925,1.797162771224976,0.2161705940961838,0.1261671781539917,0.3154804408550262,-0.477002323,-1.144004226,-1.943758726
2.9447999,-2.021360636,0.5524435639381409,-2.041308165,-0.845992088,-1.945823669,1.623184561729431,0.2177267521619797,0.1251379102468491,0.3146548569202423,-0.502958298,-1.146651745,-1.916804671
2.949797869,-0.834370375,0.064670928,-1.645295382,-0.213543013,-1.463743567,1.468570828437805,0.23031655,0.1139329150319099,0.3086803555488586,-0.521481991,-1.1472013,-1.894791245
2.954797268,-0.384465694,-0.44418326,-1.231152058,0.06268283,-1.322493911,1.324109435081482,0.2373101860284805,0.1076408177614212,0.3053781390190125,-0.536112845,-1.148651004,-1.8768543
2.959796906,-0.256269425,-0.601835907,-1.053620696,0.011019628,-1.302134752,1.223301649093628,0.242691308,0.1027994826436043,0.3028372824192047,-0.550656438,-1.150432348,-1.859945178
2.964797974,-0.304120749,-0.65029943,-1.122645259,-0.160176098,-1.257040501,1.126019597053528,0.2444755882024765,0.1011941805481911,0.3019947707653046,-0.564831555,-1.152027011,-1.844335675
2.969799995,-0.479027957,-0.583623707,-1.123465896,-0.26436609,-1.094126344,1.001691699028015,0.2488845139741898,0.097356275,0.3003154993057251,-0.578098714,-1.153403878,-1.830603242
2.97479701,-0.532238364,-0.518283665,-1.118998885,-0.288622111,-0.817717016,0.8519659042358398,0.2534079551696777,0.093459107,0.2987189888954163,-0.588296771,-1.153814554,-1.820222855
2.979794979,-0.489465803,-0.46529299,-1.108993053,-0.252968997,-0.479545981,0.694003701,0.2568884491920471,0.090460502,0.2974905669689178,-0.594668508,-1.15308404,-1.813667297
2.984793901,-0.377427757,-0.425212264,-1.073503971,-0.198566854,-0.137939513,0.5444174408912659,0.2580425441265106,0.089466214,0.2970832586288452,-0.597255886,-1.151249647,-1.810811996
2.989793777,-0.23147814,-0.402275234,-1.014106393,-0.130722627,0.153207541,0.4290736019611359,0.258930504,0.088701181,0.2967698574066162,-0.596919894,-1.148545504,-1.810694933
2.994794846,-0.041298784,-0.376882672,-0.903951764,-0.067646161,0.388308585,0.3427963852882385,0.2620736956596375,0.085842125,0.2950968444347382,-0.594379425,-1.145069003,-1.812682033
2.999796629,0.097500287,-0.345312476,-0.81558615,-0.00996515,0.5554757714271545,0.2851007580757141,0.2644921839237213,0.083642267,0.2938095927238464,-0.59049356,-1.141102195,-1.815794826
3.004793882,0.17576772,-0.30982247,-0.757775068,0.050053567,0.6979015469551086,0.2525006532669067,0.2652941346168518,0.082912832,0.2933827638626099,-0.585527837,-1.13664341,-1.819767952
3.009791851,0.2185307890176773,-0.267124116,-0.713567078,0.1156585291028023,0.8432382345199585,0.2413037270307541,0.2659111618995667,0.082351595,0.2930543720722198,-0.579645276,-1.131571293,-1.824383378
3.014790297,0.2472330778837204,-0.213251412,-0.68686676,0.2020333558320999,0.9889586567878723,0.2339266985654831,0.2660966217517853,0.081478797,0.2934231162071228,-0.572800457,-1.125860333,-1.829543114
3.019790411,0.2668291032314301,-0.1620166,-0.662761211,0.3063898086547852,1.139843940734863,0.2259552776813507,0.2662199735641479,0.080112867,0.2941898107528687,-0.564891875,-1.119490504,-1.835269094
3.024791241,0.2680845558643341,-0.125129983,-0.655727088,0.4226767420768738,1.299326658248901,0.2039333581924438,0.2662608623504639,0.079659946,0.2944440245628357,-0.555635095,-1.112437367,-1.841801882
3.029793262,0.2733510434627533,-0.095121063,-0.646284103,0.5352820754051208,1.460610389709473,0.1608124524354935,0.2662923336029053,0.07931146,0.2946396470069885,-0.544942975,-1.104774952,-1.849298239
3.034790516,0.2734313607215881,-0.083597288,-0.63844192,0.6393698453903198,1.624694824,0.1048420369625092,0.266302764,0.079195909,0.2947044968605042,-0.532757342,-1.096513748,-1.857921004
3.039788246,0.2600726783275604,-0.069312938,-0.631515384,0.7293283343315125,1.793350100517273,0.047021158,0.2633457481861115,0.078793868,0.2985507547855377,-0.519252241,-1.08762908,-1.867620111
3.044787169,0.2460717260837555,-0.051513832,-0.62534517,0.8109764456748962,1.965759277,-0.016784491,0.2623652517795563,0.078660563,0.2998261153697968,-0.504545271,-1.078088164,-1.878273487
3.049787045,0.248977393,-0.032352101,-0.616290152,0.8959315419197083,2.129898548126221,-0.078242376,0.2616108357906342,0.07855799,0.3008074164390564,-0.488782465,-1.067866325,-1.889684916
3.054788113,0.2531743943691254,-0.011411208,-0.61513871,0.9842370748519897,2.283859252929688,-0.131171331,0.2613606750965118,0.078523986,0.3011327981948853,-0.472148091,-1.056987405,-1.901609182
3.059796333,0.2588184177875519,0.017748203,-0.617537439,1.083373427391052,2.425330638885498,-0.174632102,0.2571148574352264,0.08004161,0.3064048290252686,-0.454837263,-1.045432448,-1.91382587
3.064799547,0.2562235593795776,0.051934987,-0.624825239,1.197759985923767,2.552751541137695,-0.211249262,0.2547039985656738,0.080926843,0.3093955814838409,-0.436976075,-1.033249736,-1.926052809
3.069797993,0.2408809512853622,0.08028771,-0.637507617,1.331733584403992,2.671001911,-0.239544541,0.2528490126132965,0.081607968,0.3116967380046844,-0.418597519,-1.020449042,-1.938156009
3.074796915,0.2071104794740677,0.086295351,-0.655759096,1.478606581687927,2.787205934524536,-0.253936231,0.2522339224815369,0.081833817,0.3124597668647766,-0.399692774,-1.007031083,-1.950094461
3.079796553,0.1592820435762405,0.090740092,-0.684815228,1.622133374214172,2.908567190170288,-0.268945575,0.2482054680585861,0.084004566,0.316066712,-0.380334795,-0.992955446,-1.961846352
3.084797621,0.1081744804978371,0.099794134,-0.715050817,1.748928666114807,3.037029743,-0.286375999,0.2432846426963806,0.086738087,0.3203079104423523,-0.360631764,-0.978174865,-1.973422289
3.089799643,0.054302815,0.1107943579554558,-0.734478116,1.868437170982361,3.174920797348022,-0.306399435,0.2394984066486359,0.088841341,0.3235712349414825,-0.340643704,-0.962674141,-1.984792829
3.094796896,-0.003241831,0.1149674877524376,-0.757863104,1.981846690177917,3.318887472,-0.329315484,0.2382429540157318,0.089538738,0.3246532678604126,-0.320390284,-0.946413457,-1.995961547
3.099794626,-0.044901133,0.1146932393312454,-0.777181864,2.072465419769287,3.460817575454712,-0.360253245,0.2372769713401794,0.090075344,0.3254858553409576,-0.299992144,-0.929408193,-2.006929874
3.104793549,-0.064977132,0.1176109239459038,-0.78928405,2.140959739685059,3.590193510055542,-0.398682326,0.2288325875997543,0.095382378,0.3315385282039642,-0.279594779,-0.911702871,-2.017728567
3.109793425,-0.096824847,0.1355016529560089,-0.802606881,2.189398765563965,3.713163375854492,-0.437304407,0.2223352193832397,0.099465773,0.3361956775188446,-0.25939706,-0.893358588,-2.028190851
3.114794493,-0.098562032,0.1585976183414459,-0.807380438,2.233294964,3.812287569046021,-0.478141755,0.2201808094978333,0.1008197516202927,0.337739885,-0.23946552,-0.874439538,-2.038186312
3.119796515,-0.100119181,0.186035231,-0.818811297,2.278420686721802,3.878768682479858,-0.520457923,0.2185231298208237,0.1018615439534187,0.3389280438423157,-0.219851896,-0.855133057,-2.047651052
3.12479353,-0.100707293,0.2197748869657516,-0.83413738,2.328974247,3.919282197952271,-0.553782046,0.2119445502758026,0.1060135066509247,0.3428701758384705,-0.200584292,-0.83553195,-2.056534529
3.129791737,-0.103081472,0.2560782432556152,-0.846763909,2.390515327453613,3.938127517700195,-0.574452996,0.2007866054773331,0.1130571588873863,0.3494911789894104,-0.181699187,-0.815762639,-2.064700365
3.134790659,-0.120298006,0.2931312024593353,-0.860973239,2.463088035583496,3.940074682235718,-0.581667662,0.1970868408679962,0.1153926998376846,0.351686567,-0.163180277,-0.79590565,-2.07206893
3.139790535,-0.141546041,0.327759862,-0.879909277,2.551673650741577,3.934066057,-0.56453836,0.1942401230335236,0.1171897426247597,0.3533757627010345,-0.145018891,-0.775982857,-2.078501463
3.144791603,-0.171708703,0.3465295135974884,-0.899639249,2.643884897232056,3.928635120391846,-0.52608192,0.1932962089776993,0.1177856028079987,0.3539358675479889,-0.127198458,-0.75601691,-2.083986044
3.149793625,-0.193242133,0.3583874106407166,-0.911547363,2.732931137084961,3.922853231430054,-0.462250054,0.1765207350254059,0.1286398023366928,0.3591748476028442,-0.109798647,-0.735981047,-2.088475466
3.15479064,-0.213816971,0.3671082854270935,-0.927467585,2.806489706039429,3.915938377380371,-0.378412157,0.1709583103656769,0.1322388499975204,0.3609119951725006,-0.092929684,-0.715903878,-2.091812849
3.159788609,-0.241414815,0.3760284781455994,-0.952578247,2.877808332443237,3.919510364532471,-0.275391221,0.166678399,0.1350080519914627,0.36224857,-0.076608695,-0.695743561,-2.09393549
3.164787292,-0.277305603,0.3841387629508972,-0.994343698,2.942528009414673,3.928094625473022,-0.159029439,0.1652592569589615,0.1359262764453888,0.3626917600631714,-0.060845695,-0.675484538,-2.09482336
3.169787169,-0.326439857,0.4117964804172516,-1.03949666,3.020451068878174,3.950717449188232,-0.040737022,0.1511701345443726,0.1451489478349686,0.3628028929233551,-0.04555301,-0.655106306,-2.094541073
3.17478776,-0.387278438,0.4436306655406952,-1.091010809,3.112591028213501,3.991091966629028,0.064936027,0.1432822644710541,0.1503143608570099,0.3627828657627106,-0.030528018,-0.634545922,-2.093215942
3.179789782,-0.434176505,0.4792454242706299,-1.145894647,3.224966049194336,4.041419029,0.1565798670053482,0.1372130662202835,0.1542887836694717,0.3627674579620361,-0.015568897,-0.613764346,-2.090901136
3.184786797,-0.482427418,0.504697323,-1.190637589,3.352983474731445,4.105419158935547,0.2259982973337173,0.135200635,0.1556066274642944,0.3627623617649078,-0.000454163,-0.592742682,-2.087844849
3.189784527,-0.517691255,0.5134761333465576,-1.233584762,3.479192972183228,4.170991421,0.2766216397285461,0.1265985667705536,0.161679745,0.3624938130378723,0.014934536,-0.571458638,-2.084192991
3.19478941,-0.550672233,0.508430541,-1.267946601,3.593802213668823,4.240031242370605,0.3088140785694122,0.1166334077715874,0.1687950640916824,0.3621379137039185,0.030637672,-0.549917996,-2.080143213
3.199789524,-0.591532171,0.4947047829627991,-1.300551295,3.688805818557739,4.308500767,0.3274038136005402,0.1089658960700035,0.1742698103189468,0.3618640601634979,0.046616077,-0.528169155,-2.075750589
3.204790354,-0.644858003,0.4769437909126282,-1.324163675,3.763614892959595,4.382371425628662,0.3327165544033051,0.1064234972000122,0.1760851293802261,0.361773282,0.062813975,-0.506230354,-2.071140289
3.209792137,-0.702200949,0.4711908102035522,-1.341532946,3.818626642227173,4.455177783966064,0.3301876783370972,0.1044672951102257,0.1774818897247314,0.3617034256458282,0.079140164,-0.484098494,-2.066316128
3.214789391,-0.732191682,0.4767789542675018,-1.35652709,3.862473249435425,4.523433208465576,0.3202375769615173,0.09134604,0.1877845674753189,0.3574568331241608,0.09554626,-0.46175319,-2.061293364
3.219787359,-0.757032752,0.4988235831260681,-1.36657393,3.908916234970093,4.571106433868408,0.3041388988494873,0.081250131,0.1957117766141891,0.354189396,0.1120518445968628,-0.439335763,-2.056022406
3.22478652,-0.765247762,0.5296657085418701,-1.382731676,3.961602449417114,4.587145328521729,0.292056531,0.077902518,0.1983402967453003,0.3531059622764587,0.1286901086568832,-0.416970283,-2.050441027
3.229786396,-0.782451749,0.5447670817375183,-1.387478352,4.018027782440186,4.585079669952393,0.2841149866580963,0.075326756,0.2003627568483353,0.3522723317146301,0.145550549,-0.394804955,-2.044618368
3.234786987,-0.818507969,0.5629488825798035,-1.393456221,4.064492225646973,4.557691097259521,0.2789144814014435,0.067481123,0.2064253687858582,0.347281814,0.1625662744045258,-0.372980148,-2.038640976
3.239789009,-0.849004507,0.5719442963600159,-1.397716403,4.095931529998779,4.513339042663574,0.2821292579174042,0.054374889,0.2165422737598419,0.3386752903461456,0.1796762943267822,-0.351572752,-2.032461405
3.244786263,-0.885456264,0.5881338715553284,-1.40177381,4.110603332519531,4.441003322601318,0.305010587,0.05002911,0.2198968529701233,0.3358215093612671,0.1967563629150391,-0.330774963,-2.025996685
3.249783754,-0.930029452,0.6175588369369507,-1.405966043,4.112539768218994,4.354912281036377,0.3378379046916962,0.046685331,0.222477987,0.3336257040500641,0.213736355,-0.310685933,-2.019221067
3.254782677,-0.955853105,0.6766616702079773,-1.403138399,4.095751285552979,4.239038944244385,0.3572022020816803,0.045576595,0.2233338356018066,0.3328976333141327,0.2305265665054321,-0.291399091,-2.012205601
3.259782314,-0.974770308,0.7273598313331604,-1.391943336,4.053224086761475,4.079480171203613,0.3589700162410736,0.030511264,0.2355242669582367,0.3176884353160858,0.247078076,-0.273101062,-2.005180597
3.264783382,-1.009535789,0.7382709383964539,-1.371848583,3.955449104309082,3.888875007629395,0.3578896820545197,0.025515886,0.239566371,0.3126453459262848,0.2632282972335815,-0.255977094,-1.9983114
3.269785404,-1.056921363,0.7362840175628662,-1.335765362,3.795433998,3.676490068435669,0.3611294329166412,0.021672281,0.2426765114068985,0.3087650239467621,0.2786459028720856,-0.240145698,-1.991682649
3.274782419,-1.128085375,0.7484990358352661,-1.30364275,3.588504791259766,3.445453167,0.3781900107860565,0.020397816,0.2437077760696411,0.3074783682823181,0.2930644750595093,-0.225745112,-1.985321522
3.279780388,-1.233068585,0.7784079909324646,-1.277325392,3.357754945755005,3.214167118,0.4164859652519226,0.011632092,0.2525763213634491,0.2966271936893463,0.3063181042671204,-0.212838218,-1.979233265
3.28477931,-1.363952279,0.8499239087104797,-1.268169165,3.136936187744141,2.997486591339111,0.4802824556827545,0.006799097,0.2575151920318604,0.2905889749526978,0.3183552920818329,-0.201405063,-1.973266006
