Time,inertial-6253.76535:estCompensatedAccelX,inertial-6253.76535:estCompensatedAccelX:valid,inertial-6253.76535:estCompensatedAccelY,inertial-6253.76535:estCompensatedAccelY:valid,inertial-6253.76535:estCompensatedAccelZ,inertial-6253.76535:estCompensatedAccelZ:valid,inertial-6253.76535:estAngularRateX,inertial-6253.76535:estAngularRateX:valid,inertial-6253.76535:estAngularRateY,inertial-6253.76535:estAngularRateY:valid,inertial-6253.76535:estAngularRateZ,inertial-6253.76535:estAngularRateZ:valid,inertial-6253.76535:estRoll,inertial-6253.76535:estRoll:valid,inertial-6253.76535:estPitch,inertial-6253.76535:estPitch:valid,inertial-6253.76535:estYaw,inertial-6253.76535:estYaw:valid
0,-4.477447987,1,-3.233764887,1,-8.114689827,1,0.008813523,1,-0.004232176,1,0.001033529,1,0.451227635,1,-0.530007064,1,1.939718604,1
0.004001536,-4.483217716,1,-3.233929396,1,-8.075910568,1,0.008318519,1,-0.007671436,1,0.001848478,1,0.451263607,1,-0.530025721,1,1.939716339,1
0.007999232,-4.416833401,1,-3.266057968,1,-8.117043495,1,0.00645969,1,-0.002712449,1,0.006624383,1,0.451301306,1,-0.530048847,1,1.939719915,1
0.011998976,-4.480163574,1,-3.298853159,1,-8.088706017,1,0.013759962,1,-0.005675314,1,0.00299203,1,0.451338619,1,-0.53007108,1,1.939713955,1
0.016000511,-4.509226322,1,-3.269555092,1,-8.081098557,1,0.008633366,1,-0.008874575,1,-0.000465404,1,0.451377869,1,-0.530091822,1,1.939715743,1
0.019998208,-4.506147385,1,-3.263654947,1,-8.118272781,1,0.01015473,1,-0.005249683,1,0.001097439,1,0.451423079,1,-0.530112505,1,1.939706206,1
0.023997951,-4.486148357,1,-3.25713563,1,-8.09681797,1,0.010303009,1,-0.001650216,1,-0.001603803,1,0.451461166,1,-0.53013289,1,1.939700961,1
0.027999489,-4.456816196,1,-3.266255856,1,-8.087599754,1,0.006395589,1,-0.003969762,1,0.000915468,1,0.451501817,1,-0.530142009,1,1.939693689,1
0.031997185,-4.464427471,1,-3.27731967,1,-8.127027512,1,0.009191986,1,-0.00356769,1,-0.000867744,1,0.451550126,1,-0.530157685,1,1.939685941,1
0.035996672,-4.484475136,1,-3.298606634,1,-8.0974226,1,0.011756512,1,-0.002687864,1,0.002252547,1,0.451587021,1,-0.530171454,1,1.939685345,1
0.039998207,-4.466145039,1,-3.274384975,1,-8.100054741,1,0.007638651,1,-0.003670909,1,-0.000141785,1,0.451625377,1,-0.530186653,1,1.939679861,1
0.043995906,-4.49041605,1,-3.318657875,1,-8.095802307,1,0.006757222,1,-0.003596234,1,0.002893056,1,0.451652408,1,-0.530203402,1,1.939678073,1
0.048001535,-4.465149879,1,-3.298153162,1,-8.08567524,1,0.006641568,1,-0.00310809,1,0.002652457,1,0.451677859,1,-0.530223787,1,1.93968153,1
0.052003071,-4.490731239,1,-3.261616945,1,-8.075362206,1,0.003065889,1,-0.003732499,1,0.001636973,1,0.451697856,1,-0.530243099,1,1.939679384,1
0.056000769,-4.488059998,1,-3.260553122,1,-8.099881172,1,0.008032797,1,-0.002679423,1,0.006563274,1,0.451713085,1,-0.530258,1,1.939691782,1
0.060000256,-4.502654076,1,-3.260482788,1,-8.104717255,1,0.006323932,1,-0.004360391,1,0.002708115,1,0.451736867,1,-0.530281007,1,1.939696193,1
0.064002044,-4.494020462,1,-3.25709486,1,-8.09974575,1,0.006352897,1,-0.005499503,1,-7.20E-05,1,0.451760411,1,-0.530300379,1,1.939701557,1
0.068000004,-4.457778454,1,-3.270767927,1,-8.103340149,1,0.007399943,1,-0.002591425,1,0.000685464,1,0.451782882,1,-0.530309677,1,1.939705372,1
0.071999997,-4.462503433,1,-3.286675453,1,-8.090206146,1,0.006704045,1,-0.002187743,1,0.001373554,1,0.451809108,1,-0.530322731,1,1.939702868,1
0.076001793,-4.421265602,1,-3.270749807,1,-8.092764854,1,0.010192113,1,-0.00415362,1,0.003899346,1,0.451831102,1,-0.530337691,1,1.939702153,1
0.079999492,-4.502384186,1,-3.289442062,1,-8.122991562,1,0.007033066,1,-0.003443716,1,0.000655524,1,0.451862574,1,-0.530350864,1,1.939700603,1
0.083998978,-4.46395731,1,-3.262290955,1,-8.112645149,1,0.006536594,1,-0.00326155,1,0.001963305,1,0.451899171,1,-0.530368686,1,1.939688444,1
0.088000767,-4.442427158,1,-3.30123353,1,-8.097053528,1,0.006585926,1,-0.003344391,1,-0.002760199,1,0.451925814,1,-0.5303877,1,1.939687133,1
0.091998465,-4.437122345,1,-3.269114494,1,-8.143715858,1,0.00890134,1,-0.005807726,1,0.00454781,1,0.451961994,1,-0.530401409,1,1.939688921,1
0.095998205,-4.477044582,1,-3.271646261,1,-8.105830193,1,0.009349491,1,-0.005993821,1,4.64E-05,1,0.451998532,1,-0.530419648,1,1.939686179,1
0.099999741,-4.438506126,1,-3.272108555,1,-8.1155653,1,0.00774305,1,-0.00599589,1,0.006094242,1,0.45203191,1,-0.53044343,1,1.939682603,1
0.103997439,-4.500442982,1,-3.288366318,1,-8.109869957,1,0.008600738,1,-0.007288646,1,0.00200772,1,0.452063739,1,-0.530470669,1,1.939692378,1
0.107996926,-4.464190006,1,-3.278957605,1,-8.103679657,1,0.00361269,1,-0.006001741,1,0.003795403,1,0.452093184,1,-0.530507147,1,1.939689517,1
0.111998461,-4.489897728,1,-3.281938553,1,-8.102238655,1,0.009635145,1,-0.007791256,1,0.000366889,1,0.452122718,1,-0.530534208,1,1.939685106,1
0.115995906,-4.498017788,1,-3.285098314,1,-8.116059303,1,0.008090124,1,-0.006894954,1,0.00132112,1,0.452160895,1,-0.530563712,1,1.939680338,1
0.119995393,-4.489593983,1,-3.288199425,1,-8.112538338,1,0.009746118,1,-0.002904818,1,0.001733785,1,0.452201843,1,-0.530589819,1,1.93967545,1
0.123996928,-4.485399723,1,-3.26839757,1,-8.100291252,1,0.006376956,1,-0.006465867,1,0.001717764,1,0.452233136,1,-0.530614018,1,1.939672947,1
0.127994627,-4.477672577,1,-3.286533833,1,-8.109140396,1,0.008288247,1,-0.005520158,1,0.002663048,1,0.452263176,1,-0.530629218,1,1.939674497,1
0.131994113,-4.448169708,1,-3.314610481,1,-8.133446693,1,0.008673636,1,-0.007640752,1,0.001606222,1,0.452296972,1,-0.530659854,1,1.939677,1
0.13599667,-4.451076508,1,-3.285302401,1,-8.146413803,1,0.009454172,1,-0.007753825,1,0.000898748,1,0.452335536,1,-0.530691683,1,1.939663768,1
0.139995649,-4.445650578,1,-3.308131218,1,-8.090891838,1,0.005782899,1,-0.011830064,1,0.000522847,1,0.452372104,1,-0.530721962,1,1.939654589,1
0.143995389,-4.492490292,1,-3.297087669,1,-8.130143166,1,0.008062355,1,-0.006969254,1,0.002518003,1,0.452401578,1,-0.530754924,1,1.939656734,1
0.147997186,-4.496179581,1,-3.311895847,1,-8.107927322,1,0.006325185,1,-0.005191803,1,0.000329819,1,0.450991958,1,-0.529199302,1,1.941046357,1
0.151995137,-4.474376678,1,-3.287938833,1,-8.097223282,1,0.003748756,1,-0.008570615,1,0.004693602,1,0.451124609,1,-0.529296935,1,1.939571857,1
0.155994624,-4.464036465,1,-3.263716459,1,-8.094330788,1,0.006237097,1,-0.007814232,1,0.005839176,1,0.451152712,1,-0.529330492,1,1.939577699,1
0.15999642,-4.479743004,1,-3.304436684,1,-8.120742798,1,0.007174937,1,-0.004680682,1,0.005710447,1,0.451170951,1,-0.529359937,1,1.939586282,1
0.163994119,-4.466756821,1,-3.269181013,1,-8.108895302,1,0.006446846,1,-0.005277599,1,0.002399041,1,0.451194018,1,-0.529389739,1,1.939590335,1
0.167999744,-4.490525246,1,-3.263519287,1,-8.077181816,1,0.002433997,1,-0.010045102,1,0.001196644,1,0.451210976,1,-0.529420674,1,1.939591408,1
0.172001541,-4.470720291,1,-3.248669863,1,-8.079041481,1,0.006359265,1,-0.003726385,1,0.006911517,1,0.451232433,1,-0.529445529,1,1.939587116,1
0.175999239,-4.475335121,1,-3.279863596,1,-8.107461929,1,0.005586788,1,-0.005831705,1,0.002968271,1,0.451249331,1,-0.529466212,1,1.939595699,1
0.179998726,-4.514485836,1,-3.262876034,1,-8.07469368,1,0.004927781,1,-0.000775995,1,0.003003029,1,0.451273471,1,-0.52948004,1,1.939591765,1
0.184000254,-4.507099628,1,-3.25099659,1,-8.086606026,1,0.007105971,1,-0.00661987,1,0.002369215,1,0.451300144,1,-0.529493332,1,1.939598799,1
0.187997952,-4.465557098,1,-3.238088369,1,-8.09803772,1,0.006538004,1,-0.003810572,1,0.002831677,1,0.451320857,1,-0.529515326,1,1.939601183,1
0.191997692,-4.458554745,1,-3.268538952,1,-8.128911972,1,0.009728301,1,-0.003202798,1,0.00153894,1,0.451353014,1,-0.52952975,1,1.939604044,1
0.195999235,-4.45773077,1,-3.281623602,1,-8.111252785,1,0.009947315,1,-0.002389428,1,0.000215121,1,0.451393068,1,-0.529545963,1,1.93959856,1
0.199996933,-4.488199711,1,-3.2565341,1,-8.142144203,1,0.011899682,1,-0.00534,1,0.00204151,1,0.451422662,1,-0.529566109,1,1.93959868,1
0.203996673,-4.476694107,1,-3.257291317,1,-8.110578537,1,0.005811101,1,-0.006858616,1,0.000633005,1,0.45146215,1,-0.529587388,1,1.939584017,1
0.207998469,-4.493199825,1,-3.263058901,1,-8.092116356,1,0.009229027,1,-0.002189844,1,0.001500395,1,0.451492965,1,-0.529610991,1,1.939587831,1
0.211996153,-4.486485004,1,-3.252477646,1,-8.152366638,1,0.011290787,1,-0.002661664,1,-0.001755029,1,0.451537579,1,-0.529621124,1,1.93957901,1
0.215995908,-4.47494936,1,-3.270645618,1,-8.116869926,1,0.008173315,1,-0.001123025,1,0.001726346,1,0.451582342,1,-0.529633403,1,1.939573765,1
0.219997436,-4.497888565,1,-3.252443552,1,-8.1509161,1,0.008503627,1,-0.00456129,1,-0.002444377,1,0.451629043,1,-0.529653072,1,1.939564943,1
0.223995134,-4.472917557,1,-3.261463404,1,-8.079543114,1,0.009754943,1,-0.00515533,1,0.000904094,1,0.45168072,1,-0.529667497,1,1.939543843,1
0.227994621,-4.456189156,1,-3.281689882,1,-8.097742081,1,0.008621676,1,-0.006891844,1,-0.002683013,1,0.451724559,1,-0.529688776,1,1.939532161,1
0.231996164,-4.461177826,1,-3.302706003,1,-8.095708847,1,0.014095897,1,-0.004457238,1,-0.000383292,1,0.45177564,1,-0.529703259,1,1.939525008,1
0.235993862,-4.50301075,1,-3.291744471,1,-8.120798111,1,0.010507081,1,-0.004892832,1,0.0005761,1,0.451833814,1,-0.52971822,1,1.939512014,1
0.239993349,-4.454066753,1,-3.298160076,1,-8.091561317,1,0.008912219,1,-0.002832531,1,3.14E-05,1,0.451878667,1,-0.529733896,1,1.939509749,1
0.24399513,-4.470184803,1,-3.324645519,1,-8.096358299,1,0.010162618,1,-0.003022696,1,0.002761716,1,0.451923162,1,-0.529741347,1,1.93950367,1
0.247993082,-4.441884995,1,-3.324765921,1,-8.091535568,1,0.010283491,1,-0.003436171,1,-0.002163545,1,0.45196563,1,-0.529755592,1,1.939498305,1
0.251992583,-4.429090023,1,-3.331651688,1,-8.098844528,1,0.008229394,1,-0.006332458,1,0.002929983,1,0.452008188,1,-0.529779196,1,1.939487338,1
0.25599438,-4.464977264,1,-3.325875759,1,-8.083204269,1,0.01022326,1,-0.007303237,1,0.001067248,1,0.452039599,1,-0.529801607,1,1.939489007,1
0.259992063,-4.488329887,1,-3.321982384,1,-8.121764183,1,0.003919537,1,-0.004881833,1,0.001861078,1,0.452075422,1,-0.529821038,1,1.939479351,1
0.263991565,-4.48024559,1,-3.266143084,1,-8.095375061,1,0.008504201,1,-0.006407045,1,0.001422603,1,0.452098966,1,-0.529844701,1,1.939477444,1
0.267993331,-4.485932827,1,-3.29308176,1,-8.087162971,1,0.005111378,1,-0.003964593,1,0.004893771,1,0.452127218,1,-0.529863238,1,1.939484835,1
0.271991044,-4.475456715,1,-3.28331089,1,-8.100253105,1,0.003894964,1,-0.004662315,1,0.00197955,1,0.452143252,1,-0.529881477,1,1.939487219,1
0.275990784,-4.435968876,1,-3.29350996,1,-8.113248825,1,0.009278331,1,-0.003538248,1,0.003781257,1,0.452159673,1,-0.529902339,1,1.939492464,1
0.279992312,-4.46548605,1,-3.269252539,1,-8.089367867,1,0.001175978,1,-0.003926254,1,0.003305178,1,0.452180743,1,-0.529925823,1,1.939496517,1
0.283990026,-4.452396393,1,-3.258437634,1,-8.082479477,1,0.006443989,1,-0.008321582,1,0.001717609,1,0.452196538,1,-0.529946208,1,1.939501047,1
0.287995905,-4.478228569,1,-3.251988173,1,-8.135156631,1,0.004379761,1,-0.003732871,1,0.004426859,1,0.452216208,1,-0.529978514,1,1.939500928,1
0.291997939,-4.487597942,1,-3.265910149,1,-8.093482971,1,0.002464103,1,-0.004504725,1,0.004037419,1,0.452237129,1,-0.530004799,1,1.939505816,1
0.295995891,-4.495203972,1,-3.282123327,1,-8.095086098,1,0.005645433,1,-0.004175476,1,0.000924996,1,0.452257186,1,-0.530026674,1,1.93951416,1
0.299995393,-4.443451405,1,-3.268679857,1,-8.105164528,1,0.006277381,1,-0.004579116,1,0.00374039,1,0.452277184,1,-0.530051827,1,1.939512014,1
0.303996921,-4.445508003,1,-3.280917406,1,-8.142306328,1,0.006934858,1,-0.008106656,1,0.004758975,1,0.452304095,1,-0.530079007,1,1.93951416,1
0.307994366,-4.481482506,1,-3.298309803,1,-8.11713028,1,0.009602211,1,-0.006172686,1,0.002942373,1,0.452332079,1,-0.53011328,1,1.939511061,1
0.311994106,-4.44345808,1,-3.26937747,1,-8.118658066,1,0.004058432,1,-0.006541013,1,0.000524518,1,0.452366054,1,-0.530134678,1,1.939502478,1
0.315995634,-4.470154762,1,-3.275352955,1,-8.089466095,1,0.007806309,1,-0.011185794,1,0.001967617,1,0.45239836,1,-0.530173063,1,1.939498544,1
0.319993347,-4.47411871,1,-3.290628433,1,-8.08920002,1,0.006030513,1,-0.005711799,1,0.002755059,1,0.452432275,1,-0.530201852,1,1.939487696,1
0.323992819,-4.463865757,1,-3.280231953,1,-8.113162041,1,0.008272011,1,-0.008339076,1,-0.000204733,1,0.452463955,1,-0.530238628,1,1.939484596,1
0.327994376,-4.480964184,1,-3.279577971,1,-8.077757835,1,0.009635052,1,-0.005801955,1,0.004187444,1,0.452494055,1,-0.530266762,1,1.939479351,1
0.33199206,-4.502092361,1,-3.274832726,1,-8.096146584,1,0.007983355,1,-0.008818653,1,0.000921698,1,0.452527523,1,-0.530293345,1,1.939478397,1
0.3359918,-4.48880434,1,-3.257469177,1,-8.099895477,1,0.008039994,1,-0.007342785,1,0.003548709,1,0.452564687,1,-0.530326128,1,1.939474463,1
0.339993596,-4.496432781,1,-3.270510674,1,-8.084972382,1,0.010448152,1,-0.007139933,1,0.000232967,1,0.452599406,1,-0.530354202,1,1.939476371,1
0.343991309,-4.472534657,1,-3.288649321,1,-8.104470253,1,0.008869374,1,-0.007180796,1,0.005349202,1,0.452643842,1,-0.530380309,1,1.939463615,1
0.347990781,-4.44940424,1,-3.276912928,1,-8.097439766,1,0.010858097,1,-0.00529644,1,-0.001747889,1,0.452686876,1,-0.530401528,1,1.939459682,1
0.351992577,-4.470922947,1,-3.313619614,1,-8.120285988,1,0.010856736,1,-0.00601825,1,-2.34E-05,1,0.452722311,1,-0.530422509,1,1.939454794,1
0.355990261,-4.466603756,1,-3.337440729,1,-8.095592499,1,0.007330009,1,-0.006728359,1,0.00237547,1,0.452778637,1,-0.530445397,1,1.939429998,1
0.359989762,-4.468263149,1,-3.319805384,1,-8.106593132,1,0.004154471,1,-0.003899868,1,0.005578167,1,0.452805609,1,-0.530471921,1,1.939433098,1
0.363991559,-4.474275112,1,-3.291888952,1,-8.105520248,1,0.009542763,1,-0.005761458,1,0.000772053,1,0.452840418,1,-0.530496061,1,1.93943429,1
0.367989242,-4.471184254,1,-3.304229498,1,-8.124671936,1,0.004798782,1,-0.003253059,1,0.003766607,1,0.452869445,1,-0.530518055,1,1.939430714,1
0.371988982,-4.469826698,1,-3.287896395,1,-8.104429245,1,0.011768741,1,-0.003047691,1,0.000933116,1,0.452899873,1,-0.530539691,1,1.939432025,1
0.37599054,-4.443486214,1,-3.288711786,1,-8.111717224,1,0.001981892,1,-0.006849553,1,0.004107323,1,0.452919513,1,-0.530563354,1,1.939433813,1
0.379988223,-4.445669174,1,-3.288154125,1,-8.107113838,1,0.003860611,1,-0.006409677,1,0.004006132,1,0.452934265,1,-0.530601799,1,1.939444065,1
0.383987963,-4.457714558,1,-3.288840055,1,-8.115338326,1,0.002909867,1,-0.005257273,1,0.005164507,1,0.452949882,1,-0.530624866,1,1.939448953,1
0.387989491,-4.483728886,1,-3.309273481,1,-8.099906921,1,0.004552011,1,-0.007111018,1,0.004735827,1,0.452966332,1,-0.530656695,1,1.939457417,1
0.391987205,-4.472498894,1,-3.258256435,1,-8.106920242,1,0.004259428,1,-0.004128354,1,0.003093446,1,0.45298329,1,-0.530684471,1,1.939457893,1
0.395986676,-4.473079681,1,-3.274465322,1,-8.073394775,1,0.007232035,1,-0.00514287,1,0.004692949,1,0.453002959,1,-0.53071481,1,1.939465284,1
0.399988234,-4.455580711,1,-3.278164387,1,-8.1114254,1,0.006375208,1,-0.006442561,1,-0.002031174,1,0.451721609,1,-0.52922833,1,1.939361811,1
0.403985918,-4.471372128,1,-3.278418779,1,-8.086880684,1,0.00540227,1,-0.00693548,1,0.002684755,1,0.451748133,1,-0.529254675,1,1.939364433,1
0.407991558,-4.4713974,1,-3.264954567,1,-8.105735779,1,0.006991646,1,-0.000718618,1,0.002426415,1,0.451771259,1,-0.529281855,1,1.939366102,1
0.411993086,-4.440732002,1,-3.263280153,1,-8.11757946,1,0.008825543,1,-0.007436731,1,0.00171788,1,0.451797396,1,-0.529299796,1,1.939369321,1
0.41599077,-4.441043377,1,-3.300188303,1,-8.111948013,1,0.00920412,1,-0.003646706,1,0.005250816,1,0.451829433,1,-0.529330254,1,1.939364552,1
0.419990271,-4.443925858,1,-3.309708118,1,-8.117272377,1,0.008428772,1,-0.008342716,1,-0.000640578,1,0.451860219,1,-0.52935487,1,1.939366341,1
0.423992842,-4.454584122,1,-3.298625946,1,-8.109106064,1,0.007303842,1,-0.009218324,1,0.004360458,1,0.451894045,1,-0.529393852,1,1.939359426,1
0.427991539,-4.437045574,1,-3.290810823,1,-8.117678642,1,0.006374992,1,-0.007772134,1,0.000997065,1,0.451916009,1,-0.529424667,1,1.939354658,1
0.431991041,-4.460053444,1,-3.277972221,1,-8.108668327,1,0.008413808,1,-0.008448897,1,0.00230772,1,0.451949447,1,-0.529465199,1,1.939348936,1
0.435992837,-4.465616703,1,-3.286014318,1,-8.101338387,1,0.011052704,1,-0.010102743,1,0.005453843,1,0.451983958,1,-0.529504478,1,1.939342499,1
0.439990789,-4.505066395,1,-3.290425062,1,-8.110771179,1,0.009324895,1,-0.006446194,1,0.0014832,1,0.452017456,1,-0.529545426,1,1.939341664,1
0.44399026,-4.472653866,1,-3.256205559,1,-8.135704994,1,0.005462261,1,-0.012006024,1,0.006883514,1,0.452052534,1,-0.529587567,1,1.939336896,1
0.447992057,-4.486636162,1,-3.270492077,1,-8.095506668,1,0.007147088,1,-0.006162948,1,0.006090017,1,0.452078879,1,-0.529621303,1,1.93933785,1
0.45198977,-4.471020699,1,-3.279323578,1,-8.098155975,1,0.010193946,1,-0.006536896,1,0.004833988,1,0.452108175,1,-0.52965337,1,1.939337254,1
0.455989242,-4.441396713,1,-3.284345388,1,-8.066965103,1,0.008580142,1,-0.009379509,1,0.002323831,1,0.452148914,1,-0.529682517,1,1.939331651,1
0.459991038,-4.474144459,1,-3.30774045,1,-8.108221054,1,0.007548285,1,-0.005024792,1,0.003083915,1,0.452174157,1,-0.529715836,1,1.939332485,1
0.463988721,-4.491711617,1,-3.26941514,1,-8.077250481,1,0.00694738,1,-0.001776237,1,0.000555655,1,0.452207625,1,-0.529730678,1,1.939325333,1
0.467988491,-4.469923973,1,-3.27578783,1,-8.078792572,1,0.009032813,1,-0.004723394,1,0.002492743,1,0.452239275,1,-0.529747486,1,1.939320683,1
0.471990019,-4.454912663,1,-3.299625397,1,-8.059386253,1,0.008039741,1,0.001178908,1,0.001091213,1,0.452270985,1,-0.529761732,1,1.93932879,1
0.475987703,-4.47198534,1,-3.309640408,1,-8.071154594,1,0.005607193,1,-0.004788276,1,0.005118167,1,0.45229429,1,-0.529775679,1,1.939331055,1
0.479987442,-4.462119579,1,-3.280488968,1,-8.100255966,1,0.006435434,1,0.00059617,1,-9.46E-05,1,0.452313751,1,-0.529789984,1,1.939338565,1
0.483989239,-4.440877438,1,-3.283414841,1,-8.102791786,1,0.008089702,1,-0.006646937,1,0.000945014,1,0.452341318,1,-0.529806435,1,1.939340472,1
0.487986952,-4.458321095,1,-3.264372349,1,-8.116020203,1,0.00313958,1,-0.002056966,1,0.004686459,1,0.4523682,1,-0.529827237,1,1.939342022,1
0.491986692,-4.451751709,1,-3.283143997,1,-8.111598969,1,0.002501638,1,-0.004136629,1,0.00435831,1,0.452385962,1,-0.52984798,1,1.939352632,1
0.495988488,-4.50357008,1,-3.289361238,1,-8.093631744,1,0.004578195,1,-0.006215587,1,0.005969615,1,0.452408224,1,-0.529872656,1,1.939355254,1
0.49998644,-4.507009983,1,-3.261879921,1,-8.083864212,1,0.009486903,1,-0.004636415,1,0.004334982,1,0.452429533,1,-0.529896379,1,1.939360857,1
0.503986418,-4.46760273,1,-3.293904781,1,-8.127985001,1,0.002857021,1,-0.00739165,1,0.003204418,1,0.452448577,1,-0.529915094,1,1.939365149,1
0.507988214,-4.481686115,1,-3.273138523,1,-8.105319023,1,0.005708278,1,-0.005335642,1,0.003984029,1,0.452467173,1,-0.529941916,1,1.939375281,1
0.511986196,-4.480351448,1,-3.305502176,1,-8.091584206,1,0.003954039,1,-0.004858168,1,0.003670884,1,0.452485442,1,-0.529969573,1,1.939382911,1
0.515985668,-4.497880936,1,-3.298251867,1,-8.117560387,1,0.00630804,1,-0.003385512,1,0.003512474,1,0.452507168,1,-0.529985905,1,1.939380288,1
0.519987226,-4.452413082,1,-3.313490868,1,-8.11902523,1,0.004721843,1,-0.007101136,1,0.002038128,1,0.452537477,1,-0.530015588,1,1.939375401,1
0.523984909,-4.490201473,1,-3.315325737,1,-8.108887672,1,0.004596047,1,-0.006826315,1,0.004057406,1,0.452557147,1,-0.530039549,1,1.939378738,1
0.52799052,-4.472493649,1,-3.303832769,1,-8.087035179,1,0.009439992,1,-0.0077915,1,0.003691037,1,0.452576637,1,-0.530065596,1,1.939377785,1
0.531992316,-4.453093529,1,-3.328016281,1,-8.118307114,1,0.003099973,1,-0.002615112,1,0.001023091,1,0.452607095,1,-0.53009671,1,1.939382911,1
0.53599,-4.468727112,1,-3.291159153,1,-8.102013588,1,0.00459417,1,-0.007594388,1,0.006070252,1,0.452621877,1,-0.530122042,1,1.939391255,1
0.539989531,-4.48009491,1,-3.288512468,1,-8.088467598,1,0.007534257,1,-0.007538276,1,0.003087227,1,0.452636123,1,-0.530158818,1,1.93939817,1
0.543991566,-4.487210274,1,-3.301765203,1,-8.109577179,1,0.004204647,1,-0.008898661,1,0.003309458,1,0.452656031,1,-0.530191302,1,1.93940115,1
0.547989488,-4.47192955,1,-3.298561096,1,-8.070086479,1,-0.000511888,1,-0.003391155,1,0.006814463,1,0.452660143,1,-0.530221164,1,1.939412594,1
0.551989019,-4.478093624,1,-3.290526867,1,-8.107980728,1,0.002847787,1,-0.008751944,1,0.003882036,1,0.45266223,1,-0.530251741,1,1.939432144,1
0.555990517,-4.498530865,1,-3.309014797,1,-8.103735924,1,0.000163641,1,-0.003727181,1,0.009630769,1,0.452669472,1,-0.530288637,1,1.939439178,1
0.559988201,-4.471005917,1,-3.296163082,1,-8.093214035,1,0.004043388,1,-0.004136407,1,0.005960346,1,0.452667505,1,-0.530315936,1,1.93946147,1
0.56398797,-4.476601124,1,-3.319791555,1,-8.063220978,1,0.001472323,1,-0.002526423,1,0.006717295,1,0.452670068,1,-0.530338526,1,1.939480066,1
0.567989767,-4.518540859,1,-3.297425747,1,-8.075762749,1,0.001400495,1,-0.003500557,1,0.005756114,1,0.452661723,1,-0.530361772,1,1.939500451,1
0.57198745,-4.442537785,1,-3.291009188,1,-8.071046829,1,0.001551311,1,-0.005911045,1,0.007756665,1,0.452661753,1,-0.530391932,1,1.939517975,1
0.57598722,-4.459615707,1,-3.284502983,1,-8.102050781,1,0.000350521,1,-0.003240235,1,0.006885226,1,0.452649206,1,-0.530417144,1,1.939546704,1
0.579989016,-4.462219238,1,-3.304294348,1,-8.117499352,1,-0.000928802,1,-0.006367029,1,0.008565035,1,0.452631593,1,-0.530452311,1,1.939571023,1
0.5839867,-4.493329048,1,-3.303693533,1,-8.101016045,1,0.002734757,1,-0.007723307,1,0.01009878,1,0.452628762,1,-0.530489445,1,1.939590573,1
0.58798641,-4.489253521,1,-3.300906658,1,-8.087655067,1,0.000119969,1,-0.003322948,1,0.01262689,1,0.452613235,1,-0.530528963,1,1.93962121,1
0.591987967,-4.465059757,1,-3.301216602,1,-8.07946682,1,-0.001397662,1,-0.002488507,1,0.012938341,1,0.452586979,1,-0.530554891,1,1.939664125,1
0.595985949,-4.457275391,1,-3.331795931,1,-8.12462616,1,-0.004302875,1,-0.004714588,1,0.014264401,1,0.452553183,1,-0.530592322,1,1.939708352,1
0.599985421,-4.472080231,1,-3.317806721,1,-8.122139931,1,-0.003195184,1,-0.002843759,1,0.01017968,1,0.452522039,1,-0.530623078,1,1.939747453,1
0.603986919,-4.437333107,1,-3.339912653,1,-8.119359016,1,-0.004763149,1,-0.004179088,1,0.016151324,1,0.452479184,1,-0.530658722,1,1.939797401,1
0.607984662,-4.504405975,1,-3.35428381,1,-8.104464531,1,-0.006561531,1,-0.005390012,1,0.011545379,1,0.45242843,1,-0.53070426,1,1.939845085,1
0.611984134,-4.447505951,1,-3.351617813,1,-8.060975075,1,-0.006492122,1,-0.007705337,1,0.016052105,1,0.45238781,1,-0.530751169,1,1.939894199,1
0.615985692,-4.500324249,1,-3.349267244,1,-8.07720089,1,-0.0104579,1,-0.00648296,1,0.017355477,1,0.452324361,1,-0.530807018,1,1.939953685,1
0.619983375,-4.473566532,1,-3.319117069,1,-8.086328506,1,-0.011022252,1,-0.007655222,1,0.021868829,1,0.452256531,1,-0.53086257,1,1.94001317,1
0.623982847,-4.42577076,1,-3.298702002,1,-8.113536835,1,-0.014258687,1,-0.010739342,1,0.016844215,1,0.452179462,1,-0.530915618,1,1.940077901,1
0.627984643,-4.44496727,1,-3.282840729,1,-8.100026131,1,-0.012083329,1,-0.004951439,1,0.019600499,1,0.45209083,1,-0.530974984,1,1.940145135,1
0.631982327,-4.445445538,1,-3.271042347,1,-8.128764153,1,-0.014969445,1,-0.005806162,1,0.02248819,1,0.452008307,1,-0.531037688,1,1.940216899,1
0.635981798,-4.481877327,1,-3.285217285,1,-8.097132683,1,-0.013177776,1,-0.002798986,1,0.016574334,1,0.451911271,1,-0.5310992,1,1.940297008,1
0.639983594,-4.466594696,1,-3.244378567,1,-8.095288277,1,-0.011708606,1,-0.008343901,1,0.01928846,1,0.451833189,1,-0.531152129,1,1.94036305,1
0.643981338,-4.462406158,1,-3.242060661,1,-8.103673935,1,-0.012419862,1,-0.005052474,1,0.020485766,1,0.451746702,1,-0.531214297,1,1.94043088,1
0.647981584,-4.486776829,1,-3.214532852,1,-8.087755203,1,-0.00934559,1,-0.008234143,1,0.020317597,1,0.450280577,1,-0.529693365,1,1.941886544,1
0.651989222,-4.480924129,1,-3.205637217,1,-8.074737549,1,-0.007280325,1,-0.005223274,1,0.016873298,1,0.450322211,1,-0.529808164,1,1.94046855,1
0.655993104,-4.473011494,1,-3.216976881,1,-8.066235542,1,-0.007967019,1,-0.001477574,1,0.016676914,1,0.450252563,1,-0.529856145,1,1.940536499,1
0.659993112,-4.527799129,1,-3.22123909,1,-8.096217155,1,-0.009286013,1,-0.002080698,1,0.016201476,1,0.450192094,1,-0.529896915,1,1.940597892,1
0.663994908,-4.490323067,1,-3.260888577,1,-8.062887192,1,-0.005014677,1,0.001020602,1,0.014310901,1,0.450125158,1,-0.529915869,1,1.940665841,1
0.667992592,-4.476482868,1,-3.247601032,1,-8.093630791,1,-0.006762185,1,-0.001963517,1,0.020358661,1,0.45007211,1,-0.529944897,1,1.940734029,1
0.671992302,-4.472714424,1,-3.231881618,1,-8.147652626,1,-0.004540412,1,0.001380015,1,0.007839807,1,0.450021684,1,-0.52996695,1,1.940790296,1
0.675994098,-4.483333111,1,-3.171399117,1,-8.120092392,1,-0.000944356,1,0.001912485,1,0.009409011,1,0.449992955,1,-0.529990613,1,1.940828443,1
0.679991782,-4.514715195,1,-3.165994883,1,-8.109423637,1,0.001745284,1,-0.000518683,1,0.005032295,1,0.449966431,1,-0.530006647,1,1.940859795,1
0.683991313,-4.554443359,1,-3.179902077,1,-8.13079071,1,-0.000512524,1,0.000493777,1,0.006406585,1,0.449952662,1,-0.530024529,1,1.940896273,1
0.687992811,-4.530065536,1,-3.194516182,1,-8.128316879,1,0.003361195,1,-0.000508616,1,0.005216242,1,0.449954093,1,-0.530032396,1,1.940907955,1
0.691990554,-4.43537569,1,-3.205340147,1,-8.129069328,1,0.008121133,1,-0.001603705,1,0.000301994,1,0.449972481,1,-0.53003794,1,1.940919638,1
0.695990264,-4.431362152,1,-3.194304705,1,-8.161973,1,0.006465764,1,-0.00530231,1,0.003196121,1,0.449994773,1,-0.530050278,1,1.940927505,1
0.699991822,-4.479464531,1,-3.250039101,1,-8.101942062,1,0.009147612,1,-0.001033284,1,-0.002328926,1,0.450029612,1,-0.530062258,1,1.940915823,1
0.703989506,-4.429585934,1,-3.257040977,1,-8.070881844,1,0.007902699,1,-0.005723752,1,0.000514701,1,0.450060725,1,-0.530074954,1,1.940917492,1
0.707988977,-4.45843029,1,-3.262629509,1,-8.080574989,1,0.005791095,1,-0.005100202,1,0.000467452,1,0.450096965,1,-0.530095518,1,1.940915346,1
0.711990535,-4.485433102,1,-3.28916955,1,-8.10686779,1,0.006003564,1,-0.005667928,1,-0.000622252,1,0.45013684,1,-0.530108988,1,1.940898418,1
0.715988219,-4.478696346,1,-3.27248311,1,-8.084536552,1,0.007660645,1,0.000484674,1,-0.001059099,1,0.450164557,1,-0.530123949,1,1.940902114,1
0.71998769,-4.479117393,1,-3.227677584,1,-8.102621078,1,0.007051009,1,-0.003028617,1,0.000553768,1,0.450197518,1,-0.530138493,1,1.940894127,1
0.723989785,-4.508616924,1,-3.246704102,1,-8.099510193,1,0.0077458,1,-0.003837849,1,-0.003152965,1,0.45023185,1,-0.530146539,1,1.940885067,1
0.727987945,-4.493110657,1,-3.24972105,1,-8.078772545,1,0.009447085,1,-0.001960873,1,-0.002356488,1,0.45026359,1,-0.530145824,1,1.940880299,1
0.731987476,-4.46160984,1,-3.215227365,1,-8.080161095,1,0.008591034,1,0.000707344,1,-0.001608159,1,0.450307012,1,-0.530138671,1,1.940871835,1
0.735989273,-4.439083099,1,-3.24831295,1,-8.091300011,1,0.011865466,1,-0.000894542,1,-0.001298291,1,0.450356781,1,-0.530137002,1,1.940863967,1
0.739986956,-4.414131165,1,-3.273994923,1,-8.093306541,1,0.010991615,1,-0.002137086,1,-0.004836131,1,0.450402021,1,-0.530128419,1,1.940857887,1
0.743986428,-4.429866791,1,-3.273023129,1,-8.085467339,1,0.010807912,1,-0.000415735,1,0.000542394,1,0.450450301,1,-0.530131936,1,1.94084692,1
0.747988224,-4.479673862,1,-3.249215126,1,-8.114019394,1,0.010527163,1,-0.001335618,1,-0.002769508,1,0.450503618,1,-0.530127227,1,1.940836906,1
0.751985908,-4.515697002,1,-3.240367651,1,-8.100782394,1,0.013269987,1,0.000426941,1,-0.001792855,1,0.450562567,1,-0.530126631,1,1.940822363,1
0.755985677,-4.502989292,1,-3.264701128,1,-8.096306801,1,0.012736022,1,-0.002691867,1,-0.002616063,1,0.450617135,1,-0.530124485,1,1.940810323,1
0.759987175,-4.495570183,1,-3.247914791,1,-8.0949049,1,0.009273605,1,-0.001080826,1,-0.008981252,1,0.450674087,1,-0.530122459,1,1.940793633,1
0.763984919,-4.44781208,1,-3.276395559,1,-8.127614975,1,0.015043679,1,0.001726405,1,-0.000912004,1,0.450733364,1,-0.530111134,1,1.94077611,1
0.767984629,-4.478518963,1,-3.254050732,1,-8.143022537,1,0.011461539,1,-0.00221327,1,-0.001553211,1,0.450787663,1,-0.530108035,1,1.940767407,1
0.771992326,-4.483387947,1,-3.233326674,1,-8.117004395,1,0.012965865,1,0.001125592,1,-0.004383476,1,0.450853407,1,-0.530104876,1,1.940744877,1
0.77599591,-4.514289379,1,-3.244106054,1,-8.11991024,1,0.012053005,1,-0.001216926,1,-0.002496989,1,0.450912327,1,-0.530110478,1,1.94072926,1
0.779995918,-4.439899445,1,-3.219339132,1,-8.075248718,1,0.013716898,1,0.001477184,1,-0.004799182,1,0.450971365,1,-0.530106425,1,1.940711856,1
0.783997416,-4.497997284,1,-3.260279417,1,-8.06540966,1,0.012772148,1,0.001150348,1,-0.005470299,1,0.451037109,1,-0.530099094,1,1.940690279,1
0.78799516,-4.458264828,1,-3.244459629,1,-8.083899498,1,0.012970492,1,0.001603692,1,-0.0062646,1,0.45110926,1,-0.530088961,1,1.940668821,1
0.791995645,-4.443132877,1,-3.247601509,1,-8.118130684,1,0.019913921,1,-0.001706617,1,-0.008792419,1,0.451188654,1,-0.53007406,1,1.940641046,1
0.795997202,-4.37655592,1,-3.266573906,1,-8.072610855,1,0.013407026,1,-0.001048869,1,-0.007435865,1,0.451261938,1,-0.530064344,1,1.940614462,1
0.799995124,-4.486257553,1,-3.259565353,1,-8.103495598,1,0.015609173,1,0.002674464,1,-0.005050168,1,0.451334655,1,-0.530048072,1,1.940589786,1
0.803994596,-4.520021915,1,-3.300131083,1,-8.108416557,1,0.013097527,1,0.002499276,1,-0.003087016,1,0.451410681,1,-0.530038357,1,1.940565348,1
0.807996154,-4.509149551,1,-3.319088221,1,-8.107964516,1,0.013798151,1,-0.000824062,1,-0.006435372,1,0.451479673,1,-0.530034482,1,1.940540552,1
0.811993837,-4.484274864,1,-3.259236097,1,-8.093400002,1,0.015974022,1,0.000531551,1,-0.00619507,1,0.451554716,1,-0.530029118,1,1.940521002,1
0.815993369,-4.512550354,1,-3.26534009,1,-8.116174698,1,0.014081507,1,-0.002308852,1,-0.006378207,1,0.451625735,1,-0.530021071,1,1.940501094,1
0.819995165,-4.50601244,1,-3.266577482,1,-8.101594925,1,0.015408817,1,0.00260165,1,-0.004718781,1,0.451694638,1,-0.530002713,1,1.940477133,1
0.823992848,-4.451480865,1,-3.260939598,1,-8.120335579,1,0.017264385,1,0.004571653,1,-0.008001709,1,0.451766789,1,-0.529990196,1,1.940460682,1
0.82799232,-4.485963345,1,-3.264108419,1,-8.112576485,1,0.017534275,1,-0.000639651,1,-0.009457973,1,0.451847494,1,-0.529975474,1,1.940432906,1
0.831994116,-4.458476067,1,-3.270145655,1,-8.148266792,1,0.019297138,1,-0.000771961,1,-0.003398893,1,0.451936364,1,-0.529964566,1,1.94040978,1
0.8359918,-4.446543217,1,-3.278968811,1,-8.149960518,1,0.019029817,1,-0.002128199,1,-0.008199431,1,0.452018887,1,-0.529957414,1,1.940385818,1
0.839991271,-4.457363605,1,-3.270800352,1,-8.13194561,1,0.021755388,1,-0.005086962,1,-0.005882766,1,0.45211032,1,-0.529960752,1,1.940358043,1
0.843993068,-4.491929054,1,-3.261474371,1,-8.180095673,1,0.018057125,1,-0.005590885,1,-0.005079679,1,0.452201784,1,-0.529963076,1,1.94032526,1
0.847990811,-4.470509529,1,-3.256082058,1,-8.12359333,1,0.019657919,1,-0.00469546,1,-0.00803878,1,0.452293068,1,-0.529975355,1,1.940292597,1
0.851990521,-4.49855423,1,-3.234204054,1,-8.123058319,1,0.021470737,1,-0.006396259,1,-0.003676632,1,0.452392668,1,-0.529980898,1,1.940257311,1
0.855992079,-4.462017059,1,-3.265007019,1,-8.141242981,1,0.018232014,1,-0.00365315,1,-0.00890117,1,0.452490985,1,-0.529989004,1,1.940222025,1
0.859989762,-4.439819336,1,-3.270927668,1,-8.157676697,1,0.018439215,1,-0.006612571,1,-0.007835342,1,0.452594906,1,-0.529996812,1,1.940182686,1
0.863989532,-4.451957226,1,-3.287600517,1,-8.13941288,1,0.025303986,1,-0.007056594,1,-0.006372433,1,0.452697575,1,-0.530010164,1,1.940141201,1
0.867991269,-4.472999096,1,-3.303614616,1,-8.092074394,1,0.020663137,1,-0.007502771,1,-0.003509924,1,0.452802122,1,-0.530026197,1,1.940099001,1
0.871989012,-4.495091438,1,-3.292763472,1,-8.06735611,1,0.02028217,1,-0.004724277,1,-0.004688426,1,0.452897847,1,-0.530037165,1,1.94006753,1
0.875988722,-4.479214191,1,-3.309838057,1,-8.065013885,1,0.021065971,1,-0.003393065,1,-0.009132762,1,0.452993155,1,-0.530039847,1,1.940034151,1
0.87999028,-4.496128082,1,-3.289989948,1,-8.087893486,1,0.016699374,1,-0.003217902,1,-0.005089509,1,0.453077525,1,-0.530048072,1,1.94000268,1
0.883987963,-4.460752964,1,-3.30317831,1,-8.071164131,1,0.012978693,1,-0.003542105,1,-0.004662014,1,0.453156352,1,-0.530049145,1,1.939971089,1
0.887987435,-4.454786301,1,-3.272247314,1,-8.069905281,1,0.014523894,1,-0.001308715,1,-0.008454022,1,0.453229249,1,-0.530042529,1,1.939943194,1
0.891995132,-4.451102734,1,-3.248865128,1,-8.087644577,1,0.017244294,1,-0.000986096,1,-0.00828639,1,0.45330435,1,-0.530029655,1,1.939922333,1
0.895998955,-4.450306892,1,-3.254898071,1,-8.10538578,1,0.0163977,1,-0.000310912,1,-0.008971618,1,0.453384668,1,-0.530019701,1,1.939895391,1
0.899998724,-4.473292828,1,-3.291250467,1,-8.119997978,1,0.01682933,1,-0.003114908,1,-0.004859386,1,0.452126056,1,-0.528539956,1,1.939726472,1
0.904000282,-4.472434998,1,-3.271646261,1,-8.063504219,1,0.015175516,1,0.001587078,1,-0.008511785,1,0.452211559,1,-0.528524339,1,1.939695835,1
0.907997966,-4.476540565,1,-3.331275463,1,-8.099722862,1,0.015242967,1,0.001047081,1,-0.003459265,1,0.452287138,1,-0.528509557,1,1.939667344,1
0.911997437,-4.472803116,1,-3.329165936,1,-8.10368824,1,0.012916167,1,-0.002401281,1,-0.003892726,1,0.452351511,1,-0.528507054,1,1.939648032,1
0.915998995,-4.435212612,1,-3.322499752,1,-8.125074387,1,0.01267176,1,-0.001033708,1,-0.002752042,1,0.452418804,1,-0.528499067,1,1.939631343,1
0.919996679,-4.496851921,1,-3.295566559,1,-8.120752335,1,0.010414611,1,0.000586558,1,-0.002726484,1,0.452467382,1,-0.528496981,1,1.939623475,1
0.92399615,-4.459784985,1,-3.29675889,1,-8.095479012,1,0.012465498,1,0.001159913,1,-0.002226783,1,0.452532142,1,-0.528489947,1,1.93960762,1
0.927997947,-4.483243465,1,-3.274537563,1,-8.091454506,1,0.013171987,1,0.004031183,1,-0.003999426,1,0.452581793,1,-0.528482437,1,1.939602256,1
0.93199563,-4.487950325,1,-3.302134752,1,-8.111804962,1,0.014507545,1,0.004716831,1,0.001398822,1,0.452635467,1,-0.528470159,1,1.939594746,1
0.935995162,-4.415879726,1,-3.246529341,1,-8.120767593,1,0.010352673,1,0.003537435,1,-0.001862493,1,0.452682287,1,-0.528449714,1,1.939596891,1
0.939997196,-4.405274391,1,-3.273454905,1,-8.132241249,1,0.011882417,1,-0.002438567,1,-0.001101987,1,0.452738822,1,-0.528448105,1,1.939592361,1
0.943995416,-4.39121294,1,-3.309683561,1,-8.159827232,1,0.012946278,1,-0.000119871,1,-0.002256276,1,0.45279336,1,-0.528453588,1,1.93958199,1
0.947995126,-4.468448639,1,-3.305627346,1,-8.154839516,1,0.012608432,1,-0.003666234,1,-0.001552253,1,0.45285064,1,-0.528462231,1,1.939577937,1
0.951996684,-4.488727093,1,-3.283506393,1,-8.130437851,1,0.00918988,1,-0.005636252,1,-7.08E-05,1,0.452900529,1,-0.528473735,1,1.939567566,1
0.955994368,-4.471233368,1,-3.283589602,1,-8.125565529,1,0.017941721,1,-0.00034044,1,-0.003748148,1,0.452963084,1,-0.528484762,1,1.939549923,1
0.959993839,-4.455347061,1,-3.277582407,1,-8.113835335,1,0.016245998,1,-0.004980247,1,-0.003500432,1,0.453033626,1,-0.528497398,1,1.939526081,1
0.963995397,-4.48176527,1,-3.25193429,1,-8.144264221,1,0.014240632,1,-0.005371694,1,-0.004552698,1,0.45310235,1,-0.528510332,1,1.939512253,1
0.967992842,-4.449380398,1,-3.296549559,1,-8.107813835,1,0.016435917,1,-0.004446144,1,-0.002940719,1,0.453176498,1,-0.528528392,1,1.939478993,1
0.971992314,-4.474237442,1,-3.29759717,1,-8.110784531,1,0.015078786,1,-0.00587584,1,-0.002801248,1,0.453256607,1,-0.528546572,1,1.939453363,1
0.975993872,-4.450587749,1,-3.27291584,1,-8.093809128,1,0.014992804,1,-0.005064252,1,-0.005079432,1,0.453333348,1,-0.528561175,1,1.939427733,1
0.979991555,-4.460065842,1,-3.304161787,1,-8.106193542,1,0.018362094,1,-0.007671761,1,0.000279636,1,0.453421623,1,-0.528576672,1,1.939393878,1
0.983991027,-4.448493004,1,-3.311642885,1,-8.109090805,1,0.012127278,1,-0.006572393,1,-0.00441325,1,0.453490615,1,-0.528595746,1,1.939381599,1
0.987992585,-4.461032867,1,-3.318528891,1,-8.098834038,1,0.018402077,1,-0.006503937,1,-0.001507416,1,0.45356667,1,-0.528620362,1,1.939367533,1
0.991990268,-4.49561739,1,-3.335018873,1,-8.10323143,1,0.014468826,1,-0.006329469,1,0.000319578,1,0.453631103,1,-0.528642833,1,1.939343452,1
0.99598974,-4.434498787,1,-3.31699419,1,-8.078121185,1,0.011326423,1,-0.003871385,1,0.002366317,1,0.453684241,1,-0.528660774,1,1.939336896,1
0.999991298,-4.471665859,1,-3.310043097,1,-8.06672287,1,0.012655833,1,-0.004607496,1,-9.53E-05,1,0.453744829,1,-0.528678775,1,1.939331174,1
1.003988981,-4.471561432,1,-3.296027184,1,-8.081341743,1,0.013093001,1,-0.003164661,1,0.001868543,1,0.453800082,1,-0.528695405,1,1.939322233,1
1.007988691,-4.438095093,1,-3.296362162,1,-8.073831558,1,0.010688828,1,-0.003474225,1,0.000637677,1,0.453854322,1,-0.528706431,1,1.939316034,1
1.011996627,-4.446849823,1,-3.297500134,1,-8.109798431,1,0.012285185,1,-0.003147771,1,0.003683868,1,0.453905344,1,-0.528717756,1,1.939314008,1
1.016000509,-4.463440895,1,-3.320265293,1,-8.093240738,1,0.011674276,1,-0.006954687,1,0.002300742,1,0.453954935,1,-0.528737485,1,1.939321995,1
1.020000219,-4.470083714,1,-3.327458382,1,-8.104043007,1,0.01109249,1,-0.001030792,1,0.002452872,1,0.453992605,1,-0.528758407,1,1.939322352,1
1.024001837,-4.461649895,1,-3.315677643,1,-8.054332733,1,0.006229501,1,-0.002200517,1,-0.001098884,1,0.45403105,1,-0.528772235,1,1.939323664,1
1.02799952,-4.48208952,1,-3.306771517,1,-8.065036774,1,0.012944914,1,-0.000504939,1,0.002884972,1,0.454065412,1,-0.528780341,1,1.939330816,1
1.031998992,-4.476221561,1,-3.355012894,1,-8.051525116,1,0.010045975,1,0.002003592,1,0.000874665,1,0.454093456,1,-0.52877754,1,1.939344645,1
1.03600049,-4.467949867,1,-3.3413167,1,-8.124624252,1,0.008591494,1,-0.000136071,1,0.004113622,1,0.45411551,1,-0.528775871,1,1.939352274,1
1.039998174,-4.482710838,1,-3.371680975,1,-8.117949486,1,0.002634854,1,0.001678185,1,0.003551309,1,0.454131842,1,-0.528778493,1,1.939363599,1
1.043997645,-4.484294891,1,-3.355609417,1,-8.121506691,1,0.002304024,1,0.003518723,1,0.003230985,1,0.454127222,1,-0.528775096,1,1.939385772,1
1.047999263,-4.524803162,1,-3.382608175,1,-8.080742836,1,-0.004823586,1,0.000807734,1,0.008086604,1,0.454112977,1,-0.528768897,1,1.939415216,1
1.051996946,-4.471487045,1,-3.296132088,1,-8.01892662,1,0.000706883,1,0.009086576,1,0.003621105,1,0.45407778,1,-0.528760314,1,1.939450741,1
1.055996418,-4.503353119,1,-3.359276533,1,-8.018306732,1,-0.009020764,1,0.010656728,1,0.008586603,1,0.454047143,1,-0.528737962,1,1.939489722,1
1.059997916,-4.487102985,1,-3.371586084,1,-8.094051361,1,-0.008084708,1,0.010188515,1,0.004550605,1,0.454004943,1,-0.52870959,1,1.939533949,1
1.063995361,-4.490702629,1,-3.416814566,1,-8.186358452,1,-0.012032334,1,0.010685069,1,0.008287689,1,0.453932285,1,-0.52868408,1,1.93958199,1
1.067994833,-4.415087223,1,-3.452607155,1,-8.227377892,1,-0.019169759,1,0.003306103,1,0.008962062,1,0.453843713,1,-0.528670192,1,1.939632654,1
1.07199645,-4.493938446,1,-3.43598175,1,-8.252145767,1,-0.027657438,1,-0.001962199,1,0.012794975,1,0.453735024,1,-0.528681338,1,1.939673662,1
1.075993896,-4.451692104,1,-3.243145227,1,-8.16533947,1,-0.023865987,1,0.002060662,1,0.007494329,1,0.453602672,1,-0.528696239,1,1.939717531,1
1.079993367,-4.583194256,1,-3.185585737,1,-8.201087952,1,-0.026419394,1,0.00364328,1,0.009159686,1,0.453483105,1,-0.52870214,1,1.939760208,1
1.083995104,-4.540020943,1,-3.074510574,1,-8.120957375,1,-0.021298468,1,0.002991328,1,0.001944074,1,0.453361332,1,-0.528709531,1,1.939792156,1
1.087993145,-4.573064804,1,-3.187434912,1,-8.221897125,1,-0.018587254,1,0.00926875,1,0.002887251,1,0.453276634,1,-0.528693795,1,1.939819574,1
1.091992617,-4.587520123,1,-3.22907877,1,-8.174404144,1,-0.014494087,1,0.006130763,1,0.002612394,1,0.453200877,1,-0.528658569,1,1.939839125,1
1.095994115,-4.564514637,1,-3.250184536,1,-8.092051506,1,-0.011963659,1,0.012807209,1,-0.000788405,1,0.453133047,1,-0.528624475,1,1.93986094,1
1.099991798,-4.604857922,1,-3.268999338,1,-8.086071014,1,-0.015232404,1,0.020065334,1,-0.006334881,1,0.453064948,1,-0.528559268,1,1.939878702,1
1.10399127,-4.611564159,1,-3.264635563,1,-8.073862076,1,-0.01398006,1,0.02782323,1,-0.005275396,1,0.452994406,1,-0.528469443,1,1.939902544,1
1.107993126,-4.714001179,1,-3.196266651,1,-8.113370895,1,-0.016591705,1,0.026331844,1,-0.010485106,1,0.452925622,1,-0.528350949,1,1.939926863,1
1.111990809,-4.538592815,1,-3.10398674,1,-7.991030216,1,-0.012900508,1,0.040536083,1,-0.015689235,1,0.452848285,1,-0.528205872,1,1.939948678,1
1.115990281,-4.567595005,1,-3.128441811,1,-8.011501312,1,-0.00671646,1,0.042111181,1,-0.019668851,1,0.452806562,1,-0.528030872,1,1.939954758,1
1.119992018,-4.592020988,1,-3.131070852,1,-8.004607201,1,-0.004974743,1,0.054810964,1,-0.021675833,1,0.452774107,1,-0.527828455,1,1.939975619,1
1.123989701,-4.625032425,1,-3.204189301,1,-7.995801449,1,-0.008775583,1,0.058791794,1,-0.020019442,1,0.452732772,1,-0.527593195,1,1.940001965,1
1.127989292,-4.467142105,1,-3.214301825,1,-7.868219852,1,7.34E-05,1,0.068328723,1,-0.026326001,1,0.452696025,1,-0.527316153,1,1.94002986,1
1.13199687,-4.164688587,1,-3.350996494,1,-7.866360664,1,-0.004853332,1,0.061529838,1,-0.018078107,1,0.45266974,1,-0.527041614,1,1.940070033,1
1.136000514,-3.731431007,1,-3.638726234,1,-8.023768425,1,-0.00655853,1,0.045307964,1,-0.003058136,1,0.452617079,1,-0.526825786,1,1.940133333,1
1.139999986,-3.749930382,1,-3.840162992,1,-8.37142849,1,-0.008039219,1,0.026709536,1,0.004650068,1,0.452556342,1,-0.526691914,1,1.940203786,1
1.144001484,-3.876606703,1,-3.717344999,1,-8.350981712,1,-0.018024318,1,0.009060702,1,0.013709209,1,0.452458769,1,-0.526653409,1,1.940282226,1
1.147999287,-4.208908081,1,-3.644025803,1,-8.304876328,1,-0.023207929,1,-0.00237065,1,0.018440757,1,0.450960785,1,-0.525055051,1,1.941720366,1
1.151998997,-4.50223732,1,-3.617377758,1,-8.197477341,1,-0.030971214,1,-0.006605353,1,0.025218543,1,0.450918257,1,-0.525186598,1,1.9403162,1
1.156000495,-4.592776775,1,-3.488431215,1,-8.245752335,1,-0.036348354,1,-0.011664861,1,0.030949445,1,0.450723886,1,-0.52526474,1,1.940421343,1
1.159998178,-4.404693127,1,-3.344399214,1,-8.285236359,1,-0.037165128,1,-0.010779371,1,0.032593884,1,0.450513154,1,-0.525359452,1,1.94053483,1
1.163998008,-4.320524693,1,-3.205645323,1,-8.30706501,1,-0.033712786,1,-0.022751939,1,0.031187838,1,0.450325787,1,-0.525477648,1,1.940629125,1
1.167999744,-4.29888916,1,-3.100379944,1,-8.275387764,1,-0.035730682,1,-0.032745101,1,0.037094764,1,0.450144023,1,-0.525633514,1,1.940716147,1
1.171997428,-4.312916279,1,-3.049141884,1,-8.270070076,1,-0.029048681,1,-0.034838714,1,0.027147008,1,0.449991137,1,-0.52581054,1,1.940778017,1
1.1759969,-4.371077061,1,-3.175536633,1,-8.253646851,1,-0.026007552,1,-0.049848482,1,0.030551484,1,0.449857354,1,-0.526013076,1,1.940820932,1
1.179998517,-4.398782253,1,-3.329313278,1,-8.206144333,1,-0.022558944,1,-0.058358356,1,0.030301331,1,0.449750423,1,-0.526267111,1,1.94084084,1
1.183996201,-4.396832943,1,-3.383598328,1,-8.083191872,1,-0.021931879,1,-0.065207921,1,0.044023849,1,0.449648976,1,-0.526560843,1,1.940868616,1
1.187995672,-4.47308588,1,-3.420921326,1,-8.016807556,1,-0.017736733,1,-0.07321386,1,0.043936022,1,0.449560553,1,-0.526885033,1,1.940903306,1
1.19199717,-4.451992989,1,-3.415570974,1,-8.03198719,1,-0.026732665,1,-0.078894928,1,0.040446863,1,0.449457228,1,-0.527235389,1,1.9409343,1
1.195994854,-4.569544315,1,-3.456130028,1,-7.980091095,1,-0.028044846,1,-0.082035132,1,0.044255383,1,0.449340373,1,-0.527605593,1,1.940955162,1
1.199994326,-4.532418728,1,-3.363039732,1,-7.971012592,1,-0.026267186,1,-0.075714827,1,0.049607772,1,0.449207515,1,-0.527967393,1,1.94099021,1
1.203996181,-4.610963821,1,-3.388270378,1,-7.954928875,1,-0.03025065,1,-0.072147354,1,0.049020782,1,0.449065626,1,-0.528321207,1,1.941048622,1
1.207993865,-4.538229465,1,-3.228075743,1,-7.936733246,1,-0.016707184,1,-0.071878619,1,0.051156089,1,0.448930025,1,-0.528662086,1,1.94111824,1
1.211993337,-4.612646103,1,-3.18070507,1,-7.960869789,1,-0.011966731,1,-0.065659523,1,0.053946652,1,0.448818833,1,-0.529007912,1,1.941215158,1
1.215995193,-4.696638107,1,-3.072757959,1,-8.017424583,1,-0.006889621,1,-0.049611218,1,0.046432585,1,0.448730111,1,-0.529301763,1,1.941313982,1
1.219992876,-4.748783588,1,-2.970127821,1,-8.063299179,1,-0.002095501,1,-0.039821997,1,0.039625671,1,0.448672086,1,-0.529542446,1,1.941403866,1
1.223992348,-4.743742466,1,-2.90904665,1,-8.132557869,1,0.013025599,1,-0.028979134,1,0.030047329,1,0.448668599,1,-0.529714108,1,1.941467881,1
1.227994084,-4.765351772,1,-2.85558176,1,-8.149281502,1,0.017076749,1,-0.015723908,1,0.009825014,1,0.448708653,1,-0.529831052,1,1.941510081,1
1.231992006,-4.774777412,1,-2.828333616,1,-8.125906944,1,0.026504861,1,-0.004862982,1,-0.000150917,1,0.448791653,1,-0.529868782,1,1.941520929,1
1.235991836,-4.846477509,1,-2.839571714,1,-8.123344421,1,0.034504764,1,0.008680517,1,-0.01385952,1,0.448929965,1,-0.529845357,1,1.941495657,1
1.239993334,-4.767764568,1,-2.852807045,1,-8.087486267,1,0.040891048,1,0.026062818,1,-0.020516006,1,0.449090868,1,-0.529747248,1,1.941469789,1
1.243991017,-4.638367176,1,-2.87939024,1,-8.052609444,1,0.047512401,1,0.037702538,1,-0.02925439,1,0.449294508,1,-0.529596329,1,1.941423297,1
1.247990489,-4.277353764,1,-2.946455002,1,-8.025999069,1,0.054560788,1,0.033420391,1,-0.02863973,1,0.449527621,1,-0.52941525,1,1.941371799,1
1.251998186,-4.016964912,1,-3.143526793,1,-8.118674278,1,0.062888682,1,0.019479662,1,-0.021992542,1,0.449790686,1,-0.529269218,1,1.941321611,1
1.25600183,-4.051858425,1,-3.361116886,1,-8.230883598,1,0.065216005,1,0.010707434,1,-0.023246579,1,0.450079679,1,-0.529180467,1,1.941242456,1
1.26000154,-4.215108871,1,-3.417780161,1,-8.215948105,1,0.05879363,1,0.002968068,1,-0.023015903,1,0.450374514,1,-0.529112756,1,1.941155791,1
1.264003038,-4.307395935,1,-3.463958979,1,-8.084600449,1,0.057868555,1,0.006869971,1,-0.024298808,1,0.450653464,1,-0.529057622,1,1.941062689,1
1.268000722,-4.384077072,1,-3.424846888,1,-7.981746197,1,0.049351402,1,0.004764773,1,-0.021901747,1,0.450910091,1,-0.528999984,1,1.940983176,1
1.272000313,-4.292933941,1,-3.396969318,1,-8.04132843,1,0.049750198,1,-0.007023672,1,-0.012363018,1,0.451139271,1,-0.528977334,1,1.940912962,1
1.276001811,-4.292152882,1,-3.428493023,1,-8.163906097,1,0.040870603,1,-0.007995889,1,-0.006969771,1,0.451353371,1,-0.528980851,1,1.940852404,1
1.279999495,-4.311762333,1,-3.337380171,1,-8.182408333,1,0.04149773,1,-0.006668427,1,-0.011148583,1,0.45154497,1,-0.528994739,1,1.940812469,1
1.283998966,-4.223792553,1,-3.25301528,1,-8.102602959,1,0.038213372,1,-0.010637462,1,-0.009504567,1,0.451726198,1,-0.529016793,1,1.94075036,1
1.288000822,-4.314753056,1,-3.173717499,1,-8.157196045,1,0.044629984,1,-0.01764391,1,-0.012991833,1,0.451935887,1,-0.529032171,1,1.94066751,1
1.291998744,-4.49962759,1,-3.105408669,1,-8.125980377,1,0.047461249,1,-0.014526817,1,-0.018857434,1,0.452178568,1,-0.529066026,1,1.940557361,1
1.295999289,-4.571617603,1,-3.046375751,1,-8.071896553,1,0.052721832,1,-0.011838769,1,-0.022588458,1,0.45243758,1,-0.529080808,1,1.940438628,1
1.300001025,-4.601583004,1,-3.021692514,1,-8.016809464,1,0.052623108,1,-0.008540196,1,-0.031833511,1,0.452725589,1,-0.529064834,1,1.940294027,1
1.303999186,-4.574212074,1,-3.093944788,1,-8.033129692,1,0.061943527,1,-0.002654272,1,-0.039429229,1,0.453038543,1,-0.529023468,1,1.940138459,1
1.307998776,-4.544618607,1,-3.140169144,1,-8.017869949,1,0.062914446,1,-0.001106719,1,-0.038150262,1,0.453371823,1,-0.528964341,1,1.93997097,1
1.312000275,-4.524849892,1,-3.163217068,1,-8.047719002,1,0.066834256,1,0.004310558,1,-0.045657251,1,0.453715861,1,-0.528882325,1,1.939806581,1
1.315997958,-4.538168907,1,-3.194260836,1,-8.061160088,1,0.066747226,1,0.008294222,1,-0.04653788,1,0.454060078,1,-0.528781414,1,1.939627528,1
1.31999743,-4.528556347,1,-3.238986015,1,-8.065296173,1,0.064853773,1,0.014523422,1,-0.046210516,1,0.45441705,1,-0.528647184,1,1.939458489,1
1.323999286,-4.564422607,1,-3.256658077,1,-8.061262131,1,0.069216847,1,0.022492439,1,-0.051214203,1,0.454777837,1,-0.528492212,1,1.939283848,1
1.327996969,-4.565826416,1,-3.290430307,1,-8.072338104,1,0.06848409,1,0.02625726,1,-0.051100843,1,0.455126315,1,-0.528320968,1,1.939124465,1
1.331996202,-4.526558399,1,-3.283850193,1,-8.076385498,1,0.070630595,1,0.033480406,1,-0.05434414,1,0.455486327,1,-0.528116584,1,1.938966632,1
1.335997701,-4.503840923,1,-3.312171936,1,-8.0850811,1,0.075702272,1,0.033404112,1,-0.053771745,1,0.455846906,1,-0.527909875,1,1.938805223,1
1.339995384,-4.465909004,1,-3.269284725,1,-8.087340355,1,0.065597691,1,0.036251657,1,-0.055560853,1,0.456206948,1,-0.52767837,1,1.938647985,1
1.343994856,-4.456756115,1,-3.300754547,1,-8.107113838,1,0.077066474,1,0.03875792,1,-0.055723354,1,0.456574142,1,-0.527441263,1,1.938496828,1
1.347996473,-4.404749393,1,-3.339352369,1,-8.063514709,1,0.070055433,1,0.044406354,1,-0.054021642,1,0.456940085,1,-0.527193666,1,1.938354015,1
1.351993799,-4.313530922,1,-3.378515005,1,-8.090443611,1,0.07485421,1,0.042902082,1,-0.057274751,1,0.457300067,1,-0.526945949,1,1.938217282,1
1.355993629,-4.303106785,1,-3.439382076,1,-8.077339172,1,0.074209362,1,0.03755071,1,-0.053280987,1,0.45766139,1,-0.526706934,1,1.938072681,1
1.359995365,-4.213198662,1,-3.455765963,1,-8.11060524,1,0.068245165,1,0.031162875,1,-0.050555296,1,0.458013356,1,-0.526484072,1,1.937924027,1
1.363993287,-4.191704273,1,-3.526943684,1,-8.14733696,1,0.069558866,1,0.023588592,1,-0.047346745,1,0.458363682,1,-0.526301861,1,1.937785029,1
1.367993116,-4.253535271,1,-3.607236385,1,-8.218096733,1,0.063189708,1,0.017162595,1,-0.039456375,1,0.458695471,1,-0.526145756,1,1.937645078,1
1.372000813,-4.212977886,1,-3.619124651,1,-8.03659153,1,0.05778018,1,0.016840903,1,-0.037969969,1,0.458997995,1,-0.526015282,1,1.937513471,1
1.376004815,-4.339991093,1,-3.599710464,1,-8.092617989,1,0.055507638,1,0.013291055,1,-0.035964206,1,0.459286809,1,-0.525900245,1,1.937385917,1
1.380004883,-4.498748779,1,-3.449655056,1,-8.15119648,1,0.048996966,1,0.005707622,1,-0.036066357,1,0.459563553,1,-0.525818527,1,1.937251806,1
1.384006381,-4.463964939,1,-3.348175526,1,-8.136669159,1,0.048512805,1,0.011281161,1,-0.032700174,1,0.459812403,1,-0.525731385,1,1.937134027,1
1.388004065,-4.432552814,1,-3.31091404,1,-8.157972336,1,0.046870999,1,0.005998624,1,-0.02877605,1,0.460058272,1,-0.525639355,1,1.937016964,1
1.392003536,-4.448487282,1,-3.353167057,1,-8.182385445,1,0.052851584,1,0.005830841,1,-0.028223373,1,0.460315615,1,-0.525569916,1,1.936911106,1
1.396005154,-4.460621834,1,-3.405883312,1,-8.139755249,1,0.048022795,1,0.002061413,1,-0.028224377,1,0.460572183,1,-0.525509536,1,1.936793923,1
1.400002837,-4.442708015,1,-3.403856754,1,-8.096204758,1,0.044131309,1,0.005308224,1,-0.024725832,1,0.459433734,1,-0.523952723,1,1.936479568,1
1.404002309,-4.560469151,1,-3.420644045,1,-8.0596838,1,0.03792309,1,0.001728831,1,-0.024065142,1,0.459640384,1,-0.523896992,1,1.9363904,1
1.408004045,-4.538995743,1,-3.349311352,1,-8.045304298,1,0.03628096,1,0.010446476,1,-0.022454506,1,0.459829867,1,-0.523830652,1,1.9363029,1
1.412001848,-4.561913967,1,-3.290550947,1,-8.00866127,1,0.037946634,1,0.013277173,1,-0.025377315,1,0.460018754,1,-0.523755431,1,1.936221719,1
1.41600132,-4.527841091,1,-3.271747112,1,-8.089223862,1,0.041291647,1,0.010018023,1,-0.030222949,1,0.460217386,1,-0.523667514,1,1.936128378,1
1.420002818,-4.442938328,1,-3.287156343,1,-8.082285881,1,0.042668335,1,0.013785105,1,-0.026930848,1,0.460434079,1,-0.523569465,1,1.93603301,1
1.424000263,-4.423243999,1,-3.304569244,1,-8.131433487,1,0.043917619,1,0.013798092,1,-0.028544778,1,0.460657775,1,-0.523460746,1,1.935939312,1
1.427999735,-4.406393051,1,-3.34008193,1,-8.029916763,1,0.041226365,1,0.018434718,1,-0.028675342,1,0.460864186,1,-0.523356318,1,1.935854912,1
1.432001233,-4.348295689,1,-3.380826712,1,-7.98141098,1,0.04268828,1,0.015089042,1,-0.029337572,1,0.461071432,1,-0.523246109,1,1.935770154,1
1.435998917,-4.367556572,1,-3.455438614,1,-8.071077347,1,0.039333478,1,0.008549699,1,-0.029487174,1,0.461287528,1,-0.523156822,1,1.935676455,1
1.439998746,-4.312707901,1,-3.376847982,1,-7.998811722,1,0.036552638,1,0.013160879,1,-0.029418668,1,0.461487114,1,-0.523067176,1,1.935578585,1
1.444000483,-4.309956074,1,-3.309968948,1,-8.161496162,1,0.046408303,1,0.006117838,1,-0.029590122,1,0.461706907,1,-0.522979736,1,1.935479522,1
1.447998166,-4.363500118,1,-3.351902723,1,-8.187234879,1,0.046362199,1,0.010346528,1,-0.030424101,1,0.461945057,1,-0.522895336,1,1.935373783,1
1.451997638,-4.374586105,1,-3.311523438,1,-8.190392494,1,0.04578799,1,0.007794395,1,-0.033282835,1,0.462197006,1,-0.522805095,1,1.935256362,1
1.455999494,-4.479923248,1,-3.379949093,1,-8.114314079,1,0.044193029,1,0.007286754,1,-0.028170589,1,0.462446302,1,-0.522735059,1,1.935142994,1
1.459997177,-4.3840065,1,-3.383000374,1,-8.062456131,1,0.057680517,1,0.005339711,1,-0.035187144,1,0.462716639,1,-0.522657394,1,1.93502152,1
1.463996649,-4.45778513,1,-3.429241419,1,-8.132593155,1,0.053363033,1,0.002730465,1,-0.034002595,1,0.46300301,1,-0.522588491,1,1.934890509,1
1.467998266,-4.541662216,1,-3.439871788,1,-8.169054031,1,0.052221604,1,0.002490794,1,-0.03130313,1,0.463281602,1,-0.522522867,1,1.93475616,1
1.47199595,-4.397049427,1,-3.402699709,1,-8.009588242,1,0.052836716,1,0.003759664,1,-0.033176254,1,0.46354115,1,-0.522439301,1,1.934630036,1
1.475995421,-4.360536098,1,-3.462620497,1,-8.052495956,1,0.054058351,1,0.002393473,1,-0.034778561,1,0.463824391,1,-0.522363663,1,1.934495926,1
1.47999692,-4.375234127,1,-3.443768263,1,-8.109374046,1,0.053942606,1,0.001213744,1,-0.02731503,1,0.464094818,1,-0.522297263,1,1.934366941,1
1.483994603,-4.32035017,1,-3.487462997,1,-8.080658913,1,0.05015327,1,0.000525725,1,-0.029661844,1,0.464364201,1,-0.52223444,1,1.934242368,1
1.487994075,-4.318609715,1,-3.464589596,1,-8.070443153,1,0.048235252,1,-0.003580392,1,-0.026417166,1,0.464621663,1,-0.522195101,1,1.934126258,1
1.492001772,-4.356223106,1,-3.374699354,1,-8.099070549,1,0.048499666,1,-0.00352938,1,-0.03031872,1,0.464881808,1,-0.522151828,1,1.933999062,1
1.496005416,-4.400842667,1,-3.33611083,1,-8.105922699,1,0.056081884,1,-0.006311661,1,-0.033349197,1,0.465158224,1,-0.522113204,1,1.933874965,1
1.500004888,-4.421933651,1,-3.334914207,1,-8.141848564,1,0.058624379,1,-0.004846539,1,-0.031555265,1,0.465454459,1,-0.522078812,1,1.933731079,1
1.504006624,-4.409766197,1,-3.338638544,1,-8.130825996,1,0.059555903,1,-0.007772969,1,-0.037339121,1,0.465766042,1,-0.522037685,1,1.933579206,1
1.508004308,-4.390742302,1,-3.340443373,1,-8.085472107,1,0.061907344,1,-0.007766215,1,-0.033981718,1,0.466086894,1,-0.522002161,1,1.933415651,1
1.512003899,-4.550219536,1,-3.366763592,1,-8.185890198,1,0.05065126,1,-0.01504788,1,-0.037912894,1,0.466393352,1,-0.521977842,1,1.933247089,1
1.516006112,-4.468255043,1,-3.381548166,1,-8.026977539,1,0.048838556,1,-0.004144432,1,-0.034224387,1,0.466677606,1,-0.521945953,1,1.933086395,1
1.52000463,-4.398845196,1,-3.297258615,1,-8.039242744,1,0.062475823,1,-0.007129492,1,-0.038077451,1,0.466977417,1,-0.521909952,1,1.932923436,1
1.52400434,-4.498726368,1,-3.259835005,1,-8.163049698,1,0.057770446,1,-0.00413002,1,-0.042973287,1,0.467312902,1,-0.521856248,1,1.932736039,1
1.528005838,-4.490904808,1,-3.188314676,1,-8.219729424,1,0.061427005,1,-0.008462905,1,-0.045763277,1,0.467653304,1,-0.521799982,1,1.932539105,1
1.532003641,-4.504025459,1,-3.23867631,1,-8.269114494,1,0.061433628,1,-0.00314645,1,-0.038451668,1,0.467987895,1,-0.521737993,1,1.932355046,1
1.536003113,-4.441831589,1,-3.275165796,1,-8.194754601,1,0.059141107,1,0.004535001,1,-0.033125348,1,0.468294173,1,-0.521660984,1,1.932217717,1
1.540004611,-4.241936207,1,-3.328216314,1,-8.149570465,1,0.072816931,1,-0.011504875,1,-0.051687371,1,0.468657523,1,-0.521588445,1,1.93204093,1
1.544002295,-4.35517931,1,-3.484013796,1,-8.058776855,1,0.077193268,1,-0.01698426,1,-0.045946531,1,0.469074547,1,-0.521552265,1,1.93180573,1
1.548001766,-4.442485809,1,-3.480823517,1,-8.145950317,1,0.076562531,1,-0.013788719,1,-0.050959233,1,0.469500721,1,-0.521512806,1,1.931573391,1
1.552003384,-4.426281452,1,-3.457872391,1,-8.121840477,1,0.07799121,1,-0.019689009,1,-0.048225511,1,0.46993047,1,-0.5214926,1,1.931331158,1
1.556001067,-4.359807968,1,-3.490926743,1,-8.048410416,1,0.067259014,1,-0.019296035,1,-0.043294132,1,0.470335305,1,-0.521480441,1,1.931096077,1
1.560000539,-4.351457119,1,-3.528246403,1,-8.001583099,1,0.069605187,1,-0.02332546,1,-0.034157589,1,0.470718443,1,-0.521479607,1,1.930887938,1
1.564002037,-4.428095341,1,-3.523237944,1,-7.95651865,1,0.068848714,1,-0.027058482,1,-0.033500072,1,0.471100509,1,-0.521513402,1,1.930690765,1
1.567999721,-4.355300903,1,-3.448514462,1,-7.886239052,1,0.069420382,1,-0.035718057,1,-0.02595599,1,0.471481115,1,-0.521563649,1,1.930499911,1
1.571999192,-4.404547215,1,-3.399105072,1,-7.95571661,1,0.076432534,1,-0.041545849,1,-0.027369965,1,0.471863121,1,-0.521652281,1,1.930310488,1
1.57600081,-4.250742912,1,-3.249659538,1,-7.943701744,1,0.086817645,1,-0.037756201,1,-0.022603747,1,0.472286344,1,-0.52174592,1,1.930115104,1
1.579998493,-4.309391975,1,-3.273043871,1,-8.049743652,1,0.090862617,1,-0.04166317,1,-0.024524316,1,0.472727984,1,-0.521834731,1,1.929933786,1
1.583997965,-4.466412544,1,-3.309178829,1,-8.0968256,1,0.08901722,1,-0.036552656,1,-0.030392246,1,0.473187894,1,-0.521918237,1,1.929739833,1
1.587999463,-4.428539753,1,-3.314440966,1,-7.900021553,1,0.097052746,1,-0.026981195,1,-0.033995561,1,0.473665684,1,-0.521977305,1,1.929540038,1
1.591997147,-4.601025105,1,-3.280036449,1,-7.941094875,1,0.099901699,1,-0.030036855,1,-0.033697419,1,0.474164754,1,-0.522019684,1,1.929333568,1
1.595996976,-4.540971279,1,-3.1880548,1,-7.916400909,1,0.103413209,1,-0.017909363,1,-0.038053058,1,0.474666536,1,-0.522035241,1,1.929139733,1
1.599998713,-4.550677776,1,-3.143735886,1,-7.987167358,1,0.110289603,1,-0.009630097,1,-0.041471034,1,0.475179255,1,-0.522007942,1,1.928955555,1
1.603996396,-4.488526821,1,-3.081389904,1,-8.041331291,1,0.117895067,1,-0.008271032,1,-0.041610718,1,0.475716829,1,-0.521969438,1,1.928769231,1
1.607995868,-4.484483719,1,-3.061763287,1,-8.072577477,1,0.128293976,1,-0.006667533,1,-0.050719492,1,0.476307184,1,-0.521906674,1,1.928555012,1
1.611997485,-4.482967854,1,-3.111866951,1,-8.106451988,1,0.139147252,1,-0.004368291,1,-0.059266929,1,0.476958901,1,-0.521822214,1,1.928323984,1
1.61600101,-4.485454559,1,-3.176052332,1,-8.068984985,1,0.149600014,1,0.002196462,1,-0.064812958,1,0.477664292,1,-0.521709144,1,1.928067327,1
1.620000482,-4.44292593,1,-3.209479332,1,-8.102599144,1,0.163440168,1,0.000659855,1,-0.072358489,1,0.478429556,1,-0.521574914,1,1.927789688,1
1.624002099,-4.32329464,1,-3.341717243,1,-8.066216469,1,0.171331644,1,-0.000585522,1,-0.078503475,1,0.479250073,1,-0.52143091,1,1.927488327,1
1.627999544,-4.270524025,1,-3.460348606,1,-8.152098656,1,0.180278301,1,-0.007738509,1,-0.078390554,1,0.480118781,1,-0.521299362,1,1.927159548,1
1.631999016,-4.273006439,1,-3.540109634,1,-8.216391563,1,0.183650658,1,-0.01108329,1,-0.079999112,1,0.48101151,1,-0.521178842,1,1.926820755,1
1.636000514,-4.244186401,1,-3.52968812,1,-8.257008553,1,0.178452358,1,-0.019804766,1,-0.07859657,1,0.481927246,1,-0.52108562,1,1.926466465,1
1.639997959,-4.251841545,1,-3.443951845,1,-8.318056107,1,0.176083311,1,-0.046499662,1,-0.081107549,1,0.482844651,1,-0.52105242,1,1.926066756,1
1.643997669,-4.318940163,1,-3.35503912,1,-8.241796494,1,0.167034924,1,-0.07005959,1,-0.084440231,1,0.483770996,1,-0.521100283,1,1.925582409,1
1.647999287,-4.359177113,1,-3.328243732,1,-8.141942978,1,0.166255355,1,-0.082728326,1,-0.088238895,1,0.483100504,1,-0.519712269,1,1.92629683,1
1.651996613,-4.323400021,1,-3.2937572,1,-8.104816437,1,0.158696502,1,-0.090600602,1,-0.07851617,1,0.484119326,1,-0.519929111,1,1.924268603,1
1.655996442,-4.349159718,1,-3.400241613,1,-8.077970505,1,0.159256548,1,-0.092315271,1,-0.079923302,1,0.485011041,1,-0.520107806,1,1.923738837,1
1.659998178,-4.376471043,1,-3.581094265,1,-8.002824783,1,0.155618101,1,-0.091879867,1,-0.079867326,1,0.485904723,1,-0.520286918,1,1.923216701,1
1.663996458,-4.431979179,1,-3.678844213,1,-7.902653694,1,0.155919582,1,-0.089968771,1,-0.078521602,1,0.486786187,1,-0.520458519,1,1.922691107,1
1.66799593,-4.550094128,1,-3.766433954,1,-7.886053562,1,0.151630029,1,-0.080982432,1,-0.075388871,1,0.487652957,1,-0.520621061,1,1.92219007,1
1.671997428,-4.486597061,1,-3.86021471,1,-7.779973984,1,0.149326235,1,-0.069079429,1,-0.073247351,1,0.488481909,1,-0.520750165,1,1.921723723,1
1.675995111,-4.545981407,1,-3.910406828,1,-7.792348862,1,0.140200227,1,-0.055588186,1,-0.066661946,1,0.48926723,1,-0.520837128,1,1.921310782,1
1.679994583,-4.454501629,1,-3.865702868,1,-7.813583851,1,0.130278721,1,-0.043730009,1,-0.065014005,1,0.489994049,1,-0.520893991,1,1.920933008,1
1.683996439,-4.324653625,1,-3.748413324,1,-8.016704559,1,0.115670316,1,-0.051292021,1,-0.06714078,1,0.490673602,1,-0.520940781,1,1.920557618,1
1.687994123,-4.230824471,1,-3.63918376,1,-7.985002995,1,0.109000199,1,-0.073599033,1,-0.078571364,1,0.491339266,1,-0.521024168,1,1.920128345,1
1.691993594,-4.317026615,1,-3.579124212,1,-7.854202271,1,0.099876776,1,-0.090779364,1,-0.078109518,1,0.492010653,1,-0.521171391,1,1.919630289,1
1.69599545,-4.557640553,1,-3.825781822,1,-7.938226223,1,0.08935868,1,-0.098201469,1,-0.066848963,1,0.492642164,1,-0.521371841,1,1.919127107,1
1.699993134,-4.197661877,1,-3.894220352,1,-7.744918823,1,0.075982258,1,-0.072530128,1,-0.05921375,1,0.493160188,1,-0.521567404,1,1.918706417,1
1.703992605,-4.368412018,1,-4.103654385,1,-7.745827675,1,0.068260752,1,-0.094446965,1,-0.053703621,1,0.49367094,1,-0.521764278,1,1.918273926,1
1.707994342,-4.483991146,1,-4.164927959,1,-7.679114342,1,0.055871073,1,-0.073671274,1,-0.049581725,1,0.494117707,1,-0.521966457,1,1.917877197,1
1.711992025,-4.564775467,1,-4.09331274,1,-7.814343452,1,0.050187368,1,-0.056093194,1,-0.041424125,1,0.494494408,1,-0.522104919,1,1.917547107,1
1.715991855,-4.538028717,1,-4.03290987,1,-7.836193562,1,0.034407284,1,-0.043447703,1,-0.031676099,1,0.494792283,1,-0.522213399,1,1.917283297,1
1.719993353,-4.517086506,1,-3.853375912,1,-7.749758244,1,0.030393913,1,-0.017924992,1,-0.026247775,1,0.495007247,1,-0.52227211,1,1.91710484,1
1.723991036,-4.532037258,1,-3.785273314,1,-7.915701389,1,0.025886506,1,-0.000994483,1,-0.021038769,1,0.495173752,1,-0.522261202,1,1.91699338,1
1.727990508,-4.544800758,1,-3.678320646,1,-7.933820248,1,0.023642385,1,0.01864131,1,-0.010258942,1,0.495295018,1,-0.522200227,1,1.916948557,1
1.731992006,-4.572133541,1,-3.672674894,1,-8.098062515,1,0.020666646,1,0.031332709,1,-0.008513745,1,0.49537456,1,-0.522095561,1,1.916970253,1
1.735995889,-4.562523365,1,-3.705199957,1,-8.136962891,1,0.012604499,1,0.038859863,1,-0.001081035,1,0.495412886,1,-0.52196151,1,1.917030692,1
1.739996195,-4.635177612,1,-3.7641747,1,-8.142724991,1,0.011153266,1,0.045658417,1,0.002290129,1,0.49541238,1,-0.521816432,1,1.917134285,1
1.743997931,-4.669400692,1,-3.596012354,1,-8.198659897,1,0.017992169,1,0.044064783,1,-0.005081081,1,0.49541387,1,-0.521642029,1,1.917240858,1
1.747995615,-4.690382004,1,-3.423027515,1,-8.192577362,1,0.028856549,1,0.05249868,1,-0.017021088,1,0.495472461,1,-0.521452606,1,1.917294979,1
1.751995087,-4.656674385,1,-3.295577288,1,-8.1316185,1,0.034294926,1,0.054987945,1,-0.020353206,1,0.495584071,1,-0.521233559,1,1.917338014,1
1.755996704,-4.438564301,1,-3.354895353,1,-7.986352444,1,0.041818064,1,0.059816565,1,-0.017053427,1,0.495705664,1,-0.520989835,1,1.917384982,1
1.759994388,-4.214351654,1,-3.699797392,1,-7.989734173,1,0.04442903,1,0.050504021,1,-0.012344621,1,0.495841503,1,-0.52076596,1,1.917447686,1
1.763993859,-4.077740669,1,-3.999270201,1,-8.041003227,1,0.04425234,1,0.047733959,1,-0.014494553,1,0.495999217,1,-0.520562053,1,1.917494059,1
1.767995358,-4.233203411,1,-4.140676022,1,-8.014141083,1,0.040121738,1,0.042234316,1,-0.012665244,1,0.496153235,1,-0.520383418,1,1.917537928,1
1.771993041,-4.370633125,1,-4.197691917,1,-7.942675114,1,0.028689597,1,0.047593694,1,-0.000160232,1,0.496264964,1,-0.520213664,1,1.917604446,1
1.775992632,-4.476942062,1,-4.118577957,1,-7.90869236,1,0.016489713,1,0.05083162,1,0.003611014,1,0.496296257,1,-0.520047188,1,1.917714596,1
1.779994369,-4.412792206,1,-4.044704437,1,-7.895317554,1,0.004046062,1,0.053659022,1,0.008177531,1,0.496271938,1,-0.519873977,1,1.91785419,1
1.783992052,-4.313359261,1,-4.006498337,1,-7.962984562,1,-0.004650992,1,0.055643879,1,0.018072706,1,0.496175349,1,-0.519711018,1,1.918028235,1
1.787991524,-4.296741009,1,-3.965988636,1,-8.014076233,1,-0.016385699,1,0.055783588,1,0.028608911,1,0.496018857,1,-0.51956135,1,1.918243766,1
1.79199338,-4.387834549,1,-3.972298384,1,-8.02967453,1,-0.025600998,1,0.05331729,1,0.029754439,1,0.495816529,1,-0.51942414,1,1.918486476,1
1.795991063,-4.410241604,1,-3.986668587,1,-7.926372528,1,-0.036236677,1,0.059301198,1,0.037144095,1,0.495549947,1,-0.519285858,1,1.918754578,1
1.799990535,-4.400046825,1,-4.002282619,1,-7.904168606,1,-0.047824323,1,0.064141288,1,0.042903423,1,0.495234519,1,-0.519146383,1,1.919047117,1
1.803992271,-4.361509323,1,-3.947127819,1,-7.915818691,1,-0.062866904,1,0.070734218,1,0.044671293,1,0.49485755,1,-0.519005239,1,1.91937232,1
1.807990074,-4.359900475,1,-3.961222172,1,-7.967413902,1,-0.064666644,1,0.077485859,1,0.050990023,1,0.49442634,1,-0.518832862,1,1.919736981,1
1.811989784,-4.453253746,1,-4.005331516,1,-7.908956528,1,-0.080709815,1,0.080877885,1,0.060380619,1,0.493935853,1,-0.518664956,1,1.920138121,1
1.815991282,-4.445158005,1,-3.935947418,1,-7.877659798,1,-0.089753784,1,0.09312962,1,0.058730979,1,0.493372679,1,-0.518467784,1,1.920581579,1
1.819988966,-4.484209061,1,-3.815634251,1,-7.832652569,1,-0.098645516,1,0.098467901,1,0.06871587,1,0.492767423,1,-0.518258631,1,1.921051264,1
1.823988795,-4.418836117,1,-3.627074957,1,-7.948298454,1,-0.104112715,1,0.108172812,1,0.062714182,1,0.49211961,1,-0.518019319,1,1.921539903,1
1.827990294,-4.331047058,1,-3.442076683,1,-8.013518333,1,-0.102596231,1,0.114311293,1,0.071656331,1,0.491447628,1,-0.517767906,1,1.922067881,1
1.831987739,-4.31842804,1,-3.29372263,1,-8.115416527,1,-0.103700429,1,0.105696261,1,0.065669015,1,0.490781963,1,-0.517500699,1,1.922580838,1
1.83598721,-4.337333679,1,-3.235750437,1,-8.157245636,1,-0.10200756,1,0.106284723,1,0.054658424,1,0.490130931,1,-0.517234802,1,1.923064113,1
1.839988708,-4.459736824,1,-3.31463027,1,-8.120721817,1,-0.102301694,1,0.10454195,1,0.047459904,1,0.489507556,1,-0.516962469,1,1.923505068,1
1.843986392,-4.454490662,1,-3.303195477,1,-8.118169785,1,-0.097483002,1,0.098173633,1,0.04326205,1,0.488904387,1,-0.516690075,1,1.923911095,1
1.847985864,-4.153427124,1,-3.300879478,1,-8.051750183,1,-0.085808009,1,0.089960225,1,0.03295479,1,0.488371372,1,-0.516427398,1,1.924258828,1
1.851987243,-4.211853027,1,-3.424048901,1,-8.271687508,1,-0.078667514,1,0.07123401,1,0.032355037,1,0.487905204,1,-0.516203046,1,1.924556136,1
1.855990767,-3.460766554,1,-3.187159061,1,-7.939601898,1,-0.07556469,1,0.083955057,1,0.016405199,1,0.487402946,1,-0.516000688,1,1.924859405,1
1.859990478,-4.166733742,1,-3.479133606,1,-8.212367058,1,-0.058620043,1,0.047800649,1,0.023275027,1,0.487056285,1,-0.515830636,1,1.925067544,1
1.863992095,-4.287135601,1,-3.52526474,1,-8.071745872,1,-0.058281086,1,0.040388525,1,0.018121343,1,0.486744255,1,-0.515714526,1,1.925237179,1
1.867989779,-4.279898167,1,-3.630908966,1,-8.003962517,1,-0.050052982,1,0.034517601,1,0.013251867,1,0.486454487,1,-0.51560986,1,1.925390124,1
1.87198925,-4.113720894,1,-3.74764657,1,-8.044564247,1,-0.051139418,1,0.01919069,1,0.010518858,1,0.486198008,1,-0.515534997,1,1.9255023,1
1.875991583,-4.131771088,1,-3.583046198,1,-8.166539192,1,-0.042589311,1,0.01290996,1,0.008418131,1,0.485976785,1,-0.515492022,1,1.925585032,1
1.879989982,-4.111813068,1,-3.35106802,1,-8.177279472,1,-0.033399526,1,0.001463927,1,0.005884418,1,0.485806525,1,-0.5154773,1,1.92562604,1
1.883989453,-4.322940826,1,-3.200863838,1,-8.230746269,1,-0.024068573,1,-0.004976838,1,0.007179135,1,0.485681593,1,-0.515497029,1,1.925657511,1
1.887991309,-4.404747009,1,-3.247881651,1,-8.13106823,1,-0.018424621,1,-0.010217636,1,-0.000533748,1,0.485598892,1,-0.515531421,1,1.925654888,1
1.891988993,-4.410500526,1,-3.317136288,1,-8.069915771,1,-0.001069287,1,-0.010270814,1,-0.002001451,1,0.485584855,1,-0.515561223,1,1.925621033,1
1.895988464,-4.403791428,1,-3.347370625,1,-7.985625267,1,0.011469699,1,-0.008746563,1,-0.005204256,1,0.48562175,1,-0.51558733,1,1.925582528,1
1.899989963,-4.36941576,1,-3.455028534,1,-8.035263062,1,0.011992762,1,-0.008057242,1,-0.001177003,1,0.484541833,1,-0.51410991,1,1.925336123,1
1.903987765,-4.334047794,1,-3.658287764,1,-7.994399071,1,0.014081201,1,-0.00272081,1,0.006276122,1,0.484594166,1,-0.514138937,1,1.925337195,1
1.907987475,-4.335146427,1,-3.788257599,1,-7.988880157,1,0.012314504,1,-0.002438649,1,0.012658893,1,0.484631926,1,-0.514160156,1,1.925361991,1
1.911988974,-4.377943993,1,-3.797765732,1,-7.968989849,1,0.008708063,1,-0.001138529,1,0.017001111,1,0.484643072,1,-0.514191926,1,1.92542243,1
1.915986657,-4.436306477,1,-3.697800636,1,-8.013151169,1,0.004066455,1,0.004873493,1,0.021974007,1,0.484617501,1,-0.514222026,1,1.925514221,1
1.919986486,-4.417800903,1,-3.660808802,1,-8.00886631,1,-0.001912427,1,0.007381487,1,0.028090972,1,0.484563887,1,-0.514241517,1,1.925630093,1
1.923987985,-4.43073225,1,-3.627267122,1,-8.020744324,1,-0.007379328,1,0.017443195,1,0.033422239,1,0.484468967,1,-0.514253318,1,1.925779343,1
1.927985668,-4.38986063,1,-3.654049158,1,-8.043475151,1,-0.008452915,1,0.014259141,1,0.034171484,1,0.484358281,1,-0.514268875,1,1.925948501,1
1.93198514,-4.400054455,1,-3.646060228,1,-7.98820591,1,-0.011041416,1,0.017156057,1,0.035292041,1,0.4842287,1,-0.514282286,1,1.92612958,1
1.935986638,-4.311992645,1,-3.652432442,1,-7.955201626,1,-0.009730863,1,0.016217884,1,0.04065644,1,0.484095126,1,-0.514294147,1,1.926320314,1
1.939984441,-4.229308605,1,-3.741351604,1,-8.001243591,1,-0.015520998,1,0.013521064,1,0.04400814,1,0.483937204,1,-0.514325798,1,1.92652595,1
1.943984151,-4.201776505,1,-3.756080151,1,-8.017047882,1,-0.016206339,1,0.01418284,1,0.046228353,1,0.483771443,1,-0.514358163,1,1.926737785,1
1.947985888,-4.23218441,1,-3.726078272,1,-7.995964527,1,-0.016200248,1,0.00952962,1,0.047235787,1,0.483601034,1,-0.514400899,1,1.926956058,1
1.951983929,-4.380219936,1,-3.649507523,1,-7.959960461,1,-0.021696173,1,0.01668052,1,0.052102719,1,0.483411103,1,-0.514446616,1,1.927185655,1
1.955983639,-4.428416252,1,-3.49969697,1,-8.004515648,1,-0.019338679,1,0.016988261,1,0.049740806,1,0.483213037,1,-0.514482141,1,1.927433968,1
1.959985375,-4.390787125,1,-3.353361368,1,-8.061179161,1,-0.011122079,1,0.016887445,1,0.05043513,1,0.483039558,1,-0.514515579,1,1.927670598,1
1.963983417,-4.309740067,1,-3.220589399,1,-8.110066414,1,-0.000503568,1,0.018516008,1,0.041659988,1,0.48290357,1,-0.514535427,1,1.927888989,1
1.967982888,-4.258640289,1,-3.247721195,1,-8.146348,1,0.005609093,1,0.014074773,1,0.035684716,1,0.4828251,1,-0.514558196,1,1.928079844,1
1.971984625,-4.29094696,1,-3.303072453,1,-8.097771645,1,0.018583795,1,0.012652789,1,0.032239389,1,0.482790768,1,-0.514580548,1,1.928254485,1
1.975988269,-4.320575714,1,-3.438913107,1,-8.123888969,1,0.019707596,1,0.007065753,1,0.033355761,1,0.482789993,1,-0.514612079,1,1.928414702,1
1.979987741,-4.377429485,1,-3.62202549,1,-8.115811348,1,0.018800933,1,0.00918587,1,0.036472596,1,0.482785761,1,-0.51464963,1,1.928568602,1
1.983989477,-4.270913124,1,-3.757335186,1,-8.148685455,1,0.017722677,1,0.003542138,1,0.039464705,1,0.482766569,1,-0.514702141,1,1.928740621,1
1.987987161,-4.25048399,1,-3.736556292,1,-8.191779137,1,0.010299268,1,0.000862157,1,0.045538321,1,0.482736886,1,-0.514766216,1,1.928910017,1
1.991986632,-4.275878906,1,-3.693472385,1,-8.313105583,1,0.001350274,1,-0.016207047,1,0.054161869,1,0.482674271,1,-0.514886796,1,1.929098129,1
1.99598825,-4.55918932,1,-3.549645662,1,-8.179361343,1,-0.010433419,1,-0.008374684,1,0.060895693,1,0.482559204,1,-0.515034795,1,1.929304957,1
1.999985933,-4.131214142,1,-3.466601372,1,-8.140327454,1,0.000237085,1,-0.017585225,1,0.050156463,1,0.482444018,1,-0.515170455,1,1.929502249,1
2.003985643,-4.395698071,1,-3.423233747,1,-8.072701454,1,0.007077056,1,-0.024785012,1,0.050837815,1,0.482382059,1,-0.515339077,1,1.929666162,1
2.007987261,-4.420987129,1,-3.253178596,1,-8.131323814,1,0.006910906,1,-0.025111618,1,0.041499373,1,0.482337892,1,-0.515508831,1,1.929796457,1
2.011984587,-4.37115097,1,-3.196752548,1,-8.096295357,1,0.012793843,1,-0.025719944,1,0.044664927,1,0.48231864,1,-0.515674949,1,1.929920793,1
2.015984058,-4.450218678,1,-3.250378132,1,-8.056210518,1,0.013130926,1,-0.029398406,1,0.043796591,1,0.482301593,1,-0.515850067,1,1.930039048,1
2.019986629,-4.29087925,1,-3.371955872,1,-8.119887352,1,0.021972023,1,-0.035579689,1,0.040878255,1,0.482320309,1,-0.516036332,1,1.930140615,1
2.023985147,-4.307478428,1,-3.500943184,1,-8.230752945,1,0.023806734,1,-0.047336921,1,0.035055146,1,0.482376605,1,-0.51625526,1,1.930200338,1
2.027984858,-4.118180275,1,-3.383780718,1,-8.286471367,1,0.032189336,1,-0.064279757,1,0.034251519,1,0.482477367,1,-0.516508818,1,1.930235505,1
2.031986475,-4.248220921,1,-3.344055414,1,-8.310818672,1,0.042144675,1,-0.077790387,1,0.033922181,1,0.482647061,1,-0.516817987,1,1.930216312,1
2.035984278,-4.362187386,1,-3.402070999,1,-8.247488976,1,0.039838288,1,-0.079845935,1,0.038910303,1,0.482818276,1,-0.517168581,1,1.930194378,1
2.039984226,-4.356868267,1,-3.567199707,1,-8.126097679,1,0.03831061,1,-0.086495087,1,0.041117404,1,0.482986599,1,-0.517532349,1,1.930174351,1
2.043985605,-4.269925117,1,-3.749506474,1,-8.025610924,1,0.032425556,1,-0.089449428,1,0.050100014,1,0.48312676,1,-0.517920673,1,1.930177212,1
2.047983408,-4.226716995,1,-3.864268303,1,-7.994225979,1,0.016585618,1,-0.091517344,1,0.058520358,1,0.483203471,1,-0.518344939,1,1.930210114,1
2.05198288,-4.236167908,1,-3.8574965,1,-8.004991531,1,0.004019482,1,-0.090890102,1,0.070076384,1,0.483211458,1,-0.518791795,1,1.930274129,1
2.055984497,-4.260113716,1,-3.836001396,1,-8.048295021,1,-0.00814267,1,-0.09738116,1,0.076016478,1,0.483151495,1,-0.519260287,1,1.930373549,1
2.059982061,-4.314243793,1,-3.799303532,1,-8.011601448,1,-0.016705763,1,-0.096404351,1,0.083997503,1,0.483033359,1,-0.519757032,1,1.930488348,1
2.063981533,-4.38574791,1,-3.823892832,1,-7.974479198,1,-0.032130249,1,-0.09250474,1,0.088471919,1,0.482863158,1,-0.520267904,1,1.93063426,1
2.067983389,-4.303900242,1,-3.742851019,1,-7.913702488,1,-0.042246576,1,-0.094556093,1,0.09156891,1,0.482637435,1,-0.520762861,1,1.930809975,1
2.071980953,-4.235852242,1,-3.645782471,1,-8.000612259,1,-0.043369137,1,-0.093537576,1,0.096029855,1,0.482368946,1,-0.521266997,1,1.931002975,1
2.075980425,-4.202124596,1,-3.431370258,1,-8.145551682,1,-0.036052205,1,-0.107509144,1,0.089057535,1,0.482131034,1,-0.521789432,1,1.931163907,1
2.079982281,-4.325774193,1,-3.224928141,1,-8.232125282,1,-0.02663881,1,-0.10861741,1,0.083850011,1,0.481939316,1,-0.522336662,1,1.931286931,1
2.083980083,-4.385505676,1,-3.256228209,1,-8.238763809,1,-0.022610601,1,-0.117450297,1,0.087680228,1,0.481783122,1,-0.522903979,1,1.931396484,1
2.087979555,-4.388805389,1,-3.373120546,1,-8.208439827,1,-0.02434363,1,-0.119673096,1,0.081337281,1,0.481640697,1,-0.523478925,1,1.931494713,1
2.091981411,-4.395187378,1,-3.398018599,1,-8.232221603,1,-0.018201526,1,-0.126740038,1,0.079644866,1,0.481535941,1,-0.524060428,1,1.931563377,1
2.095985413,-4.301588535,1,-3.189138412,1,-8.180249214,1,-0.008080108,1,-0.130960286,1,0.069295414,1,0.481457651,1,-0.524656951,1,1.931596279,1
2.099985838,-4.216830254,1,-3.134796143,1,-8.253673553,1,0.003982503,1,-0.144110233,1,0.067889497,1,0.481460273,1,-0.52527684,1,1.931580186,1
2.103987694,-4.269800663,1,-3.185756683,1,-8.391198158,1,0.015265546,1,-0.160296157,1,0.065860234,1,0.481532067,1,-0.525939822,1,1.931514025,1
2.107985497,-4.339631081,1,-3.235672235,1,-8.374523163,1,0.020406906,1,-0.173371777,1,0.057755049,1,0.481659204,1,-0.526649833,1,1.931410074,1
2.111985207,-4.274252892,1,-3.416623354,1,-8.344193459,1,0.029460568,1,-0.177758723,1,0.060594615,1,0.481831193,1,-0.527380228,1,1.931270361,1
2.115987062,-4.324783802,1,-3.507856846,1,-8.251570702,1,0.028173508,1,-0.19331646,1,0.054731708,1,0.482030749,1,-0.528151453,1,1.931106925,1
2.119984627,-4.469137192,1,-3.465425491,1,-8.232207298,1,0.029733403,1,-0.196808174,1,0.056574557,1,0.482240885,1,-0.528938413,1,1.93091619,1
2.123984098,-4.462183952,1,-3.366091728,1,-8.269422531,1,0.037825633,1,-0.205902725,1,0.051148698,1,0.482487351,1,-0.529747188,1,1.930699587,1
2.127985716,-4.440413475,1,-3.280170918,1,-8.350394249,1,0.04405044,1,-0.214997247,1,0.042921804,1,0.482780159,1,-0.530572951,1,1.930445075,1
2.13198328,-4.440552235,1,-3.215374947,1,-8.392731667,1,0.060217224,1,-0.228480652,1,0.037093677,1,0.483157218,1,-0.531440675,1,1.930131435,1
2.135982752,-4.448644638,1,-3.317433119,1,-8.425611496,1,0.075215176,1,-0.242949873,1,0.028504631,1,0.48361057,1,-0.532334983,1,1.929760575,1
2.139984369,-4.445636272,1,-3.487891436,1,-8.387639999,1,0.080226295,1,-0.255239725,1,0.026192332,1,0.484133393,1,-0.533270597,1,1.929326534,1
2.143982172,-4.444656372,1,-3.652845144,1,-8.340602875,1,0.088219404,1,-0.272853851,1,0.017155519,1,0.484720856,1,-0.534244478,1,1.928842902,1
2.147981644,-4.45454216,1,-3.788988113,1,-8.316917419,1,0.089482844,1,-0.28189835,1,0.020619228,1,0.484247625,1,-0.534073472,1,1.929465771,1
2.151983023,-4.448816299,1,-3.891748905,1,-8.290820122,1,0.084770679,1,-0.294422448,1,0.018477784,1,0.485003889,1,-0.535194159,1,1.927400112,1
2.155980825,-4.454175472,1,-3.935323954,1,-8.205161095,1,0.076502211,1,-0.301875204,1,0.031564917,1,0.485604584,1,-0.536301196,1,1.926853895,1
2.159980297,-4.472725868,1,-4.164234161,1,-8.035126686,1,0.051073819,1,-0.297258943,1,0.05680754,1,0.486111522,1,-0.537445605,1,1.926376581,1
2.163982153,-4.466511726,1,-4.472794056,1,-7.932019234,1,0.020164007,1,-0.295151234,1,0.07713405,1,0.486444831,1,-0.538616598,1,1.92600441,1
2.167979717,-4.35648489,1,-4.626094341,1,-8.002189636,1,-0.006065778,1,-0.289969772,1,0.097899355,1,0.486612022,1,-0.539814651,1,1.925728083,1
2.171979189,-4.366564274,1,-4.568612576,1,-7.987122536,1,-0.022298744,1,-0.293393761,1,0.116220735,1,0.48665598,1,-0.541053951,1,1.925523758,1
2.175981283,-4.11905098,1,-4.446193218,1,-8.144078255,1,-0.042323332,1,-0.296972096,1,0.143618777,1,0.486595094,1,-0.542338729,1,1.92541182,1
2.179979563,-4.409891605,1,-4.557631969,1,-7.975182056,1,-0.065871477,1,-0.303931236,1,0.162507817,1,0.486386657,1,-0.543692946,1,1.925385118,1
2.183979034,-4.519295216,1,-4.713004112,1,-7.815272331,1,-0.094556242,1,-0.295870662,1,0.184238926,1,0.486033559,1,-0.545085132,1,1.925451875,1
2.18798089,-4.500030041,1,-4.739204407,1,-7.824807167,1,-0.118447937,1,-0.291528255,1,0.204673961,1,0.485525787,1,-0.546488523,1,1.9256078,1
2.191978455,-4.506854057,1,-4.402110577,1,-7.899781227,1,-0.140088692,1,-0.291782618,1,0.224595189,1,0.484870911,1,-0.547923446,1,1.925853968,1
2.195978165,-4.216599464,1,-4.001133442,1,-8.23603344,1,-0.152320385,1,-0.285520375,1,0.239565015,1,0.484103948,1,-0.549379885,1,1.926190615,1
2.199979782,-3.545198202,1,-3.39672637,1,-8.70116806,1,-0.148309916,1,-0.323994607,1,0.254908413,1,0.483292371,1,-0.550903916,1,1.926563978,1
2.203977585,-3.924266338,1,-2.813927889,1,-8.828522682,1,-0.094151944,1,-0.374273419,1,0.265423119,1,0.482639134,1,-0.552625358,1,1.926885366,1
2.207977295,-4.423126698,1,-2.046178818,1,-9.105918884,1,-0.006753972,1,-0.403967589,1,0.261818647,1,0.482299864,1,-0.554496229,1,1.927120924,1
2.211978674,-4.494912148,1,-2.09627223,1,-9.046989441,1,0.057921875,1,-0.424073428,1,0.264122486,1,0.482316405,1,-0.556459486,1,1.927308798,1
2.215982199,-4.033054829,1,-2.56537509,1,-8.937197685,1,0.101504326,1,-0.464568377,1,0.274936765,1,0.482562035,1,-0.558525681,1,1.927455187,1
2.21998167,-4.170297146,1,-2.780435562,1,-8.86780262,1,0.165664166,1,-0.499548823,1,0.290524155,1,0.483030438,1,-0.560760319,1,1.927569747,1
2.223983049,-3.903464079,1,-3.343757153,1,-9.303246498,1,0.202708781,1,-0.551095247,1,0.289613605,1,0.483748794,1,-0.563150465,1,1.927624106,1
2.227981091,-3.137877703,1,-3.27889204,1,-9.497588158,1,0.20611611,1,-0.650174499,1,0.304996431,1,0.484593093,1,-0.565822005,1,1.927550912,1
2.231980562,-3.737370014,1,-2.926389217,1,-9.303512573,1,0.287751615,1,-0.728457868,1,0.331083566,1,0.485693663,1,-0.568860829,1,1.927353263,1
2.23598218,-3.828202724,1,-3.19494319,1,-9.265347481,1,0.309764594,1,-0.771515846,1,0.350005239,1,0.487024039,1,-0.572151184,1,1.927130461,1
2.239979982,-3.724046946,1,-3.874193907,1,-9.562366486,1,0.337143958,1,-0.840501785,1,0.388092279,1,0.488454163,1,-0.575682342,1,1.926889539,1
2.243980169,-3.192329884,1,-3.728710413,1,-9.506015778,1,0.328200787,1,-0.942412794,1,0.391546994,1,0.489951551,1,-0.579558074,1,1.926548004,1
2.247981787,-3.668703794,1,-3.558162689,1,-9.555457115,1,0.399175137,1,-1.049056768,1,0.415679991,1,0.49172917,1,-0.583849192,1,1.925971389,1
2.251979589,-3.501603842,1,-4.525601864,1,-9.68744278,1,0.381733626,1,-1.130757093,1,0.445858181,1,0.493693173,1,-0.588498533,1,1.925308347,1
2.255979061,-3.017235756,1,-4.40447998,1,-9.46016407,1,0.337156177,1,-1.248167872,1,0.444658607,1,0.495558888,1,-0.593530953,1,1.924484968,1
2.259980917,-3.963230371,1,-5.775202751,1,-10.2511797,1,0.312393785,1,-1.367088675,1,0.516824603,1,0.497471213,1,-0.599038959,1,1.923483253,1
2.263978481,-2.38126564,1,-5.553630352,1,-9.603876114,1,0.197295547,1,-1.497067809,1,0.536009908,1,0.499057323,1,-0.605067492,1,1.922429562,1
2.267977953,-2.678853035,1,-6.064524174,1,-9.338521957,1,0.160458565,1,-1.647507548,1,0.604805171,1,0.500504315,1,-0.611686707,1,1.921178818,1
2.271979809,-4.381789684,1,-6.59667635,1,-9.846715927,1,0.059981339,1,-1.747148991,1,0.670454264,1,0.501663387,1,-0.618887067,1,1.919943213,1
2.275977373,-3.932619333,1,-6.194723606,1,-10.13742733,1,0.008135704,1,-1.842086315,1,0.71680373,1,0.50250566,1,-0.626503706,1,1.918690801,1
2.279976845,-3.916642904,1,-6.614131927,1,-9.877354622,1,-0.042606775,1,-1.932134628,1,0.80159694,1,0.503151834,1,-0.634570837,1,1.917472363,1
2.283978701,-3.118275881,1,-6.055142403,1,-9.550450325,1,-0.101853549,1,-2.016456127,1,0.861766517,1,0.503514171,1,-0.643087327,1,1.916356921,1
2.287976503,-3.92952776,1,-6.91232872,1,-10.14301777,1,-0.131587073,1,-2.142521143,1,0.963045418,1,0.503709793,1,-0.652105033,1,1.915293336,1
2.291976213,-4.80376339,1,-7.58081007,1,-10.27811718,1,-0.258475333,1,-2.216811657,1,1.074928045,1,0.503411114,1,-0.661749482,1,1.914523363,1
2.295977831,-3.41156292,1,-7.095850945,1,-9.354870796,1,-0.279567599,1,-2.312048912,1,1.145362973,1,0.502686083,1,-0.671771526,1,1.913901091,1
2.299975395,-3.994829655,1,-7.04531002,1,-9.163827896,1,-0.337258339,1,-2.450349569,1,1.273612142,1,0.501737535,1,-0.682457209,1,1.913468599,1
2.303974867,-4.570962429,1,-7.410583496,1,-8.990440369,1,-0.37331,1,-2.563724756,1,1.37687254,1,0.500439823,1,-0.693803489,1,1.913256407,1
2.307976723,-5.846064568,1,-7.935774326,1,-9.375720978,1,-0.420140117,1,-2.605256557,1,1.509842873,1,0.498779833,1,-0.705665886,1,1.913381457,1
2.311974764,-6.377578735,1,-8.407641411,1,-9.553174973,1,-0.498261958,1,-2.600420713,1,1.633284688,1,0.496479571,1,-0.717827201,1,1.914113402,1
2.315974712,-6.98192215,1,-8.249703407,1,-9.664788246,1,-0.577368021,1,-2.570197582,1,1.735446095,1,0.49342072,1,-0.730143428,1,1.915482998,1
2.31997633,-5.189169407,1,-7.679421425,1,-8.823210716,1,-0.634656072,1,-2.584559441,1,1.858739018,1,0.489644855,1,-0.742595017,1,1.91747129,1
2.323974371,-4.310190201,1,-7.195624352,1,-8.472962379,1,-0.63832444,1,-2.668596029,1,1.999699712,1,0.485322207,1,-0.755481184,1,1.920040607,1
2.327973843,-5.52354908,1,-6.705985546,1,-9.50607872,1,-0.584002495,1,-2.74356842,1,2.202710867,1,0.480571508,1,-0.768989861,1,1.923371673,1
2.33197546,-6.572921276,1,-6.10278368,1,-9.996985435,1,-0.504814327,1,-2.731715918,1,2.312763691,1,0.475416183,1,-0.782888472,1,1.927576065,1
2.335978985,-7.222148418,1,-5.558056831,1,-10.1285038,1,-0.348277479,1,-2.692191839,1,2.368749857,1,0.470270574,1,-0.796805501,1,1.932412863,1
2.339978456,-9.830605507,1,-5.168096542,1,-10.67846489,1,-0.230355039,1,-2.634149551,1,2.432045221,1,0.4651981,1,-0.810658514,1,1.937856078,1
2.343980074,-9.996987343,1,-5.160803795,1,-10.63341999,1,-0.177668676,1,-2.509449482,1,2.488693476,1,0.459937364,1,-0.824282348,1,1.943986058,1
2.347977638,-7.637278557,1,-5.182038307,1,-8.896907806,1,-0.214512959,1,-2.406747818,1,2.460618019,1,0.454154253,1,-0.837457001,1,1.950784802,1
2.35197711,-7.354583263,1,-4.433356762,1,-8.463767052,1,-0.25300324,1,-2.368572712,1,2.431378365,1,0.447994977,1,-0.850305915,1,1.957764387,1
2.355978966,-7.953248501,1,-4.908768177,1,-9.028775215,1,-0.258427322,1,-2.359122038,1,2.370672464,1,0.441605568,1,-0.862999976,1,1.964832306,1
2.359976768,-9.582213402,1,-4.588829517,1,-11.25242615,1,-0.193053082,1,-2.263886929,1,2.219558954,1,0.435508698,1,-0.875308633,1,1.971609116,1
2.36397624,-10.06887913,1,-5.777350426,1,-12.0094223,1,-0.17266953,1,-2.071195841,1,2.10883522,1,0.429747224,1,-0.886795998,1,1.978222966,1
2.367978096,-8.835395813,1,-7.406853199,1,-11.92510319,1,-0.312369287,1,-1.850440502,1,1.981512666,1,0.423539579,1,-0.89736104,1,1.984951377,1
2.37197566,-7.245083809,1,-8.247885704,1,-11.56932831,1,-0.515307009,1,-1.641174078,1,1.697012901,1,0.416941851,1,-0.906726778,1,1.991242647,1
2.375975132,-6.851138592,1,-8.2102108,1,-12.29312038,1,-0.694043458,1,-1.441065311,1,1.45289278,1,0.410320401,1,-0.914916158,1,1.99656558,1
2.379976988,-6.331188202,1,-8.133491516,1,-11.79074478,1,-0.880612075,1,-1.238796353,1,1.195278406,1,0.403556466,1,-0.921939969,1,2.001111269,1
2.383974552,-4.259011269,1,-8.523080826,1,-11.83583069,1,-1.043582082,1,-1.061636329,1,0.942977965,1,0.396849632,1,-0.927816629,1,2.004665375,1
2.387974977,-2.089913368,1,-7.572670937,1,-10.10442162,1,-1.187968493,1,-0.998712003,1,0.823131204,1,0.390143991,1,-0.932937741,1,2.007461071,1
2.391976595,-4.121552467,1,-3.118155718,1,-9.998883247,1,-1.168521643,1,-0.973176599,1,0.644044816,1,0.383630663,1,-0.937732577,1,2.009576082,1
2.395974398,-6.585434914,1,-2.637251377,1,-11.04497719,1,-0.74067378,1,-0.856396317,1,0.461208403,1,0.378848106,1,-0.941967547,1,2.01071763,1
2.399974108,-6.005837917,1,-4.212379456,1,-11.81799889,1,-0.445019156,1,-0.6054672,1,0.311737567,1,0.376557648,1,-0.945426166,1,2.0093503,1
2.403975725,-2.678097963,1,-4.704037666,1,-11.41411018,1,-0.2755045,1,-0.3519409,1,0.192230925,1,0.37479353,1,-0.947544754,1,2.009773254,1
2.407973051,-0.544695318,1,-4.514908314,1,-10.03056812,1,-0.181051701,1,-0.228017747,1,0.089860938,1,0.373764813,1,-0.94878602,1,2.00992918,1
2.411972523,0.177861825,1,-4.15781641,1,-8.825016022,1,-0.117288291,1,-0.201405227,1,0.043277085,1,0.37327069,1,-0.949676216,1,2.009801626,1
2.41597414,0.980974615,1,-3.930836678,1,-7.926086426,1,-0.042566366,1,-0.221560985,1,0.051715016,1,0.373137206,1,-0.950525284,1,2.009575129,1
2.419971943,1.743874192,1,-4.007590771,1,-7.426018238,1,0.015099311,1,-0.248920485,1,0.075538799,1,0.373246014,1,-0.951484919,1,2.009381294,1
2.423971415,1.970983505,1,-3.812118292,1,-7.17595911,1,0.048592772,1,-0.274227321,1,0.111241974,1,0.373423398,1,-0.952582479,1,2.009320498,1
2.427972794,1.94931221,1,-3.381210566,1,-7.115327835,1,0.069000326,1,-0.30603838,1,0.151772842,1,0.373562187,1,-0.953858018,1,2.009435892,1
2.431970596,1.838450432,1,-2.943856001,1,-7.224423885,1,0.100556046,1,-0.32556805,1,0.192767143,1,0.373640746,1,-0.955290496,1,2.009738445,1
2.435970068,1.425256371,1,-2.691599607,1,-7.41947794,1,0.148259103,1,-0.318874478,1,0.217492417,1,0.373725593,1,-0.956797719,1,2.010246038,1
2.439971685,0.880648136,1,-2.618612766,1,-7.680556774,1,0.214566842,1,-0.27145949,1,0.230986983,1,0.373869717,1,-0.958230197,1,2.010957956,1
2.44396925,0.528952122,1,-2.77849102,1,-7.97343874,1,0.280131489,1,-0.195509493,1,0.236861244,1,0.374099195,1,-0.959449351,1,2.011882782,1
2.447968721,0.120417088,1,-3.058609724,1,-8.379912376,1,0.334253937,1,-0.07895796,1,0.236560866,1,0.374340147,1,-0.960311711,1,2.01308918,1
2.451970577,-0.277087837,1,-3.188481331,1,-8.681524277,1,0.369104385,1,0.060175732,1,0.215090975,1,0.374554813,1,-0.960687637,1,2.014547825,1
2.455974102,-0.56550777,1,-3.14859724,1,-8.790020943,1,0.397623003,1,0.219375327,1,0.177114919,1,0.374745488,1,-0.960472286,1,2.016188145,1
2.459973812,-0.517673671,1,-3.002810717,1,-8.737222672,1,0.407379657,1,0.386352241,1,0.137975007,1,0.374887288,1,-0.959580481,1,2.017980099,1
2.463975668,-0.245899707,1,-2.938539028,1,-8.578659058,1,0.419521064,1,0.547768652,1,0.096229628,1,0.374930918,1,-0.958008885,1,2.019943953,1
2.467973471,0.034458596,1,-2.830648184,1,-8.353499413,1,0.421268523,1,0.701394856,1,0.072085768,1,0.374871343,1,-0.955798984,1,2.022086382,1
2.471972942,0.387561589,1,-2.72942996,1,-8.103602409,1,0.429812461,1,0.830625713,1,0.049715817,1,0.37467742,1,-0.953033566,1,2.024408102,1
2.47597456,0.590576708,1,-2.695905685,1,-7.779049397,1,0.427656978,1,0.949322164,1,0.037962686,1,0.374337971,1,-0.949780226,1,2.026929617,1
2.479972363,0.727448404,1,-2.559864998,1,-7.506601334,1,0.425167352,1,1.052027106,1,0.033186797,1,0.373826146,1,-0.946111917,1,2.029659748,1
2.483972073,0.630732775,1,-2.539595842,1,-7.279314518,1,0.424445957,1,1.134821773,1,0.036209296,1,0.3731457,1,-0.942097723,1,2.032599449,1
2.48797369,0.507284164,1,-2.638711929,1,-7.084261417,1,0.41214022,1,1.220214128,1,0.033156332,1,0.372294545,1,-0.937758327,1,2.035734415,1
2.491971254,0.398195356,1,-2.803896904,1,-6.870240211,1,0.394725531,1,1.288314104,1,0.026009768,1,0.371296555,1,-0.933125734,1,2.038985491,1
2.495970964,0.312806994,1,-2.990850687,1,-6.636071682,1,0.356912643,1,1.349600434,1,0.016366474,1,0.370118558,1,-0.928244591,1,2.042323828,1
2.499972582,0.24856478,1,-3.05826211,1,-6.560016155,1,0.319603413,1,1.401755691,1,-0.000371811,1,0.368786752,1,-0.923109293,1,2.045688629,1
2.503970385,-0.019276066,1,-3.124879122,1,-6.590075016,1,0.285904616,1,1.450119138,1,-0.028811026,1,0.367371619,1,-0.917762756,1,2.048979282,1
2.507969856,-0.312540531,1,-3.188664436,1,-6.675850868,1,0.262130141,1,1.500315189,1,-0.069241501,1,0.365954816,1,-0.912181079,1,2.052142382,1
2.511971235,-0.650056362,1,-3.259248972,1,-6.747170925,1,0.249976471,1,1.556037903,1,-0.119878463,1,0.364615262,1,-0.906332731,1,2.055132389,1
2.515969038,-0.998331428,1,-3.368875265,1,-6.879670143,1,0.243907556,1,1.617262006,1,-0.180941179,1,0.363448739,1,-0.900191188,1,2.057881594,1
2.51996851,-1.272219181,1,-3.461684704,1,-6.98385334,1,0.238476411,1,1.68347311,1,-0.252209961,1,0.36249131,1,-0.893711984,1,2.060347319,1
2.523970127,-1.458084822,1,-3.586753607,1,-6.99639082,1,0.232376829,1,1.745615363,1,-0.325839758,1,0.361760378,1,-0.886894226,1,2.06249404,1
2.52796793,-1.60035038,1,-3.719972372,1,-7.052854061,1,0.227247104,1,1.795439363,1,-0.399932981,1,0.361279368,1,-0.879752994,1,2.064306498,1
2.531968117,-1.669057131,1,-3.819100142,1,-7.137101173,1,0.217798725,1,1.845553517,1,-0.46676597,1,0.36102885,1,-0.872318625,1,2.065787792,1
2.535969734,-1.753372312,1,-3.930630922,1,-7.214387894,1,0.216091037,1,1.883775592,1,-0.529600799,1,0.360995203,1,-0.864630342,1,2.066976786,1
2.539967775,-1.941006541,1,-3.855466843,1,-7.297724724,1,0.220107079,1,1.914494872,1,-0.589499533,1,0.361175776,1,-0.85672158,1,2.06788063,1
2.543967247,-2.179455519,1,-3.773477316,1,-7.373889923,1,0.236332595,1,1.94171226,1,-0.642216504,1,0.36161238,1,-0.848634899,1,2.068520784,1
2.547969103,-2.44021821,1,-3.611485243,1,-7.500657082,1,0.260618985,1,1.956895232,1,-0.688363254,1,0.362292588,1,-0.840404391,1,2.068941832,1
2.551966667,-2.607399464,1,-3.491762161,1,-7.605020523,1,0.294850737,1,1.972191572,1,-0.726178408,1,0.363235325,1,-0.832046032,1,2.069159269,1
2.555966139,-2.787908316,1,-3.410397053,1,-7.792933941,1,0.336817145,1,1.985467315,1,-0.752162337,1,0.364442945,1,-0.823585927,1,2.069233656,1
2.559967995,-3.013789177,1,-3.299445152,1,-8.101506233,1,0.396060735,1,1.999326229,1,-0.778633416,1,0.365928352,1,-0.815046966,1,2.069204807,1
2.563965797,-3.50404191,1,-3.336561203,1,-8.434504509,1,0.461385667,1,2.02109313,1,-0.808549821,1,0.367723614,1,-0.80641222,1,2.069093227,1
2.567965269,-4.056030273,1,-3.475177526,1,-8.678115845,1,0.517836988,1,2.064016819,1,-0.834040105,1,0.369801998,1,-0.797606289,1,2.06893158,1
2.571966648,-4.397340298,1,-3.691045523,1,-8.818358421,1,0.549627125,1,2.121232748,1,-0.869804502,1,0.372095644,1,-0.788562298,1,2.068717957,1
2.575970411,-4.473642826,1,-3.849350214,1,-8.869412422,1,0.564361989,1,2.171160221,1,-0.902422547,1,0.374501646,1,-0.779274225,1,2.068484306,1
2.579970121,-4.509185791,1,-3.9610641,1,-8.943200111,1,0.568656743,1,2.215234995,1,-0.933528364,1,0.376959413,1,-0.769764602,1,2.068211079,1
2.5839715,-4.479701042,1,-3.933073759,1,-9.022771835,1,0.576536477,1,2.250920057,1,-0.965700448,1,0.379472852,1,-0.760068417,1,2.067900181,1
2.587969303,-4.521829128,1,-3.765838146,1,-9.078817368,1,0.580969989,1,2.271727562,1,-0.987131,1,0.382029712,1,-0.750222564,1,2.067544222,1
2.591969013,-4.562113762,1,-3.579065323,1,-8.985142708,1,0.59872669,1,2.29991293,1,-1.006196856,1,0.384639561,1,-0.740254998,1,2.067166805,1
2.595970631,-4.646452427,1,-3.43314743,1,-8.947670937,1,0.619879365,1,2.311139107,1,-1.021781325,1,0.38733387,1,-0.730192661,1,2.066786766,1
2.599967957,-4.624228477,1,-3.441672802,1,-8.818144798,1,0.643714845,1,2.314772129,1,-1.037435532,1,0.390131295,1,-0.720070839,1,2.066379786,1
2.603967667,-4.645280361,1,-3.475799084,1,-8.697823524,1,0.655766785,1,2.305577755,1,-1.053512812,1,0.393043399,1,-0.709930301,1,2.065912962,1
2.607969522,-4.658165455,1,-3.664088488,1,-8.677083015,1,0.658356845,1,2.284462452,1,-1.079891205,1,0.396015823,1,-0.699810624,1,2.065380573,1
2.611967564,-4.768554688,1,-3.880475521,1,-8.746229172,1,0.644189119,1,2.25282979,1,-1.09738183,1,0.399036825,1,-0.689751863,1,2.064730406,1
2.615967274,-5.107126713,1,-3.982933044,1,-8.865049362,1,0.615046978,1,2.231985807,1,-1.126999021,1,0.402037501,1,-0.679763317,1,2.063972235,1
2.619968653,-5.38665247,1,-4.038803101,1,-8.977171898,1,0.59326607,1,2.210354328,1,-1.155598879,1,0.405029774,1,-0.669796348,1,2.063055515,1
2.623966455,-5.670186996,1,-3.833900213,1,-9.070607185,1,0.576972008,1,2.195300102,1,-1.205506682,1,0.40803206,1,-0.65983218,1,2.061970472,1
2.627965927,-5.806055069,1,-3.653060198,1,-9.191525459,1,0.571657896,1,2.177404642,1,-1.251715183,1,0.411111563,1,-0.64985764,1,2.060678005,1
2.631967545,-5.869765759,1,-3.466037989,1,-9.255420685,1,0.58122766,1,2.158423185,1,-1.302801132,1,0.414311767,1,-0.639858365,1,2.059174299,1
2.635965109,-5.79112196,1,-3.435570955,1,-9.208064079,1,0.594067514,1,2.139456987,1,-1.352321267,1,0.417685837,1,-0.629844248,1,2.057452202,1
2.639964581,-5.735922813,1,-3.380128145,1,-9.170951843,1,0.607368767,1,2.107036591,1,-1.399987817,1,0.421218336,1,-0.619841516,1,2.055519819,1
2.643966436,-5.644411087,1,-3.426050663,1,-9.100261688,1,0.609284639,1,2.057408571,1,-1.442831516,1,0.424901247,1,-0.60991019,1,2.053358555,1
2.647964239,-5.462416649,1,-3.374210119,1,-8.957110405,1,0.609323025,1,2.002409697,1,-1.47887063,1,0.428692341,1,-0.60009706,1,2.050984621,1
2.651963711,-5.293918133,1,-3.309093952,1,-8.782055855,1,0.599821091,1,1.929586768,1,-1.50971508,1,0.432553262,1,-0.590502739,1,2.047777414,1
2.655965328,-5.069093227,1,-3.143930435,1,-8.628433228,1,0.584595561,1,1.850587964,1,-1.537891984,1,0.436469644,1,-0.581083298,1,2.044971228,1
2.659963131,-4.896193981,1,-3.005803108,1,-8.418694496,1,0.564935327,1,1.756386757,1,-1.556440353,1,0.440415293,1,-0.571920872,1,2.041945219,1
2.663962841,-4.627575874,1,-2.834110737,1,-8.301876068,1,0.543870091,1,1.653409958,1,-1.562150598,1,0.444372535,1,-0.563088298,1,2.038714647,1
2.667964458,-4.333676815,1,-2.59480381,1,-8.074192047,1,0.531194031,1,1.532891393,1,-1.57279551,1,0.448339343,1,-0.554633498,1,2.035292149,1
2.671962023,-4.122538567,1,-2.30829668,1,-7.989758015,1,0.516079962,1,1.398430228,1,-1.572928667,1,0.452340722,1,-0.546615839,1,2.031639099,1
2.67596221,-3.892598152,1,-2.184620619,1,-7.916624069,1,0.499661058,1,1.249133825,1,-1.569451213,1,0.456373155,1,-0.539092481,1,2.027752399,1
2.679963827,-3.866947412,1,-2.247304916,1,-7.890022755,1,0.476379603,1,1.092494965,1,-1.562858701,1,0.460427195,1,-0.532119691,1,2.023626566,1
2.683961868,-4.250835896,1,-2.810563326,1,-8.123530388,1,0.443104953,1,0.93512243,1,-1.542292476,1,0.464455634,1,-0.525724053,1,2.019288063,1
2.68796134,-5.189096451,1,-3.654582977,1,-8.644944191,1,0.395260006,1,0.819864571,1,-1.493684888,1,0.468351901,1,-0.519870162,1,2.014846802,1
2.691962957,-6.519886494,1,-4.067173481,1,-9.280622482,1,0.315330952,1,0.770889878,1,-1.459740281,1,0.471950442,1,-0.514377832,1,2.010453224,1
2.695960522,-7.801899433,1,-4.164473057,1,-9.787884712,1,0.202866524,1,0.791430235,1,-1.466316104,1,0.475121975,1,-0.508945405,1,2.006109238,1
2.699966192,-8.530153275,1,-4.157052517,1,-10.24417496,1,0.094221555,1,0.864167988,1,-1.491631746,1,0.47778815,1,-0.503292203,1,2.0018363,1
2.703968048,-8.895977974,1,-4.015796661,1,-10.60227013,1,-0.008331256,1,0.962555408,1,-1.51655972,1,0.479958177,1,-0.497289598,1,1.997668505,1
2.707965851,-8.791461945,1,-3.765289783,1,-10.91757298,1,-0.086212628,1,1.077883005,1,-1.536839128,1,0.481657863,1,-0.490837663,1,1.993675351,1
2.711965322,-8.578378677,1,-3.372442484,1,-11.01535225,1,-0.137375981,1,1.183661222,1,-1.548045635,1,0.482988715,1,-0.483968019,1,1.989855289,1
2.715967178,-8.460740089,1,-3.138856888,1,-11.02913857,1,-0.160504565,1,1.261430264,1,-1.548600197,1,0.484060675,1,-0.476750284,1,1.986221433,1
2.719965219,-8.516908646,1,-2.900557041,1,-10.94869328,1,-0.160424843,1,1.343249917,1,-1.531855822,1,0.484962553,1,-0.469274282,1,1.982821107,1
2.723964691,-8.582517624,1,-2.776958466,1,-10.69141769,1,-0.149441645,1,1.418031931,1,-1.508693695,1,0.485748112,1,-0.461557269,1,1.979694963,1
2.727966309,-8.530535698,1,-2.682904243,1,-10.45300388,1,-0.141630545,1,1.484167457,1,-1.482056618,1,0.486437559,1,-0.453628004,1,1.976829886,1
2.731963873,-8.353653908,1,-2.764936924,1,-10.24239731,1,-0.134955153,1,1.534577608,1,-1.43591547,1,0.487020731,1,-0.445559025,1,1.974227667,1
2.735963345,-8.329012871,1,-3.042884588,1,-10.11912918,1,-0.133120492,1,1.582333565,1,-1.39036572,1,0.487458318,1,-0.437397301,1,1.971937537,1
2.7399652,-8.4835186,1,-3.316508055,1,-10.13746452,1,-0.143940479,1,1.626350403,1,-1.335819602,1,0.487739325,1,-0.429177374,1,1.96994555,1
2.743962765,-8.704954147,1,-3.43893218,1,-10.03571129,1,-0.160891578,1,1.673036456,1,-1.291941524,1,0.487832665,1,-0.420885563,1,1.968236089,1
2.747962475,-8.92775631,1,-3.466712236,1,-9.904670715,1,-0.172109604,1,1.719439745,1,-1.262902856,1,0.487764746,1,-0.4125036,1,1.966780901,1
2.751964092,-8.948607445,1,-3.326938629,1,-9.747365952,1,-0.187302604,1,1.774056673,1,-1.241912127,1,0.487541139,1,-0.403981239,1,1.965531826,1
2.755961895,-8.731744766,1,-3.133359432,1,-9.496653557,1,-0.186927378,1,1.831632495,1,-1.234325409,1,0.48721993,1,-0.395281583,1,1.964453816,1
2.759961605,-8.374704361,1,-2.928717613,1,-9.219569206,1,-0.166934073,1,1.871129751,1,-1.221634984,1,0.486867279,1,-0.386436164,1,1.963513136,1
2.763963223,-7.871145725,1,-2.715380669,1,-8.821194649,1,-0.132140964,1,1.881948113,1,-1.202914,1,0.486576378,1,-0.377530873,1,1.962676883,1
2.767960787,-7.301638603,1,-2.551539898,1,-8.347265244,1,-0.074835919,1,1.86450088,1,-1.17961812,1,0.486435652,1,-0.368671715,1,1.96190834,1
2.771960497,-6.729971409,1,-2.4996984,1,-7.830832005,1,-0.016240465,1,1.81305182,1,-1.139580607,1,0.486501306,1,-0.360001981,1,1.961208105,1
2.775962353,-6.205457687,1,-2.558828354,1,-7.414112091,1,0.04948891,1,1.738384962,1,-1.08514154,1,0.486796498,1,-0.351636946,1,1.960557818,1
2.779960155,-5.779500484,1,-2.685954094,1,-7.05711937,1,0.108392626,1,1.632152677,1,-1.022089601,1,0.487320185,1,-0.343696356,1,1.959956408,1
2.783959627,-5.462963104,1,-2.776110649,1,-6.64286375,1,0.171531409,1,1.514172912,1,-0.958265722,1,0.488072962,1,-0.336279333,1,1.959378004,1
2.787961006,-5.20128727,1,-2.763618946,1,-6.354850292,1,0.222440273,1,1.371445179,1,-0.884621859,1,0.489056945,1,-0.329449773,1,1.9588027,1
2.791958809,-4.923501492,1,-2.79610157,1,-6.18766737,1,0.27235204,1,1.221255302,1,-0.83110559,1,0.490255922,1,-0.32325995,1,1.958188534,1
2.795958281,-5.158462048,1,-2.756321669,1,-6.188904762,1,0.311763614,1,1.064585567,1,-0.775478899,1,0.491654634,1,-0.317724466,1,1.957479954,1
2.799959898,-5.550940514,1,-2.961086512,1,-6.254673958,1,0.325696826,1,0.919697523,1,-0.737420857,1,0.493198454,1,-0.312803,1,1.956653118,1
2.803957462,-6.2064991,1,-3.365615845,1,-6.283532143,1,0.316903561,1,0.809852242,1,-0.707613349,1,0.494782597,1,-0.308404803,1,1.955698729,1
2.807957172,-6.762812138,1,-3.684450388,1,-6.359261513,1,0.260817707,1,0.724091947,1,-0.671436071,1,0.496253639,1,-0.304387957,1,1.954679966,1
2.81195879,-6.899372578,1,-3.858478308,1,-6.359498978,1,0.205881283,1,0.659935534,1,-0.637358487,1,0.497488201,1,-0.300707161,1,1.953652382,1
2.815956593,-6.969480515,1,-3.836518049,1,-6.467269421,1,0.145524651,1,0.602485597,1,-0.579192221,1,0.498481333,1,-0.297323108,1,1.952666879,1
2.819962025,-7.072732925,1,-3.535252094,1,-6.615657806,1,0.091685697,1,0.555057824,1,-0.523478031,1,0.499215305,1,-0.294232726,1,1.951790571,1
2.823963881,-7.221783161,1,-3.121537924,1,-6.750379562,1,0.056629196,1,0.512542844,1,-0.465597928,1,0.499718547,1,-0.291414589,1,1.951047659,1
2.827961683,-7.34222126,1,-2.668362856,1,-6.803754807,1,0.028994871,1,0.466745168,1,-0.416806877,1,0.500061631,1,-0.288846701,1,1.950409412,1
2.831961155,-7.347200871,1,-2.274093628,1,-6.725575447,1,0.009106801,1,0.428504646,1,-0.362853438,1,0.500287533,1,-0.286538661,1,1.949883938,1
2.835962772,-7.333692074,1,-1.963426232,1,-6.561009884,1,0.007019762,1,0.389749527,1,-0.309882432,1,0.500415504,1,-0.28445214,1,1.949479461,1
2.839960575,-7.127272606,1,-1.978687882,1,-6.550166607,1,0.005847997,1,0.340013206,1,-0.250291169,1,0.50051719,1,-0.282636106,1,1.949180245,1
2.843960047,-7.069092274,1,-2.093076944,1,-6.729170799,1,0.025611902,1,0.298655391,1,-0.172778502,1,0.50061959,1,-0.281114399,1,1.949047327,1
2.847961903,-7.470115662,1,-2.202104092,1,-7.072593689,1,0.058437724,1,0.263237923,1,-0.106417827,1,0.50077641,1,-0.279863179,1,1.949097753,1
2.851959467,-8.219074249,1,-2.113377094,1,-7.367844105,1,0.10171032,1,0.235269085,1,-0.082783669,1,0.501051068,1,-0.278814614,1,1.949257493,1
2.855959177,-8.811984062,1,-2.011386871,1,-7.46374464,1,0.140037537,1,0.244624913,1,-0.075036831,1,0.501482546,1,-0.277825475,1,1.949441552,1
2.859961033,-8.877664566,1,-2.10082674,1,-7.417233944,1,0.185977131,1,0.273674607,1,-0.088449799,1,0.502074361,1,-0.27676636,1,1.949659944,1
2.863958836,-8.749978065,1,-2.260002136,1,-7.429609299,1,0.227254584,1,0.309011549,1,-0.109793782,1,0.502827406,1,-0.27556026,1,1.949887037,1
2.867958546,-8.509553909,1,-2.292976856,1,-7.456240654,1,0.278281033,1,0.350025892,1,-0.139731258,1,0.503786266,1,-0.274175227,1,1.950099707,1
2.871960163,-8.171074867,1,-2.254437208,1,-7.318224907,1,0.338608325,1,0.379215539,1,-0.17927973,1,0.504969299,1,-0.272593498,1,1.950253248,1
2.875957727,-7.606236458,1,-2.166811466,1,-7.010282516,1,0.404306501,1,0.398061186,1,-0.214206368,1,0.506430268,1,-0.2708444,1,1.950322628,1
2.879957438,-6.967607498,1,-2.044757605,1,-6.799982548,1,0.46774146,1,0.391420037,1,-0.23728624,1,0.508178174,1,-0.26902616,1,1.950300097,1
2.883959055,-6.349449158,1,-1.960719109,1,-6.457490444,1,0.538011611,1,0.367287129,1,-0.25656864,1,0.51021862,1,-0.267205477,1,1.950170636,1
2.887957096,-5.734205246,1,-1.880556107,1,-6.061100483,1,0.608661771,1,0.31534633,1,-0.268269151,1,0.512574792,1,-0.265501142,1,1.949930429,1
2.891956806,-5.179589272,1,-1.887732387,1,-5.741538525,1,0.686292708,1,0.240114868,1,-0.253706187,1,0.515263677,1,-0.264015704,1,1.949552298,1
2.895958424,-4.792216778,1,-2.004617214,1,-5.502213001,1,0.749635518,1,0.150767177,1,-0.240895241,1,0.518265069,1,-0.262832642,1,1.949066401,1
2.899956465,-4.570088863,1,-2.151425123,1,-5.325754166,1,0.808032095,1,0.044602204,1,-0.226344451,1,0.521604478,1,-0.262079835,1,1.94804585,1
2.903955936,-4.533771038,1,-2.32799077,1,-5.231581211,1,0.849979103,1,-0.070355013,1,-0.207013384,1,0.525131524,1,-0.261692017,1,1.947256804,1
2.907957554,-4.654954433,1,-2.486758709,1,-5.194067478,1,0.872876704,1,-0.183612064,1,-0.195965841,1,0.528829694,1,-0.261732489,1,1.946277738,1
2.911955118,-5.110528469,1,-2.763775349,1,-5.252059937,1,0.874432802,1,-0.296083957,1,-0.197518036,1,0.53263998,1,-0.262158453,1,1.945072651,1
2.91595459,-5.704723358,1,-3.105836868,1,-5.320389271,1,0.856955647,1,-0.373510599,1,-0.198371589,1,0.536474168,1,-0.262910455,1,1.943656683,1
2.919956446,-6.27736187,1,-3.434890747,1,-5.406065941,1,0.81344533,1,-0.427942246,1,-0.204783157,1,0.540234864,1,-0.263874561,1,1.942080498,1
2.923954248,-6.673947811,1,-3.813904762,1,-5.477682114,1,0.747120798,1,-0.456902027,1,-0.203062609,1,0.543797255,1,-0.264980465,1,1.940410614,1
2.92795372,-6.86284399,1,-3.985913754,1,-5.6229949,1,0.664334357,1,-0.471938789,1,-0.203229368,1,0.54708147,1,-0.266154349,1,1.938684344,1
2.931955338,-6.763606071,1,-3.965252399,1,-5.576994419,1,0.574958682,1,-0.480264187,1,-0.188291356,1,0.550017118,1,-0.267378479,1,1.936947346,1
2.93595314,-6.353823185,1,-3.783503771,1,-5.463175297,1,0.485058725,1,-0.4962053,1,-0.158021852,1,0.552582741,1,-0.268674999,1,1.935273409,1
2.939958811,-5.620803833,1,-3.380024672,1,-5.427204609,1,0.408828974,1,-0.532818735,1,-0.107143797,1,0.554791808,1,-0.270124525,1,1.933677673,1
2.943960667,-4.767564297,1,-2.997035742,1,-5.42672348,1,0.355654567,1,-0.592526436,1,-0.03679356,1,0.556712389,1,-0.271879822,1,1.932188749,1
2.947958231,-4.069970608,1,-2.776741266,1,-5.544869423,1,0.3285698,1,-0.672204733,1,0.058363173,1,0.558437347,1,-0.274045527,1,1.930835128,1
2.951957941,-3.649012089,1,-2.616082907,1,-5.66860342,1,0.328324795,1,-0.755721509,1,0.159886166,1,0.560062826,1,-0.276697934,1,1.929635525,1
2.955959797,-3.713614464,1,-2.411425829,1,-5.904372692,1,0.349233389,1,-0.837647438,1,0.254689753,1,0.561697364,1,-0.279842019,1,1.92860198,1
2.9599576,-3.997103214,1,-2.230849266,1,-6.066197872,1,0.389457464,1,-0.905552506,1,0.343701094,1,0.563416302,1,-0.283433974,1,1.927719116,1
2.96395731,-4.348167419,1,-2.140581369,1,-6.238516331,1,0.44371435,1,-0.952083528,1,0.420724452,1,0.565282226,1,-0.287392497,1,1.92699492,1
2.967958927,-4.682426453,1,-2.17966032,1,-6.469091892,1,0.524009109,1,-0.978882372,1,0.493730515,1,0.567377329,1,-0.291646361,1,1.926436424,1
2.97195673,-5.027682781,1,-2.333502531,1,-6.791446686,1,0.619270563,1,-0.990022659,1,0.550672293,1,0.569764078,1,-0.296094388,1,1.926064372,1
2.975956678,-5.749931335,1,-2.525105953,1,-7.149076939,1,0.745253563,1,-0.978233695,1,0.582882166,1,0.572558403,1,-0.300647438,1,1.92583251,1
2.979958296,-6.938261509,1,-2.669605017,1,-7.441861153,1,0.864378691,1,-0.936608434,1,0.572599351,1,0.575816572,1,-0.30513671,1,1.925703287,1
2.98395586,-8.3888731,1,-3.074555397,1,-7.671868801,1,0.974580467,1,-0.838726521,1,0.515309572,1,0.579547882,1,-0.309319466,1,1.925574064,1
2.987955809,-9.413951874,1,-3.617765665,1,-7.777089596,1,1.038668871,1,-0.705661118,1,0.403516471,1,0.583644509,1,-0.312918723,1,1.925400496,1
2.991957188,-9.625689507,1,-4.245561123,1,-7.6610322,1,1.059608698,1,-0.548459947,1,0.269857854,1,0.587933064,1,-0.31575501,1,1.925125837,1
2.99595499,-9.260544777,1,-4.819561481,1,-7.3659091,1,1.034027934,1,-0.411158174,1,0.130495548,1,0.592253804,1,-0.31779471,1,1.924709797,1
2.999954462,-5.739553928,1,-7.927533627,1,-8.935950279,1,0.877445281,1,-0.367545396,1,0.002581553,1,0.596392751,1,-0.319187969,1,1.924040198,1
3.003956079,-0.567727089,1,-18.0968132,1,-6.980525017,1,-0.246811137,1,-0.803810716,1,0.036958359,1,0.598141193,1,-0.321015716,1,1.922738552,1
3.007953644,-13.43929958,1,-10.67888927,1,-2.577832222,1,-0.899179697,1,-1.210766196,1,0.240963653,1,0.596311748,1,-0.324835539,1,1.920725346,1
3.011953115,-4.616096497,1,-8.835822105,1,-0.841059864,1,-1.440932751,1,-1.174364328,1,0.301287234,1,0.592294753,1,-0.329360008,1,1.91886878,1
3.015954971,2.758778811,1,-4.135729313,1,-0.718395174,1,-1.820787191,1,-1.550012946,1,0.539017022,1,0.586190581,1,-0.334723711,1,1.917182803,1
3.019952536,-1.299576044,1,0.253030956,1,-1.843532324,1,-1.803207278,1,-2.01984787,1,0.6756019,1,0.57953614,1,-0.34208262,1,1.915193439,1
3.023952246,-7.819504261,1,1.588295698,1,-3.851732254,1,-1.637578845,1,-2.303526402,1,0.669345737,1,0.573539793,1,-0.350848258,1,1.9125669,1
3.027953863,-10.27355957,1,-0.074251384,1,-4.896501064,1,-1.550455451,1,-2.443551302,1,0.633495152,1,0.568315506,1,-0.360255539,1,1.909414411,1
3.031951666,-6.609456062,1,-1.635462046,1,-5.859275818,1,-1.529900789,1,-2.528355122,1,0.641572952,1,0.563354492,1,-0.370020688,1,1.906008601,1
3.035951138,-3.1867342,1,-2.755142689,1,-7.3504529,1,-1.509332299,1,-2.612641096,1,0.598630607,1,0.55859983,1,-0.380044103,1,1.902396202,1
3.039952993,-6.834289074,1,-4.051843166,1,-9.476299286,1,-1.500865936,1,-2.66738081,1,0.555836082,1,0.554038286,1,-0.390254557,1,1.898469687,1
3.043950558,-8.730175972,1,-3.30734086,1,-11.96778488,1,-1.379110932,1,-2.509063005,1,0.517240584,1,0.549734831,1,-0.40023464,1,1.894533515,1
3.047950268,-8.31536293,1,-5.058909893,1,-13.3479414,1,-1.297104836,1,-2.310076714,1,0.515659571,1,0.545880258,1,-0.409524977,1,1.890969634,1
3.051952124,-8.373565674,1,-3.730187654,1,-13.66203308,1,-1.267871857,1,-2.05546999,1,0.614680052,1,0.541817069,1,-0.418178767,1,1.888145804,1
3.055950165,-6.764114857,1,-2.568004847,1,-12.6276226,1,-1.219774127,1,-1.859223604,1,0.714219451,1,0.537628651,1,-0.42623657,1,1.886218429,1
3.059956074,-5.489879608,1,-0.972067475,1,-12.85573387,1,-1.130334973,1,-1.738143682,1,0.924613297,1,0.533293605,1,-0.434067905,1,1.885268569,1
3.063957691,-6.549795628,1,0.699859142,1,-12.51911545,1,-1.012402654,1,-1.640894651,1,1.066764116,1,0.52899009,1,-0.441935599,1,1.885306478,1
3.067955494,-6.792897701,1,1.39574945,1,-11.97068882,1,-0.845806181,1,-1.548321128,1,1.139962316,1,0.524974227,1,-0.449671507,1,1.885991335,1
3.071954966,-8.595955849,1,1.787693739,1,-12.00356102,1,-0.647273898,1,-1.46582377,1,1.148540497,1,0.521502852,1,-0.457193434,1,1.887059212,1
3.075956583,-10.50775242,1,-0.413094401,1,-12.1752243,1,-0.509701312,1,-1.344313145,1,1.090210199,1,0.518690467,1,-0.464316607,1,1.88826704,1
3.079954147,-12.79549408,1,-2.798027515,1,-12.17558765,1,-0.484524637,1,-1.149999738,1,1.039325953,1,0.516109705,1,-0.470795721,1,1.889641523,1
3.083953619,-13.31068993,1,-4.101588249,1,-11.42611408,1,-0.458643347,1,-0.918280602,1,0.952601671,1,0.51347208,1,-0.476370186,1,1.89127481,1
3.087955236,-11.57431221,1,-5.213628769,1,-10.12961674,1,-0.436012059,1,-0.718469799,1,0.793451965,1,0.510933042,1,-0.48091197,1,1.892901897,1
3.091952801,-8.69075489,1,-4.868835926,1,-8.937696457,1,-0.374632001,1,-0.617681324,1,0.636398554,1,0.508682668,1,-0.484604806,1,1.894249558,1
3.095952272,-6.986063957,1,-5.374899387,1,-8.229537964,1,-0.363085568,1,-0.593059897,1,0.569852471,1,0.506752431,1,-0.487875789,1,1.895264864,1
3.09995389,-5.511089802,1,-5.19051981,1,-7.925910473,1,-0.39912647,1,-0.595279574,1,0.58199054,1,0.504756808,1,-0.491057098,1,1.89624083,1
3.103951693,-3.878507853,1,-4.429827213,1,-7.847687721,1,-0.412943959,1,-0.655946076,1,0.576107144,1,0.50268656,1,-0.494354397,1,1.897171617,1
3.107951164,-3.870762348,1,-3.623865128,1,-8.32705307,1,-0.379500777,1,-0.720312357,1,0.553181469,1,0.500744045,1,-0.497857481,1,1.89792347,1
3.111953259,-5.234658241,1,-3.043664932,1,-9.150286674,1,-0.347426564,1,-0.737250745,1,0.510331154,1,0.499049723,1,-0.501439393,1,1.898435593,1
3.1159513,-6.243220329,1,-2.580670118,1,-9.761193275,1,-0.317097634,1,-0.686948419,1,0.461227238,1,0.497542322,1,-0.504889309,1,1.898831129,1
3.119950771,-6.754671097,1,-1.538498402,1,-9.995225906,1,-0.248583123,1,-0.63789916,1,0.412365288,1,0.496248245,1,-0.508044839,1,1.899148941,1
3.123952389,-6.810231686,1,-1.584534407,1,-9.868153572,1,-0.19461377,1,-0.535738707,1,0.370535254,1,0.495236456,1,-0.510855556,1,1.899436712,1
3.127950191,-5.179643154,1,-1.309065342,1,-9.137635231,1,-0.154357255,1,-0.490931869,1,0.357261956,1,0.494354308,1,-0.513332903,1,1.899796009,1
3.131949663,-5.06761837,1,-1.62158978,1,-8.594964027,1,-0.109809019,1,-0.480503172,1,0.35942924,1,0.493637174,1,-0.515731752,1,1.900184155,1
3.135951281,-4.429804802,1,-2.029499769,1,-8.333797455,1,-0.078557752,1,-0.473732173,1,0.354380846,1,0.493068397,1,-0.518084884,1,1.900592804,1
3.139949083,-4.275473118,1,-2.562153578,1,-8.14851284,1,-0.050066907,1,-0.468561471,1,0.347004652,1,0.492624521,1,-0.520407557,1,1.900985718,1
3.143948793,-4.46281147,1,-3.039167881,1,-8.011976242,1,-0.034588389,1,-0.477374405,1,0.327327102,1,0.492285788,1,-0.522718489,1,1.901319981,1
3.147950411,-5.168859005,1,-3.503905296,1,-8.126024246,1,-0.019914228,1,-0.458145738,1,0.308096468,1,0.489550292,1,-0.533446193,1,1.900879502,1
3.151947975,-5.85162735,1,-3.660875559,1,-8.112427711,1,-0.032417171,1,-0.398428142,1,0.260253161,1,0.489453197,1,-0.535556138,1,1.900455117,1
3.155947447,-5.760369301,1,-3.095692396,1,-8.07646656,1,-0.021253493,1,-0.332126915,1,0.224902242,1,0.489235282,1,-0.537297904,1,1.900658727,1
3.159949064,-4.707859039,1,-3.003242731,1,-7.836394787,1,-0.012098772,1,-0.30482775,1,0.212829053,1,0.489066571,1,-0.538813889,1,1.900851011,1
3.163946867,-4.415935993,1,-2.999720573,1,-7.737279415,1,-0.010430182,1,-0.314511627,1,0.220635742,1,0.488904744,1,-0.540313482,1,1.901079059,1
3.167946577,-5.007237434,1,-2.937389135,1,-8.138406754,1,0.012939501,1,-0.317776918,1,0.204287618,1,0.488809556,1,-0.54184258,1,1.901267886,1
3.171947956,-5.529335976,1,-3.220594883,1,-8.377753258,1,0.021300875,1,-0.273509175,1,0.158563584,1,0.488833994,1,-0.543231964,1,1.901359439,1
3.175945759,-5.239772797,1,-3.223674774,1,-8.090239525,1,0.024208385,1,-0.235691369,1,0.135634646,1,0.488898277,1,-0.5443964,1,1.901411533,1
3.179951429,-4.470411301,1,-3.285229206,1,-7.859990597,1,0.031858124,1,-0.23437199,1,0.123476446,1,0.488991678,1,-0.545470238,1,1.901426792,1
3.183953047,-4.493088245,1,-3.542507887,1,-8.034661293,1,0.039452255,1,-0.249915406,1,0.089794852,1,0.489187121,1,-0.546533406,1,1.901325464,1
3.187951088,-4.612026691,1,-3.854370832,1,-8.033585548,1,0.050948575,1,-0.254213363,1,0.063305788,1,0.489500701,1,-0.547562063,1,1.90108335,1
3.19195056,-4.651425362,1,-3.950809479,1,-7.979693413,1,0.047173806,1,-0.247564942,1,0.042341527,1,0.48986885,1,-0.548542559,1,1.900747776,1
3.195952177,-4.702483654,1,-3.948132753,1,-7.903077126,1,0.040528089,1,-0.239847854,1,0.037495635,1,0.490246117,1,-0.549472451,1,1.900372148,1
3.19994998,-4.816061497,1,-4.001761436,1,-7.837905884,1,0.027784165,1,-0.230889544,1,0.02700459,1,0.490601122,1,-0.550370574,1,1.899980783,1
3.203949451,-4.789951801,1,-3.877111197,1,-7.867667675,1,0.025007758,1,-0.222333252,1,0.021713307,1,0.490920603,1,-0.551224947,1,1.899572849,1
3.207951307,-4.767025948,1,-3.666856289,1,-8.014792442,1,0.014442435,1,-0.212129578,1,0.015075204,1,0.491205245,1,-0.552020371,1,1.899173498,1
3.21194911,-4.784917355,1,-3.562209845,1,-8.107089043,1,0.013187598,1,-0.204560027,1,0.005236502,1,0.491478562,1,-0.552774727,1,1.898750305,1
3.215948582,-4.848156452,1,-3.538776875,1,-8.208315849,1,0.010866214,1,-0.190356672,1,0.00165065,1,0.491760105,1,-0.553486466,1,1.898319006,1
3.219950438,-4.828868389,1,-3.576606512,1,-8.103150368,1,0.000412302,1,-0.176909134,1,-0.004142439,1,0.491987526,1,-0.554136574,1,1.897912025,1
3.223948002,-5.177111626,1,-3.452170134,1,-8.187860489,1,-0.001426762,1,-0.156643465,1,-0.016041029,1,0.492208064,1,-0.554710627,1,1.897500992,1
3.227947474,-4.928745747,1,-3.371499777,1,-8.166441917,1,0.010042656,1,-0.150644034,1,-0.027796561,1,0.492446244,1,-0.555210948,1,1.897065878,1
3.231949329,-4.827421665,1,-3.285828829,1,-8.169800758,1,0.020870421,1,-0.153703928,1,-0.040220294,1,0.492751956,1,-0.555690765,1,1.896579385,1
3.235946894,-4.872174263,1,-3.138705254,1,-8.294656754,1,0.03609493,1,-0.151595369,1,-0.057667259,1,0.493150502,1,-0.556139529,1,1.896033406,1
3.239946842,-4.848419189,1,-2.977001429,1,-8.318613052,1,0.050862536,1,-0.14847967,1,-0.062802501,1,0.493629903,1,-0.556550443,1,1.89545536,1
3.243948221,-4.63777256,1,-2.908881664,1,-8.282892227,1,0.071451977,1,-0.149611935,1,-0.069854409,1,0.494197607,1,-0.556946456,1,1.894841433,1
3.247946024,-4.5747962,1,-2.967995882,1,-8.233008385,1,0.095603339,1,-0.155241191,1,-0.082314782,1,0.494873405,1,-0.557338238,1,1.894184709,1
3.251945734,-4.762332439,1,-3.104161263,1,-8.201127052,1,0.116987862,1,-0.163333237,1,-0.097885422,1,0.495688677,1,-0.557735085,1,1.893450975,1
3.255948067,-4.813411713,1,-3.217563868,1,-8.147690773,1,0.136952177,1,-0.162052289,1,-0.105299227,1,0.49660635,1,-0.558114171,1,1.892665148,1
3.259946585,-4.888654709,1,-3.272989511,1,-8.092465401,1,0.147888049,1,-0.160592318,1,-0.107022405,1,0.497604847,1,-0.558479309,1,1.891861439,1
3.263946295,-4.817124367,1,-3.449710846,1,-8.072093964,1,0.159195796,1,-0.151477531,1,-0.108355738,1,0.4986417,1,-0.558817863,1,1.891065359,1
3.267947674,-4.54419899,1,-3.482163668,1,-8.078296661,1,0.163624644,1,-0.152923524,1,-0.100562803,1,0.499713749,1,-0.559158206,1,1.890275836,1
3.271945715,-4.455323219,1,-3.591760159,1,-8.0804739,1,0.168579802,1,-0.148777127,1,-0.096123941,1,0.500780225,1,-0.559498847,1,1.889529705,1
3.275945187,-4.534743786,1,-3.713325977,1,-8.018819809,1,0.162965506,1,-0.145422041,1,-0.077625923,1,0.501808763,1,-0.559846401,1,1.888837576,1
3.279946804,-4.751821995,1,-3.812524319,1,-7.901982784,1,0.149600267,1,-0.134371862,1,-0.060385421,1,0.502756536,1,-0.560199857,1,1.888239861,1
3.283944368,-4.873203754,1,-4.000026226,1,-7.850129604,1,0.13376151,1,-0.119627103,1,-0.048515577,1,0.50359118,1,-0.560534596,1,1.887736917,1
3.28794384,-4.936577797,1,-4.092715263,1,-7.804604053,1,0.115264751,1,-0.101250038,1,-0.028556705,1,0.504297078,1,-0.560855091,1,1.88733232,1
3.291945457,-4.894958019,1,-4.219495773,1,-7.73525238,1,0.093596786,1,-0.084224686,1,-0.013120493,1,0.504867375,1,-0.561134338,1,1.887032986,1
3.29594326,-4.872322559,1,-4.33905983,1,-7.68424511,1,0.069344446,1,-0.0691998,1,-0.006822335,1,0.505304217,1,-0.56138283,1,1.886820436,1
3.299948692,-4.881076336,1,-4.356914997,1,-7.619835377,1,0.044212673,1,-0.054366991,1,-0.001282972,1,0.505616784,1,-0.561586559,1,1.886672735,1
3.303950548,-4.953602314,1,-4.39098835,1,-7.596669197,1,0.02341865,1,-0.035261657,1,0.007740723,1,0.505807936,1,-0.561744809,1,1.886575699,1
3.307948351,-4.918034077,1,-4.305080891,1,-7.643827438,1,-0.003524934,1,-0.020235134,1,0.007864489,1,0.505869091,1,-0.561858416,1,1.886538744,1
3.311947823,-4.845317364,1,-4.174835682,1,-7.718612671,1,-0.02401397,1,-0.006712619,1,0.022037311,1,0.505788147,1,-0.561935663,1,1.886575699,1
3.315949678,-4.806632042,1,-4.053073883,1,-7.832780838,1,-0.044076227,1,0.003271599,1,0.026761072,1,0.505609155,1,-0.561998844,1,1.886678219,1
3.319947243,-4.669296741,1,-4.040901184,1,-7.958246231,1,-0.061982773,1,0.003361668,1,0.027628299,1,0.505325675,1,-0.562045157,1,1.886805177,1
3.323946714,-4.691484451,1,-4.000647545,1,-8.008270264,1,-0.088370405,1,0.003322305,1,0.03201174,1,0.504948676,1,-0.562087178,1,1.886940479,1
3.32794857,-4.776604652,1,-4.07830286,1,-7.892701626,1,-0.115514591,1,0.007451118,1,0.028063163,1,0.504479647,1,-0.562128842,1,1.887064576,1
3.331946135,-4.781708241,1,-4.035475731,1,-7.854082108,1,-0.136154234,1,0.013981819,1,0.024355406,1,0.503902555,1,-0.562146068,1,1.887197971,1
3.33594656,-4.701632977,1,-3.944714308,1,-7.786432266,1,-0.153177842,1,0.013274441,1,0.031650502,1,0.503247976,1,-0.562153101,1,1.887347579,1
3.339948177,-4.599925995,1,-3.945999622,1,-7.747571945,1,-0.169904023,1,0.020050654,1,0.053038377,1,0.502489269,1,-0.562167346,1,1.887559652,1
3.34394598,-4.547608376,1,-4.003187656,1,-7.855074883,1,-0.187495679,1,0.032750938,1,0.069788083,1,0.501607358,1,-0.562196493,1,1.887874603,1
3.34794569,-4.601131439,1,-4.14644146,1,-7.832839489,1,-0.203587279,1,0.036765561,1,0.086523212,1,0.500602543,1,-0.562230349,1,1.888278127,1
3.351947308,-4.710820675,1,-4.155573845,1,-7.723278999,1,-0.227573901,1,0.047766309,1,0.093591124,1,0.499497354,1,-0.562254906,1,1.888739228,1
